gyroADC_X,gyroADC_Y,gyroADC_Z,accADC_X,accADC_Y,accADC_Z,GyroX,GyroY,GyroZ,AccX,AccY,AccZ,roll_IMU,pitch_IMU,yaw_IMU,roll_PID,pitch_PID,yaw_PID
-13,33,11,-8,-82,3966,-0.34,1.34,2.40,-0.08,-0.82,39.66,-5.10,-0.40,110.57,3.73,-0.77,-20.00
-1,-27,-15,-5,-400,3965,-0.32,1.04,2.07,-0.05,-4.00,39.65,-5.12,-0.38,110.56,3.49,0.52,-19.61
0,-10,-6,4,-260,3922,-0.28,0.88,1.83,0.04,-2.60,39.22,-5.10,-0.37,110.55,3.45,0.21,-19.89
1,-14,-3,13,-315,3946,-0.25,0.70,1.63,0.13,-3.15,39.46,-5.09,-0.36,110.55,3.41,0.33,-19.97
3,2,8,21,-317,3931,-0.21,0.65,1.51,0.21,-3.17,39.31,-5.07,-0.36,110.54,3.34,0.02,-20.00
4,5,10,1,-346,3918,-0.16,0.61,1.42,0.01,-3.46,39.18,-5.07,-0.34,110.54,3.31,-0.05,-20.00
3,-19,16,25,-366,3927,-0.13,0.43,1.38,0.25,-3.66,39.27,-5.09,-0.34,110.53,3.33,0.49,-20.00
4,-27,14,45,-346,3910,-0.09,0.23,1.32,0.45,-3.46,39.10,-5.09,-0.35,110.53,3.30,0.72,-20.00
-1,-12,10,37,-351,3894,-0.09,0.13,1.25,0.37,-3.51,38.94,-5.09,-0.37,110.52,3.41,0.45,-20.00
0,-14,12,20,-343,3917,-0.08,0.03,1.20,0.20,-3.43,39.17,-5.08,-0.36,110.52,3.37,0.51,-20.00
1,-19,15,24,-350,3931,-0.06,-0.09,1.17,0.24,-3.50,39.31,-5.09,-0.34,110.51,3.36,0.64,-20.00
3,-9,17,28,-339,3907,-0.04,-0.13,1.16,0.28,-3.39,39.07,-5.08,-0.35,110.51,3.30,0.45,-20.00
3,-2,16,23,-341,3907,-0.02,-0.13,1.14,0.23,-3.41,39.07,-5.06,-0.35,110.50,3.28,0.31,-20.00
-2,25,16,31,-336,3919,-0.03,0.03,1.12,0.31,-3.36,39.19,-5.04,-0.36,110.50,3.38,-0.28,-20.00
-2,25,21,26,-352,3921,-0.04,0.18,1.14,0.26,-3.52,39.21,-5.06,-0.36,110.49,3.39,-0.32,-20.00
-3,21,21,7,-361,3933,-0.05,0.29,1.15,0.07,-3.61,39.33,-5.07,-0.34,110.49,3.42,-0.28,-20.00
-4,20,19,20,-360,3926,-0.07,0.39,1.15,0.20,-3.60,39.26,-5.09,-0.34,110.48,3.46,-0.29,-20.00
0,8,17,22,-341,3904,-0.06,0.40,1.14,0.22,-3.41,39.04,-5.07,-0.33,110.48,3.37,-0.05,-20.00
0,9,17,15,-345,3907,-0.06,0.41,1.13,0.15,-3.45,39.07,-5.07,-0.31,110.48,3.36,-0.09,-20.00
-3,22,20,21,-341,3899,-0.07,0.50,1.14,0.21,-3.41,38.99,-5.05,-0.31,110.47,3.41,-0.38,-20.00
-5,23,28,-32,-335,3919,-0.09,0.59,1.20,-0.32,-3.35,39.19,-5.05,-0.29,110.47,3.46,-0.44,-20.00
-4,8,36,15,-318,3900,-0.11,0.58,1.30,0.15,-3.18,39.00,-5.03,-0.28,110.46,3.43,-0.14,-20.00
-18,14,39,45,-178,3990,-0.21,0.61,1.41,0.45,-1.78,39.90,-5.01,-0.28,110.46,3.73,-0.27,-20.00
13,-2,47,54,-387,3955,-0.11,0.54,1.55,0.54,-3.87,39.55,-5.03,-0.29,110.45,3.08,0.09,-20.00
5,-15,67,52,-391,3977,-0.07,0.39,1.81,0.52,-3.91,39.77,-5.04,-0.30,110.44,3.24,0.40,-20.00
0,-1,86,10,-246,3839,-0.06,0.35,2.15,0.10,-2.46,38.39,-5.02,-0.30,110.44,3.33,0.12,-20.00
-2,3,75,-49,-334,3905,-0.07,0.33,2.39,-0.49,-3.34,39.05,-5.02,-0.28,110.43,3.37,0.03,-20.00
-12,3,43,23,-106,3917,-0.13,0.32,2.42,0.23,-1.06,39.17,-5.00,-0.27,110.42,3.58,0.03,-20.00
-1,-4,25,36,-155,3967,-0.13,0.26,2.33,0.36,-1.55,39.67,-4.99,-0.27,110.41,3.35,0.19,-20.00
-1,-13,-42,61,-246,3889,-0.12,0.15,1.84,0.61,-2.46,38.89,-4.97,-0.28,110.40,3.33,0.41,-18.64
0,1,-49,24,-306,3786,-0.11,0.14,1.35,0.24,-3.06,37.86,-4.95,-0.28,110.40,3.30,0.13,-18.35
5,-13,8,7,-583,4069,-0.07,0.05,1.27,0.07,-5.83,40.69,-4.97,-0.28,110.39,3.20,0.44,-20.00
5,-24,27,-7,-466,3925,-0.03,-0.10,1.31,-0.07,-4.66,39.25,-4.99,-0.28,110.38,3.20,0.70,-20.00
-2,3,27,27,-279,3845,-0.04,-0.07,1.34,0.27,-2.79,38.45,-4.97,-0.28,110.38,3.33,0.14,-20.00
-4,16,5,-10,-305,3860,-0.06,0.03,1.24,-0.10,-3.05,38.60,-4.96,-0.27,110.37,3.37,-0.16,-20.00
6,-20,-45,13,-377,3994,-0.02,-0.09,0.84,0.13,-3.77,39.94,-4.98,-0.26,110.37,3.17,0.61,-18.43
1,-26,-46,10,-419,3907,-0.01,-0.24,0.47,0.10,-4.19,39.07,-4.99,-0.26,110.37,3.28,0.77,-18.36
-10,14,-30,93,-328,3873,-0.07,-0.13,0.24,0.93,-3.28,38.73,-4.99,-0.28,110.37,3.52,-0.06,-18.88
-3,20,-27,42,-333,3880,-0.08,0.00,0.05,0.42,-3.33,38.80,-4.99,-0.30,110.37,3.37,-0.21,-18.96
-1,7,-44,26,-351,3952,-0.08,0.05,-0.22,0.26,-3.51,39.52,-5.00,-0.31,110.37,3.34,0.05,-18.35
11,1,-66,-20,-416,3887,-0.00,0.05,-0.60,-0.20,-4.16,38.87,-5.02,-0.30,110.37,3.09,0.17,-17.57
-4,18,-49,29,-501,3889,-0.03,0.15,-0.84,0.29,-5.01,38.89,-5.04,-0.30,110.37,3.41,-0.21,-18.12
-8,22,-43,2,-478,3892,-0.07,0.27,-1.02,0.02,-4.78,38.92,-5.05,-0.30,110.38,3.52,-0.32,-18.30
-7,11,-28,53,-412,3953,-0.11,0.31,-1.09,0.53,-4.12,39.53,-5.07,-0.31,110.38,3.52,-0.11,-18.81
-5,4,-21,42,-401,3949,-0.13,0.30,-1.11,0.42,-4.01,39.49,-5.09,-0.31,110.39,3.50,0.04,-19.04
0,-7,-24,32,-357,3938,-0.12,0.23,-1.14,0.32,-3.57,39.38,-5.10,-0.33,110.39,3.40,0.30,-18.94
0,-5,-30,36,-363,3940,-0.10,0.18,-1.21,0.36,-3.63,39.40,-5.11,-0.34,110.40,3.40,0.28,-18.73
10,-10,-28,21,-420,3923,-0.03,0.10,-1.26,0.21,-4.20,39.23,-5.13,-0.34,110.40,3.19,0.40,-18.79
10,-13,-19,-8,-398,3922,0.03,0.01,-1.25,-0.08,-3.98,39.22,-5.14,-0.33,110.41,3.18,0.48,-19.10
3,14,6,-7,-383,3864,0.05,0.09,-1.09,-0.07,-3.83,38.64,-5.16,-0.32,110.41,3.33,-0.10,-19.96
-3,9,15,-30,-401,3956,0.02,0.14,-0.89,-0.30,-4.01,39.56,-5.17,-0.31,110.41,3.47,-0.02,-20.00
2,-20,1,-20,-376,3922,0.03,0.00,-0.79,-0.20,-3.76,39.22,-5.18,-0.29,110.42,3.37,0.60,-19.83
0,-21,-5,0,-392,3919,0.03,-0.12,-0.74,0.00,-3.92,39.19,-5.19,-0.28,110.42,3.42,0.65,-19.63
2,-45,9,-34,-323,3953,0.04,-0.39,-0.62,-0.34,-3.23,39.53,-5.18,-0.27,110.42,3.37,1.20,-20.00
4,-52,12,-17,-301,3932,0.06,-0.67,-0.48,-0.17,-3.01,39.32,-5.17,-0.26,110.42,3.31,1.41,-20.00
8,-53,16,23,-288,3895,0.10,-0.92,-0.33,0.23,-2.88,38.95,-5.15,-0.27,110.43,3.21,1.50,-20.00
8,-47,19,33,-298,3883,0.14,-1.12,-0.19,0.33,-2.98,38.83,-5.13,-0.28,110.43,3.19,1.44,-20.00
9,-43,45,43,-360,3931,0.18,-1.27,0.11,0.43,-3.60,39.31,-5.14,-0.30,110.42,3.16,1.42,-20.00
11,-51,56,55,-363,3950,0.23,-1.45,0.44,0.55,-3.63,39.50,-5.14,-0.32,110.42,3.10,1.65,-20.00
-7,-69,112,6,-356,3883,0.17,-1.73,1.08,0.06,-3.56,38.83,-5.15,-0.31,110.42,3.49,2.08,-20.00
-11,-30,78,-29,-185,3811,0.08,-1.74,1.45,-0.29,-1.85,38.11,-5.13,-0.31,110.41,3.59,1.29,-20.00
-7,-5,21,-4,-386,3971,0.03,-1.59,1.43,-0.04,-3.86,39.71,-5.14,-0.31,110.41,3.53,0.74,-20.00
-3,-11,18,-3,-335,3963,0.01,-1.50,1.40,-0.03,-3.35,39.63,-5.13,-0.30,110.40,3.44,0.83,-20.00
-3,1,14,3,-348,3930,-0.01,-1.35,1.34,0.03,-3.48,39.30,-5.12,-0.29,110.39,3.45,0.53,-20.00
-2,-9,16,4,-339,3964,-0.02,-1.27,1.31,0.04,-3.39,39.64,-5.11,-0.28,110.39,3.42,0.71,-20.00
3,-50,17,33,-346,3930,-0.00,-1.44,1.28,0.33,-3.46,39.30,-5.10,-0.30,110.38,3.31,1.61,-20.00
1,-53,17,61,-302,3868,0.01,-1.62,1.25,0.61,-3.02,38.68,-5.09,-0.32,110.38,3.34,1.73,-20.00
-2,-27,18,51,-387,3900,-0.01,-1.63,1.24,0.51,-3.87,39.00,-5.11,-0.33,110.37,3.41,1.21,-20.00
-3,-20,16,47,-372,3915,-0.02,-1.59,1.21,0.47,-3.72,39.15,-5.12,-0.35,110.37,3.45,1.07,-20.00
-2,-6,6,19,-355,3921,-0.03,-1.46,1.13,0.19,-3.55,39.21,-5.13,-0.34,110.36,3.44,0.75,-20.00
-2,-5,5,12,-347,3940,-0.04,-1.35,1.05,0.12,-3.47,39.40,-5.12,-0.33,110.36,3.43,0.69,-20.00
0,4,10,43,-345,3895,-0.04,-1.19,1.00,0.43,-3.45,38.95,-5.12,-0.36,110.35,3.39,0.48,-20.00
1,8,10,41,-339,3896,-0.03,-1.02,0.96,0.41,-3.39,38.96,-5.11,-0.38,110.35,3.36,0.36,-20.00
1,4,9,39,-344,3927,-0.02,-0.89,0.92,0.39,-3.44,39.27,-5.10,-0.40,110.34,3.35,0.42,-20.00
0,3,7,45,-352,3924,-0.02,-0.79,0.87,0.45,-3.52,39.24,-5.10,-0.42,110.34,3.37,0.43,-20.00
-2,9,-2,46,-343,3894,-0.03,-0.65,0.77,0.46,-3.43,38.94,-5.10,-0.44,110.34,3.41,0.28,-19.87
-5,15,-1,22,-363,3904,-0.06,-0.50,0.69,0.22,-3.63,39.04,-5.11,-0.43,110.33,3.49,0.11,-19.90
-3,-17,-1,21,-342,3948,-0.07,-0.55,0.61,0.21,-3.42,39.48,-5.10,-0.42,110.33,3.45,0.77,-19.89
4,-15,0,34,-391,3961,-0.04,-0.59,0.55,0.34,-3.91,39.61,-5.12,-0.42,110.33,3.31,0.75,-19.92
1,-12,27,60,-410,3902,-0.03,-0.60,0.66,0.60,-4.10,39.02,-5.13,-0.44,110.33,3.38,0.70,-20.00
-16,15,59,75,-394,3869,-0.12,-0.45,0.96,0.75,-3.94,38.69,-5.15,-0.45,110.32,3.76,0.11,-20.00
-7,-9,61,74,-239,3967,-0.15,-0.46,1.23,0.74,-2.39,39.67,-5.13,-0.46,110.32,3.57,0.61,-20.00
0,-24,56,45,-274,3945,-0.14,-0.56,1.45,0.45,-2.74,39.45,-5.11,-0.46,110.31,3.41,0.95,-20.00
-3,10,18,30,-331,3889,-0.14,-0.44,1.42,0.30,-3.31,38.89,-5.10,-0.46,110.30,3.46,0.22,-20.00
-2,19,11,53,-335,3914,-0.14,-0.28,1.34,0.53,-3.35,39.14,-5.09,-0.48,110.30,3.44,0.01,-20.00
3,26,14,14,-346,3935,-0.11,-0.10,1.29,0.14,-3.46,39.35,-5.08,-0.46,110.29,3.32,-0.20,-20.00
4,25,13,7,-342,3932,-0.07,0.07,1.24,0.07,-3.42,39.32,-5.08,-0.44,110.29,3.29,-0.24,-20.00
3,24,8,31,-351,3913,-0.05,0.21,1.17,0.31,-3.51,39.13,-5.10,-0.44,110.28,3.32,-0.25,-20.00
4,22,7,35,-350,3910,-0.02,0.32,1.09,0.35,-3.50,39.10,-5.10,-0.46,110.28,3.29,-0.23,-20.00
3,11,5,41,-334,3895,0.00,0.35,1.01,0.41,-3.34,38.95,-5.09,-0.47,110.28,3.30,-0.01,-20.00
3,13,4,50,-352,3900,0.02,0.40,0.94,0.50,-3.52,39.00,-5.09,-0.48,110.27,3.29,-0.05,-20.00
-6,33,-6,53,-301,3938,-0.02,0.56,0.81,0.53,-3.01,39.38,-5.07,-0.49,110.27,3.48,-0.50,-19.73
-10,33,-7,44,-344,3914,-0.08,0.71,0.68,0.44,-3.44,39.14,-5.07,-0.50,110.27,3.57,-0.53,-19.68
-2,27,-11,38,-322,3941,-0.08,0.80,0.55,0.38,-3.22,39.41,-5.05,-0.50,110.27,3.40,-0.44,-19.53
0,17,-10,23,-310,3936,-0.07,0.82,0.43,0.23,-3.10,39.36,-5.03,-0.49,110.26,3.34,-0.24,-19.55
9,-9,1,-16,-409,3908,-0.01,0.69,0.40,-0.16,-4.09,39.08,-5.05,-0.48,110.26,3.15,0.31,-19.92
6,-8,10,-13,-408,3891,0.03,0.57,0.42,-0.13,-4.08,38.91,-5.06,-0.47,110.26,3.21,0.32,-20.00
3,9,17,26,-333,3918,0.04,0.57,0.48,0.26,-3.33,39.18,-5.05,-0.46,110.26,3.26,-0.04,-20.00
-6,12,16,30,-364,3954,0.00,0.58,0.53,0.30,-3.64,39.54,-5.06,-0.45,110.26,3.46,-0.10,-20.00
2,-1,15,31,-360,3919,0.01,0.52,0.57,0.31,-3.60,39.19,-5.08,-0.45,110.26,3.31,0.18,-20.00
2,5,13,36,-346,3913,0.02,0.50,0.59,0.36,-3.46,39.13,-5.08,-0.46,110.25,3.30,0.07,-20.00
2,-10,17,45,-347,3923,0.03,0.39,0.63,0.45,-3.47,39.23,-5.07,-0.48,110.25,3.30,0.42,-20.00
3,-9,20,21,-374,3915,0.05,0.29,0.69,0.21,-3.74,39.15,-5.09,-0.47,110.25,3.29,0.41,-20.00
0,-8,8,0,-367,3917,0.04,0.21,0.67,0.00,-3.67,39.17,-5.10,-0.45,110.25,3.35,0.40,-20.00
-1,-4,4,10,-382,3924,0.03,0.17,0.63,0.10,-3.82,39.24,-5.11,-0.44,110.24,3.39,0.33,-20.00
0,-3,-2,13,-340,3935,0.03,0.13,0.55,0.13,-3.40,39.35,-5.10,-0.43,110.24,3.36,0.31,-19.83
1,-3,-1,27,-356,3929,0.03,0.10,0.49,0.27,-3.56,39.29,-5.12,-0.42,110.24,3.35,0.31,-19.86
-2,-2,3,45,-345,3900,0.02,0.08,0.46,0.45,-3.45,39.00,-5.11,-0.44,110.24,3.41,0.31,-19.99
-3,-3,4,47,-348,3909,-0.00,0.05,0.44,0.47,-3.48,39.09,-5.11,-0.45,110.24,3.44,0.35,-20.00
-5,14,8,44,-372,3872,-0.03,0.13,0.44,0.44,-3.72,38.72,-5.13,-0.46,110.23,3.50,-0.02,-20.00
-9,21,15,26,-340,3916,-0.08,0.25,0.49,0.26,-3.40,39.16,-5.11,-0.45,110.23,3.58,-0.20,-20.00
-3,7,25,14,-349,3936,-0.09,0.27,0.60,0.14,-3.49,39.36,-5.11,-0.43,110.23,3.46,0.07,-20.00
-4,9,27,16,-348,3913,-0.11,0.29,0.70,0.16,-3.48,39.13,-5.11,-0.41,110.23,3.48,0.01,-20.00
-4,18,40,20,-349,3919,-0.12,0.37,0.87,0.20,-3.49,39.19,-5.11,-0.39,110.22,3.48,-0.21,-20.00
-2,14,56,47,-323,3913,-0.12,0.42,1.13,0.47,-3.23,39.13,-5.09,-0.40,110.22,3.43,-0.13,-20.00
-5,15,74,51,-239,3909,-0.14,0.47,1.47,0.51,-2.39,39.09,-5.07,-0.40,110.21,3.49,-0.17,-20.00
6,2,86,98,-268,4062,-0.09,0.44,1.84,0.98,-2.68,40.62,-5.06,-0.41,110.21,3.24,0.11,-20.00
13,-10,87,67,-231,3750,-0.00,0.33,2.19,0.67,-2.31,37.50,-5.04,-0.42,110.20,3.06,0.39,-20.00
0,33,73,79,-341,3772,-0.00,0.50,2.42,0.79,-3.41,37.72,-5.05,-0.43,110.19,3.33,-0.52,-20.00
-9,91,27,122,-310,4024,-0.06,1.01,2.34,1.22,-3.10,40.24,-5.04,-0.44,110.18,3.52,-1.83,-20.00
-5,11,44,43,-281,3849,-0.08,0.97,2.37,0.43,-2.81,38.49,-5.02,-0.44,110.17,3.44,-0.20,-20.00
0,16,-10,83,-344,4009,-0.07,0.97,2.08,0.83,-3.44,40.09,-5.02,-0.46,110.16,3.33,-0.29,-19.71
-5,-8,5,77,-291,3974,-0.10,0.83,1.90,0.77,-2.91,39.74,-5.00,-0.46,110.16,3.43,0.24,-20.00
13,-35,8,-80,-454,3894,-0.01,0.53,1.76,-0.80,-4.54,38.94,-5.02,-0.45,110.15,3.05,0.86,-20.00
3,-30,11,-27,-403,3895,0.01,0.29,1.65,-0.27,-4.03,38.95,-5.03,-0.43,110.14,3.26,0.82,-20.00
1,-12,26,-58,-336,3921,0.02,0.19,1.64,-0.58,-3.36,39.21,-5.03,-0.42,110.14,3.29,0.47,-20.00
8,-14,22,-7,-339,3933,0.06,0.09,1.61,-0.07,-3.39,39.33,-5.03,-0.40,110.13,3.14,0.52,-20.00
1,-45,63,4,-420,3920,0.06,-0.20,1.84,0.04,-4.20,39.20,-5.04,-0.39,110.12,3.29,1.23,-20.00
-3,-40,54,-86,-389,3852,0.04,-0.42,1.98,-0.86,-3.89,38.52,-5.05,-0.38,110.11,3.38,1.18,-20.00
-9,24,-2,-30,-369,3946,-0.02,-0.23,1.77,-0.30,-3.69,39.46,-5.06,-0.36,110.11,3.53,-0.19,-19.94
-3,7,-7,-57,-385,3965,-0.04,-0.17,1.55,-0.57,-3.85,39.65,-5.06,-0.34,110.10,3.41,0.13,-19.74
0,-4,-4,-18,-368,3912,-0.03,-0.17,1.37,-0.18,-3.68,39.12,-5.07,-0.33,110.09,3.36,0.34,-19.82
-1,1,-3,-11,-364,3921,-0.04,-0.15,1.22,-0.11,-3.64,39.21,-5.08,-0.31,110.09,3.38,0.22,-19.84
0,6,-8,11,-347,3905,-0.03,-0.10,1.05,0.11,-3.47,39.05,-5.08,-0.29,110.09,3.36,0.10,-19.65
1,10,-10,18,-347,3889,-0.02,-0.03,0.88,0.18,-3.47,38.89,-5.09,-0.28,110.08,3.35,-0.01,-19.57
-1,-3,-6,32,-345,3921,-0.03,-0.04,0.76,0.32,-3.45,39.21,-5.09,-0.29,110.08,3.38,0.27,-19.69
6,-5,-4,52,-380,3958,0.01,-0.07,0.66,0.52,-3.80,39.58,-5.10,-0.31,110.08,3.24,0.32,-19.75
5,-12,3,38,-303,3873,0.04,-0.14,0.61,0.38,-3.03,38.73,-5.08,-0.31,110.07,3.24,0.49,-19.98
3,0,3,50,-326,3858,0.06,-0.12,0.57,0.50,-3.26,38.58,-5.07,-0.33,110.07,3.27,0.25,-19.97
0,17,11,-14,-362,3958,0.05,-0.01,0.58,-0.14,-3.62,39.58,-5.08,-0.31,110.07,3.34,-0.14,-20.00
1,2,16,4,-340,3952,0.05,0.01,0.62,0.04,-3.40,39.52,-5.07,-0.30,110.07,3.31,0.15,-20.00
-11,21,1,21,-339,3915,-0.02,0.13,0.56,0.21,-3.39,39.15,-5.05,-0.30,110.07,3.56,-0.27,-19.90
-5,34,-5,13,-350,3893,-0.05,0.33,0.47,0.13,-3.50,38.93,-5.06,-0.28,110.06,3.45,-0.59,-19.69
-4,16,-13,-15,-375,3941,-0.07,0.39,0.35,-0.15,-3.75,39.41,-5.07,-0.27,110.06,3.45,-0.26,-19.41
-3,16,-12,-7,-376,3901,-0.08,0.45,0.24,-0.07,-3.76,39.01,-5.09,-0.25,110.06,3.44,-0.28,-19.43
6,2,-4,1,-422,3967,-0.04,0.42,0.19,0.01,-4.22,39.67,-5.10,-0.25,110.06,3.26,0.01,-19.70
8,-15,-1,-2,-363,3965,0.02,0.28,0.17,-0.02,-3.63,39.65,-5.11,-0.23,110.06,3.21,0.38,-19.79
7,-16,10,67,-407,3867,0.06,0.16,0.21,0.67,-4.07,38.67,-5.12,-0.24,110.06,3.22,0.44,-20.00
13,-7,22,44,-565,3827,0.13,0.10,0.32,0.44,-5.65,38.27,-5.14,-0.24,110.06,3.09,0.27,-20.00
-6,24,166,10,-788,3998,0.08,0.24,1.30,0.10,-7.88,39.98,-5.16,-0.24,110.05,3.51,-0.39,-20.00
-20,14,290,2,-644,3913,-0.05,0.30,2.94,0.02,-6.44,39.13,-5.18,-0.24,110.04,3.84,-0.21,-20.00
7,-12,447,-36,-265,3808,-0.00,0.20,5.37,-0.36,-2.65,38.08,-5.16,-0.22,110.02,3.27,0.34,-20.00
-8,-14,429,67,-183,4006,-0.05,0.09,7.45,0.67,-1.83,40.06,-5.15,-0.23,109.99,3.57,0.41,-20.00
-2,-28,310,-185,212,3818,-0.06,-0.09,8.60,-1.85,2.12,38.18,-5.13,-0.22,109.96,3.44,0.74,-20.00
-9,-8,228,-88,187,3855,-0.11,-0.13,9.13,-0.88,1.87,38.55,-5.11,-0.21,109.92,3.59,0.34,-20.00
2,9,52,-39,-333,3990,-0.08,-0.06,8.53,-0.39,-3.33,39.90,-5.10,-0.19,109.89,3.35,-0.04,-20.00
-3,14,48,8,-328,3957,-0.09,0.03,7.97,0.08,-3.28,39.57,-5.09,-0.18,109.85,3.44,-0.17,-20.00
6,28,21,5,-347,3897,-0.05,0.20,7.30,0.05,-3.47,38.97,-5.09,-0.16,109.82,3.25,-0.52,-20.00
5,34,20,-5,-372,3897,-0.01,0.39,6.70,-0.05,-3.72,38.97,-5.10,-0.15,109.80,3.27,-0.70,-20.00
4,23,17,-39,-368,3967,0.01,0.49,6.13,-0.39,-3.68,39.67,-5.11,-0.13,109.77,3.29,-0.52,-20.00
3,9,18,0,-353,3930,0.03,0.49,5.63,0.00,-3.53,39.30,-5.11,-0.10,109.75,3.30,-0.25,-20.00
-7,34,7,1,-321,3852,-0.02,0.65,5.11,0.01,-3.21,38.52,-5.09,-0.10,109.73,3.51,-0.81,-20.00
-7,55,-9,17,-329,3873,-0.06,0.92,4.54,0.17,-3.29,38.73,-5.08,-0.10,109.71,3.51,-1.30,-19.92
1,23,-12,21,-428,3963,-0.04,0.97,4.01,0.21,-4.28,39.63,-5.10,-0.10,109.70,3.36,-0.67,-19.76
3,16,-7,24,-398,3910,-0.02,0.97,3.57,0.24,-3.98,39.10,-5.11,-0.10,109.68,3.32,-0.52,-19.88
6,18,-11,24,-378,3956,0.02,0.98,3.15,0.24,-3.78,39.56,-5.13,-0.10,109.67,3.26,-0.56,-19.70
3,10,-10,20,-357,3917,0.03,0.95,2.77,0.20,-3.57,39.17,-5.14,-0.12,109.66,3.32,-0.38,-19.69
-1,-3,10,-40,-386,3896,0.02,0.83,2.55,-0.40,-3.86,38.96,-5.15,-0.10,109.65,3.41,-0.10,-20.00
-2,-1,14,-38,-363,3915,0.01,0.74,2.38,-0.38,-3.63,39.15,-5.15,-0.08,109.64,3.44,-0.13,-20.00
0,2,18,-28,-350,3946,0.01,0.68,2.26,-0.28,-3.50,39.46,-5.15,-0.05,109.63,3.40,-0.19,-20.00
1,1,22,-17,-343,3892,0.01,0.62,2.16,-0.17,-3.43,38.92,-5.14,-0.03,109.62,3.37,-0.17,-20.00
5,5,52,-48,-405,3875,0.04,0.59,2.27,-0.48,-4.05,38.75,-5.16,-0.02,109.62,3.29,-0.25,-20.00
6,10,71,-70,-442,3895,0.08,0.59,2.47,-0.70,-4.42,38.95,-5.17,-0.00,109.61,3.27,-0.36,-20.00
-2,5,124,-58,-394,3896,0.06,0.56,2.98,-0.58,-3.94,38.96,-5.18,0.01,109.59,3.44,-0.26,-20.00
0,6,120,-65,-387,3913,0.05,0.54,3.41,-0.65,-3.87,39.13,-5.19,0.03,109.58,3.41,-0.29,-20.00
0,14,77,-46,-328,3895,0.04,0.57,3.54,-0.46,-3.28,38.95,-5.18,0.05,109.57,3.41,-0.48,-20.00
10,15,69,-10,-388,3897,0.10,0.61,3.61,-0.10,-3.88,38.97,-5.20,0.06,109.55,3.20,-0.51,-20.00
0,6,114,-73,-437,3817,0.09,0.58,3.94,-0.73,-4.37,38.17,-5.21,0.07,109.54,3.41,-0.33,-20.00
-3,9,126,-63,-434,3993,0.06,0.58,4.32,-0.63,-4.34,39.93,-5.22,0.09,109.52,3.49,-0.40,-20.00
-2,14,112,-71,-380,3886,0.05,0.61,4.57,-0.71,-3.80,38.86,-5.23,0.11,109.50,3.48,-0.52,-20.00
0,4,120,-11,-310,3901,0.04,0.57,4.84,-0.11,-3.10,39.01,-5.21,0.12,109.48,3.43,-0.31,-20.00
-5,5,132,-29,-331,3840,0.01,0.54,5.17,-0.29,-3.31,38.40,-5.20,0.13,109.46,3.53,-0.34,-20.00
8,10,136,-50,-269,3894,0.05,0.55,5.48,-0.50,-2.69,38.94,-5.18,0.15,109.44,3.24,-0.45,-20.00
1,13,151,8,-335,3938,0.06,0.58,5.85,0.08,-3.35,39.38,-5.17,0.14,109.42,3.38,-0.51,-20.00
-8,4,142,1,-364,3960,0.00,0.54,6.13,0.01,-3.64,39.60,-5.18,0.13,109.39,3.58,-0.31,-20.00
-1,7,113,-77,-355,3980,-0.01,0.53,6.21,-0.77,-3.55,39.80,-5.18,0.15,109.37,3.44,-0.39,-20.00
8,15,117,39,-383,3898,0.04,0.57,6.30,0.39,-3.83,38.98,-5.18,0.14,109.34,3.25,-0.55,-20.00
-2,17,154,-44,-455,3844,0.03,0.62,6.61,-0.44,-4.55,38.44,-5.20,0.15,109.32,3.47,-0.61,-20.00
3,19,172,-31,-327,3951,0.04,0.67,7.00,-0.31,-3.27,39.51,-5.19,0.16,109.29,3.35,-0.68,-20.00
1,8,210,44,-347,3918,0.04,0.65,7.58,0.44,-3.47,39.18,-5.18,0.15,109.26,3.39,-0.44,-20.00
-8,8,214,-37,-417,3959,-0.01,0.64,8.13,-0.37,-4.17,39.59,-5.20,0.17,109.23,3.60,-0.44,-20.00
-6,12,189,-34,-333,3934,-0.04,0.65,8.47,-0.34,-3.33,39.34,-5.19,0.18,109.20,3.56,-0.54,-20.00
-3,9,182,-66,-374,3932,-0.06,0.64,8.73,-0.66,-3.74,39.32,-5.19,0.21,109.16,3.50,-0.49,-20.00
3,13,169,25,-452,3877,-0.03,0.65,8.89,0.25,-4.52,38.77,-5.21,0.21,109.13,3.39,-0.58,-20.00
-7,20,166,-40,-562,3863,-0.07,0.71,9.01,-0.40,-5.62,38.63,-5.23,0.21,109.09,3.61,-0.74,-20.00
-6,8,227,21,-375,3833,-0.10,0.69,9.50,0.21,-3.75,38.33,-5.24,0.20,109.05,3.61,-0.48,-20.00
-1,11,249,56,-264,3912,-0.10,0.68,10.07,0.56,-2.64,39.12,-5.22,0.20,109.01,3.49,-0.54,-20.00
0,-6,294,144,-213,3852,-0.09,0.58,10.85,1.44,-2.13,38.52,-5.21,0.19,108.97,3.46,-0.16,-20.00
-8,-18,286,61,-203,3973,-0.13,0.41,11.51,0.61,-2.03,39.73,-5.20,0.19,108.92,3.63,0.13,-20.00
-5,-15,223,25,-242,3962,-0.15,0.28,11.72,0.25,-2.42,39.62,-5.18,0.19,108.88,3.56,0.10,-20.00
0,-5,193,50,-355,3941,-0.13,0.22,11.73,0.50,-3.55,39.41,-5.18,0.18,108.83,3.45,-0.08,-20.00
4,19,202,96,-491,3946,-0.09,0.31,11.79,0.96,-4.91,39.46,-5.19,0.17,108.78,3.37,-0.59,-20.00
6,27,208,115,-514,3882,-0.05,0.45,11.88,1.15,-5.14,38.82,-5.21,0.17,108.74,3.33,-0.78,-20.00
4,41,271,27,-539,3922,-0.02,0.65,12.34,0.27,-5.39,39.22,-5.22,0.17,108.69,3.37,-1.12,-20.00
3,36,290,51,-534,3984,0.00,0.81,12.88,0.51,-5.34,39.84,-5.24,0.17,108.64,3.40,-1.06,-20.00
-8,27,395,25,-601,3752,-0.05,0.89,14.00,0.25,-6.01,37.52,-5.26,0.18,108.58,3.65,-0.91,-20.00
11,33,398,-71,-641,4004,0.02,1.00,15.03,-0.71,-6.41,40.04,-5.28,0.19,108.52,3.25,-1.07,-20.00
16,28,473,-162,-487,3869,0.12,1.07,16.41,-1.62,-4.87,38.69,-5.29,0.21,108.46,3.13,-1.00,-20.00
-18,0,487,-95,-402,4206,-0.00,0.97,17.74,-0.95,-4.02,42.06,-5.29,0.24,108.39,3.86,-0.42,-20.00
-4,13,535,62,-306,4044,-0.03,0.95,19.23,0.62,-3.06,40.44,-5.28,0.24,108.31,3.57,-0.68,-20.00
-8,12,553,115,-379,3782,-0.07,0.93,20.68,1.15,-3.79,37.82,-5.28,0.23,108.23,3.67,-0.65,-20.00
-10,11,579,35,-370,3779,-0.13,0.90,22.14,0.35,-3.70,37.79,-5.29,0.23,108.14,3.73,-0.62,-20.00
-4,28,564,-8,-347,4032,-0.14,0.98,23.37,-0.08,-3.47,40.32,-5.27,0.24,108.05,3.60,-0.99,-20.00
-29,19,546,-24,-391,3905,-0.30,1.00,24.36,-0.24,-3.91,39.05,-5.29,0.25,107.95,4.16,-0.83,-20.00
-15,15,540,-58,-342,3988,-0.36,0.99,25.22,-0.58,-3.42,39.88,-5.28,0.28,107.85,3.89,-0.76,-20.00
-28,19,517,-2,-277,3826,-0.50,1.01,25.85,-0.02,-2.77,38.26,-5.27,0.29,107.75,4.18,-0.85,-20.00
12,30,512,-12,-214,4038,-0.37,1.09,26.39,-0.12,-2.14,40.38,-5.25,0.30,107.64,3.32,-1.11,-20.00
4,32,501,-43,-211,4032,-0.31,1.18,26.81,-0.43,-2.11,40.32,-5.23,0.32,107.54,3.46,-1.18,-20.00
-21,-10,505,54,-217,4006,-0.41,1.00,27.21,0.54,-2.17,40.06,-5.22,0.33,107.43,3.98,-0.28,-20.00
-9,-4,501,57,-207,3958,-0.42,0.87,27.54,0.57,-2.07,39.58,-5.20,0.33,107.32,3.73,-0.38,-20.00
-10,3,481,-3,-223,3921,-0.44,0.80,27.72,-0.03,-2.23,39.21,-5.18,0.34,107.21,3.74,-0.51,-20.00
-11,-1,427,1,-242,4013,-0.46,0.72,27.55,0.01,-2.42,40.13,-5.17,0.35,107.10,3.76,-0.41,-20.00
5,0,413,7,-243,3920,-0.39,0.65,27.32,0.07,-2.43,39.20,-5.15,0.36,106.99,3.40,-0.41,-20.00
8,13,406,-63,-324,3881,-0.30,0.66,27.06,-0.63,-3.24,38.81,-5.14,0.39,106.88,3.31,-0.70,-20.00
-2,5,417,-56,-379,3903,-0.28,0.63,26.90,-0.56,-3.79,39.03,-5.15,0.41,106.78,3.52,-0.54,-20.00
-11,-1,388,3,-349,3949,-0.32,0.56,26.58,0.03,-3.49,39.49,-5.15,0.41,106.67,3.71,-0.40,-20.00
-8,6,376,-60,-379,3914,-0.34,0.54,26.21,-0.60,-3.79,39.14,-5.16,0.43,106.57,3.66,-0.55,-20.00
-15,-6,365,-180,-397,3848,-0.40,0.45,25.82,-1.80,-3.97,38.48,-5.17,0.46,106.46,3.82,-0.30,-20.00
-16,4,351,-130,-382,3895,-0.45,0.43,25.38,-1.30,-3.82,38.95,-5.17,0.49,106.36,3.86,-0.52,-20.00
0,14,326,-25,-345,3878,-0.41,0.47,24.83,-0.25,-3.45,38.78,-5.16,0.48,106.26,3.52,-0.73,-20.00
-8,0,341,23,-239,3896,-0.42,0.42,24.43,0.23,-2.39,38.96,-5.15,0.49,106.17,3.67,-0.44,-20.00
3,-5,341,-61,-257,3894,-0.36,0.35,24.06,-0.61,-2.57,38.94,-5.13,0.50,106.07,3.42,-0.33,-20.00
-17,-11,339,-99,-299,3840,-0.42,0.25,23.72,-0.99,-2.99,38.40,-5.12,0.53,105.98,3.84,-0.19,-20.00
-10,-8,298,-97,-350,3797,-0.44,0.17,23.17,-0.97,-3.50,37.97,-5.13,0.55,105.88,3.71,-0.25,-20.00
-18,-14,300,-110,-445,3998,-0.51,0.07,22.68,-1.10,-4.45,39.98,-5.14,0.57,105.79,3.90,-0.11,-20.00
-13,-30,313,-72,-438,4049,-0.54,-0.12,22.32,-0.72,-4.38,40.49,-5.16,0.59,105.71,3.82,0.25,-20.00
-17,-47,316,-55,-486,4006,-0.59,-0.39,22.02,-0.55,-4.86,40.06,-5.18,0.60,105.62,3.92,0.67,-20.00
-30,-29,390,3,-365,4142,-0.71,-0.53,22.20,0.03,-3.65,41.42,-5.18,0.58,105.53,4.22,0.35,-20.00
-11,-24,406,47,-400,3879,-0.71,-0.62,22.45,0.47,-4.00,38.79,-5.19,0.57,105.44,3.84,0.28,-20.00
-8,-11,491,2,-349,3910,-0.69,-0.63,23.20,0.02,-3.49,39.10,-5.19,0.56,105.35,3.77,0.02,-20.00
0,32,527,120,-323,3927,-0.62,-0.37,24.10,1.20,-3.23,39.27,-5.18,0.55,105.25,3.59,-0.91,-20.00
-3,44,632,253,-353,3948,-0.57,-0.07,25.54,2.53,-3.53,39.48,-5.19,0.54,105.15,3.64,-1.23,-20.00
-2,33,676,47,-322,3797,-0.53,0.14,27.11,0.47,-3.22,37.97,-5.18,0.53,105.04,3.60,-1.06,-20.00
-6,-24,774,181,-376,3936,-0.51,-0.02,29.12,1.81,-3.76,39.36,-5.18,0.53,104.92,3.68,0.15,-20.00
-12,-33,793,77,-380,3922,-0.53,-0.22,31.05,0.77,-3.80,39.22,-5.19,0.52,104.80,3.81,0.39,-20.00
-16,18,855,-110,-388,3848,-0.58,-0.09,33.16,-1.10,-3.88,38.48,-5.20,0.55,104.67,3.91,-0.70,-20.00
-6,60,862,-153,-360,3861,-0.56,0.29,35.10,-1.53,-3.60,38.61,-5.20,0.58,104.53,3.71,-1.68,-20.00
-2,70,870,4,-364,4136,-0.51,0.69,36.90,0.04,-3.64,41.36,-5.20,0.58,104.38,3.61,-1.99,-20.00
-27,39,862,72,-362,3931,-0.63,0.86,38.47,0.72,-3.62,39.31,-5.20,0.58,104.23,4.15,-1.41,-20.00
-10,31,824,147,-397,3961,-0.63,0.96,39.65,1.47,-3.97,39.61,-5.20,0.58,104.07,3.81,-1.27,-20.00
-26,30,801,102,-402,3825,-0.72,1.05,40.57,1.02,-4.02,38.25,-5.21,0.58,103.91,4.16,-1.28,-20.00
5,18,749,157,-407,3793,-0.62,1.05,41.08,1.57,-4.07,37.93,-5.22,0.58,103.75,3.51,-1.04,-20.00
-22,0,730,67,-398,4000,-0.69,0.95,41.42,0.67,-3.98,40.00,-5.22,0.58,103.58,4.08,-0.64,-20.00
-4,-23,703,-200,-395,3958,-0.65,0.71,41.57,-2.00,-3.95,39.58,-5.23,0.62,103.42,3.71,-0.13,-20.00
-25,-36,698,-261,-454,3885,-0.73,0.42,41.67,-2.61,-4.54,38.85,-5.24,0.65,103.25,4.16,0.19,-20.00
-20,-35,653,-190,-324,3933,-0.78,0.17,41.49,-1.90,-3.24,39.33,-5.23,0.68,103.09,4.07,0.21,-20.00
-3,-25,628,-300,-369,3880,-0.72,-0.00,41.17,-3.00,-3.69,38.80,-5.24,0.72,102.92,3.71,0.04,-20.00
2,6,548,-245,-312,3855,-0.64,0.03,40.40,-2.45,-3.12,38.55,-5.23,0.75,102.76,3.59,-0.63,-20.00
-12,12,543,-170,-289,3854,-0.65,0.10,39.67,-1.70,-2.89,38.54,-5.22,0.78,102.60,3.87,-0.79,-20.00
-32,64,516,26,-257,3896,-0.78,0.48,38.85,0.26,-2.57,38.96,-5.21,0.79,102.45,4.30,-1.95,-20.00
-19,34,500,164,-247,4017,-0.82,0.64,38.01,1.64,-2.47,40.17,-5.20,0.79,102.30,4.04,-1.39,-20.00
-9,-27,488,147,-351,3881,-0.79,0.41,37.19,1.47,-3.51,38.81,-5.20,0.78,102.15,3.83,-0.08,-20.00
-8,-18,496,155,-350,3899,-0.76,0.26,36.50,1.55,-3.50,38.99,-5.20,0.78,102.00,3.80,-0.22,-20.00
-16,4,560,401,-348,3947,-0.78,0.26,36.26,4.01,-3.48,39.47,-5.21,0.78,101.86,3.97,-0.66,-20.00
4,8,577,505,-326,3932,-0.68,0.28,36.16,5.05,-3.26,39.32,-5.20,0.77,101.72,3.54,-0.75,-20.00
-31,24,652,459,-526,3883,-0.80,0.40,36.52,4.59,-5.26,38.83,-5.21,0.77,101.57,4.29,-1.10,-20.00
-18,30,666,461,-526,3946,-0.83,0.54,36.93,4.61,-5.26,39.46,-5.22,0.77,101.42,4.04,-1.26,-20.00
-2,49,581,-455,-351,4146,-0.76,0.79,36.78,-4.55,-3.51,41.46,-5.22,0.80,101.28,3.69,-1.74,-20.00
14,28,516,-794,-207,3938,-0.60,0.88,36.25,-7.94,-2.07,39.38,-5.22,0.84,101.13,3.32,-1.36,-20.00
-8,22,268,-918,-27,4088,-0.59,0.93,34.26,-9.18,-0.27,40.88,-5.21,0.87,101.00,3.76,-1.27,-20.00
0,1,114,-360,-123,3860,-0.53,0.84,31.53,-3.60,-1.23,38.60,-5.20,0.90,100.87,3.57,-0.84,-20.00
0,-6,22,-106,-320,3944,-0.48,0.72,28.51,-1.06,-3.20,39.44,-5.19,0.93,100.76,3.55,-0.69,-20.00
-2,-9,23,-62,-323,3920,-0.44,0.59,25.80,-0.62,-3.23,39.20,-5.17,0.94,100.66,3.57,-0.60,-20.00
-4,-3,4,-60,-358,3943,-0.42,0.52,23.24,-0.60,-3.58,39.43,-5.17,0.93,100.56,3.61,-0.69,-20.00
-3,-8,-6,-78,-354,3924,-0.40,0.41,20.88,-0.78,-3.54,39.24,-5.17,0.96,100.48,3.58,-0.58,-20.00
9,-11,-15,14,-363,4010,-0.30,0.31,18.70,0.14,-3.63,40.10,-5.17,0.95,100.41,3.31,-0.48,-19.52
11,-4,-17,6,-476,3919,-0.20,0.25,16.73,0.06,-4.76,39.19,-5.19,0.94,100.34,3.26,-0.61,-19.23
1,4,-77,88,-287,3926,-0.18,0.25,14.59,0.88,-2.87,39.26,-5.18,0.93,100.28,3.45,-0.77,-16.96
11,28,-68,82,-206,3922,-0.09,0.40,12.71,0.82,-2.06,39.22,-5.17,0.93,100.23,3.21,-1.29,-17.06
7,26,-84,39,-476,3881,-0.04,0.52,10.93,0.39,-4.76,38.81,-5.18,0.92,100.19,3.29,-1.28,-16.33
10,19,-109,6,-457,3920,0.02,0.58,9.17,0.06,-4.57,39.20,-5.19,0.92,100.15,3.22,-1.15,-15.29
11,16,-99,-66,-309,3956,0.09,0.62,7.65,-0.66,-3.09,39.56,-5.17,0.92,100.12,3.17,-1.10,-15.47
8,13,-92,-107,-312,3866,0.13,0.64,6.32,-1.07,-3.12,38.66,-5.16,0.94,100.10,3.21,-1.06,-15.56
9,16,-75,-144,-399,3899,0.17,0.67,5.23,-1.44,-3.99,38.99,-5.17,0.96,100.07,3.18,-1.14,-16.02
5,17,-69,-160,-396,3853,0.18,0.71,4.29,-1.60,-3.96,38.53,-5.18,0.98,100.06,3.27,-1.19,-16.12
-8,-21,-35,-116,-426,3847,0.12,0.51,3.65,-1.16,-4.26,38.47,-5.19,1.00,100.04,3.56,-0.37,-17.20
-11,-18,-14,-19,-418,3955,0.04,0.35,3.20,-0.19,-4.18,39.55,-5.21,0.99,100.03,3.65,-0.38,-17.87
-14,-19,83,-212,-337,3874,-0.05,0.20,3.38,-2.12,-3.37,38.74,-5.20,1.01,100.02,3.73,-0.33,-20.00
-12,-22,114,-206,-313,3953,-0.12,0.04,3.74,-2.06,-3.13,39.53,-5.20,1.03,100.00,3.71,-0.24,-20.00
-12,-12,200,-4,-309,3937,-0.18,-0.03,4.59,-0.04,-3.09,39.37,-5.19,1.01,99.98,3.72,-0.42,-20.00
-13,-19,179,-30,-242,3934,-0.24,-0.15,5.22,-0.30,-2.42,39.34,-5.17,1.01,99.96,3.74,-0.24,-20.00
2,-52,168,-218,-343,3942,-0.21,-0.45,5.72,-2.18,-3.43,39.42,-5.17,1.03,99.94,3.43,0.50,-20.00
7,-63,182,-263,-286,3935,-0.14,-0.79,6.26,-2.63,-2.86,39.35,-5.16,1.04,99.92,3.30,0.81,-20.00
1,-52,247,-157,-229,3841,-0.12,-1.03,7.14,-1.57,-2.29,38.41,-5.15,1.05,99.89,3.41,0.64,-20.00
5,-43,258,-138,-238,3871,-0.08,-1.19,8.00,-1.38,-2.38,38.71,-5.13,1.06,99.85,3.31,0.50,-20.00
-5,-12,198,56,-264,3961,-0.10,-1.14,8.41,0.56,-2.64,39.61,-5.12,1.04,99.82,3.51,-0.13,-20.00
1,0,176,-79,-237,3860,-0.09,-1.03,8.64,-0.79,-2.37,38.60,-5.10,1.04,99.78,3.37,-0.41,-20.00
-2,35,114,-75,-339,3862,-0.09,-0.71,8.47,-0.75,-3.39,38.62,-5.09,1.06,99.75,3.42,-1.21,-20.00
-9,39,99,-51,-377,3959,-0.14,-0.40,8.23,-0.51,-3.77,39.59,-5.10,1.04,99.72,3.59,-1.37,-20.00
11,72,27,107,-391,4015,-0.05,0.08,7.57,1.07,-3.91,40.15,-5.10,1.03,99.69,3.16,-2.16,-19.65
-9,70,25,114,-431,3865,-0.10,0.50,6.97,1.14,-4.31,38.65,-5.11,1.02,99.66,3.59,-2.23,-19.51
5,31,36,19,-388,3920,-0.06,0.64,6.49,0.19,-3.88,39.20,-5.12,1.00,99.63,3.29,-1.47,-19.83
3,27,52,23,-370,3843,-0.04,0.74,6.16,0.23,-3.70,38.43,-5.12,0.99,99.61,3.33,-1.40,-20.00
3,15,97,190,-449,3828,-0.02,0.76,6.13,1.90,-4.49,38.28,-5.13,0.98,99.59,3.33,-1.16,-20.00
6,19,116,147,-478,3899,0.02,0.80,6.23,1.47,-4.78,38.99,-5.14,0.97,99.56,3.26,-1.24,-20.00
0,12,184,-100,-450,3955,0.02,0.79,6.73,-1.00,-4.50,39.55,-5.16,0.98,99.54,3.40,-1.11,-20.00
-3,-1,203,-89,-454,3874,-0.00,0.70,7.29,-0.89,-4.54,38.74,-5.17,0.99,99.51,3.48,-0.83,-20.00
-12,6,254,-91,-392,3942,-0.07,0.67,8.11,-0.91,-3.92,39.42,-5.19,1.01,99.48,3.69,-0.97,-20.00
0,3,265,-18,-314,4007,-0.07,0.62,8.92,-0.18,-3.14,40.07,-5.18,1.00,99.44,3.43,-0.89,-20.00
-6,16,323,29,-282,4020,-0.10,0.66,10.00,0.29,-2.82,40.20,-5.16,0.99,99.40,3.56,-1.16,-20.00
-9,17,347,6,-376,3860,-0.14,0.69,11.11,0.06,-3.76,38.60,-5.17,0.98,99.36,3.63,-1.18,-20.00
0,21,374,-22,-402,3911,-0.13,0.75,12.28,-0.22,-4.02,39.11,-5.18,0.98,99.31,3.46,-1.28,-20.00
-6,29,379,-40,-464,3898,-0.15,0.86,13.37,-0.40,-4.64,38.98,-5.20,0.98,99.26,3.60,-1.47,-20.00
3,22,359,-46,-444,3940,-0.12,0.90,14.22,-0.46,-4.44,39.40,-5.22,0.98,99.20,3.41,-1.34,-20.00
-2,17,365,-64,-470,3921,-0.12,0.92,15.02,-0.64,-4.70,39.21,-5.24,0.99,99.14,3.53,-1.25,-20.00
-11,7,451,282,-529,3870,-0.17,0.87,16.27,2.82,-5.29,38.70,-5.24,0.98,99.08,3.73,-1.03,-20.00
0,20,467,227,-545,3975,-0.16,0.90,17.49,2.27,-5.45,39.75,-5.25,0.98,99.01,3.51,-1.30,-20.00
3,19,431,31,-375,3959,-0.12,0.93,18.37,0.31,-3.75,39.59,-5.25,0.97,98.93,3.44,-1.28,-20.00
-9,5,437,-20,-356,3973,-0.16,0.87,19.20,-0.20,-3.56,39.73,-5.25,0.96,98.86,3.69,-0.97,-20.00
-5,3,511,-71,-265,3958,-0.18,0.80,20.40,-0.71,-2.65,39.58,-5.23,0.98,98.78,3.60,-0.92,-20.00
-1,7,538,-114,-238,3935,-0.17,0.76,21.64,-1.14,-2.38,39.35,-5.21,0.99,98.69,3.51,-1.01,-20.00
-8,-14,542,-163,-46,3972,-0.20,0.60,22.78,-1.63,-0.46,39.72,-5.19,1.01,98.60,3.65,-0.54,-20.00
-16,-17,522,-109,-122,3898,-0.28,0.44,23.69,-1.09,-1.22,38.98,-5.18,1.02,98.50,3.82,-0.45,-20.00
-5,-11,264,-137,-52,3943,-0.28,0.33,22.93,-1.37,-0.52,39.43,-5.16,1.04,98.41,3.58,-0.55,-20.00
-5,-7,222,-73,-123,3880,-0.28,0.25,21.99,-0.73,-1.23,38.80,-5.14,1.04,98.32,3.57,-0.62,-20.00
2,12,151,-33,-428,3931,-0.24,0.30,20.71,-0.33,-4.28,39.31,-5.15,1.04,98.24,3.43,-1.01,-20.00
1,11,150,-65,-461,3931,-0.21,0.34,19.56,-0.65,-4.61,39.31,-5.17,1.05,98.17,3.45,-1.01,-20.00
0,13,165,-58,-554,3893,-0.19,0.38,18.61,-0.58,-5.54,38.93,-5.19,1.06,98.09,3.48,-1.07,-20.00
0,14,166,-81,-539,3865,-0.17,0.43,17.76,-0.81,-5.39,38.65,-5.21,1.07,98.02,3.48,-1.11,-20.00
-6,11,208,-3,-458,3909,-0.19,0.45,17.25,-0.03,-4.58,39.09,-5.22,1.07,97.95,3.62,-1.05,-20.00
5,21,227,-57,-523,3875,-0.14,0.54,16.91,-0.57,-5.23,38.75,-5.24,1.07,97.89,3.39,-1.28,-20.00
5,14,289,-132,-596,3890,-0.10,0.57,16.98,-1.32,-5.96,38.90,-5.26,1.09,97.82,3.39,-1.16,-20.00
-4,7,330,-62,-555,3950,-0.11,0.55,17.30,-0.62,-5.55,39.50,-5.27,1.09,97.75,3.59,-1.01,-20.00
-12,8,549,-16,-538,3877,-0.17,0.55,18.92,-0.16,-5.38,38.77,-5.29,1.10,97.68,3.78,-1.04,-20.00
-5,27,604,-26,-535,3838,-0.19,0.66,20.71,-0.26,-5.35,38.38,-5.31,1.10,97.59,3.65,-1.46,-20.00
12,26,795,-26,-444,3938,-0.09,0.75,23.49,-0.26,-4.44,39.38,-5.32,1.10,97.50,3.29,-1.46,-20.00
-12,8,833,44,-397,3941,-0.16,0.72,26.22,0.44,-3.97,39.41,-5.32,1.10,97.40,3.80,-1.08,-20.00
-14,5,751,93,-190,3875,-0.23,0.68,28.18,0.93,-1.90,38.75,-5.31,1.10,97.28,3.85,-1.01,-20.00
-2,21,728,-60,-149,3867,-0.22,0.74,29.80,-0.60,-1.49,38.67,-5.29,1.11,97.17,3.59,-1.36,-20.00
-7,8,648,-140,-148,3913,-0.24,0.72,30.78,-1.40,-1.48,39.13,-5.27,1.13,97.04,3.69,-1.10,-20.00
-19,1,657,-56,-306,3904,-0.33,0.65,31.71,-0.56,-3.06,39.04,-5.25,1.14,96.92,3.94,-0.95,-20.00
-16,16,644,-91,-267,3910,-0.39,0.68,32.46,-0.91,-2.67,39.10,-5.23,1.16,96.79,3.89,-1.27,-20.00
-11,10,632,-112,-292,4036,-0.42,0.68,33.07,-1.12,-2.92,40.36,-5.22,1.18,96.66,3.78,-1.16,-20.00
-9,21,590,-19,-364,3956,-0.44,0.74,33.36,-0.19,-3.64,39.56,-5.22,1.17,96.52,3.74,-1.40,-20.00
-13,14,576,-46,-360,3934,-0.47,0.75,33.54,-0.46,-3.60,39.34,-5.22,1.17,96.39,3.83,-1.26,-20.00
-4,14,509,33,-303,3932,-0.45,0.76,33.29,0.33,-3.03,39.32,-5.21,1.17,96.26,3.64,-1.26,-20.00
-6,6,484,19,-300,3916,-0.44,0.72,32.92,0.19,-3.00,39.16,-5.20,1.17,96.13,3.67,-1.09,-20.00
-16,-1,410,18,-307,3857,-0.49,0.64,32.12,0.18,-3.07,38.57,-5.19,1.17,96.00,3.88,-0.92,-20.00
3,17,386,-2,-293,3844,-0.43,0.68,31.27,-0.02,-2.93,38.44,-5.18,1.16,95.87,3.47,-1.30,-20.00
0,3,311,58,-277,3925,-0.38,0.63,30.04,0.58,-2.77,39.25,-5.17,1.16,95.75,3.51,-1.00,-20.00
-2,1,286,51,-318,3968,-0.36,0.57,28.78,0.51,-3.18,39.68,-5.16,1.16,95.64,3.54,-0.94,-20.00
-5,-3,196,-1,-278,3914,-0.35,0.50,27.10,-0.01,-2.78,39.14,-5.15,1.16,95.53,3.59,-0.84,-20.00
-3,-9,160,-25,-275,3955,-0.34,0.39,25.36,-0.25,-2.75,39.55,-5.13,1.16,95.43,3.54,-0.69,-20.00
0,-4,74,-65,-324,3922,-0.30,0.33,23.28,-0.65,-3.24,39.22,-5.11,1.16,95.34,3.46,-0.77,-20.00
-3,-5,68,-57,-353,3932,-0.29,0.27,21.36,-0.57,-3.53,39.32,-5.11,1.15,95.25,3.52,-0.73,-20.00
-4,3,83,-67,-383,3921,-0.29,0.26,19.73,-0.67,-3.83,39.21,-5.13,1.15,95.17,3.55,-0.89,-20.00
-5,3,90,-54,-386,3925,-0.29,0.25,18.31,-0.54,-3.86,39.25,-5.15,1.15,95.10,3.58,-0.89,-20.00
1,5,115,-51,-381,3898,-0.25,0.26,17.18,-0.51,-3.81,38.98,-5.16,1.14,95.03,3.45,-0.92,-20.00
1,5,121,-55,-375,3927,-0.22,0.26,16.20,-0.55,-3.75,39.27,-5.17,1.13,94.97,3.45,-0.92,-20.00
-3,2,102,-38,-312,3906,-0.22,0.25,15.20,-0.38,-3.12,39.06,-5.16,1.13,94.91,3.52,-0.85,-20.00
-3,-2,96,-69,-285,3902,-0.21,0.21,14.27,-0.69,-2.85,39.02,-5.14,1.13,94.85,3.51,-0.76,-20.00
-2,-6,102,-41,-296,3921,-0.20,0.15,13.46,-0.41,-2.96,39.21,-5.12,1.13,94.80,3.48,-0.66,-20.00
1,-3,111,-1,-347,3925,-0.18,0.12,12.79,-0.01,-3.47,39.25,-5.12,1.11,94.75,3.41,-0.71,-20.00
1,-5,129,-7,-446,3936,-0.15,0.08,12.30,-0.07,-4.46,39.36,-5.14,1.11,94.70,3.41,-0.65,-20.00
0,-1,131,-57,-481,3918,-0.14,0.06,11.87,-0.57,-4.81,39.18,-5.15,1.11,94.65,3.44,-0.73,-20.00
-9,9,169,-105,-409,3880,-0.18,0.11,11.71,-1.05,-4.09,38.80,-5.17,1.12,94.60,3.64,-0.95,-20.00
-8,6,173,-88,-376,3959,-0.21,0.14,11.60,-0.88,-3.76,39.59,-5.19,1.14,94.56,3.64,-0.91,-20.00
-4,10,148,-65,-370,3932,-0.21,0.18,11.34,-0.65,-3.70,39.32,-5.20,1.13,94.51,3.57,-1.00,-20.00
0,12,129,-32,-337,3940,-0.19,0.24,10.99,-0.32,-3.37,39.40,-5.19,1.12,94.47,3.48,-1.05,-20.00
2,12,80,-77,-337,3922,-0.16,0.29,10.38,-0.77,-3.37,39.22,-5.17,1.12,94.43,3.42,-1.06,-20.00
1,12,73,-138,-343,3916,-0.14,0.33,9.79,-1.38,-3.43,39.16,-5.17,1.14,94.39,3.43,-1.09,-20.00
2,17,155,-105,-453,3882,-0.11,0.40,9.76,-1.05,-4.53,38.82,-5.19,1.15,94.35,3.41,-1.22,-20.00
-1,12,170,-19,-518,3891,-0.11,0.44,9.82,-0.19,-5.18,38.91,-5.20,1.15,94.31,3.48,-1.12,-20.00
-1,4,126,-68,-466,3906,-0.10,0.42,9.60,-0.68,-4.66,39.06,-5.22,1.16,94.27,3.49,-0.96,-20.00
-1,-5,119,-79,-497,3957,-0.10,0.34,9.37,-0.79,-4.97,39.57,-5.24,1.16,94.24,3.50,-0.76,-20.00
-1,-3,164,-87,-607,3965,-0.09,0.29,9.43,-0.87,-6.07,39.65,-5.26,1.17,94.20,3.52,-0.79,-20.00
-6,-2,193,-162,-648,3864,-0.12,0.25,9.67,-1.62,-6.48,38.64,-5.27,1.18,94.16,3.64,-0.80,-20.00
-10,10,319,-56,-615,3859,-0.17,0.29,10.65,-0.56,-6.15,38.59,-5.29,1.18,94.12,3.74,-1.06,-20.00
0,1,350,-102,-550,3994,-0.15,0.26,11.72,-1.02,-5.50,39.94,-5.31,1.19,94.07,3.55,-0.88,-20.00
-1,9,443,-46,-392,3945,-0.14,0.29,13.25,-0.46,-3.92,39.45,-5.32,1.18,94.02,3.57,-1.04,-20.00
-11,5,457,65,-380,3924,-0.20,0.29,14.71,0.65,-3.80,39.24,-5.32,1.17,93.96,3.79,-0.95,-20.00
-13,0,474,-35,-402,3918,-0.26,0.26,16.13,-0.35,-4.02,39.18,-5.33,1.16,93.90,3.85,-0.84,-20.00
-8,13,484,-91,-399,3813,-0.28,0.32,17.47,-0.91,-3.99,38.13,-5.35,1.17,93.83,3.77,-1.12,-20.00
-10,12,496,-87,-434,3947,-0.31,0.36,18.75,-0.87,-4.34,39.47,-5.37,1.18,93.76,3.83,-1.12,-20.00
-17,8,511,-52,-393,4003,-0.39,0.37,19.99,-0.52,-3.93,40.03,-5.38,1.17,93.68,4.00,-1.04,-20.00
-13,30,617,-149,-410,3849,-0.43,0.52,21.76,-1.49,-4.10,38.49,-5.39,1.20,93.59,3.94,-1.54,-20.00
-21,20,647,-117,-404,3998,-0.51,0.59,23.53,-1.17,-4.04,39.98,-5.40,1.23,93.50,4.13,-1.38,-20.00
-17,13,754,9,-426,3854,-0.56,0.61,25.77,0.09,-4.26,38.54,-5.41,1.22,93.39,4.07,-1.24,-20.00
-12,30,776,3,-448,3914,-0.58,0.73,27.93,0.03,-4.48,39.14,-5.42,1.22,93.28,3.98,-1.62,-20.00
5,29,767,-42,-285,3867,-0.49,0.83,29.82,-0.42,-2.85,38.67,-5.40,1.23,93.17,3.60,-1.63,-20.00
-32,-1,720,91,-278,3934,-0.64,0.74,31.23,0.91,-2.78,39.34,-5.39,1.23,93.04,4.38,-0.99,-20.00
-15,9,595,-114,-232,3911,-0.67,0.73,31.73,-1.14,-2.32,39.11,-5.38,1.25,92.91,4.03,-1.20,-20.00
-1,17,555,-116,-223,3846,-0.61,0.76,31.94,-1.16,-2.23,38.46,-5.36,1.26,92.79,3.72,-1.39,-20.00
-6,4,401,-10,-245,3901,-0.58,0.71,31.20,-0.10,-2.45,39.01,-5.34,1.27,92.66,3.81,-1.11,-20.00
-8,5,353,-43,-275,3843,-0.57,0.67,30.23,-0.43,-2.75,38.43,-5.33,1.27,92.54,3.83,-1.12,-20.00
-5,-2,236,-89,-200,3878,-0.55,0.59,28.65,-0.89,-2.00,38.78,-5.31,1.29,92.43,3.75,-0.97,-20.00
-13,-4,218,-27,-211,3935,-0.57,0.50,27.11,-0.27,-2.11,39.35,-5.29,1.29,92.32,3.91,-0.91,-20.00
0,-9,152,31,-109,3990,-0.51,0.40,25.33,0.31,-1.09,39.90,-5.27,1.30,92.22,3.62,-0.78,-20.00
-1,-7,124,35,-182,3893,-0.47,0.32,23.55,0.35,-1.82,38.93,-5.26,1.30,92.12,3.62,-0.80,-20.00
-2,4,70,-55,-171,3920,-0.43,0.31,21.62,-0.55,-1.71,39.20,-5.24,1.30,92.04,3.62,-1.02,-20.00
-1,2,52,-26,-206,3956,-0.40,0.29,19.78,-0.26,-2.06,39.56,-5.22,1.30,91.96,3.58,-0.98,-20.00
8,16,15,-89,-280,3907,-0.31,0.36,17.89,-0.89,-2.80,39.07,-5.20,1.31,91.89,3.36,-1.29,-18.92
4,14,15,-81,-336,3919,-0.25,0.41,16.19,-0.81,-3.36,39.19,-5.19,1.31,91.82,3.41,-1.26,-18.73
-1,8,8,-37,-375,3905,-0.23,0.42,14.62,-0.37,-3.75,39.05,-5.19,1.30,91.76,3.51,-1.14,-18.32
1,6,5,-45,-404,3882,-0.20,0.41,13.19,-0.45,-4.04,38.82,-5.21,1.30,91.71,3.47,-1.09,-18.06
-1,-1,9,-50,-406,3902,-0.19,0.36,11.93,-0.50,-4.06,39.02,-5.22,1.29,91.67,3.52,-0.93,-18.05
-2,-5,16,-50,-392,3926,-0.18,0.30,10.83,-0.50,-3.92,39.26,-5.23,1.28,91.62,3.54,-0.83,-18.17
-3,-13,26,-42,-373,3931,-0.18,0.19,9.91,-0.42,-3.73,39.31,-5.24,1.27,91.58,3.57,-0.62,-18.40
-2,-11,31,-47,-401,3938,-0.18,0.10,9.11,-0.47,-4.01,39.38,-5.25,1.26,91.55,3.55,-0.64,-18.48
-2,-1,56,-122,-410,3948,-0.17,0.09,8.54,-1.22,-4.10,39.48,-5.26,1.27,91.51,3.56,-0.84,-19.26
0,5,83,-195,-413,3939,-0.15,0.11,8.19,-1.95,-4.13,39.39,-5.27,1.29,91.48,3.52,-0.98,-20.00
-1,13,147,-148,-477,3938,-0.14,0.18,8.27,-1.48,-4.77,39.38,-5.29,1.31,91.45,3.55,-1.17,-20.00
6,17,162,-138,-476,3888,-0.09,0.26,8.43,-1.38,-4.76,38.88,-5.30,1.32,91.42,3.40,-1.29,-20.00
-1,11,196,-83,-484,3908,-0.09,0.30,8.78,-0.83,-4.84,39.08,-5.32,1.32,91.38,3.56,-1.18,-20.00
-3,8,193,-50,-458,3894,-0.10,0.32,9.08,-0.50,-4.58,38.94,-5.34,1.32,91.35,3.61,-1.12,-20.00
2,7,170,20,-432,3859,-0.08,0.33,9.21,0.20,-4.32,38.59,-5.35,1.31,91.31,3.51,-1.10,-20.00
1,8,172,9,-451,3935,-0.06,0.35,9.34,0.09,-4.51,39.35,-5.36,1.30,91.27,3.53,-1.11,-20.00
-8,6,207,38,-402,3941,-0.11,0.35,9.67,0.38,-4.02,39.41,-5.36,1.29,91.23,3.73,-1.07,-20.00
1,4,219,32,-389,3911,-0.09,0.34,10.04,0.32,-3.89,39.11,-5.37,1.27,91.19,3.55,-1.01,-20.00
3,8,289,20,-403,3911,-0.06,0.35,10.80,0.20,-4.03,39.11,-5.37,1.26,91.15,3.50,-1.09,-20.00
-4,6,339,46,-366,3930,-0.08,0.36,11.78,0.46,-3.66,39.30,-5.37,1.25,91.10,3.65,-1.04,-20.00
-2,10,405,-1,-338,3895,-0.08,0.38,13.08,-0.01,-3.38,38.95,-5.36,1.24,91.05,3.60,-1.12,-20.00
-3,11,418,-3,-323,3920,-0.09,0.41,14.32,-0.03,-3.23,39.20,-5.35,1.23,91.00,3.62,-1.15,-20.00
2,9,507,-19,-307,3994,-0.07,0.42,15.98,-0.19,-3.07,39.94,-5.34,1.22,90.93,3.50,-1.11,-20.00
-7,3,538,17,-341,3960,-0.11,0.40,17.66,0.17,-3.41,39.60,-5.33,1.21,90.86,3.69,-0.97,-20.00
-4,15,612,-56,-243,3904,-0.12,0.45,19.63,-0.56,-2.43,39.04,-5.31,1.22,90.78,3.62,-1.23,-20.00
-16,2,632,-10,-305,3947,-0.21,0.42,21.52,-0.10,-3.05,39.47,-5.30,1.21,90.70,3.88,-0.96,-20.00
-22,2,687,-32,-337,3863,-0.32,0.39,23.56,-0.32,-3.37,38.63,-5.29,1.21,90.60,4.03,-0.94,-20.00
-8,6,709,-45,-312,3907,-0.34,0.39,25.53,-0.45,-3.12,39.07,-5.28,1.21,90.50,3.74,-1.02,-20.00
-15,7,796,28,-431,3964,-0.40,0.39,27.83,0.28,-4.31,39.64,-5.29,1.20,90.39,3.90,-1.04,-20.00
-19,2,833,-68,-533,3958,-0.47,0.36,30.13,-0.68,-5.33,39.58,-5.30,1.21,90.27,4.02,-0.94,-20.00
-34,6,932,-19,-513,3866,-0.63,0.36,32.80,-0.19,-5.13,38.66,-5.32,1.22,90.14,4.38,-1.03,-20.00
-5,12,949,-13,-397,3974,-0.60,0.40,35.31,-0.13,-3.97,39.74,-5.33,1.22,90.00,3.78,-1.16,-20.00
-13,25,958,-44,-348,4025,-0.62,0.51,37.62,-0.44,-3.48,40.25,-5.32,1.22,89.85,3.94,-1.45,-20.00
-13,-9,931,-128,-249,4061,-0.64,0.41,39.54,-1.28,-2.49,40.61,-5.30,1.24,89.69,3.93,-0.75,-20.00
-20,-2,781,-152,-225,3972,-0.69,0.35,40.35,-1.52,-2.25,39.72,-5.28,1.26,89.53,4.08,-0.89,-20.00
-12,12,714,-149,-162,3877,-0.70,0.39,40.67,-1.49,-1.62,38.77,-5.26,1.29,89.37,3.91,-1.20,-20.00
-2,19,495,-175,-197,3892,-0.64,0.47,39.62,-1.75,-1.97,38.92,-5.25,1.31,89.21,3.68,-1.38,-20.00
-2,10,421,-158,-185,4010,-0.59,0.48,38.23,-1.58,-1.85,40.10,-5.23,1.33,89.06,3.65,-1.22,-20.00
2,7,181,-51,-358,3939,-0.52,0.48,35.51,-0.51,-3.58,39.39,-5.22,1.33,88.92,3.55,-1.15,-20.00
1,6,106,-32,-395,3911,-0.46,0.47,32.61,-0.32,-3.95,39.11,-5.23,1.33,88.79,3.56,-1.13,-20.00
-2,0,17,-38,-386,3913,-0.43,0.42,29.45,-0.38,-3.86,39.13,-5.24,1.32,88.67,3.62,-0.99,-19.61
-1,0,10,-25,-388,3910,-0.39,0.38,26.57,-0.25,-3.88,39.10,-5.25,1.32,88.57,3.59,-0.97,-19.06
3,2,15,-32,-369,3911,-0.33,0.35,24.00,-0.32,-3.69,39.11,-5.25,1.31,88.47,3.49,-1.00,-18.94
3,3,20,-35,-400,3939,-0.28,0.33,21.72,-0.35,-4.00,39.39,-5.26,1.31,88.38,3.49,-1.01,-18.86
-3,2,41,-69,-392,3933,-0.27,0.31,19.80,-0.69,-3.92,39.33,-5.27,1.30,88.31,3.62,-0.99,-19.35
-5,2,42,-65,-372,3934,-0.27,0.29,18.08,-0.65,-3.72,39.34,-5.28,1.29,88.23,3.66,-0.97,-19.19
6,10,28,-131,-289,3925,-0.21,0.33,16.44,-1.31,-2.89,39.25,-5.26,1.31,88.17,3.41,-1.16,-18.54
-6,0,37,-114,-347,3922,-0.23,0.29,15.02,-1.14,-3.47,39.22,-5.25,1.33,88.11,3.65,-0.96,-18.68
-7,-4,47,-93,-386,3918,-0.25,0.24,13.81,-0.93,-3.86,39.18,-5.27,1.34,88.05,3.69,-0.87,-18.88
-1,-1,59,-80,-406,3919,-0.23,0.21,12.79,-0.80,-4.06,39.19,-5.29,1.34,88.00,3.57,-0.92,-19.18
1,2,59,-14,-456,3932,-0.20,0.20,11.87,-0.14,-4.56,39.32,-5.30,1.33,87.96,3.53,-0.98,-19.07
0,4,57,-31,-449,3911,-0.18,0.21,11.03,-0.31,-4.49,39.11,-5.32,1.33,87.91,3.56,-1.01,-18.91
1,6,50,-41,-355,3917,-0.15,0.22,10.23,-0.41,-3.55,39.17,-5.31,1.31,87.87,3.53,-1.05,-18.58
3,6,51,-59,-372,3916,-0.12,0.24,9.52,-0.59,-3.72,39.16,-5.32,1.30,87.83,3.48,-1.05,-18.53
4,3,79,-118,-364,3908,-0.08,0.23,9.05,-1.18,-3.64,39.08,-5.32,1.32,87.80,3.45,-1.00,-19.43
3,0,94,-98,-384,3897,-0.06,0.21,8.72,-0.98,-3.84,38.97,-5.33,1.33,87.76,3.47,-0.94,-19.89
-1,-2,102,-28,-358,3936,-0.06,0.17,8.47,-0.28,-3.58,39.36,-5.33,1.32,87.73,3.55,-0.88,-20.00
1,4,97,-56,-355,3903,-0.05,0.18,8.21,-0.56,-3.55,39.03,-5.32,1.31,87.70,3.51,-0.99,-19.93
-2,9,96,-55,-441,3893,-0.05,0.22,7.98,-0.55,-4.41,38.93,-5.34,1.30,87.67,3.58,-1.10,-19.87
0,12,94,-93,-452,3947,-0.05,0.27,7.75,-0.93,-4.52,39.47,-5.36,1.31,87.64,3.55,-1.18,-19.77
3,12,118,-40,-506,3942,-0.03,0.32,7.70,-0.40,-5.06,39.42,-5.37,1.30,87.61,3.49,-1.19,-20.00
3,12,129,24,-545,3913,-0.00,0.36,7.71,0.24,-5.45,39.13,-5.39,1.30,87.58,3.50,-1.20,-20.00
0,18,217,-18,-588,3948,-0.00,0.43,8.27,-0.18,-5.88,39.48,-5.41,1.30,87.54,3.57,-1.34,-20.00
-4,10,254,-68,-540,3883,-0.03,0.45,8.99,-0.68,-5.40,38.83,-5.42,1.30,87.51,3.67,-1.18,-20.00
-4,3,445,28,-483,3990,-0.05,0.42,10.80,0.28,-4.83,39.90,-5.43,1.29,87.47,3.68,-1.03,-20.00
-7,-2,487,42,-442,3957,-0.09,0.37,12.69,0.42,-4.42,39.57,-5.44,1.28,87.42,3.76,-0.91,-20.00
-13,0,610,-11,-409,3891,-0.16,0.33,15.15,-0.11,-4.09,38.91,-5.45,1.27,87.36,3.90,-0.93,-20.00
1,16,655,-49,-419,3857,-0.14,0.40,17.63,-0.49,-4.19,38.57,-5.46,1.27,87.29,3.62,-1.27,-20.00
-22,11,767,-27,-530,3850,-0.26,0.42,20.54,-0.27,-5.30,38.50,-5.48,1.27,87.20,4.13,-1.18,-20.00
-12,3,794,-23,-337,3938,-0.30,0.40,23.33,-0.23,-3.37,39.38,-5.47,1.27,87.11,3.94,-1.01,-20.00
-14,17,850,-81,-428,3873,-0.36,0.46,26.18,-0.81,-4.28,38.73,-5.49,1.28,87.01,4.00,-1.32,-20.00
-7,14,865,19,-362,3963,-0.37,0.50,28.84,0.19,-3.62,39.63,-5.48,1.27,86.89,3.86,-1.26,-20.00
-17,12,931,-93,-438,3992,-0.43,0.53,31.64,-0.93,-4.38,39.92,-5.50,1.29,86.77,4.09,-1.24,-20.00
-9,23,978,-60,-530,3808,-0.44,0.61,34.44,-0.60,-5.30,38.08,-5.52,1.30,86.63,3.94,-1.49,-20.00
-2,29,1082,-54,-331,3922,-0.41,0.73,37.60,-0.54,-3.31,39.22,-5.50,1.31,86.48,3.78,-1.65,-20.00
-13,27,1066,-37,-194,3982,-0.45,0.82,40.34,-0.37,-1.94,39.82,-5.48,1.32,86.32,4.00,-1.65,-20.00
-7,20,1008,-19,-419,3856,-0.45,0.86,42.45,-0.19,-4.19,38.56,-5.49,1.33,86.15,3.89,-1.52,-20.00
-15,32,1008,-37,-484,3901,-0.49,0.97,44.36,-0.37,-4.84,39.01,-5.50,1.34,85.98,4.07,-1.80,-20.00
-20,19,983,-48,-440,3912,-0.57,0.99,45.92,-0.48,-4.40,39.12,-5.52,1.35,85.79,4.20,-1.55,-20.00
-17,20,981,-87,-421,3866,-0.61,1.01,47.31,-0.87,-4.21,38.66,-5.53,1.37,85.61,4.16,-1.59,-20.00
2,17,788,-22,-138,3907,-0.54,1.01,47.39,-0.22,-1.38,39.07,-5.51,1.39,85.42,3.74,-1.54,-20.00
-16,7,707,-19,-153,3974,-0.58,0.96,46.96,-0.19,-1.53,39.74,-5.49,1.40,85.23,4.11,-1.33,-20.00
-12,-3,420,-30,-80,3885,-0.60,0.84,44.83,-0.30,-0.80,38.85,-5.47,1.42,85.05,4.02,-1.11,-20.00
-1,-2,353,-56,-112,3979,-0.55,0.75,42.50,-0.56,-1.12,39.79,-5.45,1.44,84.88,3.77,-1.11,-20.00
-4,-18,226,-100,-289,3918,-0.52,0.56,39.63,-1.00,-2.89,39.18,-5.43,1.45,84.72,3.81,-0.75,-20.00
-6,-2,210,-120,-310,3860,-0.50,0.49,36.94,-1.20,-3.10,38.60,-5.41,1.48,84.58,3.83,-1.07,-20.00
-3,-10,182,-17,-362,3926,-0.47,0.38,34.36,-0.17,-3.62,39.26,-5.41,1.47,84.44,3.76,-0.87,-20.00
1,-5,187,-8,-474,3905,-0.42,0.31,32.06,-0.08,-4.74,39.05,-5.42,1.47,84.31,3.67,-0.96,-20.00
-5,13,291,-95,-463,3857,-0.40,0.36,30.63,-0.95,-4.63,38.57,-5.44,1.49,84.19,3.80,-1.34,-20.00
0,4,314,-105,-404,3940,-0.36,0.35,29.49,-1.05,-4.04,39.40,-5.46,1.50,84.07,3.70,-1.17,-20.00
-4,1,309,-59,-359,3939,-0.35,0.32,28.42,-0.59,-3.59,39.39,-5.45,1.50,83.96,3.77,-1.10,-20.00
-6,6,292,-90,-335,3877,-0.35,0.33,27.36,-0.90,-3.35,38.77,-5.43,1.50,83.85,3.80,-1.20,-20.00
-3,-9,225,-77,-309,3905,-0.34,0.24,26.00,-0.77,-3.09,39.05,-5.41,1.51,83.75,3.72,-0.88,-20.00
2,-2,205,-53,-311,3920,-0.29,0.20,24.65,-0.53,-3.11,39.20,-5.39,1.50,83.65,3.60,-1.01,-20.00
0,7,165,-2,-434,3893,-0.26,0.22,23.19,-0.02,-4.34,38.93,-5.40,1.50,83.56,3.64,-1.19,-20.00
1,8,165,23,-455,3936,-0.23,0.25,21.88,0.23,-4.55,39.36,-5.41,1.49,83.47,3.61,-1.22,-20.00
-1,10,172,-93,-401,3853,-0.21,0.29,20.74,-0.93,-4.01,38.53,-5.43,1.50,83.39,3.66,-1.27,-20.00
-3,9,177,-50,-391,3955,-0.21,0.31,19.74,-0.50,-3.91,39.55,-5.43,1.49,83.31,3.70,-1.25,-20.00
-6,-4,245,-34,-464,3949,-0.23,0.26,19.26,-0.34,-4.64,39.49,-5.45,1.49,83.23,3.78,-0.97,-20.00
5,30,317,-157,-538,3913,-0.17,0.41,19.27,-1.57,-5.38,39.13,-5.46,1.50,83.16,3.55,-1.71,-20.00
-11,13,448,-28,-528,3829,-0.22,0.45,20.08,-0.28,-5.28,38.29,-5.48,1.50,83.08,3.90,-1.38,-20.00
-1,12,483,-60,-541,3987,-0.21,0.48,21.02,-0.60,-5.41,39.87,-5.49,1.51,83.00,3.70,-1.37,-20.00
-27,2,633,-104,-569,3951,-0.35,0.44,22.78,-1.04,-5.69,39.51,-5.51,1.52,82.91,4.28,-1.16,-20.00
-5,5,671,-160,-476,3901,-0.35,0.43,24.59,-1.60,-4.76,39.01,-5.53,1.54,82.81,3.84,-1.23,-20.00
-22,8,760,-103,-407,3927,-0.45,0.44,26.77,-1.03,-4.07,39.27,-5.54,1.55,82.70,4.23,-1.30,-20.00
-5,9,773,-63,-342,3928,-0.43,0.45,28.81,-0.63,-3.42,39.28,-5.53,1.55,82.59,3.87,-1.33,-20.00
-20,8,801,-59,-333,3978,-0.51,0.45,30.81,-0.59,-3.33,39.78,-5.51,1.55,82.46,4.19,-1.31,-20.00
-16,19,798,-72,-312,3885,-0.56,0.52,32.60,-0.72,-3.12,38.85,-5.50,1.55,82.33,4.11,-1.55,-20.00
-3,23,714,-86,-277,4015,-0.52,0.61,33.69,-0.86,-2.77,40.15,-5.48,1.57,82.20,3.82,-1.67,-20.00
-13,10,647,-2,-332,3862,-0.55,0.61,34.27,-0.02,-3.32,38.62,-5.47,1.56,82.06,4.02,-1.40,-20.00
-1,11,522,-9,-291,3864,-0.50,0.62,34.03,-0.09,-2.91,38.64,-5.46,1.56,81.93,3.76,-1.42,-20.00
-15,2,492,6,-341,3968,-0.54,0.57,33.63,0.06,-3.41,39.68,-5.45,1.56,81.79,4.05,-1.23,-20.00
-6,-5,431,-28,-429,3940,-0.52,0.48,32.89,-0.28,-4.29,39.40,-5.46,1.56,81.66,3.87,-1.06,-20.00
-6,-7,425,8,-432,3901,-0.51,0.39,32.20,0.08,-4.32,39.01,-5.46,1.56,81.54,3.87,-0.99,-20.00
-7,-4,444,-102,-393,3984,-0.50,0.33,31.69,-1.02,-3.93,39.84,-5.48,1.56,81.41,3.89,-1.04,-20.00
-11,-4,451,-77,-395,3891,-0.52,0.27,31.27,-0.77,-3.95,38.91,-5.49,1.56,81.29,3.99,-1.02,-20.00
-7,4,489,-90,-446,3896,-0.51,0.27,31.12,-0.90,-4.46,38.96,-5.50,1.57,81.16,3.91,-1.19,-20.00
-22,0,521,-67,-529,3935,-0.59,0.24,31.19,-0.67,-5.29,39.35,-5.52,1.58,81.04,4.25,-1.11,-20.00
-8,16,637,-78,-428,3850,-0.58,0.31,31.96,-0.78,-4.28,38.50,-5.54,1.58,80.91,3.98,-1.46,-20.00
-31,-4,669,-73,-402,3970,-0.71,0.26,32.84,-0.73,-4.02,39.70,-5.54,1.58,80.78,4.48,-1.03,-20.00
-10,17,675,-16,-387,3883,-0.70,0.34,33.67,-0.16,-3.87,38.83,-5.54,1.58,80.65,4.05,-1.48,-20.00
-11,19,662,15,-373,3912,-0.70,0.42,34.35,0.15,-3.73,39.12,-5.54,1.57,80.51,4.07,-1.54,-20.00
-8,27,615,-97,-379,3939,-0.68,0.54,34.66,-0.97,-3.79,39.39,-5.54,1.57,80.37,4.00,-1.73,-20.00
13,10,604,-66,-342,3984,-0.53,0.55,34.88,-0.66,-3.42,39.84,-5.52,1.57,80.23,3.52,-1.39,-20.00
-13,-6,576,46,-404,3911,-0.56,0.46,34.91,0.46,-4.04,39.11,-5.52,1.57,80.10,4.06,-1.04,-20.00
-8,15,578,22,-412,3809,-0.55,0.50,34.94,0.22,-4.12,38.09,-5.53,1.57,79.96,3.96,-1.48,-20.00
-12,22,643,-53,-546,3872,-0.57,0.59,35.37,-0.53,-5.46,38.72,-5.54,1.58,79.82,4.06,-1.65,-20.00
-10,16,664,-60,-656,3953,-0.57,0.63,35.88,-0.60,-6.56,39.53,-5.56,1.59,79.67,4.03,-1.55,-20.00
-33,-6,698,56,-468,3921,-0.72,0.53,36.55,0.56,-4.68,39.21,-5.57,1.59,79.53,4.54,-1.07,-20.00
-3,24,713,-96,-502,3956,-0.66,0.62,37.25,-0.96,-5.02,39.56,-5.58,1.61,79.38,3.93,-1.72,-20.00
-30,3,747,11,-527,4058,-0.78,0.58,38.08,0.11,-5.27,40.58,-5.60,1.61,79.23,4.52,-1.28,-20.00
-20,-7,752,29,-540,3944,-0.82,0.48,38.86,0.29,-5.40,39.44,-5.61,1.62,79.08,4.33,-1.05,-20.00
-8,4,755,-6,-539,3863,-0.79,0.45,39.58,-0.06,-5.39,38.63,-5.62,1.62,78.92,4.09,-1.28,-20.00
-10,18,747,-99,-543,3810,-0.77,0.52,40.18,-0.99,-5.43,38.10,-5.64,1.64,78.76,4.14,-1.59,-20.00
-19,-2,749,-124,-346,3925,-0.81,0.45,40.73,-1.24,-3.46,39.25,-5.62,1.66,78.60,4.32,-1.18,-20.00
-30,12,746,-80,-375,3846,-0.91,0.48,41.21,-0.80,-3.75,38.46,-5.62,1.66,78.43,4.57,-1.47,-20.00
-13,-2,741,-159,-449,3950,-0.90,0.42,41.61,-1.59,-4.49,39.50,-5.63,1.69,78.27,4.23,-1.19,-20.00
-21,-11,798,-155,-538,3902,-0.94,0.31,42.31,-1.55,-5.38,39.02,-5.65,1.71,78.10,4.41,-0.99,-20.00
-1,14,899,-341,-49,3949,-0.85,0.37,43.57,-3.41,-0.49,39.49,-5.63,1.74,77.93,3.97,-1.53,-20.00
-45,-10,906,-202,-367,3861,-1.04,0.27,44.74,-2.02,-3.67,38.61,-5.63,1.78,77.75,4.91,-1.04,-20.00
-28,3,1170,-37,-1092,3869,-1.11,0.26,47.40,-0.37,-10.92,38.69,-5.64,1.80,77.56,4.60,-1.32,-20.00
-37,14,1272,34,-1085,3976,-1.22,0.32,50.42,0.34,-10.85,39.76,-5.66,1.81,77.36,4.82,-1.57,-20.00
-23,23,1503,-57,-813,3999,-1.24,0.43,54.54,-0.57,-8.13,39.99,-5.67,1.83,77.14,4.55,-1.79,-20.00
-30,9,1514,39,-693,3939,-1.30,0.44,58.33,0.39,-6.93,39.39,-5.69,1.85,76.91,4.72,-1.52,-20.00
-38,25,1512,152,-626,3928,-1.40,0.55,61.72,1.52,-6.26,39.28,-5.70,1.86,76.67,4.92,-1.89,-20.00
-27,36,1516,53,-651,3857,-1.43,0.71,64.79,0.53,-6.51,38.57,-5.71,1.88,76.41,4.71,-2.17,-20.00
-36,26,1517,-114,-395,3912,-1.50,0.80,67.57,-1.14,-3.95,39.12,-5.71,1.89,76.14,4.91,-2.00,-20.00
-5,38,1492,-102,-206,3908,-1.38,0.95,69.91,-1.02,-2.06,39.08,-5.69,1.92,75.86,4.23,-2.30,-20.00
-20,7,1364,110,-205,3954,-1.37,0.90,71.24,1.10,-2.05,39.54,-5.67,1.94,75.58,4.52,-1.67,-20.00
-19,39,1308,-80,-216,3933,-1.35,1.05,72.10,-0.80,-2.16,39.33,-5.65,1.97,75.29,4.48,-2.38,-20.00
-30,21,1155,-147,-127,3876,-1.39,1.07,71.93,-1.47,-1.27,38.76,-5.63,2.00,75.00,4.71,-2.04,-20.00
-30,18,1101,-128,-87,3882,-1.44,1.07,71.45,-1.28,-0.87,38.82,-5.61,2.03,74.72,4.70,-2.00,-20.00
-23,18,859,-56,-10,3978,-1.43,1.08,69.55,-0.56,-0.10,39.78,-5.59,2.06,74.44,4.55,-2.02,-20.00
-32,-6,764,-111,-44,3999,-1.49,0.93,67.25,-1.11,-0.44,39.99,-5.56,2.09,74.17,4.73,-1.51,-20.00
-14,-5,440,-242,-2,3859,-1.42,0.81,63.21,-2.42,-0.02,38.59,-5.54,2.12,73.92,4.33,-1.52,-20.00
1,16,350,-191,35,3848,-1.27,0.82,59.03,-1.91,0.35,38.48,-5.52,2.15,73.69,3.97,-1.97,-20.00
-1,-3,119,-68,-177,4047,-1.15,0.72,53.85,-0.68,-1.77,40.47,-5.50,2.17,73.47,3.97,-1.57,-20.00
8,-3,82,-23,-234,3931,-0.99,0.63,48.96,-0.23,-2.34,39.31,-5.48,2.17,73.28,3.73,-1.55,-20.00
2,16,63,-164,-416,3930,-0.88,0.67,44.45,-1.64,-4.16,39.30,-5.50,2.20,73.10,3.83,-1.96,-19.94
-2,9,42,-28,-377,3904,-0.80,0.66,40.26,-0.28,-3.77,39.04,-5.49,2.20,72.94,3.89,-1.81,-18.76
5,10,14,3,-444,3878,-0.69,0.65,36.32,0.03,-4.44,38.78,-5.50,2.20,72.80,3.72,-1.83,-17.37
2,16,9,-76,-461,3870,-0.61,0.68,32.75,-0.76,-4.61,38.70,-5.51,2.20,72.67,3.76,-1.97,-16.80
1,2,-6,-103,-408,3925,-0.54,0.63,29.43,-1.03,-4.08,39.25,-5.52,2.20,72.55,3.77,-1.66,-15.93
1,2,-3,-56,-416,3902,-0.48,0.58,26.47,-0.56,-4.16,39.02,-5.52,2.20,72.44,3.76,-1.65,-15.70
-3,2,22,-116,-414,3910,-0.45,0.53,23.96,-1.16,-4.14,39.10,-5.53,2.20,72.35,3.84,-1.63,-16.27
-1,2,27,-148,-420,3905,-0.41,0.49,21.73,-1.48,-4.20,39.05,-5.55,2.20,72.26,3.80,-1.63,-16.19
-3,-2,33,-107,-413,3917,-0.39,0.43,19.76,-1.07,-4.13,39.17,-5.56,2.20,72.19,3.84,-1.53,-16.18
-1,-2,28,-98,-435,3899,-0.36,0.37,17.95,-0.98,-4.35,38.99,-5.57,2.19,72.12,3.80,-1.51,-15.80
-1,-2,31,-47,-416,3931,-0.33,0.32,16.35,-0.47,-4.16,39.31,-5.58,2.19,72.05,3.79,-1.49,-15.73
2,5,32,-76,-432,3929,-0.28,0.32,14.91,-0.76,-4.32,39.29,-5.59,2.18,71.99,3.72,-1.63,-15.60
4,11,18,-59,-441,3903,-0.23,0.36,13.53,-0.59,-4.41,39.03,-5.59,2.17,71.94,3.67,-1.75,-14.97
3,10,14,-39,-449,3899,-0.19,0.38,12.26,-0.39,-4.49,38.99,-5.60,2.16,71.89,3.69,-1.73,-14.69
3,8,8,-50,-420,3912,-0.15,0.39,11.08,-0.50,-4.20,39.12,-5.61,2.15,71.85,3.68,-1.69,-14.36
2,8,9,-51,-402,3940,-0.12,0.40,10.03,-0.51,-4.02,39.40,-5.61,2.13,71.81,3.70,-1.68,-14.28
4,6,16,-31,-409,3909,-0.09,0.40,9.12,-0.31,-4.09,39.09,-5.61,2.12,71.77,3.65,-1.63,-14.41
5,4,20,-42,-408,3919,-0.05,0.38,8.33,-0.42,-4.08,39.19,-5.62,2.11,71.74,3.62,-1.58,-14.46
1,4,38,-33,-392,3912,-0.04,0.37,7.73,-0.33,-3.92,39.12,-5.62,2.10,71.71,3.70,-1.56,-15.00
1,6,46,-27,-396,3942,-0.03,0.37,7.24,-0.27,-3.96,39.42,-5.62,2.08,71.68,3.69,-1.60,-15.22
-3,0,76,-30,-430,3936,-0.04,0.33,6.98,-0.30,-4.30,39.36,-5.62,2.07,71.65,3.78,-1.46,-16.20
-3,7,83,-65,-418,3907,-0.06,0.34,6.79,-0.65,-4.18,39.07,-5.63,2.06,71.62,3.79,-1.59,-16.41
-6,5,89,-73,-463,3895,-0.09,0.34,6.65,-0.73,-4.63,38.95,-5.64,2.05,71.60,3.87,-1.55,-16.60
0,1,76,-30,-414,3907,-0.08,0.31,6.45,-0.30,-4.14,39.07,-5.65,2.03,71.57,3.75,-1.45,-16.13
2,8,88,-20,-501,3932,-0.06,0.33,6.34,-0.20,-5.01,39.32,-5.66,2.02,71.55,3.71,-1.59,-16.52
2,5,100,-47,-450,3955,-0.04,0.33,6.32,-0.47,-4.50,39.55,-5.67,2.01,71.52,3.71,-1.52,-16.92
-9,4,125,-100,-421,3920,-0.09,0.32,6.45,-1.00,-4.21,39.20,-5.68,2.00,71.50,3.96,-1.49,-17.78
3,8,127,-55,-381,3914,-0.06,0.33,6.58,-0.55,-3.81,39.14,-5.67,1.99,71.47,3.70,-1.57,-17.86
-6,5,195,-98,-462,3888,-0.09,0.33,7.11,-0.98,-4.62,38.88,-5.69,1.98,71.44,3.90,-1.50,-20.00
6,11,221,-119,-403,3896,-0.05,0.37,7.75,-1.19,-4.03,38.96,-5.70,1.97,71.41,3.65,-1.63,-20.00
-7,7,247,-2,-393,3917,-0.09,0.37,8.48,-0.02,-3.93,39.17,-5.70,1.96,71.38,3.93,-1.54,-20.00
-12,4,219,-34,-441,3901,-0.15,0.36,8.97,-0.34,-4.41,39.01,-5.71,1.95,71.35,4.05,-1.47,-20.00
5,15,152,-11,-410,3929,-0.11,0.41,9.00,-0.11,-4.10,39.29,-5.71,1.94,71.31,3.70,-1.70,-18.93
6,8,135,10,-402,3934,-0.06,0.42,8.92,0.10,-4.02,39.34,-5.71,1.92,71.27,3.66,-1.55,-18.34
-3,-1,89,-82,-396,3897,-0.07,0.37,8.57,-0.82,-3.96,38.97,-5.71,1.91,71.24,3.85,-1.34,-16.73
4,-2,65,-69,-393,3934,-0.04,0.32,8.11,-0.69,-3.93,39.34,-5.71,1.90,71.21,3.70,-1.30,-15.87
6,1,82,15,-494,3928,0.00,0.30,7.80,0.15,-4.94,39.28,-5.72,1.89,71.18,3.65,-1.35,-16.41
1,0,95,25,-491,3951,0.01,0.27,7.60,0.25,-4.91,39.51,-5.73,1.87,71.15,3.76,-1.31,-16.82
-7,3,130,-48,-394,3917,-0.04,0.26,7.63,-0.48,-3.94,39.17,-5.73,1.86,71.12,3.93,-1.36,-18.00
2,9,127,-36,-404,3939,-0.02,0.29,7.64,-0.36,-4.04,39.39,-5.73,1.85,71.09,3.75,-1.48,-17.90
-4,3,129,-101,-386,3884,-0.04,0.28,7.67,-1.01,-3.86,38.84,-5.73,1.83,71.06,3.87,-1.35,-17.96
-1,-6,119,-69,-364,3965,-0.04,0.21,7.63,-0.69,-3.64,39.65,-5.72,1.82,71.03,3.81,-1.14,-17.61
-4,-2,120,-41,-476,3965,-0.06,0.18,7.60,-0.41,-4.76,39.65,-5.73,1.81,71.00,3.88,-1.20,-17.64
-6,-1,139,-24,-531,3889,-0.09,0.16,7.68,-0.24,-5.31,38.89,-5.74,1.80,70.97,3.94,-1.21,-18.29
-6,-3,176,-19,-530,3896,-0.12,0.12,7.99,-0.19,-5.30,38.96,-5.76,1.80,70.94,3.95,-1.16,-19.57
-7,-1,177,-42,-489,3916,-0.15,0.10,8.27,-0.42,-4.89,39.16,-5.77,1.79,70.90,3.99,-1.19,-19.62
-9,7,227,24,-476,3978,-0.19,0.14,8.83,0.24,-4.76,39.78,-5.78,1.77,70.87,4.05,-1.35,-20.00
-8,-1,229,-37,-429,3919,-0.22,0.12,9.34,-0.37,-4.29,39.19,-5.78,1.76,70.83,4.04,-1.17,-20.00
-3,-5,224,-138,-245,3891,-0.22,0.07,9.77,-1.38,-2.45,38.91,-5.77,1.77,70.79,3.93,-1.09,-20.00
-11,7,215,-141,-304,3884,-0.26,0.11,10.11,-1.41,-3.04,38.84,-5.75,1.78,70.75,4.09,-1.35,-20.00
16,9,240,-11,-214,3926,-0.14,0.15,10.56,-0.11,-2.14,39.26,-5.73,1.77,70.71,3.49,-1.39,-20.00
2,0,261,-86,-382,3901,-0.11,0.14,11.10,-0.86,-3.82,39.01,-5.73,1.76,70.66,3.77,-1.20,-20.00
-3,7,209,29,-364,3885,-0.12,0.17,11.26,0.29,-3.64,38.85,-5.72,1.75,70.62,3.87,-1.34,-20.00
8,5,190,43,-311,4017,-0.06,0.18,11.30,0.43,-3.11,40.17,-5.71,1.74,70.57,3.62,-1.30,-20.00
10,13,123,-5,-409,3941,0.01,0.24,10.92,-0.05,-4.09,39.41,-5.71,1.72,70.53,3.56,-1.47,-18.00
6,16,111,63,-446,3923,0.04,0.32,10.50,0.63,-4.46,39.23,-5.72,1.71,70.49,3.64,-1.54,-17.55
8,19,105,58,-545,3952,0.09,0.40,10.09,0.58,-5.45,39.52,-5.73,1.70,70.45,3.59,-1.62,-17.29
8,15,119,16,-547,3898,0.13,0.45,9.81,0.16,-5.47,38.98,-5.74,1.70,70.41,3.59,-1.55,-17.73
3,14,172,24,-566,3861,0.13,0.49,9.88,0.24,-5.66,38.61,-5.75,1.69,70.37,3.70,-1.53,-19.53
3,15,195,7,-541,3978,0.14,0.53,10.08,0.07,-5.41,39.78,-5.76,1.68,70.33,3.70,-1.56,-20.00
9,11,211,-134,-559,3884,0.18,0.55,10.36,-1.34,-5.59,38.84,-5.78,1.69,70.29,3.58,-1.49,-20.00
-3,-16,241,-65,-400,4086,0.14,0.40,10.79,-0.65,-4.00,40.86,-5.77,1.68,70.25,3.83,-0.89,-20.00
-11,2,311,-42,-557,3878,0.06,0.37,11.61,-0.42,-5.57,38.78,-5.79,1.68,70.20,4.03,-1.25,-20.00
2,17,333,-59,-503,3860,0.07,0.43,12.48,-0.59,-5.03,38.60,-5.80,1.68,70.15,3.77,-1.57,-20.00
-1,10,380,-2,-509,4007,0.05,0.45,13.55,-0.02,-5.09,40.07,-5.81,1.67,70.10,3.84,-1.43,-20.00
-6,7,382,-4,-530,3863,0.01,0.45,14.53,-0.04,-5.30,38.63,-5.83,1.67,70.04,3.96,-1.37,-20.00
-17,6,384,-67,-535,3844,-0.09,0.44,15.42,-0.67,-5.35,38.44,-5.84,1.67,69.98,4.23,-1.35,-20.00
-5,3,382,-92,-458,3923,-0.11,0.42,16.20,-0.92,-4.58,39.23,-5.86,1.67,69.92,4.00,-1.28,-20.00
-7,-7,388,-168,-399,3900,-0.14,0.33,16.95,-1.68,-3.99,39.00,-5.86,1.70,69.85,4.05,-1.07,-20.00
-12,-7,386,-141,-385,3865,-0.20,0.26,17.61,-1.41,-3.85,38.65,-5.85,1.72,69.78,4.16,-1.06,-20.00
-10,-1,324,-18,-374,3927,-0.24,0.22,17.83,-0.18,-3.74,39.27,-5.84,1.71,69.71,4.12,-1.17,-20.00
-4,-5,294,-33,-357,3902,-0.24,0.17,17.84,-0.33,-3.57,39.02,-5.83,1.71,69.64,4.00,-1.07,-20.00
-6,-2,266,-10,-434,3920,-0.26,0.14,17.68,-0.10,-4.34,39.20,-5.84,1.70,69.57,4.04,-1.12,-20.00
-10,-6,275,-6,-452,3931,-0.29,0.09,17.59,-0.06,-4.52,39.31,-5.84,1.69,69.50,4.14,-1.02,-20.00
-12,5,327,19,-498,3894,-0.34,0.11,17.82,0.19,-4.98,38.94,-5.85,1.68,69.43,4.20,-1.24,-20.00
0,15,334,62,-457,3950,-0.30,0.19,18.08,0.62,-4.57,39.50,-5.86,1.67,69.36,3.95,-1.46,-20.00
-9,14,352,73,-479,3902,-0.33,0.26,18.42,0.73,-4.79,39.02,-5.86,1.66,69.28,4.14,-1.45,-20.00
-11,15,362,66,-493,3908,-0.36,0.32,18.78,0.66,-4.93,39.08,-5.87,1.65,69.21,4.20,-1.49,-20.00
-11,10,393,68,-483,3942,-0.39,0.35,19.30,0.68,-4.83,39.42,-5.88,1.65,69.13,4.21,-1.39,-20.00
-14,8,405,73,-551,3920,-0.44,0.37,19.84,0.73,-5.51,39.20,-5.89,1.64,69.06,4.29,-1.35,-20.00
-2,4,371,71,-427,3918,-0.41,0.35,20.12,0.71,-4.27,39.18,-5.89,1.63,68.98,4.04,-1.26,-20.00
-1,17,338,8,-449,3900,-0.37,0.42,20.17,0.08,-4.49,39.00,-5.90,1.63,68.90,4.01,-1.53,-20.00
1,12,315,-9,-409,3891,-0.33,0.45,20.08,-0.09,-4.09,38.91,-5.90,1.62,68.82,3.96,-1.44,-20.00
-6,10,312,-58,-354,3887,-0.33,0.47,19.97,-0.58,-3.54,38.87,-5.88,1.61,68.74,4.10,-1.40,-20.00
12,6,299,-98,-316,3877,-0.23,0.46,19.80,-0.98,-3.16,38.77,-5.86,1.62,68.66,3.69,-1.32,-20.00
-10,10,304,-120,-412,3945,-0.26,0.47,19.67,-1.20,-4.12,39.45,-5.87,1.65,68.58,4.15,-1.42,-20.00
-16,5,310,-153,-331,4020,-0.34,0.46,19.60,-1.53,-3.31,40.20,-5.86,1.66,68.50,4.28,-1.32,-20.00
-11,-3,311,-180,-324,3880,-0.37,0.39,19.53,-1.80,-3.24,38.80,-5.84,1.68,68.42,4.18,-1.16,-20.00
-2,12,303,-146,-401,3889,-0.34,0.43,19.43,-1.46,-4.01,38.89,-5.84,1.71,68.35,3.99,-1.49,-20.00
-11,8,305,-118,-395,3981,-0.38,0.43,19.35,-1.18,-3.95,39.81,-5.82,1.72,68.27,4.17,-1.42,-20.00
1,4,278,-71,-395,3904,-0.33,0.41,19.11,-0.71,-3.95,39.04,-5.82,1.71,68.19,3.91,-1.32,-20.00
0,7,243,-2,-411,3960,-0.30,0.42,18.68,-0.02,-4.11,39.60,-5.82,1.70,68.12,3.92,-1.38,-20.00
-6,7,210,-103,-431,3907,-0.31,0.42,18.09,-1.03,-4.31,39.07,-5.84,1.70,68.05,4.06,-1.38,-20.00
-4,2,209,-82,-405,3949,-0.30,0.39,17.56,-0.82,-4.05,39.49,-5.84,1.69,67.98,4.02,-1.26,-20.00
-9,-8,225,-78,-397,3962,-0.33,0.30,17.17,-0.78,-3.97,39.62,-5.83,1.68,67.91,4.12,-1.03,-20.00
-1,1,235,-77,-389,3849,-0.30,0.28,16.89,-0.77,-3.89,38.49,-5.83,1.67,67.84,3.95,-1.20,-20.00
2,5,241,-166,-397,3860,-0.26,0.28,16.67,-1.66,-3.97,38.60,-5.83,1.70,67.78,3.88,-1.30,-20.00
-14,-2,240,-79,-364,3990,-0.32,0.24,16.47,-0.79,-3.64,39.90,-5.82,1.70,67.71,4.21,-1.14,-20.00
-7,5,233,-139,-375,3840,-0.33,0.25,16.24,-1.39,-3.75,38.40,-5.81,1.72,67.64,4.06,-1.30,-20.00
0,4,219,-130,-373,3933,-0.29,0.25,15.95,-1.30,-3.73,39.33,-5.79,1.73,67.58,3.90,-1.29,-20.00
-6,-14,186,-111,-382,3929,-0.30,0.14,15.49,-1.11,-3.82,39.29,-5.77,1.73,67.52,4.01,-0.90,-20.00
0,-5,174,-175,-395,3942,-0.27,0.09,15.01,-1.75,-3.95,39.42,-5.77,1.76,67.46,3.88,-1.08,-19.61
-13,-9,198,-156,-514,3823,-0.32,0.03,14.71,-1.56,-5.14,38.23,-5.79,1.77,67.40,4.17,-0.99,-20.00
-10,0,200,-177,-464,3934,-0.35,0.02,14.46,-1.77,-4.64,39.34,-5.80,1.79,67.34,4.13,-1.18,-20.00
-8,-11,183,-116,-464,3955,-0.37,-0.05,14.13,-1.16,-4.64,39.55,-5.82,1.79,67.29,4.10,-0.94,-19.79
-17,-8,180,-115,-470,3886,-0.43,-0.09,13.82,-1.15,-4.70,38.86,-5.84,1.79,67.23,4.32,-1.00,-19.65
-2,9,163,-75,-408,3916,-0.40,-0.03,13.43,-0.75,-4.08,39.16,-5.84,1.78,67.18,4.00,-1.35,-19.02
0,10,161,-92,-438,3954,-0.36,0.04,13.07,-0.92,-4.38,39.54,-5.85,1.77,67.13,3.96,-1.38,-18.90
-1,-3,152,-42,-409,3978,-0.33,0.02,12.69,-0.42,-4.09,39.78,-5.85,1.76,67.08,3.97,-1.10,-18.55
4,4,150,-13,-425,3889,-0.27,0.04,12.33,-0.13,-4.25,38.89,-5.86,1.75,67.03,3.86,-1.24,-18.44
-3,17,160,8,-541,3904,-0.27,0.14,12.08,0.08,-5.41,39.04,-5.87,1.74,66.98,4.01,-1.53,-18.74
2,23,178,30,-533,3947,-0.23,0.26,11.96,0.30,-5.33,39.47,-5.88,1.73,66.93,3.90,-1.68,-19.33
3,27,245,-18,-484,3876,-0.19,0.40,12.25,-0.18,-4.84,38.76,-5.89,1.72,66.89,3.88,-1.80,-20.00
6,31,270,-80,-506,3930,-0.13,0.55,12.68,-0.80,-5.06,39.30,-5.91,1.72,66.84,3.81,-1.92,-20.00
-4,17,360,-12,-519,3931,-0.14,0.60,13.60,-0.12,-5.19,39.31,-5.92,1.72,66.78,4.03,-1.64,-20.00
-13,15,381,-12,-507,3897,-0.21,0.63,14.57,-0.12,-5.07,38.97,-5.93,1.72,66.73,4.24,-1.61,-20.00
1,15,446,-23,-484,3922,-0.18,0.66,15.83,-0.23,-4.84,39.22,-5.94,1.71,66.66,3.95,-1.61,-20.00
-5,13,455,-7,-566,3905,-0.19,0.67,17.02,-0.07,-5.66,39.05,-5.96,1.71,66.60,4.09,-1.58,-20.00
-2,12,459,19,-508,3962,-0.19,0.68,18.12,0.19,-5.08,39.62,-5.96,1.70,66.52,4.03,-1.55,-20.00
-7,15,467,14,-477,3894,-0.21,0.70,19.16,0.14,-4.77,38.94,-5.97,1.70,66.45,4.14,-1.62,-20.00
-5,25,477,-95,-452,3880,-0.22,0.79,20.15,-0.95,-4.52,38.80,-5.99,1.70,66.37,4.11,-1.85,-20.00
-3,5,483,-89,-398,3844,-0.22,0.74,21.08,-0.89,-3.98,38.44,-5.98,1.70,66.29,4.07,-1.42,-20.00
-15,-1,459,-55,-353,3823,-0.29,0.66,21.77,-0.55,-3.53,38.23,-5.97,1.69,66.20,4.32,-1.28,-20.00
-15,12,443,-1,-354,3887,-0.35,0.66,22.30,-0.01,-3.54,38.87,-5.96,1.69,66.11,4.33,-1.54,-20.00
-8,12,393,-35,-419,3949,-0.36,0.67,22.47,-0.35,-4.19,39.49,-5.96,1.68,66.02,4.20,-1.54,-20.00
-7,-2,375,-60,-363,3935,-0.37,0.59,22.51,-0.60,-3.63,39.35,-5.95,1.68,65.93,4.17,-1.23,-20.00
-2,4,337,-7,-467,3933,-0.34,0.56,22.31,-0.07,-4.67,39.33,-5.95,1.68,65.84,4.06,-1.34,-20.00
-2,11,334,-25,-392,3891,-0.32,0.57,22.12,-0.25,-3.92,38.91,-5.95,1.67,65.76,4.06,-1.48,-20.00
6,6,301,-25,-460,3883,-0.25,0.55,21.74,-0.25,-4.60,38.83,-5.96,1.67,65.67,3.88,-1.37,-20.00
-11,2,294,28,-490,3896,-0.29,0.51,21.36,0.28,-4.90,38.96,-5.97,1.66,65.58,4.24,-1.27,-20.00
-10,-14,254,132,-602,3942,-0.33,0.37,20.78,1.32,-6.02,39.42,-5.98,1.66,65.50,4.24,-0.91,-20.00
-2,-12,249,-14,-566,3977,-0.31,0.26,20.22,-0.14,-5.66,39.77,-5.99,1.66,65.42,4.08,-0.92,-20.00
-5,-18,308,-172,-569,3918,-0.31,0.12,20.07,-1.72,-5.69,39.18,-6.01,1.67,65.34,4.15,-0.77,-20.00
-20,-29,340,-244,-527,3864,-0.40,-0.07,20.14,-2.44,-5.27,38.64,-6.02,1.69,65.26,4.49,-0.51,-20.00
-20,-21,483,-291,-277,3928,-0.48,-0.19,21.07,-2.91,-2.77,39.28,-6.01,1.71,65.18,4.50,-0.65,-20.00
-27,1,518,-292,-257,3948,-0.60,-0.16,22.13,-2.92,-2.57,39.48,-5.99,1.74,65.09,4.67,-1.12,-20.00
-3,23,544,-108,-177,3953,-0.55,-0.01,23.23,-1.08,-1.77,39.53,-5.98,1.75,65.00,4.16,-1.62,-20.00
1,48,535,-157,-230,3934,-0.49,0.29,24.17,-1.57,-2.30,39.34,-5.96,1.76,64.90,4.05,-2.22,-20.00
11,47,467,-152,-269,3809,-0.38,0.55,24.60,-1.52,-2.69,38.09,-5.94,1.78,64.80,3.80,-2.28,-20.00
6,38,455,-66,-302,3925,-0.30,0.72,24.92,-0.66,-3.02,39.25,-5.92,1.78,64.70,3.87,-2.15,-20.00
1,22,359,116,-411,3908,-0.27,0.78,24.62,1.16,-4.11,39.08,-5.92,1.78,64.61,3.96,-1.83,-20.00
1,9,283,136,-444,3826,-0.23,0.76,23.88,1.36,-4.44,38.26,-5.92,1.77,64.51,3.95,-1.56,-20.00
-4,-4,189,100,-565,3897,-0.23,0.66,22.65,1.00,-5.65,38.97,-5.93,1.77,64.42,4.06,-1.27,-20.00
-4,-11,188,75,-574,3945,-0.24,0.53,21.53,0.75,-5.74,39.45,-5.94,1.77,64.34,4.06,-1.09,-20.00
-8,4,241,-39,-488,3907,-0.26,0.50,20.85,-0.39,-4.88,39.07,-5.95,1.76,64.25,4.16,-1.38,-20.00
-9,-5,241,-74,-457,3989,-0.29,0.42,20.23,-0.74,-4.57,39.89,-5.96,1.76,64.17,4.20,-1.17,-20.00
-10,6,246,-85,-468,3929,-0.32,0.41,19.71,-0.85,-4.68,39.29,-5.97,1.76,64.10,4.23,-1.40,-20.00
-10,13,252,-109,-387,3904,-0.35,0.45,19.27,-1.09,-3.87,39.04,-5.96,1.76,64.02,4.23,-1.55,-20.00
-2,22,248,-176,-308,3874,-0.33,0.54,18.86,-1.76,-3.08,38.74,-5.94,1.78,63.94,4.05,-1.77,-20.00
-9,16,239,-210,-260,3937,-0.35,0.58,18.43,-2.10,-2.60,39.37,-5.92,1.80,63.87,4.19,-1.67,-20.00
-3,7,272,-155,-351,3929,-0.33,0.57,18.25,-1.55,-3.51,39.29,-5.91,1.82,63.80,4.05,-1.50,-20.00
1,21,303,-145,-367,3892,-0.29,0.64,18.27,-1.45,-3.67,38.92,-5.89,1.84,63.72,3.95,-1.81,-20.00
1,15,324,-33,-401,3953,-0.26,0.67,18.42,-0.33,-4.01,39.53,-5.89,1.83,63.65,3.94,-1.69,-20.00
1,15,328,-20,-366,3912,-0.23,0.69,18.58,-0.20,-3.66,39.12,-5.88,1.82,63.58,3.92,-1.70,-20.00
5,16,298,-41,-514,3889,-0.17,0.72,18.54,-0.41,-5.14,38.89,-5.89,1.82,63.50,3.83,-1.72,-20.00
-2,1,282,-11,-472,3928,-0.17,0.65,18.41,-0.11,-4.72,39.28,-5.90,1.82,63.43,3.98,-1.40,-20.00
-6,-5,251,11,-520,3993,-0.19,0.56,18.10,0.11,-5.20,39.93,-5.91,1.81,63.36,4.07,-1.25,-20.00
-17,-14,239,-42,-484,3921,-0.27,0.42,17.74,-0.42,-4.84,39.21,-5.92,1.81,63.29,4.33,-1.02,-20.00
6,4,212,-28,-516,3975,-0.21,0.40,17.26,-0.28,-5.16,39.75,-5.93,1.80,63.22,3.85,-1.38,-20.00
-4,11,220,-30,-504,3910,-0.21,0.43,16.88,-0.30,-5.04,39.10,-5.95,1.80,63.16,4.06,-1.53,-20.00
-9,18,270,-84,-505,3790,-0.25,0.49,16.84,-0.84,-5.05,37.90,-5.96,1.80,63.09,4.18,-1.69,-20.00
-2,10,307,-69,-477,4077,-0.23,0.51,17.03,-0.69,-4.77,40.77,-5.97,1.80,63.02,4.05,-1.53,-20.00
-4,15,428,-112,-460,4010,-0.23,0.55,17.93,-1.12,-4.60,40.10,-5.99,1.80,62.95,4.10,-1.64,-20.00
-4,3,462,-92,-419,3879,-0.24,0.51,18.96,-0.92,-4.19,38.79,-5.99,1.79,62.88,4.10,-1.38,-20.00
-7,0,511,13,-418,3921,-0.25,0.46,20.18,0.13,-4.18,39.21,-5.99,1.79,62.80,4.17,-1.30,-20.00
-11,2,500,28,-424,3812,-0.30,0.43,21.21,0.28,-4.24,38.12,-5.99,1.78,62.71,4.26,-1.33,-20.00
2,23,391,155,-486,3842,-0.25,0.52,21.48,1.55,-4.86,38.42,-6.00,1.77,62.63,3.99,-1.78,-20.00
-5,10,348,175,-381,4049,-0.26,0.53,21.45,1.75,-3.81,40.49,-5.99,1.76,62.54,4.13,-1.51,-20.00
4,11,265,41,-661,3913,-0.21,0.55,20.92,0.41,-6.61,39.13,-6.01,1.77,62.46,3.94,-1.54,-20.00
6,10,279,58,-607,3864,-0.15,0.55,20.53,0.58,-6.07,38.64,-6.02,1.76,62.38,3.89,-1.52,-20.00
-15,-13,400,14,-673,3909,-0.23,0.42,20.92,0.14,-6.73,39.09,-6.03,1.77,62.30,4.35,-1.01,-20.00
-1,-3,464,-19,-579,3939,-0.21,0.36,21.66,-0.19,-5.79,39.39,-6.05,1.77,62.21,4.07,-1.20,-20.00
-14,19,551,-83,-420,3932,-0.28,0.44,22.85,-0.83,-4.20,39.32,-6.05,1.76,62.12,4.35,-1.67,-20.00
-15,17,566,-114,-338,4042,-0.34,0.50,24.02,-1.14,-3.38,40.42,-6.03,1.77,62.02,4.38,-1.65,-20.00
-8,13,586,-224,-266,3915,-0.35,0.53,25.19,-2.24,-2.66,39.15,-6.01,1.79,61.92,4.23,-1.59,-20.00
-15,-4,576,-184,-282,3981,-0.41,0.45,26.19,-1.84,-2.82,39.81,-5.99,1.81,61.82,4.37,-1.24,-20.00
-21,-1,475,-51,-326,3880,-0.50,0.40,26.47,-0.51,-3.26,38.80,-5.98,1.81,61.71,4.51,-1.29,-20.00
-10,11,435,0,-440,3919,-0.51,0.43,26.47,0.00,-4.40,39.19,-5.98,1.81,61.61,4.29,-1.53,-20.00
1,2,275,-36,-347,3948,-0.45,0.40,25.50,-0.36,-3.47,39.48,-5.97,1.81,61.51,4.04,-1.34,-20.00
-11,-4,250,-56,-400,3935,-0.47,0.33,24.48,-0.56,-4.00,39.35,-5.96,1.80,61.41,4.29,-1.20,-20.00
0,-6,236,-83,-466,3915,-0.43,0.26,23.47,-0.83,-4.66,39.15,-5.98,1.80,61.32,4.06,-1.14,-20.00
-13,4,259,-141,-473,3862,-0.46,0.26,22.70,-1.41,-4.73,38.62,-5.99,1.81,61.23,4.35,-1.35,-20.00
1,9,303,-37,-452,3976,-0.41,0.29,22.28,-0.37,-4.52,39.76,-6.00,1.81,61.14,4.05,-1.45,-20.00
-5,-6,306,20,-471,3951,-0.40,0.22,21.92,0.20,-4.71,39.51,-6.00,1.80,61.05,4.17,-1.13,-20.00
-2,-20,289,36,-429,4047,-0.37,0.08,21.49,0.36,-4.29,40.47,-6.00,1.79,60.97,4.10,-0.80,-20.00
-10,-15,282,-10,-499,3801,-0.40,-0.02,21.06,-0.10,-4.99,38.01,-6.02,1.79,60.88,4.28,-0.87,-20.00
-5,10,308,-132,-499,3824,-0.39,0.04,20.83,-1.32,-4.99,38.24,-6.03,1.80,60.80,4.19,-1.40,-20.00
-11,20,316,-112,-460,3945,-0.42,0.16,20.68,-1.12,-4.60,39.45,-6.05,1.80,60.72,4.33,-1.64,-20.00
8,21,340,8,-587,3943,-0.32,0.27,20.68,0.08,-5.87,39.43,-6.06,1.80,60.64,3.93,-1.69,-20.00
-14,9,361,22,-558,3953,-0.38,0.30,20.82,0.22,-5.58,39.53,-6.07,1.80,60.55,4.40,-1.45,-20.00
-7,9,417,22,-602,3894,-0.38,0.33,21.28,0.22,-6.02,38.94,-6.09,1.80,60.47,4.26,-1.46,-20.00
5,5,455,43,-536,3967,-0.31,0.32,21.93,0.43,-5.36,39.67,-6.10,1.79,60.38,4.01,-1.37,-20.00
0,6,491,7,-605,3848,-0.28,0.33,22.73,0.07,-6.05,38.48,-6.11,1.79,60.29,4.11,-1.39,-20.00
-11,-9,505,55,-548,3998,-0.32,0.24,23.54,0.55,-5.48,39.98,-6.12,1.79,60.20,4.35,-1.06,-20.00
-7,4,559,70,-539,3891,-0.33,0.24,24.59,0.70,-5.39,38.91,-6.13,1.78,60.10,4.28,-1.32,-20.00
-19,-5,570,52,-502,4023,-0.41,0.19,25.61,0.52,-5.02,40.23,-6.13,1.78,60.00,4.55,-1.12,-20.00
-16,-2,601,-54,-475,4054,-0.47,0.15,26.72,-0.54,-4.75,40.54,-6.14,1.77,59.89,4.50,-1.17,-20.00
-9,15,612,-24,-521,3761,-0.48,0.23,27.78,-0.24,-5.21,37.61,-6.15,1.78,59.78,4.37,-1.54,-20.00
-3,17,629,-2,-409,3911,-0.45,0.31,28.84,-0.02,-4.09,39.11,-6.15,1.77,59.67,4.24,-1.60,-20.00
-14,9,636,-56,-466,3948,-0.49,0.34,29.83,-0.56,-4.66,39.48,-6.15,1.77,59.55,4.48,-1.44,-20.00
-1,20,664,40,-471,4057,-0.45,0.42,30.90,0.40,-4.71,40.57,-6.16,1.77,59.43,4.21,-1.69,-20.00
-12,20,651,-35,-291,3659,-0.48,0.50,31.78,-0.35,-2.91,36.59,-6.14,1.77,59.30,4.43,-1.71,-20.00
0,21,569,50,-437,3802,-0.43,0.58,32.07,0.50,-4.37,38.02,-6.14,1.77,59.18,4.17,-1.75,-20.00
-6,19,554,15,-497,3931,-0.42,0.64,32.25,0.15,-4.97,39.31,-6.15,1.77,59.05,4.29,-1.73,-20.00
-3,15,554,-34,-387,3821,-0.40,0.67,32.40,-0.34,-3.87,38.21,-6.14,1.77,58.92,4.22,-1.65,-20.00
-19,21,552,-77,-492,3762,-0.47,0.73,32.53,-0.77,-4.92,37.62,-6.15,1.78,58.79,4.58,-1.80,-20.00
-36,-4,611,53,-529,4194,-0.65,0.63,33.00,0.53,-5.29,41.94,-6.16,1.78,58.66,4.97,-1.26,-20.00
-38,-31,650,51,-412,4107,-0.81,0.38,33.67,0.51,-4.12,41.07,-6.16,1.78,58.53,5.06,-0.64,-20.00
-20,-7,669,-113,-255,3986,-0.85,0.30,34.38,-1.13,-2.55,39.86,-6.14,1.79,58.39,4.69,-1.12,-20.00
-16,8,660,-127,-333,3577,-0.87,0.32,34.97,-1.27,-3.33,35.77,-6.12,1.81,58.25,4.60,-1.44,-20.00
-18,0,590,-221,-210,3851,-0.89,0.29,35.07,-2.21,-2.10,38.51,-6.10,1.84,58.11,4.64,-1.29,-20.00
-16,-9,536,-201,-171,3937,-0.90,0.20,34.83,-2.01,-1.71,39.37,-6.08,1.86,57.97,4.58,-1.10,-20.00
-6,-5,411,-101,-265,3968,-0.84,0.15,33.86,-1.01,-2.65,39.68,-6.06,1.87,57.83,4.35,-1.17,-20.00
-5,1,386,-91,-316,3905,-0.79,0.14,32.83,-0.91,-3.16,39.05,-6.05,1.88,57.70,4.31,-1.30,-20.00
1,7,319,-60,-546,3936,-0.71,0.17,31.49,-0.60,-5.46,39.36,-6.06,1.88,57.58,4.17,-1.43,-20.00
-6,-11,318,-15,-489,4049,-0.67,0.09,30.28,-0.15,-4.89,40.49,-6.07,1.88,57.46,4.31,-1.04,-20.00
-9,2,352,-126,-418,3916,-0.66,0.09,29.40,-1.26,-4.18,39.16,-6.07,1.87,57.34,4.37,-1.30,-20.00
3,25,370,-149,-401,3816,-0.58,0.23,28.72,-1.49,-4.01,38.16,-6.07,1.91,57.23,4.10,-1.83,-20.00
5,27,394,-89,-421,3906,-0.49,0.37,28.25,-0.89,-4.21,39.06,-6.07,1.90,57.11,4.04,-1.91,-20.00
-4,-1,401,21,-368,4084,-0.46,0.33,27.87,0.21,-3.68,40.84,-6.06,1.90,57.00,4.21,-1.32,-20.00
-1,13,369,-6,-427,3885,-0.42,0.38,27.33,-0.06,-4.27,38.85,-6.06,1.89,56.90,4.14,-1.62,-20.00
7,17,341,18,-396,3959,-0.34,0.44,26.68,0.18,-3.96,39.59,-6.06,1.89,56.79,3.95,-1.71,-20.00
-17,0,347,-54,-493,3875,-0.41,0.40,26.13,-0.54,-4.93,38.75,-6.07,1.89,56.69,4.46,-1.35,-20.00
-6,7,348,-67,-384,3919,-0.40,0.40,25.64,-0.67,-3.84,39.19,-6.06,1.88,56.58,4.23,-1.49,-20.00
9,9,317,-70,-425,3918,-0.31,0.42,25.01,-0.70,-4.25,39.18,-6.06,1.88,56.48,3.90,-1.54,-20.00
-12,-11,313,0,-448,3947,-0.35,0.31,24.42,0.00,-4.48,39.47,-6.06,1.87,56.39,4.34,-1.10,-20.00
-3,-1,305,17,-460,3931,-0.33,0.27,23.84,0.17,-4.60,39.31,-6.06,1.86,56.29,4.15,-1.28,-20.00
-4,-13,291,-3,-569,3961,-0.32,0.16,23.23,-0.03,-5.69,39.61,-6.08,1.86,56.20,4.18,-1.01,-20.00
-8,5,378,-13,-713,3907,-0.34,0.18,23.21,-0.13,-7.13,39.07,-6.09,1.87,56.11,4.28,-1.38,-20.00
-19,18,412,-57,-726,3730,-0.42,0.27,23.40,-0.57,-7.26,37.30,-6.11,1.87,56.02,4.53,-1.68,-20.00
-19,9,501,-127,-519,3850,-0.50,0.30,24.12,-1.27,-5.19,38.50,-6.13,1.89,55.92,4.56,-1.51,-20.00
-1,8,520,-184,-342,3893,-0.45,0.32,24.88,-1.84,-3.42,38.93,-6.11,1.91,55.82,4.18,-1.51,-20.00
-15,1,501,-203,-316,3900,-0.50,0.29,25.45,-2.03,-3.16,39.00,-6.09,1.93,55.72,4.46,-1.37,-20.00
-8,3,482,-198,-199,3869,-0.50,0.28,25.84,-1.98,-1.99,38.69,-6.07,1.95,55.62,4.31,-1.42,-20.00
-7,-2,414,-175,-187,3992,-0.49,0.24,25.78,-1.75,-1.87,39.92,-6.05,1.96,55.51,4.27,-1.32,-20.00
-10,4,405,-141,-248,3911,-0.50,0.24,25.68,-1.41,-2.48,39.11,-6.03,1.98,55.41,4.32,-1.45,-20.00
-9,7,332,16,-367,3866,-0.51,0.26,25.13,0.16,-3.67,38.66,-6.03,1.97,55.31,4.30,-1.51,-20.00
5,18,315,-36,-356,3895,-0.43,0.34,24.54,-0.36,-3.56,38.95,-6.02,1.97,55.21,3.99,-1.76,-20.00
-8,-6,196,83,-467,3926,-0.43,0.27,23.28,0.83,-4.67,39.26,-6.02,1.96,55.12,4.25,-1.25,-19.00
-8,-22,158,120,-454,3895,-0.44,0.11,21.92,1.20,-4.54,38.95,-6.02,1.95,55.03,4.26,-0.87,-17.55
-4,-13,97,83,-556,3898,-0.42,0.02,20.32,0.83,-5.56,38.98,-6.03,1.94,54.95,4.18,-1.02,-15.30
-4,-10,114,40,-604,3934,-0.40,-0.04,18.98,0.40,-6.04,39.34,-6.04,1.94,54.88,4.18,-1.06,-15.72
-8,-3,174,68,-605,3911,-0.41,-0.06,18.15,0.68,-6.05,39.11,-6.06,1.93,54.81,4.27,-1.20,-17.66
-7,10,198,-21,-604,3776,-0.41,0.01,17.54,-0.21,-6.04,37.76,-6.07,1.93,54.74,4.26,-1.48,-18.39
-12,3,310,-125,-742,3788,-0.44,0.03,17.68,-1.25,-7.42,37.88,-6.09,1.94,54.67,4.38,-1.35,-20.00
-13,-8,350,-106,-582,4054,-0.48,-0.02,18.04,-1.06,-5.82,40.54,-6.11,1.94,54.60,4.42,-1.11,-20.00
-21,-22,477,-130,-549,4176,-0.56,-0.16,19.15,-1.30,-5.49,41.76,-6.12,1.95,54.52,4.62,-0.80,-20.00
-19,-13,509,-159,-560,3638,-0.62,-0.22,20.34,-1.59,-5.60,36.38,-6.14,1.96,54.44,4.61,-0.97,-20.00
-11,33,542,-159,-405,3802,-0.62,0.00,21.61,-1.59,-4.05,38.02,-6.14,1.99,54.35,4.45,-1.98,-20.00
2,18,535,-43,-347,4235,-0.55,0.11,22.71,-0.43,-3.47,42.35,-6.12,1.98,54.26,4.15,-1.71,-20.00
-11,27,462,0,-472,3969,-0.56,0.27,23.26,0.00,-4.72,39.69,-6.13,1.98,54.17,4.42,-1.93,-20.00
-4,26,433,70,-547,3914,-0.53,0.40,23.58,0.70,-5.47,39.14,-6.14,1.97,54.08,4.28,-1.94,-20.00
-11,7,401,15,-427,4033,-0.54,0.40,23.66,0.15,-4.27,40.33,-6.14,1.97,53.98,4.42,-1.55,-20.00
-19,4,391,11,-468,3815,-0.61,0.39,23.68,0.11,-4.68,38.15,-6.14,1.96,53.89,4.61,-1.48,-20.00
-16,6,375,-68,-534,3830,-0.64,0.38,23.60,-0.68,-5.34,38.30,-6.16,1.97,53.80,4.56,-1.52,-20.00
-15,6,394,-110,-558,3959,-0.67,0.38,23.65,-1.10,-5.58,39.59,-6.17,1.97,53.70,4.56,-1.53,-20.00
-11,3,429,-184,-367,3870,-0.67,0.36,23.90,-1.84,-3.67,38.70,-6.16,2.00,53.61,4.47,-1.48,-20.00
-5,4,441,-151,-434,3907,-0.63,0.35,24.20,-1.51,-4.34,39.07,-6.17,2.02,53.51,4.35,-1.51,-20.00
-27,-13,463,-126,-279,3851,-0.73,0.24,24.60,-1.26,-2.79,38.51,-6.15,2.03,53.41,4.81,-1.14,-20.00
8,10,455,-111,-316,3918,-0.61,0.27,24.92,-1.11,-3.16,39.18,-6.13,2.04,53.31,4.05,-1.62,-20.00
-14,19,437,-49,-519,4046,-0.64,0.36,25.09,-0.49,-5.19,40.46,-6.15,2.04,53.21,4.51,-1.83,-20.00
-12,16,431,5,-492,3741,-0.65,0.42,25.21,0.05,-4.92,37.41,-6.15,2.04,53.12,4.48,-1.78,-20.00
-10,25,346,49,-371,3944,-0.64,0.53,24.80,0.49,-3.71,39.44,-6.15,2.03,53.02,4.44,-1.99,-20.00
-9,14,298,147,-263,4043,-0.63,0.57,24.14,1.47,-2.63,40.43,-6.14,2.03,52.92,4.41,-1.78,-20.00
-1,22,173,2,-437,3920,-0.58,0.64,22.78,0.02,-4.37,39.20,-6.14,2.02,52.83,4.23,-1.96,-17.75
4,14,163,33,-464,3874,-0.49,0.66,21.50,0.33,-4.64,38.74,-6.14,2.02,52.74,4.11,-1.80,-17.26
-1,16,167,56,-433,3942,-0.45,0.70,20.37,0.56,-4.33,39.42,-6.14,2.01,52.66,4.20,-1.84,-17.27
-8,-1,156,30,-348,3960,-0.45,0.62,19.28,0.30,-3.48,39.60,-6.13,2.00,52.59,4.34,-1.47,-16.77
0,-6,111,33,-437,3853,-0.41,0.52,18.03,0.33,-4.37,38.53,-6.14,2.00,52.52,4.16,-1.34,-15.10
-6,-5,112,22,-429,3905,-0.40,0.44,16.91,0.22,-4.29,39.05,-6.14,1.99,52.45,4.28,-1.33,-15.00
-4,2,135,-11,-485,3923,-0.39,0.41,16.04,-0.11,-4.85,39.23,-6.14,1.98,52.39,4.24,-1.46,-15.68
-1,3,139,7,-549,3938,-0.36,0.38,15.29,0.07,-5.49,39.38,-6.16,1.97,52.33,4.18,-1.47,-15.73
3,17,245,103,-759,3990,-0.30,0.45,15.25,1.03,-7.59,39.90,-6.17,1.97,52.27,4.09,-1.77,-19.30
-9,8,288,127,-754,3981,-0.33,0.45,15.48,1.27,-7.54,39.81,-6.18,1.97,52.20,4.35,-1.58,-20.00
-3,8,438,117,-825,3979,-0.31,0.46,16.61,1.17,-8.25,39.79,-6.20,1.97,52.14,4.24,-1.58,-20.00
-7,15,503,125,-809,3884,-0.32,0.50,18.01,1.25,-8.09,38.84,-6.21,1.96,52.07,4.33,-1.74,-20.00
-22,22,733,52,-733,3887,-0.43,0.59,20.68,0.52,-7.33,38.87,-6.23,1.97,51.99,4.67,-1.91,-20.00
0,33,765,29,-706,3756,-0.38,0.73,23.28,0.29,-7.06,37.56,-6.24,1.97,51.89,4.22,-2.17,-20.00
-27,-1,797,38,-513,4049,-0.51,0.65,25.82,0.38,-5.13,40.49,-6.25,1.97,51.79,4.81,-1.46,-20.00
-36,6,789,72,-468,3699,-0.68,0.62,28.05,0.72,-4.68,36.99,-6.25,1.96,51.68,5.04,-1.59,-20.00
-15,-1,689,169,-182,4196,-0.70,0.55,29.45,1.69,-1.82,41.96,-6.24,1.97,51.56,4.61,-1.43,-20.00
-16,13,636,-6,-82,3801,-0.73,0.58,30.38,-0.06,-0.82,38.01,-6.22,1.98,51.44,4.63,-1.73,-20.00
-13,8,519,-192,-346,3881,-0.74,0.57,30.51,-1.92,-3.46,38.81,-6.20,2.00,51.32,4.56,-1.64,-20.00
-38,-18,482,-88,-302,3906,-0.89,0.40,30.40,-0.88,-3.02,39.06,-6.18,2.01,51.20,5.10,-1.07,-20.00
-15,-5,374,-117,-204,3958,-0.90,0.33,29.64,-1.17,-2.04,39.58,-6.17,2.02,51.08,4.62,-1.32,-20.00
-10,-11,336,-156,-219,4058,-0.87,0.23,28.72,-1.56,-2.19,40.58,-6.15,2.04,50.97,4.50,-1.18,-20.00
-5,-5,180,-205,-232,3876,-0.81,0.18,26.95,-2.05,-2.32,38.76,-6.13,2.05,50.86,4.37,-1.30,-18.07
-5,1,152,-171,-300,3875,-0.76,0.17,25.18,-1.71,-3.00,38.75,-6.11,2.07,50.76,4.34,-1.43,-16.92
0,1,94,12,-416,3928,-0.68,0.16,23.24,0.12,-4.16,39.28,-6.11,2.06,50.67,4.22,-1.42,-14.73
0,-1,83,23,-437,3950,-0.62,0.13,21.42,0.23,-4.37,39.50,-6.11,2.05,50.58,4.20,-1.37,-14.15
-2,-3,55,1,-476,3885,-0.57,0.10,19.61,0.01,-4.76,38.85,-6.12,2.05,50.50,4.23,-1.32,-13.00
-4,-6,52,26,-480,3904,-0.53,0.06,17.97,0.26,-4.80,39.04,-6.12,2.04,50.43,4.27,-1.24,-12.72
-4,-10,60,-15,-484,3898,-0.51,-0.01,16.54,-0.15,-4.84,38.98,-6.13,2.03,50.37,4.27,-1.13,-12.83
-6,-13,67,-1,-495,3922,-0.49,-0.09,15.29,-0.01,-4.95,39.22,-6.14,2.02,50.31,4.31,-1.04,-12.92
-6,-12,86,31,-526,3933,-0.48,-0.15,14.29,0.31,-5.26,39.33,-6.15,2.01,50.25,4.31,-1.04,-13.45
-4,-12,90,11,-521,3919,-0.46,-0.21,13.41,0.11,-5.21,39.19,-6.16,2.00,50.20,4.27,-1.02,-13.49
8,-6,130,-94,-556,3845,-0.36,-0.23,12.86,-0.94,-5.56,38.45,-6.18,2.00,50.15,4.01,-1.13,-14.77
-10,-13,143,-84,-550,3925,-0.39,-0.28,12.45,-0.84,-5.50,39.25,-6.19,1.99,50.10,4.40,-0.97,-15.16
-15,-12,197,-125,-466,3934,-0.44,-0.33,12.40,-1.25,-4.66,39.34,-6.21,1.99,50.05,4.52,-0.98,-16.98
-15,-8,212,-130,-516,3891,-0.49,-0.34,12.46,-1.30,-5.16,38.91,-6.23,1.99,50.00,4.55,-1.06,-17.49
-7,3,275,-90,-612,3896,-0.48,-0.29,12.89,-0.90,-6.12,38.96,-6.25,1.99,49.95,4.40,-1.30,-19.66
2,20,322,-75,-643,3934,-0.42,-0.14,13.56,-0.75,-6.43,39.34,-6.26,1.99,49.89,4.21,-1.68,-20.00
-6,-29,328,199,-573,4043,-0.41,-0.30,14.21,1.99,-5.73,40.43,-6.27,1.98,49.84,4.37,-0.64,-20.00
-5,5,324,98,-621,3641,-0.40,-0.24,14.76,0.98,-6.21,36.41,-6.28,1.97,49.78,4.36,-1.34,-20.00
-1,28,264,-25,-474,3734,-0.37,-0.05,14.90,-0.25,-4.74,37.34,-6.29,1.97,49.72,4.27,-1.85,-19.45
-5,10,250,-17,-345,4096,-0.36,0.02,14.93,-0.17,-3.45,40.96,-6.28,1.96,49.66,4.34,-1.50,-18.97
13,10,246,-125,-248,3929,-0.25,0.08,14.94,-1.25,-2.48,39.29,-6.26,1.96,49.60,3.93,-1.52,-18.83
-5,-6,228,-65,-162,3959,-0.25,0.03,14.84,-0.65,-1.62,39.59,-6.24,1.97,49.54,4.29,-1.18,-18.19
-16,-20,156,93,-311,3876,-0.33,-0.09,14.31,0.93,-3.11,38.76,-6.23,1.96,49.48,4.53,-0.86,-15.69
-4,-20,113,83,-294,3905,-0.32,-0.20,13.56,0.83,-2.94,39.05,-6.22,1.95,49.43,4.27,-0.82,-14.14
-12,-33,61,30,-435,3884,-0.36,-0.39,12.58,0.30,-4.35,38.84,-6.22,1.93,49.38,4.45,-0.50,-12.27
-11,-36,48,13,-488,3900,-0.39,-0.57,11.61,0.13,-4.88,39.00,-6.23,1.92,49.33,4.44,-0.38,-11.72
-5,-30,34,19,-535,3936,-0.38,-0.69,10.66,0.19,-5.35,39.36,-6.24,1.90,49.29,4.32,-0.46,-11.14
-3,-24,26,-6,-538,3947,-0.36,-0.77,9.75,-0.06,-5.38,39.47,-6.25,1.89,49.25,4.29,-0.55,-10.77
-1,-2,3,-33,-497,3936,-0.33,-0.71,8.80,-0.33,-4.97,39.36,-6.26,1.88,49.22,4.24,-1.01,-9.88
0,7,-2,-29,-501,3930,-0.30,-0.59,7.90,-0.29,-5.01,39.30,-6.27,1.86,49.19,4.22,-1.21,-9.61
1,13,-8,-37,-472,3938,-0.26,-0.45,7.06,-0.37,-4.72,39.38,-6.28,1.85,49.16,4.20,-1.36,-9.32
3,14,-11,-10,-476,3910,-0.22,-0.32,6.29,-0.10,-4.76,39.10,-6.29,1.83,49.13,4.15,-1.41,-9.13
9,15,-6,24,-478,3897,-0.14,-0.20,5.63,0.24,-4.78,38.97,-6.29,1.82,49.11,4.01,-1.45,-9.22
9,14,-9,17,-455,3871,-0.07,-0.09,5.01,0.17,-4.55,38.71,-6.30,1.80,49.09,3.99,-1.45,-9.05
0,0,2,30,-475,3876,-0.07,-0.08,4.52,0.30,-4.75,38.76,-6.30,1.78,49.07,4.18,-1.15,-9.37
-1,-7,4,4,-470,3898,-0.06,-0.12,4.09,0.04,-4.70,38.98,-6.31,1.77,49.06,4.20,-0.99,-9.39
-3,-13,9,11,-464,3898,-0.08,-0.19,3.74,0.11,-4.64,38.98,-6.31,1.75,49.04,4.25,-0.84,-9.52
-4,-13,9,13,-476,3917,-0.09,-0.25,3.42,0.13,-4.76,39.17,-6.32,1.73,49.03,4.28,-0.81,-9.49
-4,-11,12,-26,-474,3925,-0.11,-0.29,3.15,-0.26,-4.74,39.25,-6.32,1.72,49.02,4.28,-0.83,-9.56
-4,-11,12,-19,-485,3914,-0.12,-0.33,2.91,-0.19,-4.85,39.14,-6.33,1.70,49.00,4.29,-0.81,-9.53
-4,-4,9,-4,-487,3915,-0.13,-0.32,2.67,-0.04,-4.87,39.15,-6.34,1.68,48.99,4.30,-0.94,-9.40
-3,-2,6,-3,-482,3920,-0.14,-0.30,2.44,-0.03,-4.82,39.20,-6.35,1.67,48.98,4.29,-0.98,-9.28
0,5,2,16,-478,3911,-0.13,-0.24,2.21,0.16,-4.78,39.11,-6.35,1.65,48.97,4.23,-1.12,-9.11
1,5,0,22,-480,3909,-0.11,-0.18,1.99,0.22,-4.80,39.09,-6.36,1.63,48.97,4.21,-1.13,-9.02
1,1,0,17,-473,3908,-0.09,-0.16,1.79,0.17,-4.73,39.08,-6.36,1.61,48.96,4.20,-1.04,-9.00
3,0,-1,16,-475,3911,-0.06,-0.14,1.60,0.16,-4.75,39.11,-6.37,1.60,48.95,4.16,-1.01,-8.95
9,10,5,87,-533,3873,-0.00,-0.07,1.47,0.87,-5.33,38.73,-6.38,1.58,48.95,4.03,-1.23,-9.13
12,10,5,74,-536,3918,0.07,-0.00,1.36,0.74,-5.36,39.18,-6.39,1.57,48.94,3.95,-1.24,-9.12
8,4,51,94,-611,3941,0.11,0.02,1.53,0.94,-6.11,39.41,-6.40,1.55,48.94,4.03,-1.11,-10.70
-10,5,65,156,-563,3954,0.04,0.05,1.78,1.56,-5.63,39.54,-6.40,1.54,48.93,4.42,-1.13,-11.20
5,0,78,56,-546,3951,0.07,0.05,2.07,0.56,-5.46,39.51,-6.41,1.52,48.92,4.11,-1.02,-11.67
2,6,104,98,-522,3879,0.07,0.08,2.50,0.98,-5.22,38.79,-6.42,1.51,48.91,4.18,-1.14,-12.59
5,15,157,126,-494,3867,0.10,0.16,3.21,1.26,-4.94,38.67,-6.42,1.49,48.90,4.11,-1.33,-14.46
3,21,183,78,-549,3937,0.10,0.27,4.00,0.78,-5.49,39.37,-6.43,1.48,48.88,4.16,-1.48,-15.42
-9,11,237,68,-371,3901,0.04,0.31,5.05,0.68,-3.71,39.01,-6.43,1.46,48.86,4.41,-1.28,-17.35
12,25,229,-97,-397,3749,0.11,0.43,5.94,-0.97,-3.97,37.49,-6.41,1.47,48.84,3.95,-1.60,-17.17
-1,-4,205,-42,-382,3869,0.09,0.37,6.60,-0.42,-3.82,38.69,-6.39,1.46,48.81,4.21,-0.98,-16.42
-2,-26,202,-23,-434,4035,0.07,0.17,7.17,-0.23,-4.34,40.35,-6.39,1.45,48.79,4.24,-0.47,-16.38
-14,-13,227,68,-604,3910,-0.02,0.08,7.84,0.68,-6.04,39.10,-6.40,1.44,48.75,4.51,-0.70,-17.29
-8,-11,227,65,-528,3886,-0.07,0.00,8.44,0.65,-5.28,38.86,-6.41,1.42,48.72,4.41,-0.72,-17.34
0,-23,153,-90,-448,3918,-0.06,-0.14,8.53,-0.90,-4.48,39.18,-6.42,1.41,48.69,4.25,-0.43,-14.84
-9,-18,155,-8,-476,3891,-0.11,-0.24,8.62,-0.08,-4.76,38.91,-6.43,1.40,48.65,4.46,-0.49,-14.91
-7,3,165,58,-501,3952,-0.14,-0.19,8.77,0.58,-5.01,39.52,-6.43,1.39,48.62,4.43,-0.92,-15.26
3,-6,150,23,-320,4056,-0.11,-0.21,8.80,0.23,-3.20,40.56,-6.42,1.38,48.58,4.21,-0.73,-14.75
-6,-6,94,-122,-402,3919,-0.14,-0.23,8.50,-1.22,-4.02,39.19,-6.40,1.39,48.55,4.39,-0.73,-12.81
-3,-15,57,-3,-431,3816,-0.14,-0.30,7.99,-0.03,-4.31,38.16,-6.40,1.38,48.52,4.33,-0.52,-11.50
-8,-11,70,94,-462,3945,-0.17,-0.33,7.62,0.94,-4.62,39.45,-6.41,1.36,48.49,4.44,-0.58,-11.90
4,1,73,35,-530,3834,-0.13,-0.29,7.31,0.35,-5.30,38.34,-6.42,1.35,48.46,4.19,-0.83,-11.96
-10,-6,89,-54,-471,3949,-0.18,-0.30,7.12,-0.54,-4.71,39.49,-6.43,1.33,48.43,4.49,-0.68,-12.48
-5,-12,84,-28,-464,3897,-0.19,-0.34,6.92,-0.28,-4.64,38.97,-6.43,1.32,48.40,4.40,-0.53,-12.28
-8,-12,66,-104,-445,3854,-0.22,-0.38,6.63,-1.04,-4.45,38.54,-6.44,1.33,48.38,4.48,-0.53,-11.64
-9,-7,63,-84,-493,3880,-0.26,-0.39,6.35,-0.84,-4.93,38.80,-6.46,1.33,48.35,4.52,-0.63,-11.50
-1,-11,24,-97,-427,3928,-0.24,-0.42,5.86,-0.97,-4.27,39.28,-6.45,1.34,48.33,4.34,-0.55,-10.12
-2,-9,23,-57,-467,3906,-0.22,-0.43,5.42,-0.57,-4.67,39.06,-6.46,1.33,48.31,4.36,-0.57,-10.04
1,-7,25,-8,-485,3897,-0.20,-0.43,5.03,-0.08,-4.85,38.97,-6.47,1.31,48.29,4.30,-0.61,-10.06
-2,-9,24,18,-481,3915,-0.19,-0.44,4.67,0.18,-4.81,39.15,-6.47,1.29,48.27,4.36,-0.55,-9.99
-5,-13,26,51,-477,3891,-0.20,-0.48,4.36,0.51,-4.77,38.91,-6.48,1.28,48.25,4.43,-0.45,-10.02
-3,-17,29,59,-485,3896,-0.20,-0.53,4.10,0.59,-4.85,38.96,-6.48,1.26,48.23,4.39,-0.34,-10.09
-8,-32,60,95,-516,3869,-0.23,-0.67,4.06,0.95,-5.16,38.69,-6.49,1.24,48.22,4.51,0.02,-11.14
-5,-35,70,141,-479,3920,-0.24,-0.82,4.08,1.41,-4.79,39.20,-6.49,1.22,48.20,4.45,0.13,-11.47
-14,-36,116,267,-536,3885,-0.30,-0.96,4.38,2.67,-5.36,38.85,-6.50,1.20,48.18,4.66,0.20,-13.06
-20,-40,126,312,-525,3872,-0.39,-1.11,4.71,3.12,-5.25,38.72,-6.50,1.18,48.16,4.81,0.34,-13.43
-36,-47,180,183,-535,3976,-0.57,-1.28,5.34,1.83,-5.35,39.76,-6.51,1.16,48.14,5.19,0.54,-15.32
-33,-10,221,271,-401,3946,-0.71,-1.21,6.15,2.71,-4.01,39.46,-6.51,1.14,48.12,5.16,-0.22,-16.79
-40,10,202,-14,-413,3833,-0.89,-1.03,6.77,-0.14,-4.13,38.33,-6.51,1.12,48.09,5.35,-0.66,-16.21
-10,-18,163,135,-511,3831,-0.86,-1.04,7.09,1.35,-5.11,38.31,-6.52,1.10,48.06,4.74,-0.08,-14.91
31,-11,170,-198,-623,3426,-0.58,-1.00,7.41,-1.98,-6.23,34.26,-6.53,1.11,48.03,3.84,-0.24,-15.18
2,-4,181,-167,-753,4021,-0.51,-0.93,7.78,-1.67,-7.53,40.21,-6.55,1.12,48.00,4.42,-0.40,-15.59
-7,-26,270,92,-673,4022,-0.50,-0.99,8.65,0.92,-6.73,40.22,-6.57,1.11,47.97,4.62,0.07,-18.69
-15,-24,276,-7,-706,3883,-0.55,-1.04,9.47,-0.07,-7.06,38.83,-6.59,1.10,47.93,4.80,0.04,-18.97
-2,-4,347,3,-538,3974,-0.50,-0.96,10.64,0.03,-5.38,39.74,-6.60,1.09,47.88,4.54,-0.38,-20.00
-20,0,361,-75,-508,3906,-0.58,-0.86,11.77,-0.75,-5.08,39.06,-6.62,1.09,47.84,4.93,-0.48,-20.00
-6,17,349,-147,-479,3937,-0.55,-0.67,12.73,-1.47,-4.79,39.37,-6.63,1.11,47.79,4.65,-0.90,-20.00
9,14,340,-174,-474,3928,-0.44,-0.52,13.53,-1.74,-4.74,39.28,-6.63,1.13,47.73,4.32,-0.89,-20.00
-8,8,255,-8,-377,3865,-0.45,-0.42,13.73,-0.08,-3.77,38.65,-6.62,1.13,47.68,4.65,-0.79,-18.66
-1,11,201,-69,-334,3985,-0.41,-0.31,13.58,-0.69,-3.34,39.85,-6.60,1.13,47.62,4.49,-0.88,-16.80
7,31,120,17,-561,3942,-0.33,-0.09,12.96,0.17,-5.61,39.42,-6.62,1.12,47.57,4.31,-1.35,-13.98
2,20,113,-58,-613,3862,-0.28,0.04,12.35,-0.58,-6.13,38.62,-6.63,1.13,47.52,4.41,-1.16,-13.67
-2,-6,127,-48,-545,3766,-0.27,-0.00,11.89,-0.48,-5.45,37.66,-6.65,1.13,47.48,4.50,-0.62,-14.09
1,14,127,-103,-543,3910,-0.23,0.09,11.48,-1.03,-5.43,39.10,-6.67,1.14,47.43,4.44,-1.06,-14.04
4,19,147,-28,-450,3917,-0.18,0.19,11.22,-0.28,-4.50,39.17,-6.67,1.13,47.39,4.37,-1.18,-14.68
4,14,137,28,-466,4021,-0.14,0.26,10.94,0.28,-4.66,40.21,-6.67,1.11,47.34,4.36,-1.09,-14.31
2,25,131,-42,-474,3895,-0.12,0.39,10.64,-0.42,-4.74,38.95,-6.67,1.10,47.30,4.40,-1.34,-14.07
7,28,127,-40,-467,3897,-0.06,0.52,10.35,-0.40,-4.67,38.97,-6.68,1.09,47.26,4.28,-1.43,-13.89
-2,26,160,-52,-469,3879,-0.07,0.62,10.29,-0.52,-4.69,38.79,-6.69,1.09,47.22,4.47,-1.42,-15.00
0,24,165,-27,-505,3869,-0.06,0.71,10.27,-0.27,-5.05,38.69,-6.70,1.08,47.18,4.44,-1.39,-15.16
3,18,121,-58,-442,3951,-0.04,0.75,9.98,-0.58,-4.42,39.51,-6.69,1.08,47.14,4.36,-1.28,-13.63
5,13,115,-37,-514,3919,-0.00,0.75,9.69,-0.37,-5.14,39.19,-6.70,1.07,47.10,4.32,-1.18,-13.39
-2,13,136,-20,-481,3941,-0.01,0.76,9.55,-0.20,-4.81,39.41,-6.71,1.06,47.07,4.47,-1.17,-14.08
0,22,132,-31,-446,3884,-0.01,0.81,9.40,-0.31,-4.46,38.84,-6.70,1.05,47.03,4.43,-1.37,-13.92
4,8,48,-95,-284,3901,0.01,0.78,8.75,-0.95,-2.84,39.01,-6.68,1.06,46.99,4.32,-1.08,-11.00
8,7,27,-47,-414,3905,0.06,0.75,8.04,-0.47,-4.14,39.05,-6.67,1.06,46.96,4.22,-1.05,-10.21
6,0,12,26,-494,3907,0.09,0.67,7.31,0.26,-4.94,39.07,-6.67,1.05,46.93,4.26,-0.88,-9.62
0,-2,17,19,-499,3893,0.08,0.59,6.68,0.19,-4.99,38.93,-6.68,1.04,46.91,4.38,-0.81,-9.72
1,0,14,13,-514,3935,0.08,0.53,6.10,0.13,-5.14,39.35,-6.69,1.03,46.88,4.37,-0.82,-9.55
2,-2,11,-3,-477,3945,0.08,0.47,5.56,-0.03,-4.77,39.45,-6.69,1.02,46.86,4.35,-0.76,-9.39
0,-7,8,15,-471,3924,0.08,0.38,5.05,0.15,-4.71,39.24,-6.69,1.00,46.84,4.40,-0.62,-9.23
1,-6,6,10,-497,3919,0.07,0.30,4.58,0.10,-4.97,39.19,-6.70,0.99,46.82,4.38,-0.61,-9.11
1,-3,6,24,-492,3909,0.07,0.26,4.16,0.24,-4.92,39.09,-6.70,0.97,46.81,4.38,-0.65,-9.06
-2,-3,7,17,-493,3914,0.05,0.21,3.79,0.17,-4.93,39.14,-6.71,0.96,46.79,4.45,-0.63,-9.06
-2,-15,13,5,-491,3916,0.04,0.10,3.49,0.05,-4.91,39.16,-6.72,0.94,46.78,4.46,-0.34,-9.22
-2,-12,18,35,-486,3906,0.02,0.02,3.25,0.35,-4.86,39.06,-6.72,0.93,46.77,4.47,-0.37,-9.37
0,-10,18,12,-490,3923,0.02,-0.05,3.03,0.12,-4.90,39.23,-6.73,0.91,46.75,4.44,-0.39,-9.34
1,-11,20,11,-493,3932,0.02,-0.11,2.85,0.11,-4.93,39.32,-6.73,0.90,46.74,4.42,-0.34,-9.39
-1,-12,18,-15,-459,3936,0.01,-0.17,2.68,-0.15,-4.59,39.36,-6.73,0.88,46.73,4.46,-0.29,-9.30
-5,-10,21,40,-503,3917,-0.02,-0.22,2.54,0.40,-5.03,39.17,-6.74,0.86,46.72,4.55,-0.31,-9.39
0,-3,15,40,-521,3895,-0.02,-0.21,2.37,0.40,-5.21,38.95,-6.75,0.85,46.71,4.46,-0.44,-9.16
1,-1,13,37,-505,3903,-0.01,-0.20,2.22,0.37,-5.05,39.03,-6.75,0.83,46.70,4.44,-0.47,-9.08
2,5,2,10,-490,3918,0.00,-0.15,2.01,0.10,-4.90,39.18,-6.76,0.81,46.70,4.42,-0.60,-8.68
3,8,-1,15,-492,3923,0.02,-0.08,1.80,0.15,-4.92,39.23,-6.77,0.80,46.69,4.40,-0.67,-8.56
3,13,-10,-2,-495,3947,0.04,0.00,1.56,-0.02,-4.95,39.47,-6.78,0.78,46.68,4.40,-0.78,-8.23
10,15,-16,8,-473,3926,0.10,0.10,1.31,0.08,-4.73,39.26,-6.78,0.76,46.68,4.24,-0.83,-8.00
6,12,-6,39,-500,3907,0.12,0.16,1.14,0.39,-5.00,39.07,-6.78,0.75,46.67,4.32,-0.78,-8.32
9,13,-7,26,-476,3898,0.17,0.22,0.98,0.26,-4.76,38.98,-6.79,0.73,46.67,4.25,-0.81,-8.27
7,8,0,38,-484,3888,0.19,0.25,0.88,0.38,-4.84,38.88,-6.79,0.71,46.67,4.29,-0.70,-8.49
2,-1,-3,-26,-469,3891,0.18,0.22,0.78,-0.26,-4.69,38.91,-6.79,0.70,46.66,4.39,-0.50,-8.38
-2,-16,2,9,-460,3916,0.15,0.10,0.71,0.09,-4.60,39.16,-6.79,0.68,46.66,4.48,-0.15,-8.54
-1,-14,4,8,-463,3926,0.13,0.00,0.66,0.08,-4.63,39.26,-6.79,0.66,46.66,4.46,-0.15,-8.60
2,-3,10,2,-473,3925,0.13,-0.02,0.66,0.02,-4.73,39.25,-6.79,0.64,46.66,4.40,-0.36,-8.81
2,-1,12,-1,-481,3930,0.13,-0.02,0.67,-0.01,-4.81,39.30,-6.79,0.63,46.65,4.41,-0.39,-8.87
4,-1,20,18,-483,3902,0.14,-0.02,0.72,0.18,-4.83,39.02,-6.80,0.61,46.65,4.37,-0.38,-9.15
3,-2,22,18,-481,3909,0.15,-0.03,0.78,0.18,-4.81,39.09,-6.80,0.59,46.65,4.39,-0.34,-9.22
4,-2,29,12,-466,3941,0.16,-0.04,0.88,0.12,-4.66,39.41,-6.80,0.57,46.64,4.36,-0.33,-9.47
-13,-6,29,6,-373,3986,0.06,-0.07,0.97,0.06,-3.73,39.86,-6.78,0.57,46.64,4.72,-0.23,-9.48
-1,-8,11,-6,-500,3925,0.05,-0.12,0.94,-0.06,-5.00,39.25,-6.80,0.55,46.64,4.49,-0.17,-8.87
-2,-9,19,39,-519,3880,0.03,-0.16,0.96,0.39,-5.19,38.80,-6.81,0.54,46.63,4.52,-0.13,-9.14
0,-1,10,58,-515,3928,0.03,-0.15,0.93,0.58,-5.15,39.28,-6.81,0.52,46.63,4.49,-0.28,-8.83
0,3,8,58,-510,3931,0.03,-0.12,0.88,0.58,-5.10,39.31,-6.82,0.51,46.62,4.50,-0.36,-8.76
1,8,-19,67,-468,3932,0.03,-0.06,0.68,0.67,-4.68,39.32,-6.82,0.49,46.62,4.47,-0.47,-7.82
2,5,-31,69,-457,3918,0.04,-0.02,0.42,0.69,-4.57,39.18,-6.82,0.47,46.62,4.45,-0.41,-7.39
-1,4,-50,68,-415,3897,0.03,0.01,0.08,0.68,-4.15,38.97,-6.81,0.45,46.62,4.51,-0.38,-6.70
0,5,-57,71,-385,3886,0.03,0.04,-0.28,0.71,-3.85,38.86,-6.80,0.44,46.62,4.48,-0.40,-6.43
6,-4,-92,48,-374,3920,0.06,0.01,-0.81,0.48,-3.74,39.20,-6.78,0.43,46.62,4.34,-0.20,-5.19
1,-3,-88,-5,-377,3876,0.06,-0.01,-1.27,-0.05,-3.77,38.76,-6.77,0.42,46.63,4.43,-0.21,-5.28
-7,-10,-68,-87,-319,3947,0.01,-0.07,-1.56,-0.87,-3.19,39.47,-6.75,0.43,46.63,4.59,-0.06,-5.93
30,-1,-78,-220,-260,3772,0.19,-0.07,-1.88,-2.20,-2.60,37.72,-6.74,0.44,46.64,3.78,-0.25,-5.56
2,-16,-95,87,-691,3941,0.19,-0.16,-2.27,0.87,-6.91,39.41,-6.75,0.43,46.65,4.37,0.09,-4.94
-11,-25,-88,123,-621,4056,0.10,-0.30,-2.58,1.23,-6.21,40.56,-6.76,0.41,46.66,4.66,0.32,-5.15
18,10,-78,-153,-417,3834,0.20,-0.21,-2.80,-1.53,-4.17,38.34,-6.76,0.43,46.67,4.04,-0.43,-5.47
13,22,-108,-92,-541,3802,0.26,-0.05,-3.18,-0.92,-5.41,38.02,-6.77,0.44,46.68,4.13,-0.72,-4.41
4,-6,-70,77,-731,3959,0.26,-0.08,-3.29,0.77,-7.31,39.59,-6.79,0.43,46.70,4.33,-0.14,-5.69
-2,-15,-37,101,-726,3967,0.22,-0.17,-3.18,1.01,-7.26,39.67,-6.80,0.42,46.71,4.47,0.08,-6.82
4,-1,-2,57,-524,3908,0.22,-0.16,-2.88,0.57,-5.24,39.08,-6.81,0.40,46.72,4.35,-0.20,-8.04
1,-4,7,19,-524,3908,0.21,-0.16,-2.55,0.19,-5.24,39.08,-6.83,0.39,46.73,4.43,-0.13,-8.38
1,-8,16,9,-486,3910,0.19,-0.20,-2.19,0.09,-4.86,39.10,-6.83,0.37,46.74,4.44,-0.03,-8.73
-5,-9,16,-8,-453,3913,0.14,-0.23,-1.88,-0.08,-4.53,39.13,-6.82,0.35,46.75,4.56,0.01,-8.76
-4,-9,14,17,-495,3905,0.10,-0.26,-1.60,0.17,-4.95,39.05,-6.83,0.34,46.75,4.56,0.03,-8.72
-4,-8,13,16,-490,3917,0.07,-0.29,-1.36,0.16,-4.90,39.17,-6.84,0.32,46.76,4.58,0.03,-8.71
-2,-3,9,17,-497,3918,0.05,-0.28,-1.17,0.17,-4.97,39.18,-6.85,0.30,46.76,4.55,-0.06,-8.60
-1,-2,7,12,-488,3917,0.04,-0.26,-1.01,0.12,-4.88,39.17,-6.86,0.28,46.77,4.54,-0.08,-8.55
0,6,5,-3,-480,3932,0.03,-0.20,-0.88,-0.03,-4.80,39.32,-6.86,0.27,46.77,4.52,-0.24,-8.50
0,4,5,-17,-474,3916,0.03,-0.15,-0.76,-0.17,-4.74,39.16,-6.88,0.26,46.77,4.53,-0.21,-8.51
3,5,5,23,-500,3902,0.05,-0.11,-0.66,0.23,-5.00,39.02,-6.89,0.24,46.78,4.47,-0.23,-8.52
2,6,5,21,-486,3907,0.05,-0.06,-0.56,0.21,-4.86,39.07,-6.90,0.22,46.78,4.50,-0.25,-8.53
1,1,10,28,-475,3910,0.05,-0.05,-0.44,0.28,-4.75,39.10,-6.90,0.20,46.78,4.52,-0.14,-8.71
2,-2,14,28,-472,3911,0.06,-0.06,-0.31,0.28,-4.72,39.11,-6.90,0.19,46.78,4.49,-0.07,-8.86
-10,-14,27,7,-400,3825,-0.01,-0.14,-0.12,0.07,-4.00,38.25,-6.88,0.18,46.78,4.75,0.20,-9.32
-8,-10,28,7,-380,3891,-0.05,-0.18,0.07,0.07,-3.80,38.91,-6.86,0.17,46.78,4.71,0.14,-9.38
-9,-26,43,55,-464,3926,-0.10,-0.32,0.32,0.55,-4.64,39.26,-6.86,0.16,46.78,4.74,0.51,-9.91
-8,-28,47,67,-511,3896,-0.14,-0.46,0.58,0.67,-5.11,38.96,-6.87,0.14,46.78,4.74,0.60,-10.07
-6,-13,45,-11,-390,3944,-0.16,-0.49,0.79,-0.11,-3.90,39.44,-6.85,0.14,46.78,4.69,0.31,-10.03
-16,-6,46,18,-316,4095,-0.25,-0.48,0.99,0.18,-3.16,40.95,-6.84,0.13,46.77,4.90,0.17,-10.08
7,17,85,-83,-437,3827,-0.18,-0.33,1.41,-0.83,-4.37,38.27,-6.83,0.15,46.77,4.41,-0.35,-11.45
13,33,93,-67,-518,3855,-0.08,-0.10,1.84,-0.67,-5.18,38.55,-6.84,0.16,46.76,4.27,-0.75,-11.76
3,19,76,75,-611,3904,-0.05,0.03,2.12,0.75,-6.11,39.04,-6.86,0.15,46.75,4.48,-0.50,-11.21
3,20,67,42,-555,3906,-0.03,0.15,2.32,0.42,-5.55,39.06,-6.88,0.15,46.74,4.49,-0.54,-10.93
3,19,63,-19,-446,3930,-0.01,0.25,2.47,-0.19,-4.46,39.30,-6.86,0.15,46.73,4.47,-0.56,-10.80
3,16,66,5,-480,3913,0.01,0.32,2.62,0.05,-4.80,39.13,-6.87,0.14,46.72,4.47,-0.51,-10.92
8,21,52,84,-540,3894,0.06,0.42,2.68,0.84,-5.40,38.94,-6.88,0.13,46.71,4.36,-0.63,-10.45
9,20,42,47,-571,3882,0.11,0.50,2.67,0.47,-5.71,38.82,-6.89,0.12,46.70,4.34,-0.62,-10.11
5,10,21,46,-495,3902,0.13,0.51,2.53,0.46,-4.95,39.02,-6.90,0.11,46.69,4.42,-0.41,-9.38
5,8,16,35,-493,3898,0.14,0.51,2.37,0.35,-4.93,38.98,-6.91,0.10,46.68,4.42,-0.36,-9.19
1,4,14,22,-531,3891,0.14,0.48,2.22,0.22,-5.31,38.91,-6.92,0.09,46.67,4.51,-0.27,-9.11
-1,0,11,7,-517,3898,0.12,0.43,2.07,0.07,-5.17,38.98,-6.94,0.09,46.66,4.57,-0.18,-8.99
0,2,7,5,-483,3921,0.10,0.40,1.90,0.05,-4.83,39.21,-6.95,0.08,46.66,4.56,-0.20,-8.83
-1,5,7,-11,-484,3928,0.09,0.39,1.75,-0.11,-4.84,39.28,-6.96,0.09,46.65,4.59,-0.27,-8.82
-2,14,1,-7,-493,3919,0.07,0.44,1.59,-0.07,-4.93,39.19,-6.98,0.09,46.64,4.63,-0.47,-8.60
-3,11,-3,-14,-518,3946,0.04,0.46,1.41,-0.14,-5.18,39.46,-7.00,0.10,46.64,4.67,-0.42,-8.44
-4,13,-14,-3,-491,3920,0.01,0.49,1.18,-0.03,-4.91,39.20,-7.01,0.10,46.63,4.71,-0.46,-8.04
-3,14,-16,18,-510,3926,-0.01,0.53,0.97,0.18,-5.10,39.26,-7.03,0.09,46.63,4.70,-0.49,-7.95
17,36,60,157,-946,3846,0.10,0.70,1.24,1.57,-9.46,38.46,-7.04,0.08,46.63,4.28,-0.98,-10.56
13,38,136,219,-1047,3897,0.17,0.86,1.94,2.19,-10.47,38.97,-7.06,0.08,46.62,4.35,-1.06,-13.20
-9,-1,448,297,-965,4047,0.10,0.77,4.48,2.97,-9.65,40.47,-7.07,0.08,46.60,4.83,-0.24,-20.00
-11,24,545,287,-994,3760,0.02,0.84,7.36,2.87,-9.94,37.60,-7.09,0.08,46.57,4.90,-0.77,-20.00
-21,40,845,263,-874,3816,-0.11,1.00,11.78,2.63,-8.74,38.16,-7.11,0.07,46.53,5.15,-1.13,-20.00
-7,23,956,196,-801,3862,-0.14,1.04,16.43,1.96,-8.01,38.62,-7.12,0.08,46.46,4.88,-0.80,-20.00
-56,2,1096,284,-578,3951,-0.47,0.95,21.47,2.84,-5.78,39.51,-7.13,0.07,46.38,5.97,-0.35,-20.00
-11,16,1124,332,-392,4192,-0.49,0.95,26.18,3.32,-3.92,41.92,-7.12,0.07,46.27,5.06,-0.63,-20.00
-31,40,1146,72,-258,3948,-0.63,1.10,30.55,0.72,-2.58,39.48,-7.11,0.09,46.15,5.49,-1.17,-20.00
-30,45,1125,-36,-241,3717,-0.75,1.26,34.36,-0.36,-2.41,37.17,-7.09,0.11,46.02,5.50,-1.33,-20.00
-17,-1,998,-217,85,3845,-0.78,1.13,37.01,-2.17,0.85,38.45,-7.08,0.14,45.87,5.23,-0.38,-20.00
-19,-27,950,-262,149,4029,-0.82,0.85,39.11,-2.62,1.49,40.29,-7.06,0.17,45.72,5.27,0.20,-20.00
-19,-61,665,-218,390,4130,-0.85,0.40,39.25,-2.18,3.90,41.30,-7.05,0.20,45.56,5.27,1.00,-20.00
-20,-7,614,-181,89,3895,-0.89,0.31,39.07,-1.81,0.89,38.95,-7.04,0.22,45.41,5.29,-0.09,-20.00
-36,-31,410,-31,-218,3894,-1.02,0.09,37.67,-0.31,-2.18,38.94,-7.02,0.24,45.26,5.64,0.45,-20.00
-31,-23,299,220,-77,4032,-1.11,-0.06,35.72,2.20,-0.77,40.32,-7.01,0.25,45.11,5.56,0.32,-20.00
-2,54,204,74,-418,3946,-1.01,0.28,33.40,0.74,-4.18,39.46,-7.00,0.25,44.98,4.94,-1.34,-18.50
12,50,214,115,-448,3974,-0.83,0.56,31.36,1.15,-4.48,39.74,-7.00,0.25,44.86,4.60,-1.33,-18.60
-1,28,223,58,-401,3846,-0.76,0.67,29.59,0.58,-4.01,38.46,-6.99,0.26,44.74,4.84,-0.92,-18.70
2,27,217,52,-307,3894,-0.67,0.77,27.95,0.52,-3.07,38.94,-6.97,0.27,44.63,4.74,-0.93,-18.31
-4,14,228,-43,-494,3813,-0.63,0.78,26.55,-0.43,-4.94,38.13,-6.99,0.29,44.52,4.87,-0.69,-18.51
12,13,243,-35,-587,3832,-0.49,0.78,25.37,-0.35,-5.87,38.32,-7.01,0.31,44.42,4.52,-0.68,-18.88
51,20,278,39,-577,3832,-0.13,0.82,24.53,0.39,-5.77,38.32,-7.02,0.32,44.33,3.63,-0.84,-19.96
5,7,276,127,-807,3876,-0.09,0.78,23.76,1.27,-8.07,38.76,-7.04,0.32,44.23,4.57,-0.57,-19.80
1,7,252,144,-506,4158,-0.07,0.75,22.92,1.44,-5.06,41.58,-7.04,0.32,44.14,4.65,-0.56,-18.88
1,47,281,55,-639,3766,-0.06,0.96,22.35,0.55,-6.39,37.66,-7.06,0.33,44.05,4.65,-1.43,-19.79
11,41,314,-106,-549,3883,0.01,1.11,22.03,-1.06,-5.49,38.83,-7.07,0.36,43.97,4.44,-1.37,-20.00
0,20,306,-148,-523,3973,0.01,1.12,21.69,-1.48,-5.23,39.73,-7.07,0.39,43.88,4.66,-0.97,-20.00
7,-9,276,-107,-663,3902,0.05,0.96,21.20,-1.07,-6.63,39.02,-7.09,0.41,43.80,4.52,-0.35,-19.45
-23,-14,254,68,-570,3923,-0.09,0.78,20.63,0.68,-5.70,39.23,-7.10,0.41,43.72,5.18,-0.20,-18.63
-28,-8,236,-25,-549,4120,-0.25,0.65,20.01,-0.25,-5.49,41.20,-7.12,0.42,43.64,5.34,-0.29,-17.94
-11,-13,238,-78,-586,3904,-0.29,0.51,19.46,-0.78,-5.86,39.04,-7.13,0.44,43.56,5.01,-0.16,-17.94
0,20,260,-53,-620,3830,-0.27,0.58,19.10,-0.53,-6.20,38.30,-7.15,0.46,43.49,4.79,-0.86,-18.63
-19,14,271,-91,-720,3925,-0.35,0.60,18.84,-0.91,-7.20,39.25,-7.17,0.47,43.41,5.22,-0.76,-18.97
-2,15,284,-68,-701,4112,-0.33,0.64,18.69,-0.68,-7.01,41.12,-7.19,0.49,43.34,4.88,-0.80,-19.38
-6,-5,259,12,-618,3961,-0.33,0.54,18.40,0.12,-6.18,39.61,-7.21,0.49,43.27,4.97,-0.37,-18.49
-1,24,302,-137,-670,3956,-0.31,0.63,18.40,-1.37,-6.70,39.56,-7.22,0.51,43.19,4.87,-1.00,-19.93
0,27,340,-179,-726,3808,-0.28,0.74,18.64,-1.79,-7.26,38.08,-7.24,0.54,43.12,4.85,-1.10,-20.00
-5,7,425,-106,-762,3682,-0.28,0.70,19.37,-1.06,-7.62,36.82,-7.26,0.55,43.04,4.97,-0.70,-20.00
-25,27,430,6,-868,3803,-0.40,0.80,20.05,0.06,-8.68,38.03,-7.28,0.56,42.96,5.42,-1.14,-20.00
-13,26,533,-20,-575,4074,-0.44,0.88,21.30,-0.20,-5.75,40.74,-7.29,0.57,42.88,5.20,-1.14,-20.00
1,31,578,-179,-568,3996,-0.39,0.98,22.69,-1.79,-5.68,39.96,-7.30,0.60,42.79,4.91,-1.30,-20.00
-13,37,649,-270,-465,3811,-0.43,1.11,24.38,-2.70,-4.65,38.11,-7.30,0.64,42.69,5.20,-1.48,-20.00
2,32,649,-279,-410,3957,-0.38,1.19,25.90,-2.79,-4.10,39.57,-7.29,0.67,42.59,4.88,-1.42,-20.00
0,11,626,-222,-86,4270,-0.34,1.14,27.13,-2.22,-0.86,42.70,-7.28,0.70,42.48,4.90,-1.00,-20.00
-13,69,574,-43,-107,3861,-0.38,1.45,27.92,-0.43,-1.07,38.61,-7.26,0.72,42.37,5.16,-2.27,-20.00
32,53,428,-40,-455,4157,-0.15,1.62,27.74,-0.40,-4.55,41.57,-7.24,0.74,42.26,4.17,-2.01,-20.00
3,36,412,93,-549,3813,-0.12,1.68,27.48,0.93,-5.49,38.13,-7.25,0.74,42.16,4.75,-1.68,-20.00
32,81,467,199,-727,3825,0.09,2.01,27.58,1.99,-7.27,38.25,-7.26,0.75,42.05,4.12,-2.69,-20.00
45,97,489,180,-783,3593,0.35,2.40,27.80,1.80,-7.83,35.93,-7.27,0.76,41.94,3.79,-3.13,-20.00
124,222,399,101,-364,4188,1.08,3.51,27.46,1.01,-3.64,41.88,-7.25,0.78,41.83,1.97,-5.98,-20.00
103,164,365,85,-220,4354,1.60,4.16,26.94,0.85,-2.20,43.54,-7.23,0.80,41.73,2.24,-5.00,-20.00
-81,-128,290,165,-183,4075,0.94,2.97,26.01,1.65,-1.83,40.75,-7.21,0.81,41.63,6.15,1.26,-20.00
-69,-96,268,111,-194,3704,0.43,2.08,25.05,1.11,-1.94,37.04,-7.19,0.83,41.53,6.03,0.84,-19.17
44,73,173,-76,-359,3584,0.65,2.32,23.60,-0.76,-3.59,35.84,-7.17,0.85,41.43,3.66,-2.68,-15.79
54,84,126,-160,-257,3937,0.92,2.60,22.01,-1.60,-2.57,39.37,-7.14,0.88,41.35,3.37,-3.00,-14.01
-27,-50,92,-92,-284,3995,0.66,2.04,20.37,-0.92,-2.84,39.95,-7.12,0.90,41.27,5.07,-0.13,-12.67
-36,-58,92,-48,-310,3919,0.38,1.48,18.89,-0.48,-3.10,39.19,-7.10,0.91,41.19,5.32,0.17,-12.51
7,6,47,-22,-297,3874,0.38,1.37,17.29,-0.22,-2.97,38.74,-7.08,0.92,41.12,4.43,-1.10,-10.80
13,9,25,3,-364,3933,0.42,1.29,15.71,0.03,-3.64,39.33,-7.06,0.93,41.06,4.28,-1.15,-9.88
-8,-18,22,13,-426,3901,0.33,1.05,14.28,0.13,-4.26,39.01,-7.05,0.92,41.01,4.72,-0.53,-9.62
0,-18,13,19,-439,3888,0.30,0.83,12.93,0.19,-4.39,38.88,-7.04,0.92,40.96,4.56,-0.47,-9.16
12,4,35,144,-498,3943,0.34,0.77,11.85,1.44,-4.98,39.43,-7.04,0.91,40.91,4.31,-0.89,-9.79
12,1,50,123,-599,3884,0.38,0.70,10.97,1.23,-5.99,38.84,-7.05,0.90,40.87,4.30,-0.81,-10.20
1,-2,145,79,-532,3950,0.35,0.62,10.76,0.79,-5.32,39.50,-7.05,0.89,40.82,4.54,-0.72,-13.39
1,14,178,-10,-464,3891,0.32,0.64,10.77,-0.10,-4.64,38.91,-7.04,0.88,40.78,4.54,-1.04,-14.50
-14,-8,219,-57,-477,4011,0.20,0.53,11.03,-0.57,-4.77,40.11,-7.02,0.88,40.74,4.86,-0.57,-15.91
-14,-5,217,-98,-408,3899,0.10,0.45,11.25,-0.98,-4.08,38.99,-7.00,0.90,40.69,4.88,-0.61,-15.85
-17,-4,174,-73,-452,3891,-0.02,0.38,11.18,-0.73,-4.52,38.91,-6.99,0.91,40.65,4.96,-0.63,-14.38
-14,5,159,-67,-419,3889,-0.10,0.37,11.03,-0.67,-4.19,38.89,-6.97,0.92,40.60,4.91,-0.81,-13.85
4,6,45,-99,-375,3886,-0.07,0.37,10.21,-0.99,-3.75,38.86,-6.95,0.94,40.56,4.52,-0.84,-9.89
4,8,29,-58,-513,3886,-0.04,0.38,9.36,-0.58,-5.13,38.86,-6.97,0.94,40.53,4.53,-0.89,-9.26
1,6,10,-9,-440,3902,-0.03,0.38,8.49,-0.09,-4.40,39.02,-6.96,0.93,40.49,4.58,-0.84,-8.51
8,8,5,-10,-455,3938,0.03,0.39,7.67,-0.10,-4.55,39.38,-6.95,0.92,40.46,4.42,-0.88,-8.25
0,4,16,-20,-442,3930,0.02,0.38,7.00,-0.20,-4.42,39.30,-6.94,0.91,40.43,4.57,-0.78,-8.55
-5,-6,13,-23,-434,3927,-0.01,0.30,6.38,-0.23,-4.34,39.27,-6.92,0.90,40.41,4.67,-0.55,-8.38
-7,-8,20,-51,-493,3926,-0.05,0.22,5.86,-0.51,-4.93,39.26,-6.94,0.89,40.39,4.74,-0.49,-8.56
-11,-7,27,-55,-469,3927,-0.11,0.16,5.44,-0.55,-4.69,39.27,-6.92,0.89,40.36,4.82,-0.49,-8.75
-4,-9,31,-107,-385,3895,-0.13,0.09,5.09,-1.07,-3.85,38.95,-6.91,0.90,40.34,4.68,-0.43,-8.84
-13,-10,47,-96,-478,3894,-0.19,0.02,4.86,-0.96,-4.78,38.94,-6.91,0.92,40.32,4.88,-0.41,-9.36
14,24,78,27,-497,3873,-0.09,0.16,4.85,0.27,-4.97,38.73,-6.92,0.90,40.31,4.30,-1.13,-10.41
10,26,76,30,-476,3907,-0.02,0.30,4.83,0.30,-4.76,39.07,-6.92,0.89,40.29,4.37,-1.20,-10.33
5,-2,31,44,-468,3926,0.01,0.26,4.54,0.44,-4.68,39.26,-6.92,0.87,40.27,4.46,-0.61,-8.77
3,-3,27,60,-508,3909,0.03,0.22,4.25,0.60,-5.08,39.09,-6.92,0.86,40.25,4.50,-0.57,-8.60
16,17,19,54,-489,3881,0.13,0.30,3.94,0.54,-4.89,38.81,-6.92,0.84,40.24,4.21,-0.98,-8.30
12,11,5,40,-463,3942,0.19,0.34,3.58,0.40,-4.63,39.42,-6.92,0.83,40.22,4.27,-0.86,-7.78
29,23,2,141,-566,3893,0.34,0.44,3.23,1.41,-5.66,38.93,-6.93,0.82,40.21,3.89,-1.13,-7.64
35,35,12,154,-561,3857,0.52,0.61,2.98,1.54,-5.61,38.57,-6.93,0.80,40.20,3.72,-1.41,-7.95
24,37,104,259,-635,4062,0.62,0.78,3.32,2.59,-6.35,40.62,-6.93,0.79,40.19,3.92,-1.49,-11.10
6,21,133,221,-653,3943,0.59,0.83,3.80,2.21,-6.53,39.43,-6.94,0.78,40.17,4.30,-1.17,-12.13
-51,-44,221,122,-493,3933,0.22,0.48,4.77,1.22,-4.93,39.33,-6.94,0.77,40.15,5.56,0.26,-15.21
-23,-37,233,114,-453,3843,0.06,0.20,5.71,1.14,-4.53,38.43,-6.94,0.75,40.13,5.03,0.20,-15.72
-17,3,253,-208,-513,3671,-0.05,0.20,6.68,-2.08,-5.13,36.71,-6.95,0.77,40.10,4.94,-0.63,-16.49
18,16,244,-170,-298,3868,0.06,0.28,7.50,-1.70,-2.98,38.68,-6.93,0.79,40.07,4.19,-0.92,-16.27
8,8,138,-81,-371,4023,0.11,0.30,7.59,-0.81,-3.71,40.23,-6.91,0.80,40.04,4.37,-0.77,-12.68
-7,-18,101,-43,-372,3943,0.05,0.16,7.45,-0.43,-3.72,39.43,-6.89,0.80,40.01,4.68,-0.20,-11.40
-2,-3,33,-121,-462,3899,0.04,0.13,6.91,-1.21,-4.62,38.99,-6.89,0.82,39.99,4.58,-0.51,-9.04
-6,0,32,-79,-517,3837,-0.00,0.11,6.41,-0.79,-5.17,38.37,-6.91,0.83,39.96,4.68,-0.58,-8.95
-3,6,49,-12,-474,3968,-0.02,0.14,6.07,-0.12,-4.74,39.68,-6.90,0.82,39.94,4.62,-0.70,-9.48
-1,8,46,-73,-431,3915,-0.03,0.17,5.74,-0.73,-4.31,39.15,-6.89,0.83,39.91,4.57,-0.76,-9.34
-7,-5,13,-44,-420,3917,-0.07,0.13,5.25,-0.44,-4.20,39.17,-6.87,0.83,39.89,4.69,-0.48,-8.17
-8,-10,17,-27,-415,3941,-0.11,0.05,4.83,-0.27,-4.15,39.41,-6.85,0.82,39.87,4.72,-0.35,-8.26
-6,2,35,-103,-499,3845,-0.13,0.06,4.56,-1.03,-4.99,38.45,-6.86,0.84,39.86,4.69,-0.61,-8.84
-1,9,40,-137,-487,3851,-0.13,0.11,4.35,-1.37,-4.87,38.51,-6.87,0.86,39.84,4.59,-0.78,-8.98
-6,-9,37,-110,-436,3960,-0.15,0.04,4.14,-1.10,-4.36,39.60,-6.86,0.87,39.82,4.69,-0.40,-8.85
-15,-19,46,-117,-419,3970,-0.23,-0.08,4.00,-1.17,-4.19,39.70,-6.85,0.89,39.81,4.89,-0.18,-9.14
-22,-31,39,-78,-440,3877,-0.34,-0.26,3.84,-0.78,-4.40,38.77,-6.83,0.90,39.79,5.05,0.11,-8.89
-20,-27,40,-66,-502,3859,-0.43,-0.40,3.70,-0.66,-5.02,38.59,-6.85,0.90,39.78,5.05,0.06,-8.90
-1,-4,57,41,-522,3876,-0.39,-0.38,3.68,0.41,-5.22,38.76,-6.86,0.89,39.76,4.66,-0.40,-9.47
3,-2,59,59,-519,3892,-0.33,-0.36,3.67,0.59,-5.19,38.92,-6.87,0.87,39.75,4.56,-0.44,-9.54
0,-9,50,72,-430,3975,-0.30,-0.38,3.61,0.72,-4.30,39.75,-6.86,0.85,39.73,4.61,-0.28,-9.22
-1,-8,41,45,-376,3940,-0.28,-0.39,3.50,0.45,-3.76,39.40,-6.85,0.84,39.72,4.62,-0.29,-8.90
2,8,0,23,-387,3916,-0.24,-0.30,3.15,0.23,-3.87,39.16,-6.84,0.83,39.70,4.54,-0.63,-7.48
3,7,-8,0,-401,3903,-0.19,-0.23,2.78,0.00,-4.01,39.03,-6.83,0.81,39.69,4.50,-0.62,-7.16
-9,-18,-28,-50,-529,3878,-0.23,-0.31,2.34,-0.50,-5.29,38.78,-6.85,0.81,39.68,4.76,-0.09,-6.44
-3,1,-26,51,-470,3844,-0.22,-0.28,1.94,0.51,-4.70,38.44,-6.85,0.79,39.68,4.64,-0.47,-6.46
11,11,-27,38,-647,3894,-0.14,-0.18,1.58,0.38,-6.47,38.94,-6.87,0.79,39.67,4.34,-0.69,-6.39
3,-1,-12,-10,-591,3921,-0.10,-0.17,1.35,-0.10,-5.91,39.21,-6.88,0.78,39.67,4.51,-0.45,-6.87
8,8,-18,-26,-488,3925,-0.04,-0.10,1.11,-0.26,-4.88,39.25,-6.89,0.76,39.66,4.40,-0.64,-6.64
6,10,-20,-43,-507,3941,-0.00,-0.03,0.87,-0.43,-5.07,39.41,-6.91,0.76,39.66,4.44,-0.69,-6.55
-4,7,2,-26,-457,3920,-0.03,0.01,0.80,-0.26,-4.57,39.20,-6.90,0.74,39.65,4.64,-0.64,-7.29
-2,5,3,-22,-471,3932,-0.04,0.04,0.74,-0.22,-4.71,39.32,-6.90,0.73,39.65,4.60,-0.59,-7.32
-9,-15,9,-38,-370,3900,-0.09,-0.05,0.72,-0.38,-3.70,39.00,-6.88,0.72,39.65,4.75,-0.16,-7.52
-8,-22,3,-15,-427,3927,-0.13,-0.18,0.67,-0.15,-4.27,39.27,-6.86,0.71,39.65,4.73,0.03,-7.31
-12,-20,7,28,-418,3920,-0.19,-0.29,0.64,0.28,-4.18,39.20,-6.85,0.70,39.64,4.82,0.02,-7.44
0,3,-14,37,-341,3819,-0.17,-0.24,0.49,0.37,-3.41,38.19,-6.84,0.69,39.64,4.56,-0.45,-6.71
4,8,-31,-53,-583,3959,-0.13,-0.17,0.25,-0.53,-5.83,39.59,-6.86,0.69,39.64,4.48,-0.57,-6.11
-7,-14,-28,13,-573,3964,-0.16,-0.24,0.06,0.13,-5.73,39.64,-6.87,0.68,39.64,4.72,-0.10,-6.19
-11,-8,3,-43,-531,3907,-0.21,-0.26,0.07,-0.43,-5.31,39.07,-6.89,0.67,39.64,4.83,-0.21,-7.24
-10,0,9,-21,-483,3916,-0.25,-0.23,0.12,-0.21,-4.83,39.16,-6.90,0.66,39.64,4.83,-0.37,-7.45
-8,-10,5,-30,-464,3922,-0.27,-0.27,0.14,-0.30,-4.64,39.22,-6.89,0.64,39.64,4.79,-0.14,-7.32
-8,-9,5,-13,-444,3903,-0.29,-0.30,0.15,-0.13,-4.44,39.03,-6.88,0.62,39.64,4.78,-0.15,-7.32
-1,-5,3,17,-473,3919,-0.27,-0.30,0.16,0.17,-4.73,39.19,-6.88,0.60,39.64,4.64,-0.22,-7.25
-2,-5,3,10,-454,3929,-0.26,-0.30,0.16,0.10,-4.54,39.29,-6.88,0.59,39.64,4.65,-0.20,-7.25
-4,-7,-5,5,-477,3927,-0.26,-0.31,0.11,0.05,-4.77,39.27,-6.88,0.57,39.63,4.69,-0.15,-6.98
-6,-8,-2,31,-580,3904,-0.27,-0.33,0.09,0.31,-5.80,39.04,-6.89,0.56,39.63,4.75,-0.11,-7.08
3,0,-1,3,-493,3890,-0.22,-0.30,0.07,0.03,-4.93,38.90,-6.90,0.54,39.63,4.56,-0.27,-7.11
1,-1,-5,-10,-510,3899,-0.19,-0.27,0.04,-0.10,-5.10,38.99,-6.92,0.53,39.63,4.60,-0.25,-6.97
-8,-7,-2,-12,-466,3918,-0.22,-0.29,0.02,-0.12,-4.66,39.18,-6.91,0.51,39.63,4.79,-0.11,-7.07
-7,-7,-3,-12,-476,3898,-0.24,-0.30,0.00,-0.12,-4.76,38.98,-6.92,0.49,39.63,4.77,-0.10,-7.03
-2,-13,11,8,-437,3911,-0.23,-0.35,0.07,0.08,-4.37,39.11,-6.91,0.47,39.63,4.66,0.05,-7.51
-2,-18,13,11,-458,3915,-0.22,-0.43,0.14,0.11,-4.58,39.15,-6.90,0.46,39.63,4.66,0.18,-7.59
-4,-21,18,-59,-387,3933,-0.22,-0.51,0.24,-0.59,-3.87,39.33,-6.88,0.46,39.63,4.69,0.26,-7.77
-3,-26,17,-51,-427,3877,-0.22,-0.62,0.32,-0.51,-4.27,38.77,-6.87,0.46,39.63,4.65,0.39,-7.74
-16,-45,35,-60,-392,3918,-0.29,-0.83,0.50,-0.60,-3.92,39.18,-6.85,0.47,39.63,4.93,0.83,-8.37
-15,-44,34,-58,-398,3939,-0.36,-1.02,0.66,-0.58,-3.98,39.39,-6.84,0.47,39.62,4.91,0.86,-8.35
-16,-21,87,-192,-420,3929,-0.42,-1.04,1.12,-1.92,-4.20,39.29,-6.83,0.48,39.62,4.95,0.39,-10.20
14,-14,95,-38,-451,4026,-0.29,-1.02,1.59,-0.38,-4.51,40.26,-6.82,0.48,39.61,4.29,0.25,-10.52
-8,-24,53,-136,-336,3876,-0.31,-1.07,1.75,-1.36,-3.36,38.76,-6.80,0.49,39.60,4.74,0.46,-9.11
15,-7,11,-94,-265,3902,-0.19,-1.00,1.64,-0.94,-2.65,39.02,-6.79,0.49,39.60,4.23,0.09,-7.67
23,4,-86,-72,-467,3977,-0.03,-0.88,0.96,-0.72,-4.67,39.77,-6.78,0.51,39.59,4.02,-0.18,-4.31
21,3,-113,19,-522,3744,0.10,-0.77,0.17,0.19,-5.22,37.44,-6.80,0.49,39.59,4.03,-0.18,-3.31
7,-27,-252,144,-515,4036,0.13,-0.86,-1.38,1.44,-5.15,40.36,-6.80,0.47,39.60,4.31,0.47,1.56
4,-32,-246,230,-552,4038,0.15,-0.97,-2.75,2.30,-5.52,40.38,-6.81,0.45,39.61,4.37,0.62,1.49
21,1,-195,171,-672,3904,0.26,-0.87,-3.66,1.71,-6.72,39.04,-6.82,0.43,39.62,4.00,-0.07,-0.14
6,2,-128,211,-776,3890,0.27,-0.77,-4.08,2.11,-7.76,38.90,-6.83,0.42,39.64,4.31,-0.11,-2.37
-12,-10,-19,76,-566,3875,0.17,-0.75,-3.78,0.76,-5.66,38.75,-6.84,0.40,39.65,4.71,0.15,-6.10
0,-2,-20,83,-491,3861,0.15,-0.69,-3.53,0.83,-4.91,38.61,-6.85,0.38,39.67,4.48,-0.02,-6.09
9,19,-70,53,-441,3937,0.19,-0.50,-3.60,0.53,-4.41,39.37,-6.84,0.35,39.68,4.28,-0.48,-4.39
13,14,-76,7,-499,3936,0.25,-0.37,-3.71,0.07,-4.99,39.36,-6.85,0.34,39.69,4.19,-0.41,-4.18
6,10,-45,7,-502,3865,0.26,-0.27,-3.61,0.07,-5.02,38.65,-6.86,0.32,39.71,4.34,-0.34,-5.25
9,15,-50,22,-466,3887,0.29,-0.15,-3.55,0.22,-4.66,38.87,-6.86,0.30,39.72,4.27,-0.46,-5.08
7,27,-85,90,-379,3981,0.31,0.03,-3.72,0.90,-3.79,39.81,-6.85,0.29,39.74,4.29,-0.75,-3.88
0,25,-109,96,-299,3997,0.28,0.18,-4.01,0.96,-2.99,39.97,-6.83,0.28,39.75,4.43,-0.74,-3.04
1,-21,-239,54,-420,4009,0.25,0.03,-5.07,0.54,-4.20,40.09,-6.82,0.26,39.77,4.41,0.25,1.47
16,2,-223,-10,-570,3668,0.33,0.04,-5.92,-0.10,-5.70,36.68,-6.84,0.26,39.80,4.10,-0.22,1.01
34,53,-127,15,-672,4003,0.50,0.36,-6.10,0.15,-6.72,40.03,-6.85,0.25,39.82,3.69,-1.34,-2.23
16,30,-123,74,-576,4043,0.55,0.51,-6.24,0.74,-5.76,40.43,-6.86,0.24,39.85,4.06,-0.91,-2.35
-27,-46,-254,57,-384,3996,0.33,0.18,-7.17,0.57,-3.84,39.96,-6.85,0.22,39.87,4.98,0.74,2.18
-23,-50,-283,25,-437,3798,0.16,-0.15,-8.18,0.25,-4.37,37.98,-6.84,0.20,39.91,4.94,0.92,3.26
13,5,-402,10,-383,3844,0.22,-0.10,-9.81,0.10,-3.83,38.44,-6.82,0.19,39.95,4.18,-0.20,7.46
19,14,-447,-105,-360,3876,0.31,-0.01,-11.56,-1.05,-3.60,38.76,-6.81,0.20,39.99,4.02,-0.41,9.16
-4,-43,-517,-80,-224,4106,0.26,-0.27,-13.56,-0.80,-2.24,41.06,-6.79,0.20,40.05,4.49,0.82,11.73
-3,-41,-526,-139,-202,3833,0.21,-0.49,-15.41,-1.39,-2.02,38.33,-6.77,0.19,40.11,4.47,0.84,12.22
26,12,-540,-205,-399,3749,0.35,-0.37,-17.16,-2.05,-3.99,37.49,-6.77,0.20,40.17,3.84,-0.28,12.86
-17,6,-444,-35,-1166,4245,0.21,-0.30,-18.15,-0.35,-11.66,42.45,-6.78,0.19,40.25,4.76,-0.17,9.70
-16,-65,-175,46,-687,3769,0.09,-0.66,-17.41,0.46,-6.87,37.69,-6.80,0.18,40.32,4.79,1.38,0.49
-13,-40,-139,45,-789,3803,0.00,-0.84,-16.51,0.45,-7.89,38.03,-6.82,0.16,40.38,4.76,0.93,-0.83
11,-3,-142,-117,-559,4028,0.07,-0.77,-15.73,-1.17,-5.59,40.28,-6.83,0.17,40.44,4.26,0.16,-0.82
16,-5,-147,-190,-408,3958,0.16,-0.73,-15.05,-1.90,-4.08,39.58,-6.82,0.18,40.50,4.13,0.18,-0.74
-2,-19,-139,-154,-464,4060,0.13,-0.77,-14.39,-1.54,-4.64,40.60,-6.82,0.18,40.56,4.51,0.48,-1.09
-13,-12,-125,-143,-421,3913,0.04,-0.77,-13.72,-1.43,-4.21,39.13,-6.81,0.19,40.61,4.75,0.33,-1.64
-6,3,-79,-6,-457,4010,0.00,-0.67,-12.83,-0.06,-4.57,40.10,-6.80,0.18,40.66,4.61,0.01,-3.30
-12,3,-71,-129,-359,3789,-0.07,-0.59,-11.98,-1.29,-3.59,37.89,-6.79,0.18,40.71,4.74,-0.02,-3.67
-26,-8,-51,14,-422,3858,-0.22,-0.58,-11.09,0.14,-4.22,38.58,-6.77,0.17,40.75,5.06,0.21,-4.45
-12,-25,-11,245,-496,3910,-0.28,-0.67,-10.05,2.45,-4.96,39.10,-6.78,0.14,40.79,4.79,0.60,-5.92
-4,-3,-9,163,-398,3928,-0.27,-0.62,-9.10,1.63,-3.98,39.28,-6.77,0.12,40.83,4.62,0.15,-6.09
-2,-7,-8,126,-434,3914,-0.26,-0.60,-8.24,1.26,-4.34,39.14,-6.77,0.09,40.86,4.58,0.25,-6.22
-5,-17,12,13,-423,3880,-0.26,-0.65,-7.34,0.13,-4.23,38.80,-6.75,0.08,40.89,4.63,0.47,-7.00
-6,-17,11,13,-440,3908,-0.27,-0.69,-6.54,0.13,-4.40,39.08,-6.74,0.06,40.92,4.64,0.49,-7.05
-1,-20,25,40,-482,3903,-0.25,-0.74,-5.73,0.40,-4.82,39.03,-6.75,0.04,40.94,4.54,0.58,-7.62
-1,-18,24,3,-492,3925,-0.23,-0.77,-5.01,0.03,-4.92,39.25,-6.77,0.03,40.96,4.55,0.56,-7.66
-6,-5,18,-41,-441,4040,-0.25,-0.73,-4.40,-0.41,-4.41,40.40,-6.75,0.04,40.98,4.65,0.28,-7.53
-13,-16,21,-63,-351,4095,-0.30,-0.75,-3.83,-0.63,-3.51,40.95,-6.74,0.04,40.99,4.79,0.50,-7.69
-29,-64,-194,-185,102,3999,-0.45,-1.07,-4.63,-1.85,1.02,39.99,-6.72,0.04,41.01,5.15,1.57,-0.32
-26,-76,-349,-113,41,4220,-0.56,-1.42,-6.30,-1.13,0.41,42.20,-6.71,0.03,41.03,5.11,1.91,5.10
-11,82,-618,277,-1408,3268,-0.57,-0.78,-9.44,2.77,-14.08,32.68,-6.73,0.02,41.07,4.82,-1.47,14.54
-49,47,-436,363,-1882,4418,-0.81,-0.42,-11.16,3.63,-18.82,44.18,-6.75,0.01,41.11,5.67,-0.85,8.54
35,7,-31,62,39,3975,-0.52,-0.33,-10.23,0.62,0.39,39.75,-6.73,0.00,41.16,3.87,-0.05,-5.29
9,17,-109,69,-248,3837,-0.41,-0.20,-9.87,0.69,-2.48,38.37,-6.72,-0.01,41.19,4.36,-0.29,-2.69
-5,-2,9,-31,-391,3946,-0.40,-0.19,-8.83,-0.31,-3.91,39.46,-6.70,-0.01,41.23,4.63,0.10,-6.80
13,3,-35,19,-482,3823,-0.28,-0.15,-8.16,0.19,-4.82,38.23,-6.72,-0.02,41.26,4.25,-0.01,-5.39
7,-2,-23,19,-450,3942,-0.21,-0.15,-7.48,0.19,-4.50,39.42,-6.71,-0.04,41.29,4.34,0.11,-5.87
-2,-8,-33,46,-559,3902,-0.20,-0.18,-6.94,0.46,-5.59,39.02,-6.73,-0.05,41.32,4.53,0.25,-5.59
7,-7,-79,46,-606,3867,-0.14,-0.21,-6.72,0.46,-6.06,38.67,-6.74,-0.06,41.35,4.35,0.24,-4.06
8,-5,-89,26,-485,3924,-0.08,-0.22,-6.60,0.26,-4.85,39.24,-6.76,-0.08,41.37,4.32,0.21,-3.74
3,-7,-144,-22,-507,3931,-0.05,-0.24,-6.81,-0.22,-5.07,39.31,-6.77,-0.07,41.40,4.42,0.25,-1.86
-16,-12,-141,-68,-534,3912,-0.14,-0.29,-6.99,-0.68,-5.34,39.12,-6.78,-0.06,41.43,4.84,0.36,-1.95
8,-14,-161,-3,-455,4005,-0.08,-0.34,-7.28,-0.03,-4.55,40.05,-6.77,-0.06,41.45,4.33,0.42,-1.25
3,-28,-209,20,-253,4003,-0.05,-0.48,-7.82,0.20,-2.53,40.03,-6.75,-0.07,41.49,4.41,0.74,0.43
32,-15,-1013,-407,958,3904,0.15,-0.52,-13.22,-4.07,9.58,39.04,-6.73,-0.07,41.54,3.75,0.49,20.00
35,-64,-1265,-382,814,4107,0.35,-0.86,-19.61,-3.82,8.14,41.07,-6.71,-0.08,41.62,3.62,1.59,20.00
40,-47,-1919,-85,226,3925,0.56,-1.06,-29.36,-0.85,2.26,39.25,-6.69,-0.09,41.73,3.45,1.31,20.00
49,-38,-2019,20,208,3969,0.80,-1.19,-38.74,0.20,2.08,39.69,-6.67,-0.12,41.88,3.19,1.17,20.00
65,-28,-2186,143,-656,4050,1.12,-1.24,-48.20,1.43,-6.56,40.50,-6.68,-0.16,42.08,2.78,1.01,20.00
79,-25,-2124,104,-845,4038,1.49,-1.27,-56.34,1.04,-8.45,40.38,-6.69,-0.19,42.30,2.41,0.98,20.00
36,-19,-1761,11,-939,3929,1.56,-1.26,-61.44,0.11,-9.39,39.29,-6.70,-0.22,42.54,3.27,0.88,20.00
23,-26,-1600,-90,-1159,4015,1.54,-1.29,-65.06,-0.90,-11.59,40.15,-6.71,-0.26,42.80,3.54,1.05,20.00
16,-27,-983,9,-1062,4046,1.48,-1.33,-64.55,0.09,-10.62,40.46,-6.72,-0.29,43.06,3.71,1.10,20.00
33,-20,-789,73,-1211,3948,1.54,-1.32,-62.91,0.73,-12.11,39.48,-6.74,-0.33,43.31,3.35,0.98,20.00
-5,-36,-290,150,-1122,3868,1.35,-1.40,-58.39,1.50,-11.22,38.68,-6.75,-0.36,43.54,4.19,1.36,8.09
-3,-25,-175,172,-995,3825,1.20,-1.42,-53.62,1.72,-9.95,38.25,-6.76,-0.40,43.75,4.19,1.16,3.66
-6,-20,-41,38,-599,3944,1.04,-1.40,-48.50,0.38,-5.99,39.44,-6.77,-0.43,43.94,4.31,1.07,-1.45
-7,-20,-30,26,-550,3935,0.90,-1.38,-43.84,0.26,-5.50,39.35,-6.78,-0.46,44.11,4.38,1.08,-2.35
0,-11,-37,19,-438,3923,0.81,-1.31,-39.68,0.19,-4.38,39.23,-6.76,-0.47,44.27,4.24,0.89,-2.57
7,-6,-75,6,-366,3945,0.77,-1.21,-36.17,0.06,-3.66,39.45,-6.74,-0.49,44.41,4.10,0.78,-1.68
9,5,-192,29,-388,3881,0.75,-1.06,-33.72,0.29,-3.88,38.81,-6.72,-0.51,44.55,4.05,0.52,2.01
17,10,-225,61,-388,3933,0.78,-0.89,-31.72,0.61,-3.88,39.33,-6.70,-0.53,44.67,3.86,0.39,2.90
1,8,-285,81,-442,3933,0.70,-0.76,-30.29,0.81,-4.42,39.33,-6.69,-0.57,44.79,4.20,0.42,4.76
6,4,-299,149,-406,3922,0.67,-0.66,-29.08,1.49,-4.06,39.22,-6.67,-0.60,44.91,4.10,0.49,5.09
13,1,-384,41,-319,3818,0.68,-0.58,-28.52,0.41,-3.19,38.18,-6.65,-0.61,45.02,3.94,0.54,7.89
23,3,-407,69,-321,3947,0.75,-0.51,-28.15,0.69,-3.21,39.47,-6.63,-0.63,45.13,3.70,0.50,8.61
3,-30,-493,51,-369,4010,0.70,-0.64,-28.34,0.51,-3.69,40.10,-6.61,-0.65,45.25,4.11,1.21,11.52
22,-29,-510,112,-381,3885,0.76,-0.75,-28.62,1.12,-3.81,38.85,-6.59,-0.68,45.36,3.69,1.24,12.11
11,-28,-547,63,-535,4062,0.75,-0.85,-29.09,0.63,-5.35,40.62,-6.60,-0.70,45.47,3.93,1.26,13.39
15,-19,-571,103,-566,3820,0.77,-0.88,-29.67,1.03,-5.66,38.20,-6.61,-0.72,45.59,3.85,1.10,14.24
26,4,-570,-48,-455,4071,0.85,-0.77,-30.18,-0.48,-4.55,40.71,-6.61,-0.72,45.71,3.60,0.61,14.24
0,-27,-553,-38,-560,4049,0.77,-0.86,-30.53,-0.38,-5.60,40.49,-6.62,-0.73,45.83,4.16,1.26,13.68
11,-4,-515,1,-523,3998,0.76,-0.79,-30.62,0.01,-5.23,39.98,-6.62,-0.73,45.95,3.94,0.78,12.38
18,-13,-495,42,-487,3855,0.79,-0.79,-30.58,0.42,-4.87,38.55,-6.64,-0.75,46.07,3.80,0.97,11.68
19,-1,-457,-137,-508,3688,0.83,-0.72,-30.31,-1.37,-5.08,36.88,-6.64,-0.75,46.19,3.77,0.71,10.34
18,5,-449,-131,-436,4004,0.85,-0.62,-30.02,-1.31,-4.36,40.04,-6.63,-0.75,46.31,3.78,0.56,10.01
5,-1,-464,-4,-415,4024,0.80,-0.56,-29.85,-0.04,-4.15,40.24,-6.62,-0.75,46.43,4.05,0.67,10.48
29,-7,-482,21,-426,3975,0.90,-0.55,-29.80,0.21,-4.26,39.75,-6.60,-0.75,46.55,3.52,0.79,11.07
3,10,-546,-53,-370,3880,0.83,-0.43,-30.15,-0.53,-3.70,38.80,-6.58,-0.75,46.67,4.06,0.41,13.25
5,-13,-592,-2,-344,3929,0.77,-0.47,-30.75,-0.02,-3.44,39.29,-6.56,-0.76,46.79,4.02,0.89,14.85
18,-40,-724,2,-293,3681,0.81,-0.67,-32.09,0.02,-2.93,36.81,-6.54,-0.77,46.92,3.73,1.50,19.44
30,-6,-794,-4,-289,3764,0.91,-0.64,-33.72,-0.04,-2.89,37.64,-6.51,-0.78,47.05,3.44,0.81,20.00
24,-28,-1051,-4,-172,3867,0.96,-0.74,-36.76,-0.04,-1.72,38.67,-6.49,-0.80,47.20,3.53,1.30,20.00
25,-29,-1134,-15,-189,4091,1.02,-0.85,-40.00,-0.15,-1.89,40.91,-6.47,-0.82,47.36,3.48,1.36,20.00
34,-46,-1432,-6,-119,3919,1.13,-1.04,-44.74,-0.06,-1.19,39.19,-6.44,-0.84,47.54,3.25,1.77,20.00
