gyroADC_X,gyroADC_Y,gyroADC_Z,accADC_X,accADC_Y,accADC_Z,GyroX,GyroY,GyroZ,AccX,AccY,AccZ,roll_IMU,pitch_IMU,yaw_IMU,roll_PID,pitch_PID,yaw_PID
3,1,-40,-16,-452,3927,0.06,0.11,-2.72,-0.16,-4.52,39.27,-4.40,-0.35,90.64,2.83,0.18,-2.43
0,2,-19,-48,-343,3910,0.05,0.11,-2.56,-0.48,-3.43,39.10,-4.41,-0.33,90.65,2.89,0.15,-2.48
-4,2,-9,7,-308,3857,0.02,0.11,-2.36,0.07,-3.08,38.57,-4.42,-0.32,90.66,2.99,0.14,-2.51
-1,0,-9,6,-288,3898,0.01,0.10,-2.18,0.06,-2.88,38.98,-4.41,-0.30,90.67,2.92,0.17,-2.53
1,-4,-32,20,-216,3932,0.02,0.07,-2.16,0.20,-2.16,39.32,-4.39,-0.30,90.68,2.87,0.26,-2.49
1,-3,-57,12,-200,3935,0.02,0.04,-2.29,0.12,-2.00,39.35,-4.37,-0.30,90.69,2.86,0.25,-2.44
-1,-4,-80,14,-381,3945,0.02,0.01,-2.55,0.14,-3.81,39.45,-4.39,-0.30,90.70,2.91,0.28,-2.38
-2,-7,-70,39,-373,3945,0.00,-0.03,-2.72,0.39,-3.73,39.45,-4.40,-0.31,90.71,2.95,0.35,-2.38
-4,-6,-37,-92,-404,3940,-0.02,-0.06,-2.67,-0.92,-4.04,39.40,-4.42,-0.30,90.72,3.00,0.33,-2.44
-6,-4,-24,-64,-374,3943,-0.06,-0.08,-2.55,-0.64,-3.74,39.43,-4.43,-0.28,90.73,3.06,0.29,-2.47
-7,-4,-11,-28,-335,3933,-0.09,-0.10,-2.36,-0.28,-3.35,39.33,-4.44,-0.27,90.74,3.10,0.28,-2.51
-8,-9,-10,-42,-418,3933,-0.13,-0.14,-2.19,-0.42,-4.18,39.33,-4.46,-0.26,90.75,3.14,0.39,-2.53
-2,12,-14,-176,-451,4114,-0.13,-0.06,-2.06,-1.76,-4.51,41.14,-4.47,-0.25,90.76,3.02,-0.07,-2.53
-4,-10,-29,-30,-329,3878,-0.14,-0.11,-2.03,-0.30,-3.29,38.78,-4.48,-0.23,90.77,3.07,0.39,-2.51
-2,-10,-28,-36,-306,3921,-0.14,-0.16,-1.99,-0.36,-3.06,39.21,-4.48,-0.21,90.77,3.03,0.39,-2.51
-1,-6,-29,-26,-373,3924,-0.13,-0.18,-1.97,-0.26,-3.73,39.24,-4.49,-0.21,90.78,3.02,0.31,-2.51
0,-9,-25,-31,-400,3915,-0.12,-0.22,-1.93,-0.31,-4.00,39.15,-4.51,-0.20,90.79,3.01,0.37,-2.52
-5,-13,0,-66,-393,3936,-0.14,-0.28,-1.73,-0.66,-3.93,39.36,-4.52,-0.19,90.80,3.12,0.46,-2.58
-4,-10,11,-38,-385,3902,-0.15,-0.31,-1.49,-0.38,-3.85,39.02,-4.54,-0.18,90.80,3.12,0.41,-2.62
3,14,-25,-75,-502,3861,-0.12,-0.19,-1.50,-0.75,-5.02,38.61,-4.56,-0.17,90.81,2.98,-0.12,-2.56
-3,-6,-46,-39,-320,3990,-0.12,-0.21,-1.63,-0.39,-3.20,39.90,-4.56,-0.16,90.81,3.10,0.28,-2.51
0,-5,-7,1,-313,3877,-0.11,-0.22,-1.51,0.01,-3.13,38.77,-4.56,-0.14,90.82,3.04,0.25,-2.59
-2,-3,-5,-19,-289,3887,-0.11,-0.22,-1.39,-0.19,-2.89,38.87,-4.55,-0.13,90.83,3.08,0.20,-2.60
7,-5,-26,2,-230,3939,-0.06,-0.22,-1.41,0.02,-2.30,39.39,-4.54,-0.13,90.83,2.87,0.25,-2.57
-1,-2,-23,13,-271,3934,-0.06,-0.21,-1.41,0.13,-2.71,39.34,-4.52,-0.13,90.84,3.02,0.19,-2.57
-9,-6,-52,-15,-334,3931,-0.11,-0.23,-1.58,-0.15,-3.34,39.31,-4.53,-0.12,90.84,3.20,0.26,-2.51
-3,-6,-49,-18,-352,3953,-0.11,-0.24,-1.72,-0.18,-3.52,39.53,-4.55,-0.11,90.85,3.09,0.26,-2.50
-2,2,24,-56,-355,3958,-0.12,-0.21,-1.41,-0.56,-3.55,39.58,-4.56,-0.10,90.86,3.08,0.08,-2.65
0,-2,32,-16,-319,3941,-0.10,-0.20,-1.07,-0.16,-3.19,39.41,-4.56,-0.08,90.86,3.04,0.15,-2.69
-2,3,73,30,-249,3981,-0.11,-0.16,-0.52,0.30,-2.49,39.81,-4.54,-0.09,90.86,3.07,0.04,-2.81
0,4,29,71,-169,3905,-0.10,-0.12,-0.29,0.71,-1.69,39.05,-4.53,-0.09,90.86,3.01,0.01,-2.75
-2,-5,28,127,-126,3945,-0.10,-0.14,-0.09,1.27,-1.26,39.45,-4.51,-0.10,90.86,3.05,0.21,-2.77
2,-4,13,143,-133,3944,-0.08,-0.15,-0.00,1.43,-1.33,39.44,-4.50,-0.12,90.86,2.95,0.20,-2.75
1,-2,-3,14,-286,3936,-0.06,-0.15,-0.02,0.14,-2.86,39.36,-4.48,-0.12,90.86,2.95,0.16,-2.72
2,-1,-2,-1,-302,3943,-0.04,-0.14,-0.03,-0.01,-3.02,39.43,-4.47,-0.11,90.86,2.92,0.13,-2.72
1,1,-4,-12,-323,3921,-0.03,-0.12,-0.05,-0.12,-3.23,39.21,-4.48,-0.09,90.86,2.95,0.07,-2.71
0,0,-5,-14,-318,3927,-0.03,-0.11,-0.08,-0.14,-3.18,39.27,-4.49,-0.08,90.86,2.97,0.08,-2.71
7,1,-9,-38,-357,3938,0.02,-0.09,-0.12,-0.38,-3.57,39.38,-4.50,-0.07,90.86,2.83,0.05,-2.70
6,2,-14,-18,-324,3941,0.05,-0.07,-0.20,-0.18,-3.24,39.41,-4.51,-0.05,90.86,2.84,0.01,-2.69
7,-1,-8,-32,-324,3942,0.09,-0.07,-0.23,-0.32,-3.24,39.42,-4.52,-0.03,90.87,2.82,0.06,-2.69
6,-1,-7,-23,-344,3933,0.12,-0.07,-0.25,-0.23,-3.44,39.33,-4.53,-0.02,90.87,2.84,0.05,-2.69
4,0,-6,-5,-303,3914,0.13,-0.06,-0.26,-0.05,-3.03,39.14,-4.52,-0.01,90.87,2.87,0.02,-2.69
2,0,-5,-2,-295,3908,0.13,-0.05,-0.26,-0.02,-2.95,39.08,-4.50,-0.01,90.87,2.89,0.02,-2.70
2,-2,-12,-63,-371,3904,0.13,-0.06,-0.31,-0.63,-3.71,39.04,-4.51,0.00,90.87,2.90,0.05,-2.68
-1,-4,-16,-54,-382,3938,0.11,-0.08,-0.38,-0.54,-3.82,39.38,-4.53,0.02,90.87,2.98,0.09,-2.67
-6,-9,-40,16,-327,3913,0.06,-0.13,-0.58,0.16,-3.27,39.13,-4.54,0.00,90.87,3.10,0.22,-2.61
-4,-8,-43,55,-338,3931,0.03,-0.16,-0.79,0.55,-3.38,39.31,-4.55,-0.02,90.88,3.07,0.22,-2.59
-6,7,-126,-50,-390,3894,-0.01,-0.10,-1.48,-0.50,-3.90,38.94,-4.56,-0.01,90.88,3.14,-0.11,-2.39
-4,6,-132,-41,-351,3902,-0.03,-0.06,-2.13,-0.41,-3.51,39.02,-4.58,0.01,90.89,3.11,-0.11,-2.33
-7,-9,-76,33,-278,3903,-0.07,-0.11,-2.38,0.33,-2.78,39.03,-4.56,-0.01,90.90,3.17,0.22,-2.40
-2,-4,-53,-30,-309,3941,-0.08,-0.12,-2.47,-0.30,-3.09,39.41,-4.56,0.01,90.91,3.07,0.11,-2.43
-6,-10,-57,17,-378,3967,-0.11,-0.17,-2.57,0.17,-3.78,39.67,-4.58,0.00,90.92,3.17,0.25,-2.42
1,5,-57,129,-288,4078,-0.09,-0.12,-2.66,1.29,-2.88,40.78,-4.57,-0.02,90.93,3.02,-0.06,-2.41
5,0,6,-14,-250,3921,-0.05,-0.11,-2.36,-0.14,-2.50,39.21,-4.56,-0.01,90.94,2.92,0.04,-2.54
4,-2,10,-43,-258,3911,-0.02,-0.11,-2.06,-0.43,-2.58,39.11,-4.54,-0.00,90.95,2.92,0.07,-2.58
3,-2,8,-8,-318,3939,-0.00,-0.11,-1.81,-0.08,-3.18,39.39,-4.55,0.01,90.96,2.94,0.06,-2.59
2,-2,11,-8,-319,3931,0.01,-0.11,-1.56,-0.08,-3.19,39.31,-4.56,0.02,90.96,2.97,0.06,-2.62
-1,2,17,-44,-310,3919,0.00,-0.09,-1.30,-0.44,-3.10,39.19,-4.56,0.04,90.97,3.03,-0.04,-2.65
-1,3,17,-36,-306,3923,-0.00,-0.06,-1.07,-0.36,-3.06,39.23,-4.56,0.06,90.97,3.03,-0.08,-2.67
-3,10,13,-30,-316,3920,-0.02,0.01,-0.88,-0.30,-3.16,39.20,-4.56,0.08,90.97,3.08,-0.26,-2.68
-1,13,18,-5,-328,3922,-0.02,0.08,-0.68,-0.05,-3.28,39.22,-4.58,0.08,90.98,3.05,-0.34,-2.70
2,7,14,-9,-305,3916,-0.01,0.12,-0.53,-0.09,-3.05,39.16,-4.56,0.08,90.98,2.97,-0.23,-2.71
2,5,7,1,-306,3912,0.00,0.14,-0.43,0.01,-3.06,39.12,-4.55,0.07,90.98,2.96,-0.19,-2.71
-1,0,-2,27,-316,3918,-0.00,0.12,-0.40,0.27,-3.16,39.18,-4.55,0.05,90.98,3.03,-0.07,-2.69
-1,-1,-2,23,-315,3924,-0.01,0.10,-0.37,0.23,-3.15,39.24,-4.55,0.04,90.98,3.03,-0.03,-2.70
-1,-1,-4,-4,-312,3931,-0.01,0.09,-0.36,-0.04,-3.12,39.31,-4.54,0.05,90.99,3.02,-0.04,-2.69
-1,-1,-4,-10,-311,3935,-0.02,0.07,-0.35,-0.10,-3.11,39.35,-4.54,0.07,90.99,3.02,-0.04,-2.69
0,-2,-7,-3,-320,3933,-0.02,0.05,-0.36,-0.03,-3.20,39.33,-4.56,0.06,90.99,3.01,-0.02,-2.69
0,-3,-6,-5,-322,3929,-0.01,0.03,-0.36,-0.05,-3.22,39.29,-4.58,0.07,90.99,3.02,0.01,-2.69
1,-1,-6,-9,-316,3922,-0.01,0.02,-0.36,-0.09,-3.16,39.22,-4.58,0.08,90.99,3.01,-0.04,-2.69
0,0,-4,-20,-323,3913,-0.01,0.02,-0.35,-0.20,-3.23,39.13,-4.59,0.10,90.99,3.03,-0.07,-2.69
-2,1,-7,-7,-298,3935,-0.02,0.02,-0.36,-0.07,-2.98,39.35,-4.57,0.10,90.99,3.07,-0.09,-2.69
-2,-1,-8,-27,-329,3925,-0.03,0.01,-0.37,-0.27,-3.29,39.25,-4.59,0.11,91.00,3.08,-0.06,-2.69
0,1,-5,-28,-321,3922,-0.03,0.02,-0.36,-0.28,-3.21,39.22,-4.59,0.13,91.00,3.04,-0.11,-2.69
-1,2,-6,-22,-321,3935,-0.03,0.03,-0.36,-0.22,-3.21,39.35,-4.60,0.15,91.00,3.06,-0.15,-2.69
-1,0,-5,-6,-330,3921,-0.03,0.03,-0.36,-0.06,-3.30,39.21,-4.62,0.14,91.00,3.08,-0.10,-2.69
-1,-1,-5,-6,-331,3926,-0.04,0.02,-0.35,-0.06,-3.31,39.26,-4.63,0.14,91.00,3.09,-0.08,-2.69
-4,-2,2,0,-337,3918,-0.06,0.00,-0.30,0.00,-3.37,39.18,-4.65,0.13,91.00,3.17,-0.05,-2.71
-6,-3,1,-14,-321,3926,-0.09,-0.01,-0.27,-0.14,-3.21,39.26,-4.66,0.15,91.00,3.22,-0.03,-2.71
17,22,7,-39,-340,3890,0.03,0.12,-0.20,-0.39,-3.40,38.90,-4.67,0.16,91.00,2.73,-0.59,-2.73
-2,-7,-1,-27,-390,3898,0.01,0.07,-0.18,-0.27,-3.90,38.98,-4.69,0.17,91.01,3.13,0.02,-2.71
-15,-5,2,-226,-591,3918,-0.08,0.03,-0.15,-2.26,-5.91,39.18,-4.70,0.18,91.01,3.43,-0.02,-2.72
-16,5,17,-199,-584,3993,-0.17,0.06,-0.03,-1.99,-5.84,39.93,-4.72,0.19,91.01,3.48,-0.24,-2.76
-9,-10,57,-131,-373,3956,-0.21,-0.01,0.32,-1.31,-3.73,39.56,-4.72,0.21,91.01,3.36,0.07,-2.85
2,0,72,-117,-353,3926,-0.18,-0.01,0.72,-1.17,-3.53,39.26,-4.73,0.22,91.00,3.13,-0.14,-2.91
-7,-1,72,36,-300,3885,-0.20,-0.01,1.09,0.36,-3.00,38.85,-4.72,0.21,91.00,3.31,-0.11,-2.94
-6,-16,63,-16,-296,3849,-0.22,-0.11,1.37,-0.16,-2.96,38.49,-4.71,0.21,90.99,3.29,0.22,-2.95
6,9,63,88,-194,3891,-0.16,-0.04,1.61,0.88,-1.94,38.91,-4.69,0.20,90.99,3.02,-0.30,-2.97
8,15,67,62,-254,3938,-0.09,0.05,1.86,0.62,-2.54,39.38,-4.68,0.18,90.98,2.95,-0.44,-3.00
-27,22,46,64,-209,3880,-0.25,0.18,1.96,0.64,-2.09,38.80,-4.67,0.18,90.97,3.70,-0.61,-2.97
-5,14,-17,119,-105,3920,-0.26,0.25,1.66,1.19,-1.05,39.20,-4.65,0.17,90.96,3.24,-0.46,-2.84
6,18,-40,102,-297,3990,-0.19,0.33,1.25,1.02,-2.97,39.90,-4.65,0.15,90.96,3.00,-0.56,-2.76
6,18,-46,43,-323,3947,-0.14,0.41,0.84,0.43,-3.23,39.47,-4.65,0.13,90.96,2.98,-0.57,-2.72
3,16,-9,22,-360,3904,-0.11,0.47,0.70,0.22,-3.60,39.04,-4.66,0.13,90.95,3.05,-0.54,-2.77
-1,17,7,10,-370,3927,-0.10,0.52,0.67,0.10,-3.70,39.27,-4.68,0.12,90.95,3.14,-0.57,-2.80
-7,22,17,19,-330,3894,-0.13,0.61,0.71,0.19,-3.30,38.94,-4.69,0.11,90.95,3.27,-0.68,-2.82
-7,26,30,-35,-343,3924,-0.16,0.70,0.82,-0.35,-3.43,39.24,-4.70,0.12,90.95,3.29,-0.80,-2.85
4,18,41,-3,-283,3952,-0.12,0.74,0.99,-0.03,-2.83,39.52,-4.68,0.13,90.94,3.04,-0.65,-2.88
5,17,35,22,-242,3916,-0.08,0.77,1.11,0.22,-2.42,39.16,-4.67,0.12,90.94,3.00,-0.64,-2.88
3,9,14,21,-265,3916,-0.05,0.75,1.08,0.21,-2.65,39.16,-4.65,0.12,90.93,3.02,-0.46,-2.84
5,7,5,17,-291,3932,-0.02,0.72,1.00,0.17,-2.91,39.32,-4.64,0.11,90.93,2.96,-0.41,-2.82
4,6,1,-21,-312,3913,0.01,0.68,0.91,-0.21,-3.12,39.13,-4.63,0.13,90.93,2.97,-0.39,-2.80
3,8,0,-8,-306,3945,0.03,0.66,0.82,-0.08,-3.06,39.45,-4.61,0.13,90.92,2.98,-0.43,-2.79
6,11,4,-21,-324,3927,0.06,0.66,0.76,-0.21,-3.24,39.27,-4.62,0.15,90.92,2.91,-0.50,-2.80
5,9,4,-23,-328,3926,0.08,0.65,0.71,-0.23,-3.28,39.26,-4.63,0.17,90.92,2.93,-0.47,-2.79
2,5,3,-33,-311,3921,0.09,0.62,0.66,-0.33,-3.11,39.21,-4.63,0.19,90.92,2.99,-0.39,-2.79
2,5,5,-28,-312,3919,0.09,0.59,0.62,-0.28,-3.12,39.19,-4.62,0.21,90.91,2.98,-0.40,-2.79
1,4,10,-29,-316,3917,0.09,0.55,0.62,-0.29,-3.16,39.17,-4.62,0.23,90.91,3.00,-0.38,-2.80
-1,2,11,-23,-328,3907,0.07,0.51,0.62,-0.23,-3.28,39.07,-4.63,0.24,90.91,3.06,-0.34,-2.80
-4,0,9,-10,-334,3926,0.04,0.46,0.62,-0.10,-3.34,39.26,-4.65,0.23,90.91,3.14,-0.28,-2.79
-4,-3,4,12,-345,3923,0.01,0.39,0.58,0.12,-3.45,39.23,-4.66,0.22,90.90,3.16,-0.19,-2.78
-3,-7,-5,-8,-332,3923,-0.01,0.31,0.49,-0.08,-3.32,39.23,-4.68,0.21,90.90,3.15,-0.08,-2.76
-4,-7,-6,-15,-338,3923,-0.03,0.24,0.41,-0.15,-3.38,39.23,-4.70,0.22,90.90,3.19,-0.06,-2.75
-4,-6,-6,-31,-320,3924,-0.05,0.18,0.33,-0.31,-3.20,39.24,-4.69,0.23,90.90,3.19,-0.08,-2.74
-3,-4,-7,-12,-310,3939,-0.06,0.14,0.25,-0.12,-3.10,39.39,-4.68,0.23,90.90,3.17,-0.11,-2.74
-1,-3,-6,-12,-328,3941,-0.06,0.10,0.19,-0.12,-3.28,39.41,-4.69,0.22,90.90,3.14,-0.11,-2.73
-3,-4,-5,-20,-328,3926,-0.08,0.07,0.14,-0.20,-3.28,39.26,-4.71,0.23,90.90,3.19,-0.09,-2.73
3,-4,-3,-48,-343,3922,-0.05,0.04,0.11,-0.48,-3.43,39.22,-4.72,0.25,90.90,3.07,-0.09,-2.73
4,-3,0,-37,-338,3932,-0.02,0.02,0.10,-0.37,-3.38,39.32,-4.73,0.26,90.90,3.04,-0.12,-2.73
1,-6,-5,-32,-333,3894,-0.01,-0.02,0.06,-0.32,-3.33,38.94,-4.74,0.28,90.90,3.11,-0.05,-2.72
-2,-1,12,-46,-382,3913,-0.02,-0.03,0.13,-0.46,-3.82,39.13,-4.76,0.28,90.90,3.19,-0.16,-2.76
-1,-1,38,-13,-386,3903,-0.03,-0.03,0.34,-0.13,-3.86,39.03,-4.77,0.28,90.89,3.18,-0.16,-2.82
-4,1,49,-13,-402,3916,-0.05,-0.02,0.61,-0.13,-4.02,39.16,-4.79,0.28,90.89,3.26,-0.20,-2.86
-3,3,78,16,-309,3947,-0.06,-0.00,1.02,0.16,-3.09,39.47,-4.78,0.27,90.89,3.23,-0.24,-2.94
1,7,81,39,-338,3931,-0.05,0.04,1.42,0.39,-3.38,39.31,-4.79,0.25,90.88,3.15,-0.32,-2.98
-5,11,118,28,-355,3907,-0.08,0.11,1.99,0.28,-3.55,39.07,-4.80,0.23,90.87,3.29,-0.41,-3.09
-1,13,123,-28,-371,3907,-0.07,0.17,2.54,-0.28,-3.71,39.07,-4.81,0.24,90.86,3.22,-0.47,-3.14
-15,9,230,-14,-312,4019,-0.16,0.21,3.69,-0.14,-3.12,40.19,-4.80,0.24,90.85,3.51,-0.40,-3.42
9,19,222,-61,-238,3925,-0.09,0.31,4.68,-0.61,-2.38,39.25,-4.78,0.25,90.83,3.00,-0.64,-3.49
-2,2,85,-25,-102,3918,-0.09,0.29,4.73,-0.25,-1.02,39.18,-4.76,0.25,90.81,3.21,-0.29,-3.26
5,-1,33,4,-225,3926,-0.05,0.25,4.46,0.04,-2.25,39.26,-4.74,0.25,90.79,3.04,-0.22,-3.15
0,-3,5,-20,-317,3904,-0.05,0.21,4.04,-0.20,-3.17,39.04,-4.73,0.26,90.78,3.13,-0.17,-3.06
-6,-2,6,-2,-313,3915,-0.08,0.18,3.67,-0.02,-3.13,39.15,-4.72,0.25,90.76,3.26,-0.17,-3.04
-6,-1,13,-9,-369,3927,-0.11,0.15,3.39,-0.09,-3.69,39.27,-4.74,0.25,90.75,3.28,-0.18,-3.02
-6,-2,21,47,-377,3959,-0.13,0.13,3.18,0.47,-3.77,39.59,-4.75,0.23,90.74,3.29,-0.15,-3.02
-2,-11,93,14,-378,3960,-0.13,0.05,3.43,0.14,-3.78,39.60,-4.76,0.23,90.72,3.22,0.06,-3.16
-2,-6,104,-6,-356,3913,-0.13,0.00,3.72,-0.06,-3.56,39.13,-4.78,0.22,90.71,3.23,-0.03,-3.20
1,7,82,-36,-289,3913,-0.11,0.05,3.85,-0.36,-2.89,39.13,-4.77,0.23,90.69,3.16,-0.31,-3.18
1,4,87,-7,-344,3880,-0.09,0.07,3.99,-0.07,-3.44,38.80,-4.78,0.23,90.68,3.16,-0.25,-3.20
2,0,32,-98,-243,3915,-0.07,0.06,3.79,-0.98,-2.43,39.15,-4.77,0.24,90.66,3.13,-0.18,-3.09
3,2,10,-61,-288,3912,-0.05,0.07,3.47,-0.61,-2.88,39.12,-4.76,0.26,90.65,3.09,-0.23,-3.02
-1,-2,1,-22,-316,3932,-0.05,0.05,3.13,-0.22,-3.16,39.32,-4.74,0.26,90.64,3.16,-0.15,-2.98
-2,-1,1,-19,-320,3932,-0.06,0.04,2.82,-0.19,-3.20,39.32,-4.72,0.27,90.63,3.17,-0.17,-2.95
-1,2,1,-21,-314,3918,-0.06,0.04,2.55,-0.21,-3.14,39.18,-4.71,0.27,90.62,3.14,-0.23,-2.93
1,2,-1,-12,-317,3924,-0.04,0.05,2.29,-0.12,-3.17,39.24,-4.69,0.26,90.61,3.09,-0.23,-2.90
2,1,-1,-18,-326,3920,-0.03,0.05,2.05,-0.18,-3.26,39.20,-4.71,0.26,90.60,3.08,-0.21,-2.88
1,1,0,-19,-324,3913,-0.02,0.05,1.85,-0.19,-3.24,39.13,-4.73,0.27,90.59,3.10,-0.22,-2.87
-2,1,1,-10,-320,3908,-0.03,0.05,1.67,-0.10,-3.20,39.08,-4.72,0.26,90.58,3.16,-0.20,-2.86
-1,0,1,-12,-321,3917,-0.03,0.05,1.51,-0.12,-3.21,39.17,-4.71,0.24,90.58,3.14,-0.17,-2.84
0,-1,-5,-8,-336,3931,-0.03,0.04,1.33,-0.08,-3.36,39.31,-4.73,0.23,90.57,3.13,-0.14,-2.82
0,-1,-5,-14,-330,3931,-0.03,0.03,1.16,-0.14,-3.30,39.31,-4.75,0.22,90.57,3.14,-0.14,-2.80
0,1,-3,-27,-327,3935,-0.02,0.03,1.03,-0.27,-3.27,39.35,-4.75,0.24,90.56,3.14,-0.19,-2.80
0,2,-2,-29,-327,3928,-0.02,0.04,0.91,-0.29,-3.27,39.28,-4.75,0.26,90.56,3.14,-0.22,-2.79
11,-3,3,-53,-378,4015,0.05,0.02,0.84,-0.53,-3.78,40.15,-4.76,0.27,90.56,2.91,-0.12,-2.79
0,-2,9,-65,-379,3853,0.04,0.00,0.81,-0.65,-3.79,38.53,-4.78,0.29,90.55,3.14,-0.15,-2.80
1,10,71,-102,-366,3963,0.04,0.06,1.16,-1.02,-3.66,39.63,-4.78,0.30,90.55,3.12,-0.42,-2.93
10,4,61,-160,-388,3898,0.10,0.08,1.42,-1.60,-3.88,38.98,-4.79,0.32,90.54,2.93,-0.32,-2.94
-4,15,99,-85,-468,3875,0.07,0.17,1.88,-0.85,-4.68,38.75,-4.81,0.33,90.54,3.24,-0.57,-3.04
0,10,110,-29,-420,4049,0.06,0.21,2.36,-0.29,-4.20,40.49,-4.82,0.33,90.53,3.17,-0.48,-3.10
5,-13,74,34,-124,3859,0.08,0.11,2.58,0.34,-1.24,38.59,-4.81,0.33,90.52,3.05,0.02,-3.05
-4,-28,7,31,-208,3813,0.05,-0.07,2.36,0.31,-2.08,38.13,-4.79,0.32,90.51,3.23,0.38,-2.92
0,6,83,-47,-491,3964,0.05,-0.03,2.63,-0.47,-4.91,39.64,-4.81,0.32,90.50,3.16,-0.33,-3.07
-18,7,90,39,-322,4024,-0.07,0.02,2.92,0.39,-3.22,40.24,-4.80,0.31,90.49,3.55,-0.35,-3.11
-58,10,155,-58,-439,3887,-0.41,0.08,3.57,-0.58,-4.39,38.87,-4.82,0.32,90.47,4.47,-0.43,-3.27
-11,2,144,6,-203,4028,-0.44,0.08,4.09,0.06,-2.03,40.28,-4.81,0.31,90.46,3.52,-0.27,-3.29
14,-1,62,2,-110,3963,-0.31,0.07,4.06,0.02,-1.10,39.63,-4.79,0.31,90.44,2.96,-0.20,-3.15
11,-2,59,-34,-273,3876,-0.21,0.05,4.02,-0.34,-2.73,38.76,-4.77,0.32,90.42,2.98,-0.18,-3.14
-19,-16,50,-7,-306,3988,-0.31,-0.05,3.92,-0.07,-3.06,39.88,-4.76,0.31,90.41,3.61,0.13,-3.12
4,1,17,63,-340,4056,-0.25,-0.04,3.63,0.63,-3.40,40.56,-4.76,0.29,90.39,3.13,-0.20,-3.04
1,5,61,-41,-261,3933,-0.22,-0.01,3.64,-0.41,-2.61,39.33,-4.74,0.30,90.38,3.17,-0.30,-3.11
3,0,64,-60,-347,3904,-0.18,-0.01,3.67,-0.60,-3.47,39.04,-4.75,0.32,90.36,3.12,-0.21,-3.12
6,5,129,67,-434,3879,-0.13,0.02,4.09,0.67,-4.34,38.79,-4.77,0.31,90.35,3.06,-0.31,-3.27
-25,-21,140,80,38,4059,-0.27,-0.11,4.53,0.80,0.38,40.59,-4.75,0.30,90.33,3.72,0.26,-3.32
3,-14,24,58,-151,3914,-0.22,-0.18,4.23,0.58,-1.51,39.14,-4.73,0.30,90.31,3.12,0.14,-3.10
5,-11,11,15,-243,3936,-0.17,-0.23,3.87,0.15,-2.43,39.36,-4.72,0.29,90.30,3.06,0.10,-3.05
-2,1,5,-28,-317,3923,-0.16,-0.20,3.51,-0.28,-3.17,39.23,-4.71,0.30,90.28,3.19,-0.17,-3.01
-5,3,12,-17,-305,3925,-0.18,-0.16,3.24,-0.17,-3.05,39.25,-4.69,0.30,90.27,3.24,-0.22,-2.99
-4,8,28,-12,-299,3928,-0.18,-0.10,3.08,-0.12,-2.99,39.28,-4.67,0.30,90.26,3.22,-0.33,-3.01
1,7,30,8,-354,3925,-0.16,-0.05,2.96,0.08,-3.54,39.25,-4.69,0.28,90.25,3.12,-0.32,-3.00
-3,-5,48,48,-301,3915,-0.16,-0.07,2.95,0.48,-3.01,39.15,-4.68,0.27,90.23,3.20,-0.06,-3.03
2,-4,52,16,-292,3919,-0.13,-0.09,2.98,0.16,-2.92,39.19,-4.67,0.25,90.22,3.08,-0.06,-3.04
-5,3,42,16,-298,3942,-0.15,-0.06,2.93,0.16,-2.98,39.42,-4.66,0.24,90.21,3.22,-0.20,-3.02
2,4,42,-23,-326,3966,-0.12,-0.03,2.90,-0.23,-3.26,39.66,-4.67,0.26,90.20,3.07,-0.24,-3.02
4,10,23,-50,-343,3925,-0.09,0.03,2.75,-0.50,-3.43,39.25,-4.68,0.27,90.19,3.03,-0.39,-2.97
5,10,22,-21,-332,3923,-0.05,0.09,2.61,-0.21,-3.32,39.23,-4.70,0.28,90.18,3.01,-0.41,-2.96
7,4,37,7,-289,3929,-0.00,0.11,2.57,0.07,-2.89,39.29,-4.68,0.27,90.17,2.95,-0.29,-2.98
6,4,39,2,-299,3906,0.04,0.12,2.55,0.02,-2.99,39.06,-4.67,0.26,90.16,2.95,-0.28,-2.98
1,6,29,3,-291,3887,0.04,0.14,2.47,0.03,-2.91,38.87,-4.65,0.25,90.15,3.04,-0.32,-2.96
2,5,23,-31,-317,3905,0.05,0.16,2.37,-0.31,-3.17,39.05,-4.65,0.27,90.14,3.02,-0.32,-2.94
0,2,44,-7,-340,3935,0.04,0.16,2.40,-0.07,-3.40,39.35,-4.67,0.26,90.13,3.07,-0.25,-2.98
-1,2,26,-66,-388,3920,0.03,0.15,2.32,-0.66,-3.88,39.20,-4.68,0.27,90.12,3.10,-0.26,-2.94
-2,0,0,-37,-340,3915,0.02,0.14,2.09,-0.37,-3.40,39.15,-4.70,0.28,90.11,3.14,-0.23,-2.87
-2,-1,-2,-40,-336,3917,0.00,0.12,1.87,-0.40,-3.36,39.17,-4.71,0.30,90.10,3.15,-0.21,-2.85
-4,-2,-1,-23,-326,3928,-0.02,0.09,1.67,-0.23,-3.26,39.28,-4.72,0.31,90.10,3.20,-0.19,-2.84
-3,-1,0,-25,-322,3924,-0.04,0.08,1.51,-0.25,-3.22,39.24,-4.71,0.33,90.09,3.18,-0.22,-2.83
-2,-1,-1,-12,-325,3919,-0.05,0.06,1.35,-0.12,-3.25,39.19,-4.72,0.31,90.09,3.17,-0.20,-2.81
-3,-2,-1,-13,-325,3923,-0.06,0.05,1.21,-0.13,-3.25,39.23,-4.72,0.30,90.08,3.19,-0.17,-2.80
-3,-4,-2,-8,-314,3925,-0.07,0.02,1.07,-0.08,-3.14,39.25,-4.71,0.28,90.08,3.19,-0.11,-2.79
-2,-4,-2,-9,-321,3929,-0.08,-0.01,0.96,-0.09,-3.21,39.29,-4.70,0.26,90.07,3.17,-0.09,-2.78
3,-8,7,-9,-345,3918,-0.05,-0.06,0.90,-0.09,-3.45,39.18,-4.72,0.26,90.07,3.07,0.01,-2.79
-3,-12,14,-27,-320,3944,-0.06,-0.12,0.90,-0.27,-3.20,39.44,-4.71,0.27,90.06,3.19,0.10,-2.80
-8,-13,41,24,-395,3956,-0.11,-0.19,1.06,0.24,-3.95,39.56,-4.73,0.26,90.06,3.31,0.14,-2.86
-3,-5,74,78,-525,3915,-0.11,-0.20,1.40,0.78,-5.25,39.15,-4.74,0.25,90.06,3.22,-0.01,-2.94
-1,14,301,120,-593,3834,-0.11,-0.10,3.10,1.20,-5.93,38.34,-4.76,0.25,90.04,3.19,-0.42,-3.47
-32,-2,380,1,-358,3975,-0.29,-0.10,5.11,0.01,-3.58,39.75,-4.78,0.24,90.02,3.88,-0.09,-3.76
-13,5,348,-93,-292,3907,-0.34,-0.06,6.72,-0.93,-2.92,39.07,-4.77,0.26,90.00,3.51,-0.26,-3.84
4,11,309,-49,-222,3917,-0.28,0.01,7.93,-0.49,-2.22,39.17,-4.75,0.26,89.96,3.13,-0.40,-3.87
-11,-12,188,-20,-191,3881,-0.32,-0.06,8.29,-0.20,-1.91,38.81,-4.74,0.27,89.93,3.44,0.08,-3.70
-2,-7,155,-32,-232,3913,-0.30,-0.10,8.40,-0.32,-2.32,39.13,-4.72,0.27,89.90,3.24,-0.01,-3.65
-12,-22,235,83,-427,3935,-0.35,-0.22,9.00,0.83,-4.27,39.35,-4.73,0.26,89.86,3.46,0.33,-3.83
-24,-24,340,58,-386,3983,-0.46,-0.35,10.17,0.58,-3.86,39.83,-4.75,0.25,89.82,3.75,0.42,-4.11
-15,-3,483,-24,-367,3932,-0.50,-0.33,12.10,-0.24,-3.67,39.32,-4.77,0.25,89.77,3.59,-0.02,-4.51
-3,-8,507,-93,-318,3898,-0.47,-0.35,13.98,-0.93,-3.18,38.98,-4.77,0.28,89.72,3.34,0.07,-4.70
-11,2,518,-208,-262,3930,-0.49,-0.30,15.74,-2.08,-2.62,39.30,-4.76,0.30,89.65,3.50,-0.16,-4.86
-11,5,518,-188,-227,3872,-0.51,-0.24,17.33,-1.88,-2.27,38.72,-4.75,0.32,89.58,3.50,-0.25,-4.99
13,13,449,-155,-204,3987,-0.38,-0.14,18.34,-1.55,-2.04,39.87,-4.74,0.34,89.51,2.97,-0.45,-4.95
3,12,432,-147,-189,3832,-0.32,-0.05,19.14,-1.47,-1.89,38.32,-4.73,0.36,89.43,3.15,-0.47,-4.99
0,11,262,-106,-387,4004,-0.29,0.02,18.82,-1.06,-3.87,40.04,-4.74,0.38,89.36,3.21,-0.48,-4.67
4,15,208,10,-343,3982,-0.24,0.11,18.21,0.10,-3.43,39.82,-4.75,0.37,89.29,3.12,-0.58,-4.53
-9,2,129,143,-303,3833,-0.27,0.11,17.17,1.43,-3.03,38.33,-4.75,0.35,89.22,3.39,-0.31,-4.31
-1,-5,115,164,-291,3938,-0.25,0.07,16.16,1.64,-2.91,39.38,-4.74,0.34,89.15,3.22,-0.14,-4.20
5,1,99,-22,-300,3943,-0.19,0.07,15.15,-0.22,-3.00,39.43,-4.73,0.35,89.09,3.07,-0.27,-4.09
4,-6,87,-73,-224,3903,-0.15,0.03,14.16,-0.73,-2.24,39.03,-4.71,0.36,89.04,3.07,-0.12,-3.98
2,-4,29,-85,-267,3914,-0.12,-0.00,12.92,-0.85,-2.67,39.14,-4.70,0.38,88.99,3.09,-0.17,-3.78
1,-3,24,-65,-287,3935,-0.10,-0.02,11.78,-0.65,-2.87,39.35,-4.69,0.39,88.94,3.10,-0.19,-3.68
-3,0,31,-10,-329,3926,-0.11,-0.02,10.79,-0.10,-3.29,39.26,-4.69,0.38,88.90,3.19,-0.25,-3.61
-3,2,39,25,-357,3917,-0.12,-0.00,9.95,0.25,-3.57,39.17,-4.70,0.37,88.86,3.20,-0.28,-3.55
-14,3,156,179,-492,3872,-0.19,0.02,9.90,1.79,-4.92,38.72,-4.72,0.36,88.82,3.45,-0.30,-3.74
-1,12,195,186,-528,3953,-0.18,0.09,10.10,1.86,-5.28,39.53,-4.73,0.35,88.78,3.19,-0.50,-3.82
-11,-12,320,79,-442,3987,-0.23,0.01,11.05,0.79,-4.42,39.87,-4.74,0.34,88.73,3.42,0.02,-4.11
-1,-6,327,-26,-283,3908,-0.21,-0.03,11.94,-0.26,-2.83,39.08,-4.73,0.35,88.69,3.20,-0.10,-4.20
2,-15,275,-166,-141,3900,-0.18,-0.12,12.42,-1.66,-1.41,39.00,-4.71,0.36,88.64,3.12,0.10,-4.15
-9,-16,233,-167,-203,3906,-0.22,-0.21,12.60,-1.67,-2.03,39.06,-4.70,0.38,88.59,3.34,0.13,-4.09
3,10,177,-53,-293,3908,-0.18,-0.12,12.42,-0.53,-2.93,39.08,-4.69,0.39,88.54,3.08,-0.43,-3.98
-3,8,162,-41,-258,3931,-0.18,-0.06,12.16,-0.41,-2.58,39.31,-4.67,0.40,88.49,3.19,-0.41,-3.93
-4,-4,125,-21,-292,3925,-0.18,-0.08,11.71,-0.21,-2.92,39.25,-4.65,0.40,88.44,3.20,-0.16,-3.83
-5,-5,126,-10,-318,3918,-0.20,-0.10,11.31,-0.10,-3.18,39.18,-4.65,0.39,88.39,3.23,-0.12,-3.80
-4,-2,97,-83,-331,3959,-0.20,-0.11,10.77,-0.83,-3.31,39.59,-4.66,0.41,88.35,3.21,-0.20,-3.70
-5,0,98,-8,-372,3948,-0.21,-0.09,10.29,-0.08,-3.72,39.48,-4.67,0.40,88.31,3.24,-0.24,-3.66
2,13,252,59,-527,3897,-0.18,-0.01,10.80,0.59,-5.27,38.97,-4.69,0.40,88.27,3.10,-0.53,-3.96
-1,4,304,1,-424,3953,-0.17,0.02,11.57,0.01,-4.24,39.53,-4.71,0.40,88.22,3.17,-0.35,-4.11
-1,1,331,-179,-369,3990,-0.16,0.02,12.43,-1.79,-3.69,39.90,-4.71,0.42,88.17,3.17,-0.30,-4.23
2,2,318,-45,-321,3909,-0.13,0.03,13.13,-0.45,-3.21,39.09,-4.71,0.44,88.12,3.10,-0.34,-4.26
-6,6,275,-35,-223,3840,-0.15,0.07,13.50,-0.35,-2.23,38.40,-4.69,0.45,88.07,3.26,-0.44,-4.22
5,14,253,-118,-260,3910,-0.11,0.15,13.69,-1.18,-2.60,39.10,-4.68,0.47,88.01,3.02,-0.63,-4.19
2,1,170,-104,-259,3961,-0.08,0.14,13.36,-1.04,-2.59,39.61,-4.67,0.49,87.96,3.06,-0.38,-4.03
-4,3,147,-14,-227,3942,-0.10,0.14,12.92,-0.14,-2.27,39.42,-4.65,0.49,87.91,3.18,-0.42,-3.95
-2,0,98,-58,-237,3929,-0.10,0.13,12.22,-0.58,-2.37,39.29,-4.64,0.50,87.86,3.13,-0.36,-3.81
0,-2,92,-67,-293,3932,-0.09,0.10,11.56,-0.67,-2.93,39.32,-4.62,0.52,87.81,3.08,-0.33,-3.74
-3,-4,112,55,-365,3914,-0.10,0.07,11.09,0.55,-3.65,39.14,-4.63,0.50,87.77,3.15,-0.27,-3.73
-2,5,154,43,-468,3952,-0.10,0.09,10.92,0.43,-4.68,39.52,-4.65,0.50,87.72,3.14,-0.46,-3.79
-1,12,310,89,-512,3926,-0.10,0.16,11.72,0.89,-5.12,39.26,-4.66,0.49,87.68,3.13,-0.61,-4.12
-6,3,359,48,-536,3883,-0.13,0.16,12.74,0.48,-5.36,38.83,-4.68,0.49,87.63,3.25,-0.43,-4.28
-21,-19,402,-91,-247,3905,-0.24,0.03,13.92,-0.91,-2.47,39.05,-4.67,0.51,87.57,3.57,0.04,-4.45
0,-2,413,-18,-265,3866,-0.22,0.01,15.04,-0.18,-2.65,38.66,-4.65,0.51,87.51,3.13,-0.30,-4.56
-1,3,333,-49,-117,4039,-0.20,0.03,15.57,-0.49,-1.17,40.39,-4.63,0.51,87.45,3.13,-0.41,-4.47
-10,3,271,-159,-33,3984,-0.24,0.04,15.67,-1.59,-0.33,39.84,-4.62,0.53,87.39,3.32,-0.42,-4.37
9,7,64,9,-236,3924,-0.16,0.08,14.49,0.09,-2.36,39.24,-4.60,0.52,87.33,2.90,-0.51,-3.92
22,5,55,-1,-230,3921,-0.01,0.10,13.38,-0.01,-2.30,39.21,-4.58,0.52,87.28,2.58,-0.47,-3.81
-1,-1,20,-34,-356,3928,-0.02,0.09,12.16,-0.34,-3.56,39.28,-4.60,0.52,87.23,3.06,-0.35,-3.65
-6,3,16,-19,-356,3923,-0.05,0.10,11.04,-0.19,-3.56,39.23,-4.62,0.52,87.18,3.18,-0.43,-3.55
-4,-1,66,169,-519,3935,-0.07,0.08,10.34,1.69,-5.19,39.35,-4.63,0.51,87.14,3.16,-0.34,-3.58
-5,3,119,277,-619,3908,-0.09,0.09,10.03,2.77,-6.19,39.08,-4.64,0.50,87.10,3.19,-0.42,-3.64
-2,-6,339,248,-570,3943,-0.10,0.05,11.10,2.48,-5.70,39.43,-4.66,0.49,87.06,3.14,-0.21,-4.10
1,13,385,170,-505,3840,-0.08,0.12,12.34,1.70,-5.05,38.40,-4.67,0.48,87.01,3.08,-0.62,-4.28
-4,-4,415,-60,-317,3925,-0.10,0.08,13.63,-0.60,-3.17,39.25,-4.67,0.51,86.95,3.19,-0.28,-4.43
-13,1,402,-61,-235,3915,-0.17,0.08,14.72,-0.61,-2.35,39.15,-4.65,0.52,86.90,3.38,-0.38,-4.50
-4,0,329,-89,-259,3879,-0.18,0.07,15.26,-0.89,-2.59,38.79,-4.63,0.53,86.83,3.19,-0.37,-4.42
-6,17,315,-100,-245,3901,-0.19,0.17,15.65,-1.00,-2.45,39.01,-4.62,0.55,86.77,3.23,-0.76,-4.42
-12,-11,294,-24,-306,3948,-0.25,0.09,15.88,-0.24,-3.06,39.48,-4.61,0.54,86.71,3.35,-0.16,-4.41
-9,-4,288,-61,-294,3919,-0.28,0.05,16.05,-0.61,-2.94,39.19,-4.60,0.56,86.64,3.29,-0.30,-4.41
4,4,248,-112,-221,3960,-0.23,0.07,15.96,-1.12,-2.21,39.60,-4.58,0.58,86.58,3.01,-0.48,-4.33
-3,-2,242,-22,-282,3916,-0.22,0.05,15.84,-0.22,-2.82,39.16,-4.57,0.58,86.52,3.14,-0.35,-4.31
-3,17,214,-54,-259,3865,-0.22,0.15,15.56,-0.54,-2.59,38.65,-4.55,0.59,86.46,3.12,-0.77,-4.24
0,8,201,-86,-246,3953,-0.20,0.18,15.23,-0.86,-2.46,39.53,-4.53,0.60,86.39,3.05,-0.61,-4.18
-11,3,207,10,-315,3937,-0.24,0.18,14.97,0.10,-3.15,39.37,-4.54,0.59,86.34,3.28,-0.50,-4.17
-7,6,181,-7,-306,3971,-0.26,0.20,14.58,-0.07,-3.06,39.71,-4.53,0.58,86.28,3.20,-0.56,-4.09
3,-2,129,-146,-138,3897,-0.22,0.17,13.91,-1.46,-1.38,38.97,-4.52,0.59,86.22,2.98,-0.40,-3.95
-1,-5,114,-119,-234,3854,-0.20,0.12,13.21,-1.19,-2.34,38.54,-4.50,0.61,86.17,3.05,-0.33,-3.86
-7,-2,85,-21,-322,3955,-0.22,0.10,12.41,-0.21,-3.22,39.55,-4.51,0.60,86.12,3.18,-0.38,-3.75
-7,3,86,2,-308,3960,-0.24,0.11,11.69,0.02,-3.08,39.60,-4.51,0.58,86.07,3.19,-0.48,-3.69
1,4,123,3,-300,3937,-0.21,0.12,11.27,0.03,-3.00,39.37,-4.51,0.57,86.03,3.01,-0.49,-3.72
-1,2,142,31,-376,3943,-0.20,0.12,11.01,0.31,-3.76,39.43,-4.52,0.56,85.98,3.06,-0.44,-3.73
1,0,214,-19,-371,3928,-0.17,0.11,11.22,-0.19,-3.71,39.28,-4.54,0.56,85.94,3.02,-0.40,-3.86
7,9,225,-41,-357,3922,-0.11,0.15,11.47,-0.41,-3.57,39.22,-4.56,0.56,85.89,2.90,-0.60,-3.90
1,6,209,-93,-344,3931,-0.10,0.17,11.60,-0.93,-3.44,39.31,-4.57,0.58,85.85,3.02,-0.56,-3.88
3,6,214,-72,-348,3934,-0.07,0.19,11.74,-0.72,-3.48,39.34,-4.58,0.60,85.80,2.98,-0.57,-3.90
-5,5,247,-34,-367,3935,-0.09,0.20,12.07,-0.34,-3.67,39.35,-4.60,0.60,85.75,3.16,-0.56,-3.98
-10,6,259,-67,-307,3955,-0.14,0.22,12.45,-0.67,-3.07,39.55,-4.59,0.63,85.70,3.27,-0.59,-4.03
-13,-9,355,32,-341,3823,-0.21,0.14,13.37,0.32,-3.41,38.23,-4.60,0.61,85.65,3.36,-0.26,-4.27
-4,-3,403,-62,-330,3951,-0.21,0.11,14.49,-0.62,-3.30,39.51,-4.61,0.63,85.59,3.18,-0.39,-4.44
-7,7,397,-80,-221,3945,-0.23,0.14,15.46,-0.80,-2.21,39.45,-4.59,0.65,85.53,3.24,-0.61,-4.51
5,0,377,-7,-297,4001,-0.18,0.13,16.22,-0.07,-2.97,40.01,-4.58,0.64,85.47,2.97,-0.45,-4.54
3,-2,290,33,-338,3916,-0.14,0.10,16.36,0.33,-3.38,39.16,-4.59,0.62,85.40,3.00,-0.40,-4.40
4,9,281,6,-389,3908,-0.10,0.15,16.44,0.06,-3.89,39.08,-4.60,0.62,85.34,2.98,-0.63,-4.39
-10,-2,243,10,-303,3953,-0.16,0.12,16.28,0.10,-3.03,39.53,-4.60,0.61,85.27,3.28,-0.39,-4.31
1,6,237,54,-341,3958,-0.13,0.15,16.10,0.54,-3.41,39.58,-4.60,0.60,85.21,3.05,-0.56,-4.28
-7,-4,361,76,-327,4007,-0.16,0.11,16.69,0.76,-3.27,40.07,-4.60,0.58,85.14,3.22,-0.33,-4.54
7,-2,389,75,-322,3927,-0.10,0.08,17.39,0.75,-3.22,39.27,-4.60,0.57,85.07,2.92,-0.36,-4.64
-8,10,378,-80,-344,3946,-0.14,0.14,17.96,-0.80,-3.44,39.46,-4.61,0.59,85.00,3.24,-0.63,-4.67
-11,14,358,-101,-212,3924,-0.20,0.21,18.35,-1.01,-2.12,39.24,-4.60,0.61,84.93,3.31,-0.74,-4.66
-9,9,231,-112,-305,3855,-0.23,0.24,17.92,-1.12,-3.05,38.55,-4.59,0.63,84.85,3.28,-0.67,-4.41
-1,18,218,0,-318,3910,-0.21,0.33,17.46,0.00,-3.18,39.10,-4.60,0.62,84.79,3.11,-0.87,-4.35
8,10,160,39,-217,3893,-0.14,0.36,16.69,0.39,-2.17,38.93,-4.58,0.62,84.72,2.90,-0.71,-4.18
18,5,161,-22,-274,3874,-0.02,0.35,16.00,-0.22,-2.74,38.74,-4.57,0.62,84.66,2.65,-0.60,-4.13
-6,11,135,21,-488,3998,-0.05,0.38,15.23,0.21,-4.88,39.98,-4.58,0.62,84.59,3.16,-0.73,-4.02
-7,12,135,74,-436,3983,-0.09,0.42,14.53,0.74,-4.36,39.83,-4.59,0.61,84.54,3.20,-0.76,-3.96
-15,-7,207,119,-272,3933,-0.17,0.33,14.34,1.19,-2.72,39.33,-4.59,0.60,84.48,3.38,-0.34,-4.06
3,6,227,133,-299,3927,-0.14,0.34,14.29,1.33,-2.99,39.27,-4.59,0.58,84.42,3.00,-0.60,-4.09
-5,-1,279,53,-273,3932,-0.15,0.30,14.56,0.53,-2.73,39.32,-4.58,0.57,84.36,3.17,-0.44,-4.20
-6,-8,281,21,-310,3963,-0.18,0.22,14.82,0.21,-3.10,39.63,-4.58,0.56,84.31,3.19,-0.27,-4.22
-5,5,211,-30,-231,3929,-0.19,0.23,14.62,-0.30,-2.31,39.29,-4.56,0.56,84.25,3.16,-0.54,-4.09
4,8,217,-32,-215,3887,-0.15,0.25,14.49,-0.32,-2.15,38.87,-4.54,0.57,84.19,2.96,-0.61,-4.08
-1,8,206,-1,-400,3934,-0.14,0.28,14.29,-0.01,-4.00,39.34,-4.56,0.57,84.13,3.07,-0.61,-4.05
-7,2,208,14,-345,3899,-0.17,0.26,14.13,0.14,-3.45,38.99,-4.57,0.56,84.08,3.20,-0.48,-4.04
-8,7,234,20,-361,3889,-0.20,0.28,14.15,0.20,-3.61,38.89,-4.58,0.55,84.02,3.24,-0.58,-4.08
15,10,241,15,-330,3956,-0.09,0.31,14.20,0.15,-3.30,39.56,-4.59,0.54,83.96,2.74,-0.64,-4.10
-5,-6,251,-152,-249,4017,-0.11,0.24,14.31,-1.52,-2.49,40.17,-4.58,0.56,83.91,3.15,-0.31,-4.12
-1,9,243,-116,-239,3844,-0.10,0.27,14.36,-1.16,-2.39,38.44,-4.56,0.58,83.85,3.06,-0.64,-4.11
-10,12,267,-57,-392,3945,-0.15,0.32,14.56,-0.57,-3.92,39.45,-4.58,0.59,83.79,3.27,-0.72,-4.16
-6,10,241,-35,-299,3944,-0.18,0.35,14.57,-0.35,-2.99,39.44,-4.56,0.59,83.73,3.18,-0.69,-4.12
3,2,244,-52,-366,3902,-0.14,0.33,14.60,-0.52,-3.66,39.02,-4.58,0.60,83.68,3.00,-0.52,-4.12
-4,-2,238,-50,-453,3875,-0.15,0.28,14.59,-0.50,-4.53,38.75,-4.60,0.60,83.62,3.16,-0.44,-4.11
-14,1,256,-31,-486,3867,-0.22,0.26,14.70,-0.31,-4.86,38.67,-4.62,0.61,83.56,3.39,-0.49,-4.15
-22,-8,269,14,-491,3897,-0.33,0.18,14.87,0.14,-4.91,38.97,-4.64,0.61,83.50,3.60,-0.29,-4.18
-8,-3,278,-12,-432,3971,-0.35,0.15,15.08,-0.12,-4.32,39.71,-4.65,0.61,83.44,3.33,-0.38,-4.21
-6,-1,270,-49,-348,3928,-0.35,0.13,15.22,-0.49,-3.48,39.28,-4.67,0.62,83.38,3.30,-0.42,-4.21
-10,-7,259,43,-342,3918,-0.38,0.07,15.27,0.43,-3.42,39.18,-4.68,0.61,83.32,3.39,-0.28,-4.19
-27,-15,266,-51,-270,3918,-0.50,-0.03,15.37,-0.51,-2.70,39.18,-4.66,0.62,83.26,3.76,-0.09,-4.21
-17,-16,273,-56,-387,3918,-0.56,-0.12,15.50,-0.56,-3.87,39.18,-4.68,0.62,83.20,3.59,-0.05,-4.23
-22,-7,277,-33,-417,3991,-0.64,-0.15,15.64,-0.33,-4.17,39.91,-4.70,0.63,83.13,3.72,-0.23,-4.25
-26,-22,316,90,-398,3941,-0.73,-0.27,16.00,0.90,-3.98,39.41,-4.71,0.61,83.07,3.84,0.12,-4.34
-51,-28,354,74,-458,3897,-0.97,-0.42,16.56,0.74,-4.58,38.97,-4.73,0.61,83.00,4.42,0.28,-4.45
-66,-46,376,-9,-351,3901,-1.27,-0.65,17.20,-0.09,-3.51,39.01,-4.75,0.60,82.94,4.82,0.72,-4.54
-69,-45,409,-21,-366,3940,-1.57,-0.86,17.97,-0.21,-3.66,39.40,-4.77,0.59,82.86,4.98,0.76,-4.66
-29,-23,382,-71,-397,3935,-1.59,-0.92,18.51,-0.71,-3.97,39.35,-4.79,0.60,82.79,4.18,0.32,-4.65
-16,-13,357,-108,-270,3952,-1.53,-0.90,18.83,-1.08,-2.70,39.52,-4.78,0.62,82.71,3.90,0.10,-4.63
-10,-11,301,-38,-240,3861,-1.43,-0.88,18.79,-0.38,-2.40,38.61,-4.77,0.62,82.64,3.74,0.06,-4.53
-6,-6,279,-88,-239,3937,-1.33,-0.83,18.61,-0.88,-2.39,39.37,-4.76,0.63,82.56,3.62,-0.07,-4.48
-3,0,197,-106,-269,3929,-1.21,-0.75,17.95,-1.06,-2.69,39.29,-4.75,0.65,82.49,3.53,-0.22,-4.28
-3,4,163,-71,-310,3944,-1.11,-0.65,17.15,-0.71,-3.10,39.44,-4.74,0.66,82.42,3.49,-0.34,-4.16
-2,2,139,-8,-342,3951,-1.01,-0.57,16.28,-0.08,-3.42,39.51,-4.75,0.65,82.36,3.45,-0.31,-4.05
1,10,143,23,-353,3911,-0.90,-0.45,15.53,0.23,-3.53,39.11,-4.76,0.64,82.30,3.37,-0.50,-3.99
-1,10,209,105,-371,3904,-0.82,-0.35,15.25,1.05,-3.71,39.04,-4.77,0.62,82.24,3.39,-0.52,-4.07
-3,1,229,60,-399,3938,-0.76,-0.31,15.12,0.60,-3.99,39.38,-4.78,0.61,82.18,3.42,-0.34,-4.10
-12,-10,290,-48,-320,3964,-0.75,-0.34,15.38,-0.48,-3.20,39.64,-4.77,0.62,82.11,3.60,-0.12,-4.22
-9,2,305,-53,-290,3910,-0.73,-0.29,15.70,-0.53,-2.90,39.10,-4.75,0.63,82.05,3.52,-0.38,-4.27
19,23,385,-289,-47,3899,-0.54,-0.12,16.48,-2.89,-0.47,38.99,-4.74,0.65,81.99,2.89,-0.86,-4.47
12,23,386,-242,-73,3945,-0.42,0.03,17.19,-2.42,-0.73,39.45,-4.73,0.67,81.92,2.99,-0.92,-4.52
-5,13,312,54,-412,3966,-0.41,0.11,17.37,0.54,-4.12,39.66,-4.74,0.66,81.85,3.34,-0.73,-4.41
9,22,279,-104,-318,3990,-0.31,0.23,17.34,-1.04,-3.18,39.90,-4.74,0.68,81.78,3.03,-0.96,-4.35
-4,0,232,0,-516,3937,-0.30,0.21,17.02,0.00,-5.16,39.37,-4.76,0.68,81.71,3.30,-0.51,-4.24
-6,1,226,99,-481,3897,-0.31,0.19,16.69,0.99,-4.81,38.97,-4.77,0.68,81.64,3.35,-0.52,-4.20
-6,0,259,100,-499,3959,-0.32,0.17,16.60,1.00,-4.99,39.59,-4.78,0.67,81.58,3.37,-0.49,-4.25
-12,-14,281,140,-505,3931,-0.36,0.07,16.66,1.40,-5.05,39.31,-4.80,0.66,81.51,3.51,-0.17,-4.29
-4,-14,378,70,-442,3970,-0.35,-0.02,17.30,0.70,-4.42,39.70,-4.81,0.66,81.44,3.35,-0.14,-4.51
-8,-9,412,105,-471,3866,-0.36,-0.07,18.08,1.05,-4.71,38.66,-4.82,0.65,81.37,3.44,-0.23,-4.63
-20,-6,485,102,-442,3900,-0.45,-0.10,19.23,1.02,-4.42,39.00,-4.84,0.64,81.30,3.72,-0.27,-4.84
-17,0,491,43,-404,3932,-0.50,-0.09,20.30,0.43,-4.04,39.32,-4.85,0.63,81.21,3.68,-0.39,-4.94
-16,-8,478,-117,-162,3830,-0.55,-0.13,21.19,-1.17,-1.62,38.30,-4.83,0.65,81.13,3.67,-0.23,-4.99
8,-4,439,-174,-97,3869,-0.45,-0.14,21.75,-1.74,-0.97,38.69,-4.82,0.66,81.04,3.14,-0.32,-4.96
-3,4,433,-128,-156,3950,-0.42,-0.10,22.21,-1.28,-1.56,39.50,-4.80,0.68,80.95,3.34,-0.50,-4.99
-2,16,450,-92,-133,3948,-0.39,0.00,22.74,-0.92,-1.33,39.48,-4.78,0.69,80.86,3.30,-0.78,-5.06
17,22,460,-68,-283,3922,-0.25,0.14,23.27,-0.68,-2.83,39.22,-4.77,0.71,80.77,2.87,-0.95,-5.12
-12,-1,438,-83,-446,3925,-0.30,0.12,23.62,-0.83,-4.46,39.25,-4.78,0.72,80.68,3.48,-0.49,-5.10
-16,5,474,-27,-233,3893,-0.36,0.14,24.14,-0.27,-2.33,38.93,-4.77,0.72,80.58,3.57,-0.62,-5.21
-2,-1,492,-51,-264,3910,-0.34,0.12,24.73,-0.51,-2.64,39.10,-4.75,0.73,80.48,3.27,-0.50,-5.28
-12,5,528,15,-255,3931,-0.38,0.14,25.48,0.15,-2.55,39.31,-4.74,0.73,80.38,3.47,-0.62,-5.40
-14,1,530,67,-321,3994,-0.43,0.13,26.16,0.67,-3.21,39.94,-4.73,0.72,80.27,3.53,-0.53,-5.46
-10,-6,502,-137,-265,3976,-0.45,0.08,26.61,-1.37,-2.65,39.76,-4.72,0.74,80.17,3.44,-0.39,-5.44
-13,-12,438,-140,-302,3910,-0.48,-0.00,26.62,-1.40,-3.02,39.10,-4.72,0.77,80.06,3.51,-0.26,-5.33
-3,-4,443,-95,-240,3841,-0.45,-0.03,26.66,-0.95,-2.40,38.41,-4.71,0.79,79.96,3.29,-0.43,-5.34
-14,-14,426,-26,-416,4047,-0.49,-0.11,26.59,-0.26,-4.16,40.47,-4.72,0.79,79.85,3.54,-0.21,-5.30
-1,12,342,-101,-313,3957,-0.45,-0.03,26.02,-1.01,-3.13,39.57,-4.72,0.82,79.75,3.26,-0.78,-5.11
-13,-6,326,-96,-441,3889,-0.48,-0.06,25.41,-0.96,-4.41,38.89,-4.74,0.83,79.65,3.52,-0.41,-5.03
-12,5,396,-130,-308,3854,-0.51,-0.02,25.28,-1.30,-3.08,38.54,-4.73,0.86,79.54,3.51,-0.66,-5.14
6,15,432,-126,-312,3939,-0.42,0.07,25.39,-1.26,-3.12,39.39,-4.73,0.88,79.44,3.11,-0.91,-5.20
-10,11,357,13,-520,3990,-0.44,0.13,25.03,0.13,-5.20,39.90,-4.75,0.89,79.34,3.46,-0.84,-5.04
-8,14,346,51,-529,3939,-0.44,0.20,24.64,0.51,-5.29,39.39,-4.76,0.89,79.25,3.43,-0.92,-4.99
-9,10,362,30,-428,3910,-0.45,0.24,24.38,0.30,-4.28,39.10,-4.78,0.88,79.15,3.46,-0.85,-4.99
-9,7,352,-51,-197,3901,-0.46,0.26,24.09,-0.51,-1.97,39.01,-4.76,0.89,79.05,3.45,-0.80,-4.95
2,13,331,-10,-238,3856,-0.41,0.32,23.70,-0.10,-2.38,38.56,-4.74,0.89,78.96,3.20,-0.94,-4.88
2,20,372,12,-354,3935,-0.35,0.41,23.60,0.12,-3.54,39.35,-4.75,0.88,78.86,3.19,-1.10,-4.94
2,33,430,54,-355,3933,-0.31,0.57,23.86,0.54,-3.55,39.33,-4.75,0.87,78.77,3.18,-1.40,-5.05
-7,33,430,-29,-300,3989,-0.32,0.71,24.10,-0.29,-3.00,39.89,-4.74,0.87,78.67,3.36,-1.44,-5.07
2,21,365,-69,-171,3894,-0.27,0.77,23.92,-0.69,-1.71,38.94,-4.72,0.88,78.58,3.15,-1.22,-4.94
-10,13,347,-83,-216,3869,-0.31,0.77,23.64,-0.83,-2.16,38.69,-4.70,0.90,78.48,3.39,-1.07,-4.89
8,15,248,-53,-150,3973,-0.23,0.79,22.79,-0.53,-1.50,39.73,-4.69,0.91,78.39,2.99,-1.12,-4.65
6,10,198,-25,-294,3940,-0.17,0.77,21.72,-0.25,-2.94,39.40,-4.67,0.90,78.31,3.01,-1.01,-4.47
-6,-5,166,6,-353,3936,-0.19,0.66,20.56,0.06,-3.53,39.36,-4.68,0.90,78.22,3.26,-0.67,-4.32
-4,-14,153,33,-374,3942,-0.19,0.51,19.44,0.33,-3.74,39.42,-4.69,0.89,78.15,3.23,-0.44,-4.20
-10,-10,184,-60,-510,3915,-0.24,0.40,18.62,-0.60,-5.10,39.15,-4.71,0.90,78.07,3.37,-0.50,-4.18
-12,-13,205,-46,-560,3905,-0.28,0.28,18.00,-0.46,-5.60,39.05,-4.73,0.90,78.00,3.44,-0.41,-4.17
-13,0,293,112,-520,3862,-0.34,0.25,17.99,1.12,-5.20,38.62,-4.74,0.90,77.93,3.48,-0.66,-4.31
-7,9,332,95,-506,3934,-0.34,0.28,18.22,0.95,-5.06,39.34,-4.75,0.89,77.86,3.37,-0.85,-4.40
-6,2,478,108,-345,3882,-0.35,0.26,19.31,1.08,-3.45,38.82,-4.76,0.88,77.78,3.36,-0.69,-4.73
-27,-3,534,33,-293,3931,-0.48,0.22,20.64,0.33,-2.93,39.31,-4.75,0.87,77.70,3.81,-0.57,-4.93
-11,10,663,-41,-203,3911,-0.50,0.26,22.62,-0.41,-2.03,39.11,-4.73,0.88,77.61,3.48,-0.85,-5.31
-21,-1,708,-116,-257,3843,-0.57,0.23,24.68,-1.16,-2.57,38.43,-4.72,0.90,77.51,3.70,-0.64,-5.55
-15,5,616,-80,-116,3959,-0.61,0.23,25.97,-0.80,-1.16,39.59,-4.70,0.91,77.41,3.58,-0.77,-5.50
-4,0,511,-110,-209,3918,-0.57,0.21,26.49,-1.10,-2.09,39.18,-4.69,0.93,77.30,3.33,-0.67,-5.36
-5,-5,377,-92,-310,3927,-0.55,0.16,26.14,-0.92,-3.10,39.27,-4.68,0.95,77.20,3.34,-0.57,-5.10
-6,1,340,-85,-345,3965,-0.53,0.15,25.60,-0.85,-3.45,39.65,-4.69,0.97,77.09,3.36,-0.70,-4.99
-11,-14,329,21,-408,3980,-0.54,0.05,25.04,0.21,-4.08,39.80,-4.71,0.97,77.00,3.48,-0.37,-4.93
-3,-2,361,55,-489,3894,-0.51,0.03,24.74,0.55,-4.89,38.94,-4.72,0.97,76.90,3.32,-0.61,-4.95
-1,11,486,82,-465,3949,-0.46,0.10,25.23,0.82,-4.65,39.49,-4.73,0.96,76.80,3.27,-0.89,-5.20
2,3,494,103,-394,3854,-0.40,0.10,25.72,1.03,-3.94,38.54,-4.74,0.95,76.69,3.20,-0.72,-5.25
6,4,531,-48,-371,3922,-0.33,0.12,26.39,-0.48,-3.71,39.22,-4.76,0.96,76.59,3.11,-0.75,-5.37
3,7,512,3,-367,3870,-0.28,0.15,26.87,0.03,-3.67,38.70,-4.77,0.95,76.48,3.16,-0.81,-5.37
4,18,388,-20,-381,3911,-0.22,0.24,26.55,-0.20,-3.81,39.11,-4.78,0.95,76.38,3.14,-1.06,-5.13
8,12,338,-34,-344,3932,-0.15,0.29,25.96,-0.34,-3.44,39.32,-4.79,0.94,76.27,3.04,-0.95,-5.00
6,14,333,-65,-387,3923,-0.10,0.35,25.39,-0.65,-3.87,39.23,-4.81,0.95,76.17,3.08,-1.01,-4.94
1,18,341,-66,-325,3868,-0.08,0.42,24.94,-0.66,-3.25,38.68,-4.80,0.98,76.07,3.17,-1.13,-4.91
9,20,390,-36,-281,3888,-0.02,0.50,24.82,-0.36,-2.81,38.88,-4.79,0.98,75.97,2.98,-1.19,-4.98
-3,12,414,65,-376,3846,-0.04,0.53,24.86,0.65,-3.76,38.46,-4.79,0.97,75.88,3.23,-1.03,-5.02
7,39,420,-125,-333,3882,0.01,0.71,24.94,-1.25,-3.33,38.82,-4.79,1.00,75.78,3.02,-1.65,-5.04
-2,44,415,-138,-269,3939,-0.00,0.91,24.98,-1.38,-2.69,39.39,-4.78,1.03,75.68,3.19,-1.82,-5.03
6,35,355,-87,-267,3941,0.03,1.03,24.65,-0.87,-2.67,39.41,-4.76,1.05,75.58,3.01,-1.68,-4.90
4,32,340,-169,-168,3991,0.05,1.12,24.25,-1.69,-1.68,39.91,-4.74,1.07,75.48,3.03,-1.66,-4.83
11,17,334,-34,-211,3956,0.12,1.11,23.87,-0.34,-2.11,39.56,-4.72,1.07,75.39,2.86,-1.36,-4.79
-3,17,356,98,-323,3974,0.09,1.11,23.65,0.98,-3.23,39.74,-4.72,1.07,75.29,3.15,-1.35,-4.81
-8,4,324,-50,-315,3931,0.03,1.02,23.26,-0.50,-3.15,39.31,-4.71,1.06,75.20,3.26,-1.06,-4.72
-14,7,315,-14,-382,3929,-0.06,0.96,22.86,-0.14,-3.82,39.29,-4.72,1.06,75.11,3.42,-1.11,-4.67
-13,-4,408,65,-475,3899,-0.13,0.84,23.06,0.65,-4.75,38.99,-4.73,1.06,75.02,3.42,-0.85,-4.84
-16,0,446,35,-496,3893,-0.22,0.76,23.48,0.35,-4.96,38.93,-4.75,1.06,74.93,3.52,-0.91,-4.93
-5,1,634,-65,-397,3909,-0.23,0.69,25.00,-0.65,-3.97,39.09,-4.76,1.07,74.83,3.31,-0.91,-5.37
-19,-8,690,-71,-339,3912,-0.32,0.57,26.70,-0.71,-3.39,39.12,-4.78,1.08,74.72,3.63,-0.70,-5.61
-5,11,800,-147,-381,3909,-0.32,0.58,28.91,-1.47,-3.81,39.09,-4.79,1.11,74.61,3.35,-1.11,-5.97
-15,-7,827,-127,-310,3936,-0.38,0.48,31.07,-1.27,-3.10,39.36,-4.78,1.13,74.48,3.57,-0.74,-6.19
-29,11,858,-157,-258,3808,-0.52,0.50,33.19,-1.57,-2.58,38.08,-4.77,1.16,74.35,3.88,-1.13,-6.41
-16,6,820,-191,-346,3873,-0.56,0.49,34.88,-1.91,-3.46,38.73,-4.78,1.19,74.21,3.63,-1.04,-6.48
-20,-9,791,-7,-533,3886,-0.63,0.38,36.21,-0.07,-5.33,38.86,-4.79,1.20,74.07,3.74,-0.71,-6.54
-3,23,787,-58,-245,3936,-0.58,0.48,37.39,-0.58,-2.45,39.36,-4.77,1.21,73.92,3.37,-1.40,-6.63
-3,11,722,135,-563,3901,-0.54,0.50,38.06,1.35,-5.63,39.01,-4.79,1.21,73.77,3.37,-1.16,-6.57
-18,13,686,71,-539,4068,-0.60,0.53,38.44,0.71,-5.39,40.68,-4.80,1.22,73.61,3.70,-1.21,-6.53
-13,-11,540,211,-280,3918,-0.62,0.41,37.89,2.11,-2.80,39.18,-4.80,1.21,73.46,3.60,-0.69,-6.23
2,7,473,215,-208,3898,-0.54,0.41,36.98,2.15,-2.08,38.98,-4.79,1.21,73.31,3.27,-1.05,-6.04
12,0,286,-211,-142,3925,-0.42,0.37,35.03,-2.11,-1.42,39.25,-4.77,1.23,73.17,3.02,-0.92,-5.56
8,10,248,-195,-88,3892,-0.33,0.40,33.04,-1.95,-0.88,38.92,-4.75,1.25,73.04,3.06,-1.14,-5.33
4,11,152,-352,-136,3954,-0.27,0.42,30.66,-3.52,-1.36,39.54,-4.74,1.28,72.92,3.12,-1.18,-4.97
10,16,65,-206,-267,3957,-0.18,0.48,27.99,-2.06,-2.67,39.57,-4.73,1.31,72.81,2.97,-1.32,-4.60
-1,13,26,-94,-343,3975,-0.17,0.51,25.35,-0.94,-3.43,39.75,-4.75,1.32,72.71,3.20,-1.28,-4.31
-3,8,19,-86,-335,3978,-0.17,0.51,22.93,-0.86,-3.35,39.78,-4.76,1.32,72.62,3.25,-1.17,-4.10
-8,-5,27,-55,-341,3939,-0.20,0.43,20.80,-0.55,-3.41,39.39,-4.76,1.31,72.53,3.36,-0.88,-3.93
-9,-11,33,-79,-384,3976,-0.24,0.32,18.93,-0.79,-3.84,39.76,-4.78,1.31,72.46,3.40,-0.73,-3.79
-14,-7,124,126,-296,3911,-0.30,0.24,17.79,1.26,-2.96,39.11,-4.78,1.30,72.39,3.52,-0.78,-3.84
-16,-9,186,115,-315,3892,-0.37,0.16,17.15,1.15,-3.15,38.92,-4.78,1.29,72.32,3.58,-0.71,-3.89
-9,-17,291,-105,-436,3916,-0.38,0.04,17.21,-1.05,-4.36,39.16,-4.79,1.30,72.25,3.45,-0.52,-4.08
-6,-6,302,-80,-466,3884,-0.38,0.00,17.33,-0.80,-4.66,38.84,-4.81,1.30,72.18,3.40,-0.74,-4.10
-11,6,298,-184,-352,3877,-0.41,0.04,17.41,-1.84,-3.52,38.77,-4.82,1.33,72.11,3.51,-1.01,-4.10
-8,2,227,-150,-337,3926,-0.42,0.05,17.06,-1.50,-3.37,39.26,-4.82,1.35,72.05,3.46,-0.94,-3.95
8,11,173,-73,-308,3913,-0.33,0.11,16.41,-0.73,-3.08,39.13,-4.80,1.34,71.98,3.10,-1.14,-3.80
8,9,171,-54,-306,3926,-0.25,0.15,15.81,-0.54,-3.06,39.26,-4.79,1.33,71.92,3.07,-1.10,-3.75
-3,3,151,-38,-390,3922,-0.24,0.16,15.15,-0.38,-3.90,39.22,-4.81,1.33,71.86,3.30,-0.98,-3.66
-3,0,163,-40,-411,3916,-0.23,0.14,14.63,-0.40,-4.11,39.16,-4.82,1.32,71.80,3.31,-0.91,-3.63
-11,6,284,-131,-430,4012,-0.28,0.16,14.90,-1.31,-4.30,40.12,-4.84,1.34,71.74,3.49,-1.05,-3.86
-2,-3,323,-29,-441,3813,-0.26,0.13,15.38,-0.29,-4.41,38.13,-4.86,1.33,71.68,3.32,-0.85,-3.96
-16,7,351,24,-453,3933,-0.33,0.16,15.98,0.24,-4.53,39.33,-4.87,1.33,71.62,3.63,-1.06,-4.06
2,7,356,39,-392,3871,-0.29,0.19,16.55,0.39,-3.92,38.71,-4.88,1.32,71.55,3.26,-1.06,-4.11
1,-4,236,-20,-306,3931,-0.25,0.14,16.34,-0.20,-3.06,39.31,-4.87,1.31,71.49,3.26,-0.82,-3.89
2,4,203,13,-317,3873,-0.22,0.15,15.94,0.13,-3.17,38.73,-4.87,1.29,71.42,3.23,-0.98,-3.80
2,5,138,17,-247,3893,-0.18,0.17,15.19,0.17,-2.47,38.93,-4.85,1.28,71.36,3.21,-1.00,-3.62
2,9,124,-105,-235,3991,-0.15,0.21,14.43,-1.05,-2.35,39.91,-4.83,1.29,71.30,3.19,-1.09,-3.54
0,-7,80,-29,-261,3946,-0.14,0.14,13.47,-0.29,-2.61,39.46,-4.82,1.29,71.25,3.22,-0.75,-3.38
4,-2,78,-45,-258,3917,-0.10,0.12,12.60,-0.45,-2.58,39.17,-4.80,1.28,71.20,3.12,-0.84,-3.30
-3,-8,48,-73,-329,3930,-0.11,0.06,11.63,-0.73,-3.29,39.30,-4.80,1.27,71.15,3.26,-0.69,-3.17
-2,-9,40,-65,-335,3940,-0.11,-0.00,10.71,-0.65,-3.35,39.40,-4.80,1.25,71.11,3.24,-0.64,-3.08
0,-11,73,34,-401,3935,-0.10,-0.07,10.09,0.34,-4.01,39.35,-4.81,1.24,71.07,3.20,-0.58,-3.09
-2,-13,102,23,-414,3935,-0.10,-0.14,9.70,0.23,-4.14,39.35,-4.82,1.23,71.03,3.25,-0.51,-3.10
-13,-15,206,-11,-378,3922,-0.17,-0.22,9.99,-0.11,-3.78,39.22,-4.83,1.22,70.99,3.50,-0.44,-3.30
-12,-2,316,7,-381,3888,-0.23,-0.21,10.92,0.07,-3.81,38.88,-4.84,1.20,70.95,3.50,-0.70,-3.56
-7,8,460,-131,-407,3892,-0.25,-0.14,12.63,-1.31,-4.07,38.92,-4.86,1.22,70.90,3.42,-0.93,-3.94
-6,3,445,-143,-482,3940,-0.26,-0.11,14.08,-1.43,-4.82,39.40,-4.87,1.23,70.84,3.41,-0.84,-4.04
-4,14,380,-25,-265,3913,-0.26,-0.01,14.99,-0.25,-2.65,39.13,-4.86,1.22,70.78,3.36,-1.09,-4.00
3,1,376,29,-306,3943,-0.21,-0.00,15.79,0.29,-3.06,39.43,-4.86,1.21,70.72,3.20,-0.82,-4.06
-18,9,417,-19,-297,3917,-0.30,0.05,16.75,-0.19,-2.97,39.17,-4.85,1.20,70.65,3.65,-0.99,-4.20
5,2,428,-48,-258,3949,-0.24,0.06,17.69,-0.48,-2.58,39.49,-4.83,1.20,70.58,3.15,-0.85,-4.30
-34,2,492,21,-385,3881,-0.42,0.06,18.92,0.21,-3.85,38.81,-4.84,1.19,70.51,4.00,-0.84,-4.50
6,10,508,-43,-355,4044,-0.34,0.12,20.13,-0.43,-3.55,40.44,-4.84,1.18,70.43,3.17,-1.01,-4.63
-19,1,553,-36,-476,3884,-0.43,0.11,21.49,-0.36,-4.76,38.84,-4.86,1.18,70.34,3.71,-0.83,-4.81
-15,4,554,-157,-388,3881,-0.48,0.13,22.72,-1.57,-3.88,38.81,-4.87,1.20,70.25,3.65,-0.91,-4.91
-16,13,515,2,-428,3931,-0.53,0.19,23.59,0.02,-4.28,39.31,-4.89,1.20,70.16,3.69,-1.11,-4.92
-7,14,491,29,-419,3876,-0.52,0.26,24.22,0.29,-4.19,38.76,-4.90,1.19,70.06,3.51,-1.14,-4.93
-5,10,449,26,-323,3876,-0.49,0.29,24.54,0.26,-3.23,38.76,-4.90,1.18,69.96,3.47,-1.07,-4.88
-2,4,430,72,-336,3920,-0.46,0.29,24.71,0.72,-3.36,39.20,-4.90,1.18,69.86,3.40,-0.94,-4.86
2,-4,318,2,-351,3883,-0.40,0.24,24.18,0.02,-3.51,38.83,-4.90,1.17,69.77,3.30,-0.75,-4.62
-1,-6,285,-92,-387,3921,-0.37,0.18,23.50,-0.92,-3.87,39.21,-4.92,1.18,69.67,3.36,-0.70,-4.51
4,5,254,-4,-393,3918,-0.30,0.19,22.70,-0.04,-3.93,39.18,-4.93,1.17,69.58,3.25,-0.93,-4.38
-9,-1,256,51,-446,3909,-0.33,0.16,21.99,0.51,-4.46,39.09,-4.94,1.17,69.50,3.53,-0.79,-4.33
-8,-5,324,54,-452,3919,-0.34,0.12,21.77,0.54,-4.52,39.19,-4.95,1.16,69.41,3.52,-0.70,-4.42
-4,-8,364,58,-419,3911,-0.33,0.06,21.81,0.58,-4.19,39.11,-4.96,1.15,69.32,3.44,-0.61,-4.49
-11,5,379,-39,-357,3912,-0.37,0.08,21.94,-0.39,-3.57,39.12,-4.96,1.14,69.24,3.60,-0.88,-4.52
-2,2,371,-38,-306,3941,-0.34,0.09,22.01,-0.38,-3.06,39.41,-4.95,1.14,69.15,3.40,-0.82,-4.51
1,7,346,-220,-114,3942,-0.30,0.12,21.92,-2.20,-1.14,39.42,-4.94,1.16,69.06,3.32,-0.94,-4.46
3,-9,280,-238,-251,3908,-0.25,0.05,21.44,-2.38,-2.51,39.08,-4.93,1.18,68.98,3.26,-0.61,-4.31
8,11,165,-255,-163,3936,-0.18,0.11,20.30,-2.55,-1.63,39.36,-4.91,1.20,68.89,3.13,-1.05,-4.02
8,5,105,-339,-179,3921,-0.11,0.13,18.91,-3.39,-1.79,39.21,-4.90,1.22,68.82,3.10,-0.95,-3.80
10,10,6,-75,-316,3931,-0.04,0.18,17.06,-0.75,-3.16,39.31,-4.88,1.22,68.75,3.03,-1.06,-3.48
11,10,-4,-85,-314,3926,0.03,0.22,15.33,-0.85,-3.14,39.26,-4.86,1.23,68.69,2.98,-1.08,-3.31
14,19,-29,9,-294,3852,0.11,0.32,13.62,0.09,-2.94,38.52,-4.86,1.22,68.63,2.89,-1.28,-3.13
22,29,-25,-1,-326,3867,0.24,0.46,12.10,-0.01,-3.26,38.67,-4.85,1.21,68.59,2.69,-1.51,-3.01
5,29,18,-98,-403,3950,0.24,0.59,11.00,-0.98,-4.03,39.50,-4.87,1.22,68.54,3.05,-1.55,-2.99
-1,27,17,-102,-392,3955,0.21,0.70,10.01,-1.02,-3.92,39.55,-4.89,1.23,68.50,3.19,-1.55,-2.91
-5,13,33,-16,-385,3964,0.16,0.71,9.21,-0.16,-3.85,39.64,-4.89,1.22,68.47,3.29,-1.26,-2.87
-2,11,56,72,-365,3918,0.13,0.70,8.63,0.72,-3.65,39.18,-4.90,1.21,68.43,3.24,-1.21,-2.86
-30,-2,230,232,-478,4057,-0.06,0.62,9.17,2.32,-4.78,40.57,-4.90,1.19,68.40,3.86,-0.92,-3.20
-8,0,267,246,-374,4045,-0.11,0.56,9.88,2.46,-3.74,40.45,-4.90,1.18,68.36,3.43,-0.93,-3.32
-9,-9,334,-61,-339,3883,-0.15,0.45,10.93,-0.61,-3.39,38.83,-4.91,1.17,68.32,3.46,-0.71,-3.51
-11,-11,336,-75,-266,3977,-0.20,0.34,11.89,-0.75,-2.66,39.77,-4.89,1.17,68.27,3.51,-0.64,-3.59
3,2,264,-234,-255,3912,-0.16,0.32,12.31,-2.34,-2.55,39.12,-4.88,1.20,68.22,3.21,-0.92,-3.51
7,-2,232,-194,-253,3950,-0.11,0.27,12.49,-1.94,-2.53,39.50,-4.87,1.22,68.17,3.10,-0.84,-3.47
2,1,187,-123,-310,3959,-0.08,0.25,12.38,-1.23,-3.10,39.59,-4.86,1.24,68.12,3.19,-0.90,-3.38
6,-4,165,-203,-365,3884,-0.04,0.20,12.15,-2.03,-3.65,38.84,-4.86,1.26,68.07,3.10,-0.80,-3.32
-2,0,182,-138,-301,3931,-0.05,0.18,12.05,-1.38,-3.01,39.31,-4.85,1.28,68.02,3.26,-0.89,-3.34
-5,-2,235,-96,-236,3895,-0.07,0.15,12.28,-0.96,-2.36,38.95,-4.83,1.28,67.97,3.31,-0.85,-3.45
15,16,417,9,-262,3883,0.03,0.23,13.59,0.09,-2.62,38.83,-4.82,1.28,67.92,2.87,-1.23,-3.86
6,6,459,79,-315,3940,0.06,0.25,15.03,0.79,-3.15,39.40,-4.82,1.26,67.86,3.04,-1.02,-4.05
-17,1,546,34,-448,3850,-0.05,0.23,16.86,0.34,-4.48,38.50,-4.83,1.26,67.79,3.55,-0.91,-4.35
6,21,535,28,-536,3988,-0.01,0.33,18.44,0.28,-5.36,39.88,-4.84,1.26,67.72,3.08,-1.35,-4.45
-8,11,492,-14,-374,3840,-0.06,0.37,19.59,-0.14,-3.74,38.40,-4.85,1.25,67.64,3.38,-1.15,-4.47
-10,-6,523,26,-409,3906,-0.11,0.29,20.83,0.26,-4.09,39.06,-4.86,1.24,67.56,3.44,-0.78,-4.63
-17,9,637,46,-417,3987,-0.20,0.32,22.63,0.46,-4.17,39.87,-4.87,1.23,67.47,3.62,-1.08,-4.96
5,-8,682,-29,-371,3823,-0.15,0.24,24.53,-0.29,-3.71,38.23,-4.88,1.23,67.37,3.16,-0.71,-5.19
-5,2,708,-20,-536,3978,-0.17,0.23,26.39,-0.20,-5.36,39.78,-4.90,1.23,67.27,3.38,-0.92,-5.39
-19,-3,672,17,-531,3865,-0.27,0.19,27.85,0.17,-5.31,38.65,-4.91,1.24,67.16,3.70,-0.81,-5.44
-16,13,551,-188,-403,3894,-0.34,0.25,28.43,-1.88,-4.03,38.94,-4.92,1.26,67.04,3.66,-1.16,-5.28
4,2,511,-90,-504,3934,-0.28,0.23,28.70,-0.90,-5.04,39.34,-4.94,1.27,66.93,3.25,-0.94,-5.23
-2,13,396,-75,-323,3963,-0.26,0.29,28.25,-0.75,-3.23,39.63,-4.92,1.27,66.82,3.36,-1.18,-5.00
2,13,363,-110,-390,3898,-0.23,0.34,27.64,-1.10,-3.90,38.98,-4.94,1.29,66.71,3.28,-1.21,-4.89
-3,1,303,-6,-330,4023,-0.22,0.31,26.72,-0.06,-3.30,40.23,-4.93,1.28,66.60,3.38,-0.95,-4.71
-5,-7,293,38,-375,4007,-0.23,0.24,25.84,0.38,-3.75,40.07,-4.93,1.28,66.50,3.42,-0.76,-4.62
-5,-10,258,-80,-402,3934,-0.24,0.15,24.83,-0.80,-4.02,39.34,-4.95,1.28,66.40,3.43,-0.68,-4.47
-1,-6,248,-6,-346,3887,-0.22,0.10,23.86,-0.06,-3.46,38.87,-4.95,1.27,66.30,3.35,-0.75,-4.37
-4,7,215,94,-397,3920,-0.22,0.13,22.78,0.94,-3.97,39.20,-4.96,1.26,66.21,3.41,-1.01,-4.22
-7,5,232,59,-412,3941,-0.24,0.15,21.92,0.59,-4.12,39.41,-4.96,1.26,66.13,3.48,-0.97,-4.18
-7,16,308,-55,-243,3906,-0.26,0.23,21.61,-0.55,-2.43,39.06,-4.94,1.26,66.04,3.48,-1.22,-4.28
-10,16,309,-162,-235,3875,-0.30,0.31,21.33,-1.62,-2.35,38.75,-4.93,1.28,65.95,3.54,-1.25,-4.26
-2,6,192,-204,-172,3906,-0.28,0.31,20.37,-2.04,-1.72,39.06,-4.91,1.30,65.87,3.36,-1.06,-3.98
-6,3,144,-256,-210,3909,-0.29,0.30,19.21,-2.56,-2.10,39.09,-4.90,1.32,65.80,3.44,-1.01,-3.80
-3,3,38,-113,-319,3934,-0.28,0.29,17.52,-1.13,-3.19,39.34,-4.89,1.34,65.73,3.36,-1.02,-3.48
-6,-1,28,-87,-353,3947,-0.29,0.25,15.94,-0.87,-3.53,39.47,-4.91,1.34,65.66,3.44,-0.93,-3.33
-16,-7,29,-54,-366,3929,-0.35,0.19,14.52,-0.54,-3.66,39.29,-4.92,1.33,65.61,3.67,-0.79,-3.21
-8,-5,37,24,-345,3923,-0.37,0.14,13.30,0.24,-3.45,39.23,-4.92,1.32,65.55,3.51,-0.81,-3.12
7,-10,79,-69,-363,3857,-0.29,0.06,12.45,-0.69,-3.63,38.57,-4.93,1.31,65.50,3.19,-0.68,-3.12
3,-8,104,-84,-329,3891,-0.24,0.01,11.84,-0.84,-3.29,38.91,-4.92,1.31,65.46,3.25,-0.70,-3.11
5,0,120,-82,-302,3916,-0.19,0.01,11.39,-0.82,-3.02,39.16,-4.90,1.31,65.41,3.18,-0.86,-3.10
9,-2,142,-64,-292,3905,-0.11,-0.01,11.11,-0.64,-2.92,39.05,-4.89,1.30,65.37,3.07,-0.82,-3.12
-3,2,262,72,-392,3973,-0.12,0.01,11.60,0.72,-3.92,39.73,-4.89,1.29,65.32,3.32,-0.89,-3.36
-4,8,275,16,-385,3939,-0.13,0.05,12.12,0.16,-3.85,39.39,-4.90,1.27,65.27,3.35,-1.02,-3.42
-5,14,335,-44,-362,3918,-0.15,0.13,12.95,-0.44,-3.62,39.18,-4.91,1.26,65.22,3.38,-1.16,-3.59
18,18,423,-31,-187,3949,-0.03,0.23,14.24,-0.31,-1.87,39.49,-4.89,1.26,65.16,2.87,-1.26,-3.84
-16,13,576,137,-360,3967,-0.12,0.29,16.33,1.37,-3.60,39.67,-4.89,1.25,65.10,3.58,-1.17,-4.27
-8,20,613,96,-371,3983,-0.16,0.38,18.43,0.96,-3.71,39.83,-4.89,1.24,65.02,3.43,-1.33,-4.50
-4,19,665,-188,-392,4028,-0.17,0.46,20.65,-1.88,-3.92,40.28,-4.90,1.27,64.94,3.36,-1.35,-4.77
-3,31,682,-191,-166,3901,-0.17,0.60,22.74,-1.91,-1.66,39.01,-4.88,1.29,64.85,3.33,-1.64,-4.97
1,30,658,-110,-340,3873,-0.14,0.72,24.48,-1.10,-3.40,38.73,-4.89,1.31,64.75,3.24,-1.68,-5.07
2,28,648,-103,-238,3902,-0.12,0.82,25.99,-1.03,-2.38,39.02,-4.87,1.33,64.65,3.20,-1.67,-5.17
-3,29,544,-84,-368,3940,-0.12,0.92,26.71,-0.84,-3.68,39.40,-4.88,1.34,64.54,3.32,-1.72,-5.05
14,24,513,-30,-368,3960,-0.03,0.97,27.16,-0.30,-3.68,39.60,-4.89,1.33,64.44,2.95,-1.63,-5.04
-27,14,428,-130,-412,3955,-0.19,0.96,27.06,-1.30,-4.12,39.55,-4.90,1.36,64.33,3.84,-1.44,-4.88
-23,-5,417,71,-371,3905,-0.31,0.83,26.90,0.71,-3.71,39.05,-4.90,1.35,64.22,3.79,-1.02,-4.84
-1,5,466,60,-406,3913,-0.29,0.78,27.05,0.60,-4.06,39.13,-4.91,1.35,64.12,3.34,-1.20,-4.94
-17,3,441,83,-482,3890,-0.36,0.72,27.03,0.83,-4.82,38.90,-4.92,1.34,64.01,3.69,-1.14,-4.89
-14,-8,294,-77,-479,3933,-0.41,0.60,26.12,-0.77,-4.79,39.33,-4.94,1.35,63.91,3.66,-0.89,-4.56
-13,-10,237,-93,-504,3924,-0.45,0.48,24.96,-0.93,-5.04,39.24,-4.96,1.36,63.81,3.66,-0.83,-4.37
-12,-15,82,-93,-442,3905,-0.48,0.34,22.96,-0.93,-4.42,39.05,-4.97,1.37,63.72,3.66,-0.69,-3.94
-11,-15,57,-63,-416,3902,-0.50,0.21,21.01,-0.63,-4.16,39.02,-4.99,1.37,63.63,3.65,-0.66,-3.73
-8,-14,42,-16,-380,3893,-0.50,0.11,19.17,-0.16,-3.80,38.93,-5.00,1.37,63.56,3.60,-0.65,-3.55
-7,-13,48,-1,-378,3906,-0.49,0.02,17.54,-0.01,-3.78,39.06,-5.01,1.35,63.49,3.58,-0.63,-3.43
-8,-11,139,83,-477,3928,-0.49,-0.05,16.64,0.83,-4.77,39.28,-5.02,1.35,63.42,3.61,-0.65,-3.51
2,-10,216,35,-545,3934,-0.43,-0.11,16.29,0.35,-5.45,39.34,-5.03,1.34,63.36,3.40,-0.65,-3.61
-12,-7,339,101,-430,3916,-0.46,-0.14,16.73,1.01,-4.30,39.16,-5.04,1.33,63.29,3.70,-0.70,-3.85
0,4,358,45,-414,3923,-0.41,-0.10,17.24,0.45,-4.14,39.23,-5.05,1.32,63.22,3.45,-0.92,-3.92
-10,-4,379,-53,-369,3924,-0.43,-0.12,17.83,-0.53,-3.69,39.24,-5.06,1.31,63.15,3.66,-0.75,-4.00
-6,-3,375,-30,-361,3943,-0.43,-0.12,18.33,-0.30,-3.61,39.43,-5.06,1.30,63.08,3.58,-0.76,-4.04
8,9,368,-137,-187,3907,-0.33,-0.05,18.74,-1.37,-1.87,39.07,-5.04,1.31,63.00,3.26,-1.03,-4.05
10,8,401,-110,-109,3912,-0.24,-0.00,19.32,-1.10,-1.09,39.12,-5.03,1.32,62.92,3.18,-1.03,-4.16
17,19,453,-43,-285,4026,-0.11,0.12,20.15,-0.43,-2.85,40.26,-5.01,1.31,62.84,2.99,-1.28,-4.31
-11,6,446,-58,-333,3915,-0.17,0.14,20.85,-0.58,-3.33,39.15,-5.00,1.30,62.76,3.57,-1.02,-4.35
-12,-3,465,-17,-434,3945,-0.22,0.11,21.61,-0.17,-4.34,39.45,-5.02,1.30,62.67,3.62,-0.83,-4.44
-24,-4,495,-35,-536,3913,-0.35,0.07,22.46,-0.35,-5.36,39.13,-5.03,1.30,62.59,3.90,-0.80,-4.56
-6,5,533,-208,-431,3890,-0.35,0.10,23.47,-2.08,-4.31,38.90,-5.04,1.33,62.49,3.55,-1.00,-4.71
-3,8,529,-204,-468,3840,-0.33,0.14,24.35,-2.04,-4.68,38.40,-5.06,1.35,62.40,3.49,-1.09,-4.77
8,27,547,-187,-502,3907,-0.25,0.29,25.25,-1.87,-5.02,39.07,-5.07,1.37,62.29,3.25,-1.53,-4.87
-7,30,539,-182,-483,3887,-0.27,0.44,26.01,-1.82,-4.83,38.87,-5.08,1.39,62.19,3.57,-1.65,-4.92
7,40,549,-87,-456,3917,-0.20,0.64,26.76,-0.87,-4.56,39.17,-5.10,1.40,62.09,3.28,-1.91,-4.99
3,35,555,-42,-490,3931,-0.16,0.79,27.47,-0.42,-4.90,39.31,-5.12,1.40,61.98,3.36,-1.85,-5.06
-2,24,503,76,-420,3908,-0.16,0.86,27.79,0.76,-4.20,39.08,-5.12,1.40,61.87,3.46,-1.65,-4.99
-9,17,491,104,-479,3878,-0.20,0.88,28.01,1.04,-4.79,38.78,-5.13,1.40,61.76,3.62,-1.51,-4.99
4,4,401,7,-359,3939,-0.15,0.81,27.65,0.07,-3.59,39.39,-5.13,1.39,61.65,3.34,-1.22,-4.80
-7,-1,340,42,-337,3928,-0.18,0.72,26.96,0.42,-3.37,39.28,-5.12,1.39,61.54,3.57,-1.09,-4.64
-8,-1,297,-32,-230,3896,-0.21,0.65,26.08,-0.32,-2.30,38.96,-5.11,1.39,61.43,3.59,-1.07,-4.49
-3,6,291,-69,-251,3922,-0.21,0.62,25.24,-0.69,-2.51,39.22,-5.09,1.40,61.33,3.47,-1.21,-4.41
8,7,235,-104,-282,3928,-0.14,0.60,24.15,-1.04,-2.82,39.28,-5.07,1.41,61.24,3.22,-1.24,-4.22
6,9,215,-22,-244,3921,-0.09,0.59,23.05,-0.22,-2.44,39.21,-5.05,1.41,61.15,3.23,-1.28,-4.09
-12,7,245,19,-342,3929,-0.15,0.58,22.24,0.19,-3.42,39.29,-5.05,1.40,61.06,3.62,-1.23,-4.08
-5,0,252,-9,-357,3978,-0.17,0.52,21.55,-0.09,-3.57,39.78,-5.05,1.39,60.97,3.48,-1.06,-4.03
0,-5,227,-25,-336,3899,-0.15,0.44,20.78,-0.25,-3.36,38.99,-5.04,1.39,60.89,3.37,-0.93,-3.92
-9,2,235,-89,-394,3916,-0.19,0.41,20.14,-0.89,-3.94,39.16,-5.06,1.39,60.81,3.57,-1.07,-3.88
-5,4,271,-105,-411,3926,-0.20,0.39,19.78,-1.05,-4.11,39.26,-5.08,1.40,60.73,3.51,-1.11,-3.91
-3,0,260,-23,-367,3873,-0.20,0.35,19.39,-0.23,-3.67,38.73,-5.08,1.39,60.65,3.47,-1.02,-3.85
-7,9,317,-141,-457,3881,-0.22,0.37,19.38,-1.41,-4.57,38.81,-5.10,1.41,60.58,3.57,-1.21,-3.95
4,23,333,-160,-429,3932,-0.18,0.47,19.47,-1.60,-4.29,39.32,-5.11,1.43,60.50,3.34,-1.54,-3.98
-3,13,328,-135,-422,3933,-0.18,0.51,19.53,-1.35,-4.22,39.33,-5.13,1.45,60.42,3.49,-1.36,-3.97
-6,10,327,-31,-353,3957,-0.20,0.52,19.57,-0.31,-3.53,39.57,-5.12,1.44,60.34,3.56,-1.29,-3.97
-18,1,299,-29,-297,3921,-0.29,0.47,19.44,-0.29,-2.97,39.21,-5.11,1.43,60.27,3.82,-1.09,-3.91
-6,2,286,-44,-247,3995,-0.29,0.44,19.24,-0.44,-2.47,39.95,-5.09,1.43,60.19,3.56,-1.10,-3.87
-15,-6,282,-31,-321,3881,-0.36,0.36,19.03,-0.31,-3.21,38.81,-5.09,1.42,60.11,3.76,-0.91,-3.85
-4,0,285,2,-382,3983,-0.34,0.32,18.87,0.02,-3.82,39.83,-5.09,1.41,60.04,3.54,-1.02,-3.84
-14,5,243,-100,-318,3925,-0.40,0.32,18.46,-1.00,-3.18,39.25,-5.07,1.42,59.97,3.74,-1.13,-3.73
-9,5,201,-119,-371,3923,-0.41,0.32,17.84,-1.19,-3.71,39.23,-5.09,1.44,59.89,3.65,-1.14,-3.60
-5,2,142,-43,-327,3960,-0.40,0.30,16.93,-0.43,-3.27,39.60,-5.08,1.43,59.83,3.56,-1.07,-3.43
-11,9,133,18,-326,3917,-0.43,0.32,16.04,0.18,-3.26,39.17,-5.08,1.42,59.76,3.69,-1.21,-3.34
-11,15,161,-30,-364,3925,-0.45,0.38,15.42,-0.30,-3.64,39.25,-5.08,1.41,59.70,3.70,-1.34,-3.33
-20,9,175,-14,-363,3833,-0.53,0.40,14.95,-0.14,-3.63,38.33,-5.09,1.40,59.64,3.91,-1.22,-3.31
2,14,171,-161,-332,3937,-0.46,0.44,14.50,-1.61,-3.32,39.37,-5.08,1.43,59.58,3.44,-1.35,-3.27
-8,14,178,-68,-373,3847,-0.47,0.49,14.13,-0.68,-3.73,38.47,-5.10,1.42,59.53,3.65,-1.35,-3.25
-20,25,318,196,-475,3891,-0.54,0.59,14.66,1.96,-4.75,38.91,-5.10,1.41,59.47,3.92,-1.60,-3.53
4,27,390,81,-438,4050,-0.46,0.69,15.57,0.81,-4.38,40.50,-5.11,1.40,59.41,3.42,-1.66,-3.72
-4,13,511,-6,-333,3879,-0.44,0.70,17.13,-0.06,-3.33,38.79,-5.11,1.39,59.34,3.57,-1.38,-4.05
-6,18,546,-69,-246,3950,-0.43,0.74,18.75,-0.69,-2.46,39.50,-5.09,1.40,59.27,3.60,-1.49,-4.24
-11,2,533,-85,-303,3898,-0.46,0.68,20.13,-0.85,-3.03,38.98,-5.07,1.40,59.19,3.70,-1.15,-4.33
-12,4,514,-130,-340,3920,-0.48,0.64,21.25,-1.30,-3.40,39.20,-5.07,1.43,59.10,3.72,-1.20,-4.39
-2,6,440,-55,-363,3926,-0.45,0.61,21.81,-0.55,-3.63,39.26,-5.07,1.42,59.01,3.51,-1.23,-4.31
-5,3,421,-35,-477,3913,-0.43,0.57,22.19,-0.35,-4.77,39.13,-5.09,1.43,58.93,3.58,-1.16,-4.31
-8,-7,374,40,-480,3946,-0.44,0.47,22.26,0.40,-4.80,39.46,-5.10,1.42,58.84,3.65,-0.92,-4.23
-2,0,377,90,-502,3942,-0.41,0.42,22.33,0.90,-5.02,39.42,-5.11,1.42,58.75,3.53,-1.05,-4.24
-14,-10,496,101,-566,3907,-0.45,0.32,23.12,1.01,-5.66,39.07,-5.13,1.42,58.66,3.79,-0.82,-4.50
0,-6,553,66,-579,3949,-0.41,0.25,24.18,0.66,-5.79,39.49,-5.14,1.41,58.56,3.50,-0.88,-4.68
1,0,715,40,-606,3941,-0.36,0.23,26.13,0.40,-6.06,39.41,-5.15,1.42,58.46,3.48,-1.00,-5.11
-8,0,773,12,-569,3900,-0.37,0.20,28.23,0.12,-5.69,39.00,-5.17,1.42,58.35,3.68,-0.99,-5.38
-16,-2,818,-131,-527,3948,-0.43,0.17,30.40,-1.31,-5.27,39.48,-5.19,1.43,58.23,3.87,-0.95,-5.63
-8,3,827,-100,-382,3857,-0.44,0.17,32.40,-1.00,-3.82,38.57,-5.20,1.45,58.10,3.72,-1.06,-5.81
2,9,937,-82,-402,3888,-0.38,0.21,34.88,-0.82,-4.02,38.88,-5.22,1.45,57.96,3.51,-1.20,-6.19
-27,12,975,-71,-372,3953,-0.51,0.26,37.34,-0.71,-3.72,39.53,-5.22,1.45,57.81,4.13,-1.27,-6.46
-9,19,1018,-46,-348,3935,-0.51,0.35,39.81,-0.46,-3.48,39.35,-5.22,1.45,57.65,3.77,-1.44,-6.73
-16,11,995,-82,-380,3984,-0.56,0.38,41.90,-0.82,-3.80,39.84,-5.23,1.45,57.49,3.93,-1.29,-6.86
-2,1,836,-133,-284,4008,-0.52,0.35,42.81,-1.33,-2.84,40.08,-5.21,1.48,57.31,3.62,-1.09,-6.66
-25,-8,794,-49,-195,3846,-0.62,0.27,43.37,-0.49,-1.95,38.46,-5.19,1.49,57.14,4.10,-0.89,-6.63
-3,0,672,-109,-186,3963,-0.57,0.24,43.13,-1.09,-1.86,39.63,-5.17,1.50,56.97,3.63,-1.06,-6.39
5,2,616,-139,-138,3870,-0.49,0.23,42.58,-1.39,-1.38,38.70,-5.15,1.52,56.80,3.43,-1.11,-6.25
5,11,565,-210,-199,3875,-0.41,0.27,41.77,-2.10,-1.99,38.75,-5.13,1.55,56.63,3.39,-1.32,-6.09
-5,24,560,-230,-269,3917,-0.40,0.39,41.01,-2.30,-2.69,39.17,-5.12,1.58,56.47,3.59,-1.64,-6.01
-4,14,522,-134,-305,3958,-0.38,0.44,40.09,-1.34,-3.05,39.58,-5.10,1.61,56.31,3.55,-1.46,-5.87
16,29,517,-68,-317,3967,-0.25,0.57,39.24,-0.68,-3.17,39.67,-5.08,1.61,56.15,3.10,-1.81,-5.79
11,24,499,-90,-380,3941,-0.15,0.66,38.36,-0.90,-3.80,39.41,-5.09,1.61,56.00,3.18,-1.73,-5.68
-15,3,473,-38,-432,3960,-0.23,0.61,37.41,-0.38,-4.32,39.60,-5.10,1.62,55.85,3.74,-1.30,-5.55
-16,-4,339,-98,-405,3909,-0.30,0.53,35.73,-0.98,-4.05,39.09,-5.12,1.63,55.71,3.79,-1.14,-5.18
-5,14,296,-122,-449,3933,-0.30,0.56,33.96,-1.22,-4.49,39.33,-5.13,1.64,55.58,3.57,-1.52,-4.96
-2,8,160,-123,-347,3936,-0.29,0.55,31.54,-1.23,-3.47,39.36,-5.12,1.67,55.45,3.50,-1.42,-4.53
-1,10,107,-150,-281,3907,-0.26,0.56,29.04,-1.50,-2.81,39.07,-5.10,1.69,55.33,3.46,-1.47,-4.23
3,-3,36,-160,-338,3866,-0.22,0.48,26.36,-1.60,-3.38,38.66,-5.10,1.72,55.23,3.36,-1.21,-3.89
2,-1,20,-114,-316,3903,-0.18,0.43,23.84,-1.14,-3.16,39.03,-5.08,1.73,55.13,3.36,-1.24,-3.65
1,11,27,-23,-406,3914,-0.16,0.45,21.62,-0.23,-4.06,39.14,-5.08,1.72,55.05,3.38,-1.49,-3.48
1,16,37,6,-438,3902,-0.14,0.51,19.69,0.06,-4.38,39.02,-5.09,1.72,54.97,3.38,-1.60,-3.33
4,29,86,5,-406,3915,-0.10,0.63,18.24,0.05,-4.06,39.15,-5.10,1.71,54.90,3.31,-1.89,-3.29
5,30,96,-33,-371,3921,-0.06,0.75,17.00,-0.33,-3.71,39.21,-5.10,1.70,54.83,3.28,-1.94,-3.21
0,15,114,-59,-396,3945,-0.05,0.77,16.00,-0.59,-3.96,39.45,-5.11,1.70,54.77,3.39,-1.63,-3.15
4,16,123,-28,-398,3946,-0.02,0.79,15.15,-0.28,-3.98,39.46,-5.12,1.69,54.71,3.30,-1.66,-3.10
-1,4,133,-33,-424,3948,-0.03,0.73,14.45,-0.33,-4.24,39.48,-5.13,1.68,54.65,3.41,-1.39,-3.05
0,9,140,-36,-462,3951,-0.02,0.72,13.86,-0.36,-4.62,39.51,-5.14,1.68,54.59,3.40,-1.49,-3.01
-4,3,169,-74,-365,3950,-0.05,0.66,13.50,-0.74,-3.65,39.50,-5.14,1.67,54.54,3.49,-1.34,-3.03
-1,-3,169,-50,-388,3937,-0.05,0.58,13.18,-0.50,-3.88,39.37,-5.15,1.66,54.49,3.43,-1.19,-3.00
-9,-5,181,-50,-378,3909,-0.10,0.49,12.97,-0.50,-3.78,39.09,-5.16,1.65,54.44,3.61,-1.12,-3.01
0,2,175,-81,-372,3919,-0.09,0.45,12.74,-0.81,-3.72,39.19,-5.16,1.64,54.39,3.43,-1.25,-2.98
-3,-2,203,-33,-414,3917,-0.10,0.40,12.70,-0.33,-4.14,39.17,-5.17,1.63,54.34,3.50,-1.14,-3.02
-2,-1,204,-28,-411,3914,-0.10,0.35,12.68,-0.28,-4.11,39.14,-5.18,1.62,54.29,3.49,-1.15,-3.02
-9,5,224,-68,-372,3927,-0.15,0.35,12.78,-0.68,-3.72,39.27,-5.19,1.61,54.24,3.65,-1.26,-3.06
2,5,231,-79,-348,3945,-0.12,0.34,12.91,-0.79,-3.48,39.45,-5.18,1.60,54.19,3.41,-1.25,-3.08
-5,2,260,-117,-367,3974,-0.14,0.32,13.20,-1.17,-3.67,39.74,-5.20,1.62,54.13,3.57,-1.20,-3.15
-5,10,275,-110,-355,3916,-0.15,0.35,13.56,-1.10,-3.55,39.16,-5.18,1.61,54.08,3.56,-1.36,-3.20
-2,11,310,-113,-361,3943,-0.15,0.38,14.09,-1.13,-3.61,39.43,-5.20,1.63,54.02,3.51,-1.40,-3.30
7,17,316,-113,-347,3917,-0.09,0.45,14.61,-1.13,-3.47,39.17,-5.18,1.64,53.96,3.30,-1.55,-3.36
0,7,265,-68,-349,3915,-0.08,0.44,14.77,-0.68,-3.49,39.15,-5.17,1.62,53.91,3.44,-1.34,-3.28
-2,7,245,-54,-338,3949,-0.09,0.44,14.79,-0.54,-3.38,39.49,-5.17,1.61,53.85,3.47,-1.33,-3.25
-6,1,167,-109,-303,3908,-0.12,0.40,14.33,-1.09,-3.03,39.08,-5.15,1.62,53.79,3.55,-1.20,-3.07
-1,-1,143,-129,-317,3932,-0.11,0.36,13.77,-1.29,-3.17,39.32,-5.13,1.63,53.73,3.44,-1.16,-2.99
1,6,131,-23,-333,3926,-0.09,0.36,13.19,-0.23,-3.33,39.26,-5.12,1.62,53.68,3.39,-1.29,-2.92
9,14,170,-34,-284,3924,-0.03,0.41,12.91,-0.34,-2.84,39.24,-5.11,1.61,53.63,3.20,-1.46,-2.96
1,13,335,-52,-357,3910,-0.02,0.45,13.66,-0.52,-3.57,39.10,-5.11,1.60,53.58,3.36,-1.44,-3.30
1,13,337,-106,-387,3915,-0.01,0.48,14.35,-1.06,-3.87,39.15,-5.13,1.61,53.52,3.37,-1.46,-3.36
-6,7,321,-24,-590,3958,-0.05,0.48,14.87,-0.24,-5.90,39.58,-5.14,1.61,53.46,3.53,-1.33,-3.37
-4,13,308,-2,-487,3959,-0.07,0.51,15.26,-0.02,-4.87,39.59,-5.16,1.60,53.40,3.50,-1.46,-3.38
-10,6,261,-97,-531,3947,-0.12,0.49,15.33,-0.97,-5.31,39.47,-5.17,1.61,53.34,3.65,-1.32,-3.30
-17,6,262,-81,-486,3903,-0.21,0.48,15.39,-0.81,-4.86,39.03,-5.19,1.61,53.28,3.83,-1.32,-3.31
-14,7,245,-89,-462,3903,-0.28,0.48,15.35,-0.89,-4.62,39.03,-5.21,1.62,53.22,3.80,-1.34,-3.27
-6,2,231,-105,-403,3926,-0.29,0.44,15.22,-1.05,-4.03,39.26,-5.23,1.62,53.16,3.65,-1.23,-3.24
-9,4,191,-58,-295,3893,-0.31,0.42,14.87,-0.58,-2.95,38.93,-5.21,1.62,53.10,3.71,-1.26,-3.14
-3,1,171,-60,-303,3934,-0.30,0.38,14.42,-0.60,-3.03,39.34,-5.20,1.61,53.04,3.57,-1.19,-3.07
0,-1,116,-40,-283,3884,-0.27,0.34,13.69,-0.40,-2.83,38.84,-5.18,1.61,52.99,3.49,-1.13,-2.91
1,0,111,-27,-334,3881,-0.24,0.31,13.00,-0.27,-3.34,38.81,-5.18,1.59,52.94,3.46,-1.14,-2.84
5,1,136,-3,-398,3929,-0.18,0.28,12.53,-0.03,-3.98,39.29,-5.19,1.58,52.89,3.37,-1.14,-2.85
7,13,170,42,-410,3953,-0.12,0.33,12.31,0.42,-4.10,39.53,-5.19,1.57,52.84,3.32,-1.39,-2.89
0,19,317,39,-313,3981,-0.11,0.42,13.01,0.39,-3.13,39.81,-5.18,1.56,52.79,3.45,-1.53,-3.19
6,20,368,-5,-380,3935,-0.06,0.50,13.96,-0.05,-3.80,39.35,-5.19,1.55,52.73,3.32,-1.56,-3.35
-7,1,395,-64,-321,3953,-0.10,0.45,14.97,-0.64,-3.21,39.53,-5.17,1.54,52.67,3.58,-1.16,-3.48
-4,2,384,-83,-284,3959,-0.11,0.42,15.82,-0.83,-2.84,39.59,-5.15,1.54,52.61,3.51,-1.17,-3.53
-6,10,318,-204,-327,3892,-0.14,0.44,16.17,-2.04,-3.27,38.92,-5.15,1.57,52.54,3.56,-1.36,-3.44
0,1,286,-285,-314,3893,-0.12,0.40,16.30,-2.85,-3.14,38.93,-5.14,1.59,52.48,3.43,-1.18,-3.40
-2,-4,86,-166,-438,3913,-0.12,0.34,15.20,-1.66,-4.38,39.13,-5.16,1.61,52.42,3.48,-1.07,-2.97
-2,-1,74,-85,-291,3950,-0.12,0.30,14.13,-0.85,-2.91,39.50,-5.14,1.61,52.36,3.47,-1.12,-2.86
-9,4,210,-61,-324,3896,-0.17,0.29,14.00,-0.61,-3.24,38.96,-5.13,1.60,52.30,3.61,-1.22,-3.08
-3,3,240,-29,-328,3919,-0.17,0.28,14.06,-0.29,-3.28,39.19,-5.12,1.59,52.25,3.49,-1.19,-3.13
-4,8,321,-82,-450,3993,-0.18,0.30,14.61,-0.82,-4.50,39.93,-5.14,1.59,52.19,3.52,-1.29,-3.31
1,26,344,-146,-454,3924,-0.15,0.43,15.25,-1.46,-4.54,39.24,-5.16,1.60,52.13,3.42,-1.70,-3.40
4,21,366,-30,-421,3905,-0.11,0.51,15.96,-0.30,-4.21,39.05,-5.17,1.60,52.07,3.36,-1.62,-3.49
-4,11,352,29,-397,3944,-0.13,0.53,16.51,0.29,-3.97,39.44,-5.17,1.59,52.00,3.53,-1.42,-3.51
-6,10,294,-47,-403,3897,-0.15,0.54,16.65,-0.47,-4.03,38.97,-5.18,1.58,51.94,3.58,-1.39,-3.43
-10,4,277,-12,-464,3905,-0.20,0.51,16.68,-0.12,-4.64,39.05,-5.19,1.58,51.87,3.69,-1.26,-3.40
-1,1,240,-36,-402,3936,-0.18,0.46,16.47,-0.36,-4.02,39.36,-5.20,1.57,51.81,3.50,-1.18,-3.32
-3,2,222,-90,-452,3853,-0.18,0.43,16.18,-0.90,-4.52,38.53,-5.22,1.57,51.74,3.56,-1.20,-3.26
5,4,198,-39,-381,3923,-0.13,0.41,15.77,-0.39,-3.81,39.23,-5.22,1.56,51.68,3.38,-1.23,-3.18
1,3,188,-26,-383,3917,-0.11,0.39,15.34,-0.26,-3.83,39.17,-5.23,1.55,51.62,3.46,-1.19,-3.13
-2,1,147,-1,-396,3955,-0.11,0.36,14.70,-0.01,-3.96,39.55,-5.23,1.54,51.56,3.53,-1.14,-3.00
2,7,166,-8,-352,3912,-0.09,0.36,14.24,-0.08,-3.52,39.12,-5.23,1.53,51.50,3.44,-1.25,-3.00
-2,-3,201,-43,-460,3910,-0.09,0.31,14.05,-0.43,-4.60,39.10,-5.25,1.53,51.45,3.53,-1.03,-3.04
-5,-4,179,-75,-469,3909,-0.12,0.25,13.73,-0.75,-4.69,39.09,-5.26,1.53,51.39,3.61,-1.00,-2.97
1,-9,66,-93,-456,3917,-0.10,0.17,12.76,-0.93,-4.56,39.17,-5.28,1.53,51.34,3.49,-0.88,-2.70
-2,-12,54,-50,-452,3905,-0.10,0.08,11.82,-0.50,-4.52,39.05,-5.29,1.53,51.30,3.56,-0.79,-2.60
-4,-14,53,61,-374,3950,-0.11,-0.01,10.96,0.61,-3.74,39.50,-5.29,1.51,51.25,3.61,-0.71,-2.53
-7,-17,60,-5,-362,3958,-0.15,-0.11,10.23,-0.05,-3.62,39.58,-5.29,1.50,51.21,3.68,-0.61,-2.48
-7,-14,65,-118,-359,3876,-0.17,-0.19,9.60,-1.18,-3.59,38.76,-5.29,1.52,51.17,3.68,-0.67,-2.43
-5,-8,57,-100,-365,3888,-0.19,-0.22,8.99,-1.00,-3.65,38.88,-5.31,1.51,51.14,3.66,-0.78,-2.37
2,1,9,-67,-421,3891,-0.16,-0.19,8.14,-0.67,-4.21,38.91,-5.32,1.50,51.11,3.51,-0.96,-2.22
3,0,4,-64,-452,3880,-0.12,-0.17,7.35,-0.64,-4.52,38.80,-5.34,1.50,51.08,3.50,-0.94,-2.14
4,3,73,52,-517,3938,-0.09,-0.14,7.06,0.52,-5.17,39.38,-5.35,1.49,51.05,3.47,-1.01,-2.24
9,6,95,29,-455,3887,-0.02,-0.09,6.94,0.29,-4.55,38.87,-5.36,1.48,51.02,3.36,-1.07,-2.26
1,-1,162,-85,-400,3909,-0.01,-0.08,7.23,-0.85,-4.00,39.09,-5.38,1.47,50.99,3.53,-0.93,-2.40
6,0,184,-110,-389,3903,0.02,-0.07,7.63,-1.10,-3.89,39.03,-5.39,1.48,50.96,3.43,-0.96,-2.47
5,5,181,-95,-398,3879,0.05,-0.04,7.97,-0.95,-3.98,38.79,-5.41,1.48,50.93,3.45,-1.07,-2.49
2,7,165,-83,-382,3952,0.06,0.01,8.18,-0.83,-3.82,39.52,-5.41,1.47,50.90,3.52,-1.11,-2.48
-5,2,187,-83,-357,3971,0.02,0.02,8.50,-0.83,-3.57,39.71,-5.40,1.46,50.87,3.66,-1.01,-2.54
-11,0,199,-87,-430,3956,-0.05,0.02,8.87,-0.87,-4.30,39.56,-5.42,1.45,50.83,3.81,-0.97,-2.59
-2,7,182,-102,-383,3943,-0.05,0.06,9.09,-1.02,-3.83,39.43,-5.44,1.46,50.80,3.64,-1.12,-2.58
-10,4,187,-116,-377,3898,-0.11,0.08,9.32,-1.16,-3.77,38.98,-5.44,1.48,50.76,3.82,-1.08,-2.61
-14,20,248,-64,-446,3927,-0.18,0.19,9.90,-0.64,-4.46,39.27,-5.46,1.48,50.72,3.94,-1.43,-2.76
-6,16,262,-116,-404,3914,-0.20,0.27,10.51,-1.16,-4.04,39.14,-5.47,1.49,50.68,3.79,-1.38,-2.83
-5,14,262,-96,-294,3926,-0.21,0.33,11.06,-0.96,-2.94,39.26,-5.45,1.50,50.63,3.76,-1.36,-2.87
0,14,263,-133,-280,3923,-0.19,0.38,11.56,-1.33,-2.80,39.23,-5.44,1.51,50.59,3.64,-1.38,-2.91
-3,12,246,-110,-360,3917,-0.19,0.42,11.90,-1.10,-3.60,39.17,-5.42,1.52,50.54,3.69,-1.36,-2.91
-1,14,228,-152,-314,3888,-0.18,0.46,12.10,-1.52,-3.14,38.88,-5.41,1.54,50.49,3.64,-1.43,-2.90
4,13,225,-155,-359,3905,-0.14,0.49,12.26,-1.55,-3.59,39.05,-5.40,1.56,50.44,3.52,-1.43,-2.90
7,15,231,-131,-406,3874,-0.08,0.54,12.45,-1.31,-4.06,38.74,-5.42,1.58,50.39,3.45,-1.49,-2.93
-4,17,237,16,-414,3930,-0.10,0.59,12.65,0.16,-4.14,39.30,-5.42,1.57,50.34,3.68,-1.54,-2.95
0,22,252,8,-453,3941,-0.09,0.66,12.92,0.08,-4.53,39.41,-5.43,1.56,50.29,3.61,-1.66,-3.00
-2,13,253,-11,-463,3912,-0.09,0.67,13.17,-0.11,-4.63,39.12,-5.44,1.56,50.24,3.66,-1.48,-3.02
-5,8,245,-14,-438,3916,-0.11,0.66,13.35,-0.14,-4.38,39.16,-5.45,1.55,50.19,3.73,-1.36,-3.02
-5,5,185,-32,-424,3914,-0.13,0.62,13.14,-0.32,-4.24,39.14,-5.46,1.54,50.14,3.74,-1.29,-2.90
-2,6,178,-71,-430,3887,-0.13,0.60,12.91,-0.71,-4.30,38.87,-5.47,1.54,50.09,3.69,-1.30,-2.87
3,14,210,-84,-495,3924,-0.10,0.62,12.90,-0.84,-4.95,39.24,-5.49,1.54,50.03,3.59,-1.47,-2.92
1,20,256,-129,-445,3967,-0.08,0.68,13.18,-1.29,-4.45,39.67,-5.51,1.56,49.98,3.64,-1.62,-3.02
2,25,261,-64,-382,3960,-0.06,0.77,13.45,-0.64,-3.82,39.60,-5.51,1.55,49.93,3.61,-1.74,-3.05
-8,11,277,-39,-407,3951,-0.10,0.76,13.79,-0.39,-4.07,39.51,-5.51,1.54,49.88,3.83,-1.45,-3.10
-7,25,381,38,-346,3960,-0.14,0.83,14.74,0.38,-3.46,39.60,-5.51,1.53,49.82,3.81,-1.75,-3.35
8,20,384,144,-339,3951,-0.07,0.87,15.61,1.44,-3.39,39.51,-5.50,1.52,49.75,3.49,-1.65,-3.43
12,26,389,-70,-344,3893,0.01,0.94,16.42,-0.70,-3.44,38.93,-5.49,1.52,49.69,3.38,-1.79,-3.50
8,30,380,-70,-361,3879,0.05,1.03,17.10,-0.70,-3.61,38.79,-5.48,1.51,49.62,3.44,-1.89,-3.54
39,50,332,-96,-395,3963,0.29,1.23,17.41,-0.96,-3.95,39.63,-5.49,1.51,49.55,2.75,-2.35,-3.48
45,56,321,-95,-318,3917,0.53,1.45,17.63,-0.95,-3.18,39.17,-5.47,1.52,49.48,2.55,-2.54,-3.48
59,68,289,-45,-380,3939,0.84,1.72,17.63,-0.45,-3.80,39.39,-5.47,1.52,49.41,2.18,-2.85,-3.42
36,49,267,-149,-356,3920,0.97,1.85,17.49,-1.49,-3.56,39.20,-5.45,1.55,49.34,2.60,-2.52,-3.37
34,42,196,-144,-313,3912,1.08,1.92,16.94,-1.44,-3.13,39.12,-5.43,1.57,49.28,2.60,-2.42,-3.20
19,27,195,-97,-335,3914,1.09,1.89,16.44,-0.97,-3.35,39.14,-5.41,1.58,49.21,2.89,-2.11,-3.16
34,46,228,-72,-409,3896,1.19,1.98,16.18,-0.72,-4.09,38.96,-5.42,1.58,49.15,2.56,-2.52,-3.19
22,45,231,-120,-378,3893,1.21,2.06,15.97,-1.20,-3.78,38.93,-5.42,1.61,49.09,2.80,-2.54,-3.18
46,54,263,-133,-402,3919,1.37,2.18,15.98,-1.33,-4.02,39.19,-5.43,1.64,49.02,2.27,-2.77,-3.23
25,37,276,-116,-410,3921,1.38,2.19,16.07,-1.16,-4.10,39.21,-5.44,1.65,48.96,2.70,-2.44,-3.26
8,23,297,-136,-405,3915,1.29,2.11,16.27,-1.36,-4.05,39.15,-5.45,1.68,48.90,3.08,-2.15,-3.31
5,8,303,-67,-415,3959,1.19,1.95,16.49,-0.67,-4.15,39.59,-5.45,1.68,48.83,3.17,-1.80,-3.33
1,8,314,-125,-385,3916,1.08,1.80,16.76,-1.25,-3.85,39.16,-5.46,1.70,48.77,3.29,-1.78,-3.37
-4,2,312,-139,-324,3939,0.95,1.64,16.99,-1.39,-3.24,39.39,-5.44,1.72,48.70,3.41,-1.62,-3.39
-3,10,294,-130,-406,3916,0.83,1.53,17.08,-1.30,-4.06,39.16,-5.45,1.74,48.63,3.43,-1.77,-3.36
-5,0,291,-80,-325,3933,0.72,1.38,17.15,-0.80,-3.25,39.33,-5.43,1.74,48.56,3.49,-1.53,-3.36
0,2,246,-153,-335,3873,0.65,1.25,16.93,-1.53,-3.35,38.73,-5.41,1.77,48.50,3.39,-1.55,-3.26
-1,-2,247,-201,-371,3937,0.58,1.12,16.75,-2.01,-3.71,39.37,-5.41,1.80,48.43,3.43,-1.45,-3.25
-13,-7,306,-102,-355,3906,0.44,0.96,16.94,-1.02,-3.55,39.06,-5.39,1.79,48.36,3.70,-1.30,-3.36
-3,11,327,-175,-406,3976,0.38,0.93,17.24,-1.75,-4.06,39.76,-5.40,1.82,48.29,3.52,-1.68,-3.42
1,6,360,-83,-352,3904,0.35,0.88,17.71,-0.83,-3.52,39.04,-5.39,1.81,48.22,3.44,-1.56,-3.51
-12,-3,324,-81,-392,3870,0.24,0.77,17.92,-0.81,-3.92,38.70,-5.39,1.81,48.15,3.74,-1.34,-3.47
-6,-5,273,-85,-366,3899,0.18,0.66,17.79,-0.85,-3.66,38.99,-5.39,1.80,48.08,3.63,-1.26,-3.37
-7,-15,241,-121,-313,3962,0.12,0.50,17.48,-1.21,-3.13,39.62,-5.37,1.80,48.01,3.65,-1.02,-3.29
-25,-33,153,-75,-291,3912,-0.05,0.25,16.67,-0.75,-2.91,39.12,-5.35,1.80,47.95,4.05,-0.59,-3.07
-35,-39,155,-85,-317,3931,-0.26,-0.01,15.95,-0.85,-3.17,39.31,-5.34,1.80,47.88,4.30,-0.39,-3.01
-25,-31,110,-92,-292,3922,-0.38,-0.20,15.02,-0.92,-2.92,39.22,-5.32,1.79,47.82,4.12,-0.50,-2.86
-28,-34,103,-84,-332,3924,-0.51,-0.39,14.15,-0.84,-3.32,39.24,-5.31,1.78,47.76,4.21,-0.38,-2.77
-19,-22,134,-67,-329,3943,-0.58,-0.48,13.55,-0.67,-3.29,39.43,-5.30,1.77,47.71,4.04,-0.59,-2.77
-23,-20,161,-20,-324,3945,-0.66,-0.56,13.18,-0.20,-3.24,39.45,-5.29,1.76,47.66,4.14,-0.60,-2.79
-48,-56,178,-116,-380,3925,-0.89,-0.84,12.95,-1.16,-3.80,39.25,-5.31,1.75,47.61,4.72,0.21,-2.79
-59,-64,147,-109,-419,3893,-1.16,-1.15,12.55,-1.09,-4.19,38.93,-5.33,1.75,47.56,5.04,0.46,-2.71
-75,-62,116,-117,-424,3953,-1.50,-1.41,12.00,-1.17,-4.24,39.53,-5.36,1.75,47.51,5.47,0.49,-2.61
-56,-48,113,-118,-423,3953,-1.69,-1.56,11.49,-1.18,-4.23,39.53,-5.38,1.74,47.46,5.15,0.25,-2.56
-23,-18,117,-114,-411,3924,-1.66,-1.52,11.05,-1.14,-4.11,39.24,-5.40,1.74,47.42,4.49,-0.37,-2.53
-13,-16,112,-97,-387,3935,-1.58,-1.46,10.63,-0.97,-3.87,39.35,-5.42,1.72,47.38,4.27,-0.41,-2.49
-7,-9,103,-72,-403,3908,-1.46,-1.37,10.20,-0.72,-4.03,39.08,-5.43,1.71,47.34,4.13,-0.57,-2.43
-2,-11,105,-62,-387,3943,-1.33,-1.30,9.82,-0.62,-3.87,39.43,-5.44,1.69,47.30,3.99,-0.53,-2.40
-7,-17,112,-164,-418,3884,-1.24,-1.27,9.52,-1.64,-4.18,38.84,-5.46,1.70,47.26,4.08,-0.43,-2.39
-3,-11,132,-136,-433,3900,-1.13,-1.21,9.37,-1.36,-4.33,39.00,-5.48,1.70,47.22,3.98,-0.57,-2.41
-4,2,151,-101,-369,3920,-1.04,-1.08,9.36,-1.01,-3.69,39.20,-5.47,1.68,47.18,3.98,-0.86,-2.44
-4,2,158,-57,-404,3972,-0.96,-0.96,9.38,-0.57,-4.04,39.72,-5.48,1.67,47.14,3.96,-0.88,-2.45
0,4,171,-105,-391,3905,-0.87,-0.84,9.49,-1.05,-3.91,39.05,-5.50,1.66,47.11,3.87,-0.95,-2.48
1,1,162,-75,-353,3935,-0.77,-0.75,9.53,-0.75,-3.53,39.35,-5.49,1.64,47.07,3.82,-0.90,-2.47
-9,-13,97,-25,-304,3985,-0.75,-0.75,9.17,-0.25,-3.04,39.85,-5.48,1.63,47.03,4.01,-0.61,-2.33
-14,-13,76,-63,-362,3949,-0.76,-0.76,8.71,-0.63,-3.62,39.49,-5.48,1.61,47.00,4.11,-0.59,-2.26
3,7,187,-232,-265,3889,-0.67,-0.64,8.98,-2.32,-2.65,38.89,-5.47,1.63,46.96,3.73,-1.04,-2.46
3,5,225,-230,-321,3905,-0.58,-0.55,9.46,-2.30,-3.21,39.05,-5.46,1.65,46.92,3.70,-1.04,-2.57
-1,11,258,-105,-389,3934,-0.53,-0.42,10.09,-1.05,-3.89,39.34,-5.48,1.64,46.88,3.78,-1.19,-2.67
3,13,231,-77,-398,3936,-0.46,-0.30,10.49,-0.77,-3.98,39.36,-5.49,1.63,46.84,3.69,-1.25,-2.66
-3,5,216,-99,-416,3900,-0.43,-0.24,10.76,-0.99,-4.16,39.00,-5.51,1.62,46.80,3.81,-1.11,-2.65
1,10,229,-83,-436,3902,-0.38,-0.16,11.08,-0.83,-4.36,39.02,-5.52,1.62,46.75,3.73,-1.23,-2.70
-8,6,223,6,-476,3926,-0.39,-0.10,11.33,0.06,-4.76,39.26,-5.53,1.61,46.71,3.92,-1.16,-2.71
-8,0,177,44,-461,3955,-0.40,-0.09,11.28,0.44,-4.61,39.55,-5.54,1.60,46.66,3.93,-1.03,-2.63
-5,-6,108,-39,-363,3981,-0.39,-0.12,10.81,-0.39,-3.63,39.81,-5.54,1.58,46.62,3.86,-0.89,-2.47
-10,-15,102,-51,-322,3880,-0.41,-0.20,10.35,-0.51,-3.22,38.80,-5.53,1.57,46.58,3.96,-0.68,-2.42
0,-10,161,-112,-221,3936,-0.37,-0.24,10.30,-1.12,-2.21,39.36,-5.51,1.58,46.54,3.74,-0.77,-2.52
-1,-3,196,-178,-230,3918,-0.34,-0.24,10.46,-1.78,-2.30,39.18,-5.49,1.59,46.50,3.74,-0.92,-2.59
1,10,221,-97,-280,3894,-0.30,-0.15,10.76,-0.97,-2.80,38.94,-5.47,1.59,46.45,3.67,-1.21,-2.65
2,3,186,-95,-266,3962,-0.26,-0.12,10.82,-0.95,-2.66,39.62,-5.46,1.59,46.41,3.63,-1.08,-2.60
1,11,192,-120,-358,3896,-0.23,-0.04,10.91,-1.20,-3.58,38.96,-5.44,1.61,46.36,3.63,-1.27,-2.61
3,12,196,-123,-369,3915,-0.19,0.04,11.02,-1.23,-3.69,39.15,-5.44,1.63,46.32,3.58,-1.33,-2.63
-3,1,125,55,-507,3933,-0.19,0.04,10.68,0.55,-5.07,39.33,-5.45,1.62,46.28,3.71,-1.10,-2.48
-5,-3,114,12,-506,3911,-0.20,0.02,10.30,0.12,-5.06,39.11,-5.46,1.61,46.24,3.76,-1.01,-2.43
-7,-5,87,-76,-474,3921,-0.22,-0.01,9.80,-0.76,-4.74,39.21,-5.48,1.61,46.20,3.82,-0.95,-2.34
-9,-8,79,-58,-461,3919,-0.25,-0.06,9.31,-0.58,-4.61,39.19,-5.49,1.60,46.16,3.88,-0.88,-2.28
-1,-2,110,-137,-398,3884,-0.23,-0.07,9.05,-1.37,-3.98,38.84,-5.50,1.62,46.13,3.72,-1.01,-2.31
3,0,119,-125,-356,3915,-0.19,-0.06,8.87,-1.25,-3.56,39.15,-5.49,1.63,46.09,3.61,-1.06,-2.31
1,0,102,-60,-375,3924,-0.17,-0.05,8.60,-0.60,-3.75,39.24,-5.49,1.61,46.06,3.65,-1.05,-2.26
-4,-3,102,-68,-348,3921,-0.17,-0.07,8.36,-0.68,-3.48,39.21,-5.48,1.60,46.02,3.74,-0.98,-2.24
-1,2,108,-66,-357,3927,-0.16,-0.05,8.19,-0.66,-3.57,39.27,-5.47,1.59,45.99,3.67,-1.08,-2.24
-4,1,121,-78,-363,3902,-0.17,-0.04,8.11,-0.78,-3.63,39.02,-5.46,1.57,45.96,3.73,-1.05,-2.25
-3,4,113,12,-538,3923,-0.17,-0.01,7.99,0.12,-5.38,39.23,-5.48,1.57,45.93,3.72,-1.11,-2.23
-10,-3,68,51,-562,3953,-0.22,-0.03,7.60,0.51,-5.62,39.53,-5.49,1.56,45.90,3.89,-0.96,-2.12
9,15,65,-176,-383,3933,-0.14,0.07,7.24,-1.76,-3.83,39.33,-5.49,1.58,45.87,3.48,-1.37,-2.08
-1,4,50,-59,-318,3900,-0.13,0.09,6.82,-0.59,-3.18,39.00,-5.48,1.57,45.84,3.67,-1.14,-2.02
4,-7,27,-55,-404,3931,-0.09,0.03,6.30,-0.55,-4.04,39.31,-5.49,1.56,45.82,3.57,-0.89,-1.94
4,-6,22,-50,-393,3917,-0.06,-0.01,5.81,-0.50,-3.93,39.17,-5.49,1.54,45.79,3.56,-0.89,-1.89
0,-3,40,-129,-369,3929,-0.05,-0.02,5.47,-1.29,-3.69,39.29,-5.48,1.56,45.77,3.63,-0.96,-1.89
-2,-2,57,-139,-361,3905,-0.06,-0.03,5.27,-1.39,-3.61,39.05,-5.48,1.58,45.75,3.67,-0.99,-1.90
4,5,120,-89,-336,3943,-0.03,0.00,5.48,-0.89,-3.36,39.43,-5.46,1.57,45.73,3.53,-1.14,-2.03
3,3,125,-61,-356,3931,-0.01,0.02,5.69,-0.61,-3.56,39.31,-5.45,1.56,45.70,3.54,-1.09,-2.05
-1,-5,87,-10,-439,3929,-0.01,-0.01,5.65,-0.10,-4.39,39.29,-5.46,1.54,45.68,3.63,-0.91,-1.98
-7,-10,72,-18,-446,3937,-0.06,-0.07,5.53,-0.18,-4.46,39.37,-5.47,1.53,45.66,3.77,-0.79,-1.95
-9,-5,76,-28,-482,3932,-0.11,-0.10,5.44,-0.28,-4.82,39.32,-5.49,1.52,45.64,3.83,-0.88,-1.94
-8,-6,89,4,-515,3913,-0.14,-0.12,5.44,0.04,-5.15,39.13,-5.50,1.51,45.62,3.83,-0.84,-1.97
-8,-4,110,-49,-486,3901,-0.18,-0.14,5.56,-0.49,-4.86,39.01,-5.52,1.51,45.60,3.85,-0.88,-2.01
-5,-6,123,-32,-436,3933,-0.19,-0.16,5.76,-0.32,-4.36,39.33,-5.53,1.49,45.57,3.80,-0.82,-2.05
-3,-15,49,-156,-254,3925,-0.19,-0.23,5.48,-1.56,-2.54,39.25,-5.51,1.50,45.55,3.75,-0.62,-1.90
-3,-14,-9,-121,-292,3933,-0.19,-0.30,4.88,-1.21,-2.92,39.33,-5.50,1.51,45.53,3.74,-0.63,-1.75
-15,-14,-49,-45,-393,3921,-0.26,-0.35,4.09,-0.45,-3.93,39.21,-5.50,1.49,45.51,4.01,-0.60,-1.62
-21,-18,-64,-55,-421,3879,-0.36,-0.43,3.29,-0.55,-4.21,38.79,-5.51,1.48,45.50,4.17,-0.49,-1.53
-4,-11,34,-70,-411,3926,-0.35,-0.45,3.17,-0.70,-4.11,39.26,-5.53,1.46,45.49,3.83,-0.62,-1.68
0,-6,47,8,-488,3924,-0.32,-0.44,3.14,0.08,-4.88,39.24,-5.54,1.45,45.48,3.74,-0.71,-1.70
3,18,105,26,-517,3901,-0.27,-0.29,3.47,0.26,-5.17,39.01,-5.56,1.44,45.46,3.68,-1.24,-1.83
-2,17,132,-5,-381,3921,-0.25,-0.16,3.92,-0.05,-3.81,39.21,-5.56,1.42,45.45,3.78,-1.24,-1.91
7,12,56,-223,-166,3900,-0.18,-0.07,3.87,-2.23,-1.66,39.00,-5.54,1.43,45.43,3.57,-1.17,-1.78
-2,5,-5,-124,-193,4014,-0.18,-0.03,3.46,-1.24,-1.93,40.14,-5.52,1.43,45.42,3.74,-1.04,-1.64
9,4,-20,-124,-409,3913,-0.11,-0.00,2.99,-1.24,-4.09,39.13,-5.54,1.45,45.41,3.50,-1.03,-1.57
7,1,-15,-98,-428,3925,-0.05,0.00,2.60,-0.98,-4.28,39.25,-5.56,1.45,45.40,3.54,-0.98,-1.55
-3,1,1,-79,-401,3927,-0.07,0.01,2.34,-0.79,-4.01,39.27,-5.57,1.43,45.39,3.75,-0.97,-1.56
-2,3,2,-80,-400,3931,-0.07,0.03,2.12,-0.80,-4.00,39.31,-5.58,1.42,45.38,3.74,-1.01,-1.54
-1,-2,4,-73,-389,3932,-0.07,0.01,1.93,-0.73,-3.89,39.32,-5.58,1.40,45.37,3.73,-0.89,-1.53
2,-4,3,-68,-395,3931,-0.05,-0.01,1.76,-0.68,-3.95,39.31,-5.59,1.39,45.36,3.66,-0.83,-1.51
-1,-4,10,-66,-388,3924,-0.05,-0.04,1.64,-0.66,-3.88,39.24,-5.59,1.37,45.36,3.73,-0.81,-1.51
-3,-2,9,-59,-381,3943,-0.06,-0.05,1.53,-0.59,-3.81,39.43,-5.59,1.35,45.35,3.77,-0.84,-1.50
-6,-4,8,-72,-442,3909,-0.09,-0.07,1.43,-0.72,-4.42,39.09,-5.61,1.35,45.35,3.85,-0.79,-1.49
-7,-3,14,-68,-415,3913,-0.13,-0.08,1.37,-0.68,-4.15,39.13,-5.62,1.33,45.34,3.89,-0.80,-1.50
0,-2,15,-79,-391,3904,-0.12,-0.08,1.33,-0.79,-3.91,39.04,-5.63,1.32,45.34,3.75,-0.81,-1.49
-1,0,11,-76,-410,3921,-0.11,-0.07,1.26,-0.76,-4.10,39.21,-5.65,1.31,45.33,3.78,-0.84,-1.48
5,2,6,-89,-322,3944,-0.07,-0.05,1.17,-0.89,-3.22,39.44,-5.63,1.31,45.33,3.63,-0.89,-1.47
8,5,13,-50,-355,3957,-0.01,-0.02,1.13,-0.50,-3.55,39.57,-5.62,1.30,45.32,3.55,-0.95,-1.47
5,-19,45,-45,-452,3933,0.02,-0.13,1.29,-0.45,-4.52,39.33,-5.63,1.28,45.32,3.61,-0.43,-1.54
-3,-20,49,-69,-445,3899,-0.00,-0.24,1.46,-0.69,-4.45,38.99,-5.65,1.28,45.31,3.79,-0.37,-1.56
1,-36,49,-247,-624,3929,0.01,-0.44,1.62,-2.47,-6.24,39.29,-5.66,1.29,45.30,3.72,0.00,-1.58
10,-37,88,-299,-687,3690,0.07,-0.62,1.99,-2.99,-6.87,36.90,-5.68,1.30,45.30,3.53,0.07,-1.67
1,-18,172,-72,-503,3883,0.07,-0.67,2.84,-0.72,-5.03,38.83,-5.70,1.29,45.29,3.72,-0.31,-1.88
-4,-7,214,-72,-660,3899,0.03,-0.64,3.86,-0.72,-6.60,38.99,-5.71,1.29,45.27,3.84,-0.53,-2.04
-11,-4,270,52,-303,4044,-0.04,-0.60,5.12,0.52,-3.03,40.44,-5.70,1.27,45.25,4.00,-0.60,-2.24
-1,-4,205,29,-154,4064,-0.04,-0.57,5.86,0.29,-1.54,40.64,-5.69,1.27,45.23,3.78,-0.60,-2.19
-23,24,297,-241,-590,3718,-0.18,-0.36,7.09,-2.41,-5.90,37.18,-5.70,1.28,45.20,4.28,-1.23,-2.44
-16,5,297,71,-238,3938,-0.26,-0.30,8.19,0.71,-2.38,39.38,-5.69,1.27,45.16,4.15,-0.86,-2.53
-3,0,121,-16,-405,3825,-0.25,-0.27,8.11,-0.16,-4.05,38.25,-5.70,1.25,45.13,3.89,-0.75,-2.23
-9,16,186,-142,-557,3795,-0.28,-0.14,8.43,-1.42,-5.57,37.95,-5.71,1.26,45.10,4.03,-1.12,-2.36
11,-2,179,-69,-191,3883,-0.18,-0.14,8.68,-0.69,-1.91,38.83,-5.70,1.26,45.06,3.59,-0.75,-2.37
-2,-1,159,-77,-363,3870,-0.18,-0.13,8.78,-0.77,-3.63,38.70,-5.68,1.26,45.03,3.84,-0.77,-2.34
-5,10,234,-3,-474,3949,-0.19,-0.06,9.33,-0.03,-4.74,39.49,-5.69,1.25,44.99,3.91,-1.01,-2.51
-8,-2,239,44,-342,3971,-0.22,-0.06,9.86,0.44,-3.42,39.71,-5.68,1.24,44.95,3.97,-0.76,-2.56
-8,3,186,-34,-498,3890,-0.25,-0.04,10.01,-0.34,-4.98,38.90,-5.70,1.23,44.91,3.99,-0.86,-2.49
-6,7,194,-41,-528,3897,-0.26,0.01,10.19,-0.41,-5.28,38.97,-5.72,1.23,44.87,3.97,-0.96,-2.51
-8,1,203,-87,-313,3973,-0.28,0.01,10.41,-0.87,-3.13,39.73,-5.70,1.24,44.83,4.00,-0.84,-2.54
-1,3,189,-52,-283,3920,-0.26,0.03,10.52,-0.52,-2.83,39.20,-5.68,1.23,44.79,3.84,-0.88,-2.53
-9,-2,147,-78,-401,3921,-0.29,0.01,10.36,-0.78,-4.01,39.21,-5.70,1.23,44.75,4.02,-0.77,-2.44
-4,-2,144,-64,-444,3931,-0.28,0.00,10.21,-0.64,-4.44,39.31,-5.72,1.23,44.71,3.93,-0.77,-2.42
-4,-1,188,-22,-576,3852,-0.28,-0.01,10.33,-0.22,-5.76,38.52,-5.73,1.22,44.67,3.94,-0.79,-2.51
-3,20,203,-5,-713,3884,-0.27,0.12,10.54,-0.05,-7.13,38.84,-5.75,1.22,44.63,3.93,-1.25,-2.55
-4,-3,257,-38,-429,3982,-0.27,0.09,11.05,-0.38,-4.29,39.82,-5.76,1.21,44.58,3.96,-0.76,-2.68
-2,5,241,-116,-502,3810,-0.25,0.11,11.42,-1.16,-5.02,38.10,-5.78,1.22,44.54,3.92,-0.94,-2.68
8,25,242,-85,-489,3911,-0.18,0.25,11.75,-0.85,-4.89,39.11,-5.80,1.23,44.49,3.71,-1.39,-2.71
1,-5,261,7,-455,4051,-0.15,0.19,12.17,0.07,-4.55,40.51,-5.80,1.22,44.44,3.85,-0.76,-2.78
5,21,359,-41,-394,3909,-0.11,0.30,13.14,-0.41,-3.94,39.09,-5.80,1.21,44.39,3.76,-1.31,-3.02
-5,24,353,-148,-293,3929,-0.13,0.42,13.98,-1.48,-2.93,39.29,-5.79,1.22,44.33,3.95,-1.41,-3.08
3,8,264,-176,-194,3932,-0.10,0.43,14.19,-1.76,-1.94,39.32,-5.77,1.24,44.28,3.77,-1.10,-2.94
6,-2,244,-96,-261,3974,-0.05,0.37,14.26,-0.96,-2.61,39.74,-5.75,1.25,44.22,3.69,-0.88,-2.91
5,9,283,-82,-314,3992,-0.02,0.39,14.56,-0.82,-3.14,39.92,-5.73,1.25,44.16,3.68,-1.12,-3.00
-3,-16,228,-112,-343,3968,-0.03,0.25,14.50,-1.12,-3.43,39.68,-5.71,1.27,44.10,3.84,-0.58,-2.90
-3,-3,187,-40,-171,3944,-0.05,0.21,14.19,-0.40,-1.71,39.44,-5.69,1.27,44.05,3.83,-0.83,-2.80
2,8,188,-101,-243,3940,-0.03,0.24,13.92,-1.01,-2.43,39.40,-5.67,1.28,43.99,3.71,-1.07,-2.78
-13,19,325,-116,-424,3852,-0.11,0.33,14.51,-1.16,-4.24,38.52,-5.69,1.30,43.93,4.05,-1.33,-3.06
-9,16,323,2,-367,3948,-0.15,0.39,15.03,0.02,-3.67,39.48,-5.68,1.29,43.87,3.97,-1.28,-3.10
-3,-5,123,-102,-561,3964,-0.15,0.32,14.27,-1.02,-5.61,39.64,-5.70,1.29,43.82,3.86,-0.84,-2.70
-4,-10,97,-93,-486,3913,-0.16,0.23,13.44,-0.93,-4.86,39.13,-5.72,1.30,43.77,3.90,-0.72,-2.58
0,-9,96,-66,-460,3918,-0.15,0.15,12.68,-0.66,-4.60,39.18,-5.73,1.30,43.72,3.82,-0.72,-2.52
-2,-14,103,-44,-449,3918,-0.14,0.05,12.04,-0.44,-4.49,39.18,-5.75,1.29,43.67,3.87,-0.58,-2.47
1,-17,104,-51,-353,3885,-0.12,-0.06,11.47,-0.51,-3.53,38.85,-5.73,1.29,43.62,3.80,-0.49,-2.43
0,-12,106,-53,-355,3909,-0.11,-0.12,10.97,-0.53,-3.55,39.09,-5.72,1.28,43.58,3.81,-0.57,-2.39
0,81,330,-365,-1123,3471,-0.10,0.38,11.89,-3.65,-11.23,34.71,-5.74,1.29,43.53,3.81,-2.60,-2.84
-44,16,510,153,-701,3977,-0.36,0.44,13.81,1.53,-7.01,39.77,-5.75,1.29,43.48,4.79,-1.29,-3.30
-10,28,368,-188,-348,3937,-0.38,0.57,14.67,-1.88,-3.48,39.37,-5.74,1.31,43.42,4.10,-1.59,-3.13
-10,6,338,-111,-319,3939,-0.41,0.55,15.27,-1.11,-3.19,39.39,-5.73,1.32,43.36,4.09,-1.15,-3.13
8,26,342,40,-466,3973,-0.32,0.65,15.83,0.40,-4.66,39.73,-5.73,1.32,43.29,3.71,-1.58,-3.18
-1,30,413,-22,-423,3784,-0.29,0.77,16.76,-0.22,-4.23,37.84,-5.74,1.31,43.23,3.89,-1.68,-3.37
-13,-10,356,-19,-335,3964,-0.34,0.63,17.26,-0.19,-3.35,39.64,-5.73,1.31,43.16,4.14,-0.83,-3.32
-9,15,320,-154,-631,3847,-0.36,0.66,17.48,-1.54,-6.31,38.47,-5.75,1.32,43.09,4.08,-1.36,-3.27
-4,12,310,-184,-522,3864,-0.35,0.67,17.63,-1.84,-5.22,38.64,-5.76,1.34,43.02,3.98,-1.31,-3.27
-2,5,374,-5,-473,3914,-0.33,0.63,18.15,-0.05,-4.73,39.14,-5.77,1.34,42.95,3.94,-1.16,-3.41
3,6,365,-37,-217,3962,-0.28,0.60,18.56,-0.37,-2.17,39.62,-5.76,1.34,42.88,3.81,-1.17,-3.43
-6,-4,320,-95,-354,3938,-0.29,0.52,18.65,-0.95,-3.54,39.38,-5.74,1.35,42.80,3.99,-0.95,-3.36
2,13,391,-20,-400,3991,-0.24,0.55,19.17,-0.20,-4.00,39.91,-5.74,1.34,42.72,3.81,-1.30,-3.52
2,7,374,-45,-325,3933,-0.21,0.53,19.54,-0.45,-3.25,39.33,-5.72,1.34,42.65,3.79,-1.17,-3.52
1,16,393,-17,-319,3989,-0.18,0.58,19.98,-0.17,-3.19,39.89,-5.71,1.34,42.57,3.80,-1.37,-3.59
-1,2,352,-154,-362,3939,-0.17,0.53,20.13,-1.54,-3.62,39.39,-5.70,1.37,42.49,3.83,-1.09,-3.53
-3,16,376,-51,-452,4015,-0.17,0.58,20.41,-0.51,-4.52,40.15,-5.71,1.37,42.41,3.88,-1.38,-3.59
-5,19,345,-138,-543,3859,-0.18,0.64,20.47,-1.38,-5.43,38.59,-5.73,1.38,42.33,3.93,-1.47,-3.54
-8,-13,198,-127,-428,3935,-0.21,0.49,19.63,-1.27,-4.28,39.35,-5.74,1.40,42.25,4.01,-0.80,-3.22
-7,8,257,-237,-740,3703,-0.24,0.49,19.24,-2.37,-7.40,37.03,-5.75,1.42,42.17,4.00,-1.23,-3.28
-6,21,445,-53,-173,4021,-0.25,0.57,20.03,-0.53,-1.73,40.21,-5.73,1.43,42.09,3.97,-1.52,-3.66
-14,19,418,-146,-347,3903,-0.31,0.63,20.58,-1.46,-3.47,39.03,-5.72,1.45,42.01,4.15,-1.52,-3.66
-1,5,291,-2,-406,3830,-0.28,0.60,20.29,-0.02,-4.06,38.30,-5.72,1.44,41.93,3.88,-1.22,-3.42
-7,2,306,-44,-555,3856,-0.30,0.55,20.13,-0.44,-5.55,38.56,-5.74,1.45,41.85,4.01,-1.15,-3.43
2,4,302,-78,-179,3981,-0.26,0.52,19.96,-0.78,-1.79,39.81,-5.72,1.46,41.77,3.81,-1.18,-3.41
3,8,292,-74,-459,3882,-0.21,0.52,19.75,-0.74,-4.59,38.82,-5.74,1.46,41.69,3.78,-1.27,-3.37
-2,13,362,-119,-396,3937,-0.20,0.54,19.98,-1.19,-3.96,39.37,-5.74,1.49,41.61,3.88,-1.40,-3.50
-8,-2,339,-131,-336,3897,-0.23,0.48,20.05,-1.31,-3.36,38.97,-5.72,1.51,41.53,4.00,-1.08,-3.47
-9,17,367,-99,-521,3972,-0.26,0.53,20.28,-0.99,-5.21,39.72,-5.74,1.52,41.45,4.04,-1.49,-3.53
-2,2,380,-31,-344,3984,-0.25,0.49,20.57,-0.31,-3.44,39.84,-5.73,1.51,41.37,3.89,-1.17,-3.58
-8,13,373,-162,-574,3850,-0.27,0.52,20.79,-1.62,-5.74,38.50,-5.74,1.53,41.29,4.03,-1.42,-3.58
-16,-3,385,-12,-341,3970,-0.34,0.45,21.06,-0.12,-3.41,39.70,-5.73,1.52,41.20,4.20,-1.07,-3.62
-11,13,349,-50,-470,3879,-0.38,0.49,21.08,-0.50,-4.70,38.79,-5.75,1.52,41.12,4.12,-1.40,-3.56
-10,9,366,-9,-390,3991,-0.40,0.49,21.21,-0.09,-3.90,39.91,-5.74,1.51,41.04,4.10,-1.32,-3.59
-5,6,280,-123,-424,3850,-0.39,0.48,20.79,-1.23,-4.24,38.50,-5.76,1.53,40.96,4.01,-1.27,-3.41
-6,12,272,-47,-480,3916,-0.39,0.50,20.37,-0.47,-4.80,39.16,-5.77,1.53,40.87,4.04,-1.39,-3.36
-3,6,271,-26,-333,3838,-0.37,0.49,19.99,-0.26,-3.33,38.38,-5.76,1.53,40.79,3.96,-1.26,-3.33
-3,-3,267,6,-284,4007,-0.35,0.42,19.62,0.06,-2.84,40.07,-5.75,1.53,40.72,3.95,-1.06,-3.29
-3,-17,179,-77,-305,3870,-0.33,0.28,18.75,-0.77,-3.05,38.70,-5.73,1.53,40.64,3.93,-0.74,-3.06
2,-7,158,-20,-341,3918,-0.29,0.21,17.84,-0.20,-3.41,39.18,-5.72,1.52,40.57,3.81,-0.92,-2.95
-5,9,235,-48,-506,3873,-0.29,0.24,17.49,-0.48,-5.06,38.73,-5.73,1.52,40.50,3.97,-1.25,-3.05
-4,14,263,-97,-421,3970,-0.28,0.30,17.34,-0.97,-4.21,39.70,-5.75,1.52,40.43,3.95,-1.37,-3.08
3,-4,116,-78,-436,3923,-0.24,0.25,16.32,-0.78,-4.36,39.23,-5.77,1.52,40.37,3.81,-0.99,-2.75
1,-7,86,-53,-410,3934,-0.21,0.18,15.21,-0.53,-4.10,39.34,-5.77,1.51,40.31,3.84,-0.90,-2.61
-1,-6,31,-64,-438,3912,-0.19,0.13,13.88,-0.64,-4.38,39.12,-5.78,1.50,40.25,3.89,-0.90,-2.40
-1,-7,25,-54,-437,3923,-0.18,0.07,12.64,-0.54,-4.37,39.23,-5.79,1.49,40.20,3.89,-0.86,-2.29
-1,-3,23,-52,-433,3933,-0.17,0.05,11.52,-0.52,-4.33,39.33,-5.80,1.48,40.16,3.90,-0.93,-2.19
0,-6,22,-31,-435,3905,-0.15,0.00,10.50,-0.31,-4.35,39.05,-5.81,1.47,40.12,3.88,-0.85,-2.10
-3,5,55,-33,-585,3889,-0.15,0.03,9.79,-0.33,-5.85,38.89,-5.83,1.47,40.08,3.95,-1.08,-2.10
-3,11,89,-31,-607,3879,-0.16,0.10,9.35,-0.31,-6.07,38.79,-5.84,1.47,40.04,3.96,-1.22,-2.12
-4,0,100,-61,-296,3923,-0.17,0.09,9.03,-0.61,-2.96,39.23,-5.83,1.47,40.00,3.97,-0.99,-2.11
0,-1,86,-97,-351,3954,-0.15,0.07,8.65,-0.97,-3.51,39.54,-5.81,1.47,39.97,3.87,-0.97,-2.06
2,-13,65,-62,-412,3941,-0.12,-0.01,8.18,-0.62,-4.12,39.41,-5.81,1.45,39.94,3.83,-0.69,-1.98
2,-12,65,-60,-378,3913,-0.10,-0.09,7.76,-0.60,-3.78,39.13,-5.80,1.44,39.91,3.82,-0.68,-1.95
5,2,92,9,-442,3927,-0.06,-0.06,7.54,0.09,-4.42,39.27,-5.81,1.43,39.88,3.75,-0.96,-1.97
-1,1,99,-4,-382,3936,-0.06,-0.05,7.39,-0.04,-3.82,39.36,-5.81,1.41,39.85,3.87,-0.94,-1.97
-7,0,126,-74,-515,3867,-0.09,-0.05,7.42,-0.74,-5.15,38.67,-5.82,1.41,39.82,4.01,-0.92,-2.02
-15,15,204,-184,-662,3784,-0.18,0.05,7.92,-1.84,-6.62,37.84,-5.84,1.42,39.79,4.21,-1.26,-2.19
1,7,181,-133,-367,3923,-0.15,0.09,8.24,-1.33,-3.67,39.23,-5.83,1.44,39.75,3.87,-1.11,-2.18
0,-2,174,-34,-506,3919,-0.14,0.07,8.47,-0.34,-5.06,39.19,-5.84,1.43,39.72,3.89,-0.92,-2.18
-8,-11,241,-170,-290,3926,-0.17,-0.01,9.10,-1.70,-2.90,39.26,-5.83,1.44,39.68,4.06,-0.73,-2.35
-1,17,237,-239,-443,3875,-0.16,0.10,9.63,-2.39,-4.43,38.75,-5.83,1.47,39.65,3.91,-1.34,-2.38
-1,-7,252,-183,-351,3942,-0.15,0.04,10.21,-1.83,-3.51,39.42,-5.82,1.49,39.60,3.91,-0.85,-2.45
-6,-13,224,-169,-348,3944,-0.17,-0.04,10.55,-1.69,-3.48,39.44,-5.81,1.50,39.56,4.00,-0.72,-2.43
-8,6,356,28,-416,3913,-0.20,0.00,11.67,0.28,-4.16,39.13,-5.81,1.49,39.52,4.06,-1.11,-2.75
-7,12,375,-127,-410,3918,-0.23,0.07,12.79,-1.27,-4.10,39.18,-5.82,1.51,39.46,4.05,-1.26,-2.87
-1,6,311,-76,-379,3930,-0.21,0.10,13.41,-0.76,-3.79,39.30,-5.81,1.50,39.41,3.91,-1.14,-2.81
-2,7,312,-45,-541,3876,-0.20,0.14,13.97,-0.45,-5.41,38.76,-5.83,1.50,39.36,3.94,-1.17,-2.86
1,4,321,-114,-416,3908,-0.18,0.15,14.53,-1.14,-4.16,39.08,-5.84,1.52,39.30,3.88,-1.12,-2.92
-9,12,324,-143,-508,3976,-0.21,0.21,15.05,-1.43,-5.08,39.76,-5.86,1.53,39.24,4.11,-1.31,-2.96
-4,-5,339,-25,-478,3944,-0.22,0.15,15.62,-0.25,-4.78,39.44,-5.87,1.53,39.18,4.01,-0.95,-3.03
-3,0,351,-34,-290,3949,-0.21,0.14,16.20,-0.34,-2.90,39.49,-5.85,1.52,39.11,3.98,-1.04,-3.10
-6,4,302,-16,-601,3795,-0.23,0.15,16.42,-0.16,-6.01,37.95,-5.87,1.52,39.05,4.06,-1.13,-3.03
1,-2,319,130,-400,3992,-0.20,0.12,16.72,1.30,-4.00,39.92,-5.87,1.51,38.98,3.91,-0.99,-3.08
-5,-5,325,-13,-442,3901,-0.21,0.08,17.03,-0.13,-4.42,39.01,-5.87,1.50,38.91,4.03,-0.91,-3.12
-11,1,329,-75,-530,3901,-0.26,0.08,17.34,-0.75,-5.30,39.01,-5.89,1.51,38.85,4.18,-1.04,-3.15
-3,-22,263,-4,-294,4057,-0.25,-0.06,17.21,-0.04,-2.94,40.57,-5.87,1.50,38.78,4.01,-0.53,-3.02
-9,0,236,-123,-550,3804,-0.28,-0.06,16.93,-1.23,-5.50,38.04,-5.89,1.51,38.71,4.15,-0.98,-2.95
-13,10,238,-146,-463,3926,-0.33,0.01,16.69,-1.46,-4.63,39.26,-5.91,1.53,38.64,4.25,-1.21,-2.93
-11,4,231,-109,-415,3960,-0.36,0.03,16.43,-1.09,-4.15,39.60,-5.92,1.54,38.58,4.23,-1.11,-2.90
-5,4,227,-92,-370,3938,-0.36,0.05,16.17,-0.92,-3.70,39.38,-5.90,1.54,38.51,4.10,-1.12,-2.87
-8,-1,235,-87,-410,3903,-0.37,0.04,15.98,-0.87,-4.10,39.03,-5.91,1.53,38.45,4.16,-1.00,-2.87
-5,15,292,-27,-487,3908,-0.36,0.13,16.17,-0.27,-4.87,39.08,-5.92,1.53,38.39,4.11,-1.35,-2.98
-6,4,307,-15,-322,3974,-0.36,0.14,16.42,-0.15,-3.22,39.74,-5.91,1.52,38.32,4.12,-1.12,-3.02
-6,20,315,-47,-420,3972,-0.36,0.25,16.70,-0.47,-4.20,39.72,-5.91,1.51,38.25,4.12,-1.47,-3.05
-4,-9,291,23,-190,4030,-0.35,0.17,16.81,0.23,-1.90,40.30,-5.90,1.51,38.19,4.07,-0.86,-3.02
-6,5,215,-69,-677,3796,-0.35,0.18,16.44,-0.69,-6.77,37.96,-5.91,1.52,38.12,4.12,-1.15,-2.86
-4,28,373,14,-641,3912,-0.34,0.34,17.07,0.14,-6.41,39.12,-5.93,1.52,38.06,4.09,-1.66,-3.18
-1,28,353,-1,-394,3943,-0.31,0.47,17.52,-0.01,-3.94,39.43,-5.93,1.51,37.99,4.02,-1.69,-3.18
2,-2,325,97,-310,4014,-0.27,0.41,17.75,0.97,-3.10,40.14,-5.92,1.50,37.91,3.94,-1.06,-3.15
-4,32,332,-71,-856,3717,-0.27,0.57,18.00,-0.71,-8.56,37.17,-5.94,1.51,37.84,4.07,-1.80,-3.18
-5,24,388,220,-514,3989,-0.27,0.66,18.56,2.20,-5.14,39.89,-5.94,1.50,37.77,4.10,-1.66,-3.32
-1,5,375,-123,-355,3956,-0.25,0.62,19.00,-1.23,-3.55,39.56,-5.92,1.52,37.69,4.00,-1.27,-3.33
-6,-2,372,-19,-370,3920,-0.26,0.55,19.37,-0.19,-3.70,39.20,-5.91,1.51,37.62,4.10,-1.11,-3.35
-14,-16,360,-122,-386,3900,-0.32,0.39,19.62,-1.22,-3.86,39.00,-5.90,1.53,37.54,4.27,-0.79,-3.35
5,19,373,-86,-465,3872,-0.26,0.47,19.94,-0.86,-4.65,38.72,-5.92,1.54,37.46,3.87,-1.53,-3.40
-7,3,338,-135,-436,3849,-0.28,0.44,20.01,-1.35,-4.36,38.49,-5.93,1.56,37.38,4.13,-1.21,-3.34
-2,6,365,-50,-526,3934,-0.26,0.43,20.23,-0.50,-5.26,39.34,-5.94,1.56,37.30,4.03,-1.27,-3.40
-6,6,339,-66,-547,3880,-0.27,0.43,20.28,-0.66,-5.47,38.80,-5.96,1.57,37.22,4.13,-1.27,-3.36
-10,15,371,-60,-558,4006,-0.30,0.48,20.51,-0.60,-5.58,40.06,-5.98,1.57,37.14,4.23,-1.47,-3.43
-8,-12,347,-81,-316,4003,-0.32,0.36,20.58,-0.81,-3.16,40.03,-5.96,1.58,37.06,4.18,-0.89,-3.39
-6,-5,329,-118,-414,3811,-0.33,0.29,20.53,-1.18,-4.14,38.11,-5.97,1.60,36.98,4.15,-1.03,-3.35
6,-40,241,-195,-228,4053,-0.26,0.02,19.94,-1.95,-2.28,40.53,-5.95,1.61,36.90,3.88,-0.26,-3.16
24,-59,211,-98,-467,4059,-0.09,-0.34,19.24,-0.98,-4.67,40.59,-5.97,1.61,36.82,3.48,0.23,-3.04
-46,117,504,153,-546,3381,-0.36,0.40,20.39,1.53,-5.46,33.81,-5.98,1.61,36.74,4.98,-3.55,-3.63
-12,118,597,245,-83,4608,-0.40,1.08,21.99,2.45,-0.83,46.08,-5.97,1.61,36.65,4.29,-3.76,-3.92
-9,23,629,-194,-416,3904,-0.41,1.11,23.63,-1.94,-4.16,39.04,-5.97,1.64,36.56,4.23,-1.86,-4.11
-13,18,545,-166,-689,3857,-0.45,1.11,24.59,-1.66,-6.89,38.57,-5.98,1.66,36.46,4.34,-1.77,-4.04
-8,13,522,-46,-545,3888,-0.45,1.08,25.32,-0.46,-5.45,38.88,-6.00,1.67,36.36,4.24,-1.66,-4.06
-6,26,539,46,-381,3932,-0.44,1.13,26.07,0.46,-3.81,39.32,-5.99,1.66,36.26,4.20,-1.94,-4.14
-6,23,510,-228,-731,3881,-0.44,1.16,26.58,-2.28,-7.31,38.81,-6.01,1.69,36.15,4.21,-1.90,-4.13
-1,-8,503,118,-296,3933,-0.40,0.99,26.99,1.18,-2.96,39.33,-6.00,1.69,36.05,4.09,-1.22,-4.15
-11,16,545,-15,-361,3844,-0.43,0.99,27.61,-0.15,-3.61,38.44,-5.99,1.68,35.94,4.29,-1.71,-4.27
-2,20,523,-179,-384,3985,-0.40,1.02,28.04,-1.79,-3.84,39.85,-5.98,1.72,35.83,4.10,-1.82,-4.27
-3,8,490,-159,-496,3832,-0.37,0.96,28.23,-1.59,-4.96,38.32,-5.99,1.74,35.71,4.12,-1.57,-4.22
-5,26,504,-78,-541,3858,-0.37,1.02,28.48,-0.78,-5.41,38.58,-6.01,1.75,35.60,4.17,-1.96,-4.26
4,16,445,-157,-632,3862,-0.31,1.02,28.34,-1.57,-6.32,38.62,-6.03,1.77,35.49,3.98,-1.77,-4.15
0,15,507,-27,-452,3911,-0.28,1.01,28.60,-0.27,-4.52,39.11,-6.03,1.77,35.38,4.06,-1.75,-4.27
-13,9,439,-58,-416,3911,-0.33,0.96,28.42,-0.58,-4.16,39.11,-6.03,1.77,35.26,4.33,-1.61,-4.14
-8,12,423,-165,-435,3950,-0.34,0.94,28.16,-1.65,-4.35,39.50,-6.03,1.80,35.15,4.24,-1.69,-4.09
-11,15,376,-41,-391,3868,-0.38,0.94,27.64,-0.41,-3.91,38.68,-6.03,1.79,35.04,4.31,-1.75,-3.96
-6,16,354,-21,-369,4028,-0.38,0.94,27.03,-0.21,-3.69,40.28,-6.02,1.79,34.94,4.20,-1.77,-3.87
-8,8,336,-78,-542,3927,-0.39,0.90,26.38,-0.78,-5.42,39.27,-6.03,1.80,34.83,4.25,-1.60,-3.78
-10,-2,339,-21,-425,3921,-0.41,0.79,25.81,-0.21,-4.25,39.21,-6.03,1.80,34.73,4.30,-1.36,-3.74
1,14,292,-69,-415,3920,-0.36,0.80,25.01,-0.69,-4.15,39.20,-6.03,1.79,34.63,4.06,-1.69,-3.59
1,-3,291,-131,-511,3947,-0.32,0.70,24.28,-1.31,-5.11,39.47,-6.05,1.81,34.53,4.06,-1.32,-3.53
-14,-7,313,-51,-441,3931,-0.37,0.59,23.76,-0.51,-4.41,39.31,-6.05,1.80,34.44,4.38,-1.21,-3.52
-7,5,298,-59,-400,3982,-0.38,0.56,23.21,-0.59,-4.00,39.82,-6.05,1.80,34.35,4.24,-1.44,-3.44
-5,12,285,-59,-508,3865,-0.37,0.58,22.62,-0.59,-5.08,38.65,-6.06,1.80,34.26,4.20,-1.59,-3.37
-8,17,315,-104,-351,4027,-0.38,0.62,22.28,-1.04,-3.51,40.27,-6.04,1.81,34.17,4.25,-1.71,-3.39
-10,-9,182,-103,-792,3818,-0.41,0.51,21.16,-1.03,-7.92,38.18,-6.06,1.82,34.09,4.31,-1.15,-3.07
-9,22,273,14,-929,3628,-0.42,0.59,20.71,0.14,-9.29,36.28,-6.08,1.82,34.01,4.31,-1.81,-3.19
-3,-6,335,37,-75,4128,-0.40,0.49,20.69,0.37,-0.75,41.28,-6.06,1.83,33.92,4.17,-1.22,-3.29
-6,-14,268,-122,-103,3945,-0.39,0.36,20.25,-1.22,-1.03,39.45,-6.04,1.84,33.84,4.21,-1.02,-3.13
-5,13,298,-25,-648,3917,-0.38,0.40,20.04,-0.25,-6.48,39.17,-6.05,1.84,33.76,4.20,-1.59,-3.17
-7,13,346,-115,-506,3923,-0.39,0.44,20.15,-1.15,-5.06,39.23,-6.07,1.85,33.68,4.26,-1.60,-3.25
-5,0,280,62,-699,3815,-0.38,0.40,19.84,0.62,-6.99,38.15,-6.09,1.85,33.60,4.22,-1.33,-3.11
-9,20,339,79,-578,3948,-0.40,0.48,19.93,0.79,-5.78,39.48,-6.10,1.84,33.53,4.31,-1.75,-3.22
-8,-2,243,8,-488,3924,-0.41,0.42,19.42,0.08,-4.88,39.24,-6.10,1.84,33.45,4.30,-1.29,-3.01
-2,2,259,10,-695,3811,-0.38,0.39,19.05,0.10,-6.95,38.11,-6.12,1.84,33.37,4.18,-1.36,-3.01
-9,11,352,-110,-279,3952,-0.39,0.42,19.30,-1.10,-2.79,39.52,-6.10,1.85,33.30,4.32,-1.56,-3.18
-5,6,348,-90,-328,3916,-0.39,0.41,19.49,-0.90,-3.28,39.16,-6.08,1.85,33.22,4.22,-1.45,-3.19
0,2,305,7,-537,3890,-0.35,0.38,19.40,0.07,-5.37,38.90,-6.09,1.84,33.14,4.12,-1.36,-3.11
-8,5,315,-45,-506,3918,-0.36,0.38,19.38,-0.45,-5.06,39.18,-6.11,1.84,33.07,4.29,-1.42,-3.12
-9,-12,271,-37,-449,3881,-0.38,0.27,19.10,-0.37,-4.49,38.81,-6.11,1.83,32.99,4.32,-1.04,-3.02
-7,5,294,-9,-539,3809,-0.38,0.27,18.98,-0.09,-5.39,38.09,-6.12,1.83,32.91,4.29,-1.38,-3.05
-1,5,312,-43,-383,3993,-0.35,0.27,18.99,-0.43,-3.83,39.93,-6.11,1.82,32.84,4.15,-1.38,-3.07
-5,5,318,15,-427,3904,-0.35,0.28,19.03,0.15,-4.27,39.04,-6.11,1.81,32.76,4.23,-1.37,-3.09
-12,-8,308,-99,-398,3921,-0.39,0.20,19.00,-0.99,-3.98,39.21,-6.10,1.81,32.69,4.38,-1.09,-3.07
-12,-3,319,-38,-394,3896,-0.42,0.16,19.05,-0.38,-3.94,38.96,-6.10,1.80,32.61,4.38,-1.17,-3.09
-11,-5,322,-56,-575,3856,-0.45,0.11,19.11,-0.56,-5.75,38.56,-6.11,1.80,32.54,4.38,-1.12,-3.09
-1,18,352,-66,-621,3848,-0.41,0.21,19.34,-0.66,-6.21,38.48,-6.13,1.81,32.46,4.18,-1.62,-3.16
1,5,353,61,-292,4024,-0.36,0.22,19.56,0.61,-2.92,40.24,-6.12,1.80,32.38,4.12,-1.35,-3.18
4,-15,314,-47,-226,3990,-0.30,0.11,19.52,-0.47,-2.26,39.90,-6.10,1.80,32.30,4.03,-0.91,-3.11
-14,7,372,-26,-516,3970,-0.36,0.14,19.84,-0.26,-5.16,39.70,-6.11,1.80,32.23,4.41,-1.37,-3.23
-7,18,405,-154,-531,3907,-0.36,0.24,20.33,-1.54,-5.31,39.07,-6.13,1.81,32.15,4.29,-1.63,-3.32
-13,7,423,-53,-446,3800,-0.41,0.26,20.87,-0.53,-4.46,38.00,-6.14,1.81,32.06,4.42,-1.40,-3.39
-15,-3,442,-128,-358,3927,-0.46,0.21,21.48,-1.28,-3.58,39.27,-6.12,1.82,31.98,4.47,-1.20,-3.47
-1,16,455,143,-349,3986,-0.42,0.29,22.11,1.43,-3.49,39.86,-6.11,1.81,31.89,4.17,-1.60,-3.55
5,38,488,52,-370,3945,-0.34,0.49,22.88,0.52,-3.70,39.45,-6.10,1.81,31.80,4.02,-2.10,-3.66
-11,6,524,-144,-436,3883,-0.38,0.48,23.78,-1.44,-4.36,38.83,-6.11,1.83,31.70,4.36,-1.46,-3.79
-16,12,533,-292,-543,3791,-0.44,0.50,24.66,-2.92,-5.43,37.91,-6.12,1.86,31.61,4.49,-1.61,-3.88
-15,1,476,-113,-569,3890,-0.49,0.46,25.10,-1.13,-5.69,38.90,-6.14,1.87,31.51,4.49,-1.38,-3.82
-4,17,533,-40,-607,3874,-0.46,0.52,25.84,-0.40,-6.07,38.74,-6.16,1.87,31.40,4.27,-1.72,-3.97
-15,39,629,-25,-451,3867,-0.51,0.70,27.09,-0.25,-4.51,38.67,-6.16,1.87,31.30,4.51,-2.22,-4.23
-6,14,623,183,-262,4057,-0.49,0.72,28.18,1.83,-2.62,40.57,-6.15,1.87,31.19,4.32,-1.71,-4.31
-13,4,623,-301,-549,3762,-0.52,0.67,29.16,-3.01,-5.49,37.62,-6.16,1.90,31.07,4.47,-1.52,-4.39
-1,17,649,-2,-382,3860,-0.48,0.71,30.21,-0.02,-3.82,38.60,-6.15,1.90,30.95,4.21,-1.79,-4.51
-20,18,664,-33,-432,3896,-0.55,0.75,31.24,-0.33,-4.32,38.96,-6.15,1.89,30.83,4.62,-1.82,-4.62
2,17,650,-122,-478,4042,-0.48,0.78,32.08,-1.22,-4.78,40.42,-6.17,1.91,30.70,4.16,-1.82,-4.66
-19,25,568,-33,-905,4055,-0.55,0.85,32.33,-0.33,-9.05,40.55,-6.18,1.92,30.57,4.62,-2.01,-4.54
-5,5,528,-65,-397,3811,-0.53,0.80,32.32,-0.65,-3.97,38.11,-6.18,1.92,30.44,4.32,-1.59,-4.47
-2,1,572,-162,-488,3774,-0.49,0.72,32.58,-1.62,-4.88,37.74,-6.19,1.94,30.31,4.26,-1.50,-4.56
-14,8,576,44,-302,4065,-0.52,0.70,32.83,0.44,-3.02,40.65,-6.18,1.95,30.18,4.51,-1.64,-4.58
-11,5,571,51,-611,3968,-0.54,0.66,33.03,0.51,-6.11,39.68,-6.19,1.95,30.05,4.46,-1.57,-4.59
-12,-4,563,26,-279,3986,-0.56,0.57,33.17,0.26,-2.79,39.86,-6.17,1.95,29.92,4.47,-1.36,-4.58
-8,12,547,148,-556,4037,-0.55,0.59,33.19,1.48,-5.56,40.37,-6.18,1.95,29.79,4.39,-1.69,-4.55
-15,14,573,-11,-412,3721,-0.59,0.61,33.36,-0.11,-4.12,37.21,-6.18,1.95,29.66,4.54,-1.74,-4.60
-9,16,649,-114,-310,3909,-0.58,0.65,33.98,-1.14,-3.10,39.09,-6.16,1.96,29.52,4.41,-1.80,-4.78
-3,1,654,-125,-343,4087,-0.54,0.59,34.58,-1.25,-3.43,40.87,-6.14,1.98,29.38,4.26,-1.49,-4.83
-16,14,602,-18,-531,4292,-0.59,0.62,34.79,-0.18,-5.31,42.92,-6.14,1.98,29.25,4.54,-1.76,-4.76
-9,-2,570,-281,-380,3601,-0.58,0.54,34.79,-2.81,-3.80,36.01,-6.14,2.02,29.11,4.39,-1.44,-4.70
-17,6,583,50,-317,3962,-0.63,0.52,34.87,0.50,-3.17,39.62,-6.13,2.02,28.97,4.56,-1.60,-4.72
-13,-2,546,-222,-359,3948,-0.64,0.46,34.71,-2.22,-3.59,39.48,-6.12,2.05,28.83,4.48,-1.44,-4.64
-3,3,489,-96,-424,3808,-0.60,0.43,34.22,-0.96,-4.24,38.08,-6.12,2.05,28.69,4.26,-1.53,-4.50
-4,16,491,-11,-624,3907,-0.56,0.49,33.79,-0.11,-6.24,39.07,-6.13,2.05,28.56,4.28,-1.81,-4.47
-3,6,476,-52,-379,3959,-0.52,0.47,33.32,-0.52,-3.79,39.59,-6.12,2.05,28.43,4.24,-1.61,-4.40
-8,14,453,-62,-498,3978,-0.52,0.51,32.75,-0.62,-4.98,39.78,-6.13,2.06,28.30,4.35,-1.78,-4.31
4,25,445,-165,-453,3514,-0.44,0.61,32.19,-1.65,-4.53,35.14,-6.14,2.08,28.17,4.10,-2.05,-4.25
-7,17,461,172,-158,4088,-0.44,0.66,31.78,1.72,-1.58,40.88,-6.13,2.08,28.04,4.31,-1.90,-4.24
-7,13,396,-126,-542,3978,-0.44,0.67,31.02,-1.26,-5.42,39.78,-6.14,2.10,27.92,4.32,-1.83,-4.06
-1,18,417,43,-442,3856,-0.40,0.71,30.46,0.43,-4.42,38.56,-6.14,2.09,27.80,4.19,-1.94,-4.05
-2,4,330,-143,-513,3788,-0.38,0.67,29.43,-1.43,-5.13,37.88,-6.16,2.11,27.68,4.21,-1.65,-3.81
6,16,352,3,-574,3918,-0.30,0.70,28.63,0.03,-5.74,39.18,-6.17,2.11,27.57,4.03,-1.91,-3.78
3,7,317,7,-504,3818,-0.25,0.67,27.70,0.07,-5.04,38.18,-6.18,2.11,27.46,4.08,-1.72,-3.64
-7,9,330,99,-419,3978,-0.27,0.66,26.95,0.99,-4.19,39.78,-6.17,2.11,27.35,4.29,-1.75,-3.60
-7,2,306,131,-457,3939,-0.29,0.60,26.12,1.31,-4.57,39.39,-6.17,2.10,27.25,4.29,-1.59,-3.48
-1,24,299,-5,-468,3973,-0.26,0.69,25.33,-0.05,-4.68,39.73,-6.17,2.10,27.15,4.17,-2.06,-3.40
-5,16,328,74,-299,4017,-0.27,0.72,24.80,0.74,-2.99,40.17,-6.16,2.10,27.05,4.24,-1.90,-3.41
-9,17,335,-99,-358,3874,-0.30,0.75,24.36,-0.99,-3.58,38.74,-6.15,2.10,26.96,4.32,-1.93,-3.38
-5,34,285,-314,-487,3909,-0.30,0.88,23.66,-3.14,-4.87,39.09,-6.15,2.13,26.86,4.24,-2.34,-3.23
-32,3,293,-69,-163,3587,-0.46,0.81,23.08,-0.69,-1.63,35.87,-6.13,2.14,26.77,4.82,-1.69,-3.20
0,-4,191,-141,-260,4036,-0.42,0.71,21.94,-1.41,-2.60,40.36,-6.11,2.15,26.68,4.15,-1.53,-2.93
1,-14,154,-153,-318,3867,-0.37,0.55,20.69,-1.53,-3.18,38.67,-6.09,2.16,26.60,4.10,-1.29,-2.76
5,0,97,-60,-493,3896,-0.30,0.50,19.21,-0.60,-4.93,38.96,-6.10,2.16,26.52,4.01,-1.56,-2.54
2,1,101,-35,-487,3899,-0.26,0.45,17.90,-0.35,-4.87,38.99,-6.11,2.15,26.45,4.06,-1.56,-2.44
-3,5,131,54,-486,3883,-0.25,0.44,16.91,0.54,-4.86,38.83,-6.11,2.14,26.39,4.16,-1.63,-2.40
0,-8,131,-69,-310,3994,-0.23,0.35,16.02,-0.69,-3.10,39.94,-6.10,2.14,26.32,4.09,-1.34,-2.33
-1,10,151,99,-501,3906,-0.21,0.37,15.34,0.99,-5.01,39.06,-6.10,2.13,26.26,4.10,-1.71,-2.30
-11,13,189,67,-611,3901,-0.26,0.41,14.96,0.67,-6.11,39.01,-6.11,2.12,26.20,4.33,-1.78,-2.34
-6,1,200,-157,-516,3984,-0.27,0.38,14.68,-1.57,-5.16,39.84,-6.13,2.13,26.14,4.24,-1.53,-2.33
-9,-4,205,-123,-434,3902,-0.29,0.32,14.47,-1.23,-4.34,39.02,-6.14,2.13,26.09,4.32,-1.41,-2.32
-6,12,215,-116,-608,3822,-0.30,0.36,14.33,-1.16,-6.08,38.22,-6.16,2.13,26.03,4.27,-1.75,-2.32
4,7,238,-57,-414,4046,-0.25,0.36,14.35,-0.57,-4.14,40.46,-6.15,2.12,25.97,4.05,-1.64,-2.36
3,-3,143,-23,-475,3881,-0.20,0.31,13.79,-0.23,-4.75,38.81,-6.16,2.11,25.92,4.06,-1.42,-2.15
-2,2,154,14,-576,3824,-0.20,0.29,13.35,0.14,-5.76,38.24,-6.17,2.11,25.87,4.17,-1.51,-2.13
3,-8,166,-150,-317,3941,-0.16,0.21,13.03,-1.50,-3.17,39.41,-6.15,2.11,25.81,4.04,-1.29,-2.13
-6,-12,163,-21,-412,3886,-0.18,0.12,12.72,-0.21,-4.12,38.86,-6.15,2.10,25.76,4.23,-1.17,-2.09
-14,-9,260,84,-453,3920,-0.25,0.05,13.03,0.84,-4.53,39.20,-6.15,2.09,25.71,4.41,-1.21,-2.28
-6,7,257,-138,-611,3839,-0.26,0.09,13.30,-1.38,-6.11,38.39,-6.17,2.09,25.66,4.26,-1.55,-2.30
-8,11,335,-74,-468,3897,-0.28,0.15,14.01,-0.74,-4.68,38.97,-6.18,2.09,25.60,4.32,-1.64,-2.49
1,11,353,-53,-385,3955,-0.25,0.20,14.76,-0.53,-3.85,39.55,-6.17,2.08,25.55,4.12,-1.65,-2.58
-13,-2,323,-80,-491,3808,-0.30,0.17,15.26,-0.80,-4.91,38.08,-6.18,2.07,25.49,4.43,-1.37,-2.57
2,9,355,-124,-603,3862,-0.26,0.21,15.90,-1.24,-6.03,38.62,-6.20,2.08,25.42,4.12,-1.61,-2.67
5,5,341,-53,-459,3958,-0.20,0.22,16.39,-0.53,-4.59,39.58,-6.20,2.07,25.36,4.05,-1.53,-2.69
-7,2,340,-60,-524,3867,-0.23,0.21,16.82,-0.60,-5.24,38.67,-6.21,2.07,25.29,4.31,-1.46,-2.72
-1,5,323,-94,-586,3889,-0.21,0.22,17.11,-0.94,-5.86,38.89,-6.23,2.07,25.22,4.19,-1.53,-2.71
-10,0,337,-127,-467,3970,-0.25,0.19,17.45,-1.27,-4.67,39.70,-6.25,2.07,25.16,4.39,-1.42,-2.76
-15,6,326,-40,-465,3941,-0.32,0.21,17.70,-0.40,-4.65,39.41,-6.25,2.06,25.09,4.52,-1.54,-2.76
-9,3,315,-18,-466,3971,-0.34,0.21,17.85,-0.18,-4.66,39.71,-6.25,2.05,25.01,4.40,-1.47,-2.75
-8,12,265,-80,-395,3966,-0.35,0.26,17.68,-0.80,-3.95,39.66,-6.24,2.04,24.94,4.38,-1.66,-2.65
-7,43,250,27,-827,4080,-0.36,0.50,17.44,0.27,-8.27,40.80,-6.26,2.05,24.88,4.37,-2.36,-2.60
-22,0,312,-70,-336,4142,-0.46,0.45,17.60,-0.70,-3.36,41.42,-6.24,2.04,24.81,4.69,-1.47,-2.72
5,6,288,16,-205,3816,-0.38,0.44,17.59,0.16,-2.05,38.16,-6.23,2.04,24.73,4.11,-1.59,-2.68
-2,33,267,-53,-602,3826,-0.36,0.60,17.46,-0.53,-6.02,38.26,-6.24,2.05,24.67,4.26,-2.18,-2.63
-5,2,268,2,-312,4069,-0.35,0.55,17.35,0.02,-3.12,40.69,-6.23,2.04,24.60,4.31,-1.54,-2.62
3,15,282,-9,-452,3925,-0.30,0.59,17.34,-0.09,-4.52,39.25,-6.23,2.03,24.53,4.13,-1.81,-2.64
-2,21,324,-82,-527,3889,-0.28,0.66,17.58,-0.82,-5.27,38.89,-6.24,2.04,24.46,4.24,-1.95,-2.73
-7,2,333,-24,-436,3921,-0.30,0.60,17.85,-0.24,-4.36,39.21,-6.24,2.03,24.39,4.34,-1.54,-2.76
-6,-1,320,-39,-418,3952,-0.30,0.54,18.02,-0.39,-4.18,39.52,-6.24,2.02,24.32,4.32,-1.46,-2.75
-4,-1,297,-12,-502,3893,-0.30,0.48,18.03,-0.12,-5.02,38.93,-6.25,2.01,24.25,4.29,-1.44,-2.71
3,11,317,-38,-623,3883,-0.25,0.50,18.16,-0.38,-6.23,38.83,-6.26,2.01,24.17,4.14,-1.69,-2.76
-2,7,348,-119,-437,3919,-0.24,0.49,18.47,-1.19,-4.37,39.19,-6.27,2.01,24.10,4.24,-1.60,-2.83
-1,-3,336,-42,-410,3904,-0.22,0.42,18.67,-0.42,-4.10,39.04,-6.26,2.00,24.03,4.21,-1.37,-2.83
6,-8,376,65,-454,3934,-0.16,0.33,19.10,0.65,-4.54,39.34,-6.26,1.99,23.95,4.05,-1.24,-2.93
-5,-6,387,15,-457,3847,-0.17,0.26,19.55,0.15,-4.57,38.47,-6.26,1.98,23.87,4.28,-1.26,-2.98
-6,37,549,229,-221,4024,-0.19,0.46,20.94,2.29,-2.21,40.24,-6.25,1.98,23.79,4.30,-2.18,-3.37
-19,26,651,61,-519,3756,-0.29,0.57,22.82,0.61,-5.19,37.56,-6.26,1.97,23.70,4.60,-1.99,-3.69
6,19,619,246,-397,4172,-0.22,0.63,24.31,2.46,-3.97,41.72,-6.26,1.97,23.60,4.07,-1.86,-3.76
-18,43,617,-518,-878,3720,-0.31,0.83,25.65,-5.18,-8.78,37.20,-6.27,1.99,23.50,4.59,-2.42,-3.86
5,2,637,-94,-350,3819,-0.25,0.76,26.97,-0.94,-3.50,38.19,-6.25,2.00,23.39,4.09,-1.57,-4.00
-12,7,621,-143,-347,4118,-0.30,0.73,28.06,-1.43,-3.47,41.18,-6.23,2.02,23.28,4.44,-1.67,-4.06
-14,37,733,102,-522,3847,-0.35,0.88,29.72,1.02,-5.22,38.47,-6.23,2.01,23.17,4.49,-2.32,-4.38
-8,27,747,59,-567,3964,-0.37,0.96,31.31,0.59,-5.67,39.64,-6.24,2.02,23.04,4.38,-2.14,-4.53
-5,-2,606,-199,-504,3937,-0.36,0.85,31.87,-1.99,-5.04,39.37,-6.25,2.05,22.92,4.33,-1.54,-4.34
-2,6,576,-167,-507,3949,-0.34,0.80,32.20,-1.67,-5.07,39.49,-6.26,2.07,22.79,4.27,-1.71,-4.31
-11,-3,525,-70,-610,3835,-0.37,0.70,32.18,-0.70,-6.10,38.35,-6.28,2.08,22.66,4.47,-1.50,-4.22
-1,22,517,-127,-521,3947,-0.34,0.77,32.12,-1.27,-5.21,39.47,-6.29,2.09,22.53,4.27,-2.04,-4.19
-5,0,450,30,-507,3964,-0.34,0.69,31.65,0.30,-5.07,39.64,-6.30,2.09,22.41,4.35,-1.57,-4.04
-17,47,407,-330,-888,4125,-0.41,0.91,30.97,-3.30,-8.88,41.25,-6.31,2.12,22.29,4.62,-2.60,-3.90
-9,-7,423,-144,-319,3714,-0.42,0.77,30.45,-1.44,-3.19,37.14,-6.29,2.13,22.17,4.45,-1.48,-3.89
-10,7,421,-34,-451,4051,-0.44,0.74,29.97,-0.34,-4.51,40.51,-6.29,2.13,22.05,4.47,-1.75,-3.84
-2,5,389,37,-399,3917,-0.41,0.70,29.35,0.37,-3.99,39.17,-6.28,2.13,21.93,4.30,-1.70,-3.73
-1,3,386,31,-383,3915,-0.37,0.64,28.77,0.31,-3.83,39.15,-6.27,2.13,21.82,4.26,-1.64,-3.67
-6,-8,384,-121,-402,3876,-0.37,0.53,28.24,-1.21,-4.02,38.76,-6.26,2.13,21.70,4.35,-1.39,-3.62
-2,12,390,-98,-554,3847,-0.35,0.55,27.79,-0.98,-5.54,38.47,-6.27,2.14,21.59,4.28,-1.80,-3.59
-7,27,388,-40,-354,3972,-0.36,0.66,27.38,-0.40,-3.54,39.72,-6.26,2.14,21.48,4.37,-2.14,-3.55
0,34,396,67,-156,3933,-0.32,0.80,27.06,0.67,-1.56,39.33,-6.24,2.14,21.38,4.21,-2.32,-3.54
-4,16,424,140,-337,3996,-0.31,0.82,26.94,1.40,-3.37,39.96,-6.23,2.14,21.27,4.28,-1.96,-3.57
-10,46,323,-311,-690,4325,-0.34,1.02,26.21,-3.11,-6.90,43.25,-6.25,2.16,21.17,4.42,-2.64,-3.34
0,0,318,83,-400,4055,-0.31,0.92,25.53,0.83,-4.00,40.55,-6.24,2.16,21.06,4.20,-1.68,-3.27
-13,-3,326,-86,-317,3908,-0.36,0.81,24.97,-0.86,-3.17,39.08,-6.22,2.17,20.97,4.47,-1.59,-3.23
0,6,263,88,-428,3913,-0.32,0.76,24.08,0.88,-4.28,39.13,-6.22,2.16,20.87,4.19,-1.76,-3.05
2,9,257,-47,-547,3856,-0.28,0.74,23.24,-0.47,-5.47,38.56,-6.23,2.16,20.78,4.15,-1.81,-2.97
9,-5,171,-35,-490,3905,-0.19,0.64,21.95,-0.35,-4.90,39.05,-6.24,2.16,20.69,3.99,-1.50,-2.72
7,-11,152,-42,-512,3908,-0.13,0.51,20.69,-0.42,-5.12,39.08,-6.25,2.16,20.61,4.02,-1.34,-2.58
4,-15,127,-32,-403,3920,-0.09,0.36,19.39,-0.32,-4.03,39.20,-6.24,2.15,20.53,4.06,-1.21,-2.43
1,-8,106,-29,-499,3911,-0.08,0.28,18.10,-0.29,-4.99,39.11,-6.25,2.14,20.46,4.12,-1.33,-2.28
-6,1,118,8,-513,3930,-0.11,0.26,17.01,0.08,-5.13,39.30,-6.25,2.13,20.39,4.28,-1.50,-2.21
2,1,112,-25,-433,3963,-0.08,0.24,15.99,-0.25,-4.33,39.63,-6.25,2.12,20.33,4.11,-1.49,-2.11
0,4,105,14,-434,3941,-0.08,0.24,15.03,0.14,-4.34,39.41,-6.25,2.11,20.27,4.15,-1.54,-2.02
-5,3,107,13,-421,3926,-0.10,0.23,14.18,0.13,-4.21,39.26,-6.25,2.10,20.21,4.25,-1.51,-1.95
-15,14,128,-50,-559,3871,-0.18,0.29,13.55,-0.50,-5.59,38.71,-6.26,2.10,20.16,4.49,-1.75,-1.94
-8,26,171,-63,-583,3919,-0.21,0.42,13.23,-0.63,-5.83,39.19,-6.28,2.10,20.11,4.36,-2.03,-1.98
-6,0,173,2,-378,3944,-0.23,0.38,12.97,0.02,-3.78,39.44,-6.27,2.09,20.06,4.32,-1.48,-1.96
-4,12,181,-8,-443,3861,-0.23,0.42,12.77,-0.08,-4.43,38.61,-6.27,2.08,20.01,4.28,-1.73,-1.96
-4,17,313,64,-190,3936,-0.23,0.48,13.41,0.64,-1.90,39.36,-6.26,2.07,19.95,4.27,-1.84,-2.23
-10,21,347,-29,-493,3850,-0.27,0.56,14.18,-0.29,-4.93,38.50,-6.26,2.06,19.90,4.41,-1.94,-2.35
8,13,401,-138,-409,3938,-0.19,0.58,15.21,-1.38,-4.09,39.38,-6.25,2.07,19.84,4.01,-1.79,-2.53
-7,-1,406,-43,-430,3920,-0.22,0.52,16.16,-0.43,-4.30,39.20,-6.24,2.06,19.77,4.32,-1.48,-2.61
-5,18,415,51,-628,3862,-0.22,0.58,17.08,0.51,-6.28,38.62,-6.26,2.06,19.71,4.29,-1.88,-2.70
-7,9,409,75,-519,3944,-0.25,0.57,17.87,0.75,-5.19,39.44,-6.26,2.05,19.63,4.34,-1.69,-2.75
-6,-3,421,-39,-377,3942,-0.26,0.50,18.65,-0.39,-3.77,39.42,-6.25,2.04,19.56,4.32,-1.42,-2.83
0,3,425,-40,-549,3849,-0.23,0.47,19.38,-0.40,-5.49,38.49,-6.26,2.04,19.48,4.20,-1.54,-2.90
-7,-2,457,-125,-412,3970,-0.25,0.41,20.23,-1.25,-4.12,39.70,-6.25,2.04,19.40,4.33,-1.42,-3.02
1,23,437,76,-907,4042,-0.22,0.51,20.87,0.76,-9.07,40.42,-6.26,2.05,19.32,4.17,-1.96,-3.04
-8,-15,414,-236,-416,3966,-0.25,0.36,21.31,-2.36,-4.16,39.66,-6.26,2.07,19.24,4.36,-1.16,-3.03
4,-14,356,66,-249,3952,-0.20,0.24,21.35,0.66,-2.49,39.52,-6.24,2.07,19.15,4.09,-1.15,-2.93
-6,-10,301,-23,-434,3934,-0.21,0.16,21.05,-0.23,-4.34,39.34,-6.24,2.06,19.07,4.30,-1.20,-2.81
1,-2,261,-65,-501,3861,-0.19,0.13,20.54,-0.65,-5.01,38.61,-6.25,2.06,18.99,4.16,-1.35,-2.70
1,-18,210,-84,-271,4083,-0.16,0.01,19.76,-0.84,-2.71,40.83,-6.23,2.06,18.91,4.14,-1.00,-2.55
2,-18,168,-99,-380,3881,-0.13,-0.10,18.81,-0.99,-3.80,38.81,-6.22,2.06,18.83,4.10,-0.96,-2.40
2,8,156,64,-687,3881,-0.11,-0.04,17.88,0.64,-6.87,38.81,-6.23,2.05,18.76,4.10,-1.51,-2.30
0,22,201,16,-769,3863,-0.10,0.09,17.32,0.16,-7.69,38.63,-6.24,2.05,18.69,4.15,-1.83,-2.33
-3,-11,183,-121,-504,3900,-0.11,0.02,16.70,-1.21,-5.04,39.00,-6.26,2.06,18.63,4.22,-1.14,-2.24
-5,-6,203,37,-717,3847,-0.13,-0.02,16.27,0.37,-7.17,38.47,-6.27,2.05,18.56,4.28,-1.23,-2.24
-11,27,382,-99,-542,3873,-0.18,0.15,16.98,-0.99,-5.42,38.73,-6.29,2.06,18.50,4.42,-1.95,-2.60
-9,-6,345,-140,-163,4067,-0.22,0.09,17.38,-1.40,-1.63,40.67,-6.27,2.06,18.43,4.38,-1.27,-2.57
-23,36,388,208,-640,3838,-0.34,0.30,18.01,2.08,-6.40,38.38,-6.28,2.06,18.35,4.70,-2.17,-2.69
-9,46,433,92,-443,3923,-0.36,0.56,18.85,0.92,-4.43,39.23,-6.28,2.05,18.28,4.42,-2.44,-2.83
-12,-2,401,-112,-448,3951,-0.39,0.49,19.41,-1.12,-4.48,39.51,-6.28,2.04,18.20,4.50,-1.44,-2.82
3,-2,372,50,-322,3934,-0.34,0.43,19.74,0.50,-3.22,39.34,-6.27,2.04,18.12,4.17,-1.42,-2.80
-11,10,412,103,-380,4073,-0.37,0.44,20.28,1.03,-3.80,40.73,-6.27,2.03,18.04,4.46,-1.66,-2.91
2,-3,427,57,-323,3847,-0.32,0.38,20.86,0.57,-3.23,38.47,-6.26,2.02,17.96,4.18,-1.38,-2.98
7,8,373,-35,-493,3950,-0.25,0.39,21.05,-0.35,-4.93,39.50,-6.26,2.02,17.88,4.06,-1.60,-2.90
1,-15,359,44,-465,3893,-0.22,0.26,21.13,0.44,-4.65,38.93,-6.26,2.01,17.79,4.17,-1.09,-2.88
-7,-10,371,8,-478,3942,-0.24,0.17,21.28,0.08,-4.78,39.42,-6.27,2.00,17.71,4.34,-1.17,-2.91
-5,4,408,95,-516,3908,-0.24,0.18,21.64,0.95,-5.16,39.08,-6.27,2.00,17.62,4.31,-1.45,-3.00
-12,5,467,51,-543,3875,-0.29,0.19,22.33,0.51,-5.43,38.75,-6.28,1.99,17.53,4.47,-1.47,-3.15
-8,9,464,-28,-519,3922,-0.31,0.23,22.92,-0.28,-5.19,39.22,-6.29,1.99,17.44,4.40,-1.56,-3.19
-13,-8,464,-100,-432,3979,-0.36,0.16,23.46,-1.00,-4.32,39.79,-6.28,1.98,17.35,4.51,-1.19,-3.24
-14,5,435,-104,-524,3853,-0.41,0.17,23.77,-1.04,-5.24,38.53,-6.30,1.99,17.26,4.55,-1.46,-3.21
-13,15,382,-142,-638,3806,-0.45,0.25,23.72,-1.42,-6.38,38.06,-6.32,2.00,17.16,4.56,-1.69,-3.11
-21,3,407,-67,-521,4024,-0.53,0.24,23.83,-0.67,-5.21,40.24,-6.33,2.00,17.07,4.75,-1.45,-3.16
-9,52,400,-206,-633,3984,-0.53,0.53,23.89,-2.06,-6.33,39.84,-6.34,2.02,16.97,4.52,-2.53,-3.15
-26,11,414,-77,-262,3698,-0.64,0.55,24.03,-0.77,-2.62,36.98,-6.33,2.02,16.88,4.88,-1.71,-3.18
-13,-6,384,30,-396,3920,-0.65,0.46,23.97,0.30,-3.96,39.20,-6.32,2.02,16.78,4.62,-1.33,-3.12
-5,5,370,-3,-469,3958,-0.62,0.44,23.83,-0.03,-4.69,39.58,-6.33,2.01,16.69,4.44,-1.55,-3.09
-2,3,312,47,-433,3886,-0.57,0.42,23.35,0.47,-4.33,38.86,-6.32,2.01,16.60,4.37,-1.50,-2.95
1,2,319,-54,-509,3926,-0.51,0.39,22.96,-0.54,-5.09,39.26,-6.34,2.00,16.51,4.30,-1.47,-2.92
-4,15,394,-2,-400,3920,-0.48,0.44,23.07,-0.02,-4.00,39.20,-6.33,2.00,16.41,4.39,-1.74,-3.06
1,10,400,68,-351,4004,-0.43,0.46,23.20,0.68,-3.51,40.04,-6.32,1.99,16.32,4.27,-1.64,-3.07
-19,26,496,46,-649,3832,-0.50,0.57,23.90,0.46,-6.49,38.32,-6.33,1.99,16.23,4.70,-2.00,-3.29
3,42,515,-40,-508,3955,-0.43,0.77,24.66,-0.40,-5.08,39.55,-6.34,1.99,16.13,4.24,-2.38,-3.38
-13,32,545,124,-715,4027,-0.47,0.89,25.51,1.24,-7.15,40.27,-6.35,2.00,16.03,4.58,-2.21,-3.50
-6,41,537,-161,-625,3903,-0.46,1.05,26.24,-1.61,-6.25,39.03,-6.37,2.01,15.93,4.45,-2.45,-3.55
1,12,552,87,-359,3837,-0.41,1.02,26.98,0.87,-3.59,38.37,-6.36,2.01,15.82,4.29,-1.85,-3.63
-8,0,539,-19,-398,3914,-0.41,0.91,27.57,-0.19,-3.98,39.14,-6.35,2.01,15.71,4.47,-1.58,-3.65
-16,6,520,18,-545,3867,-0.47,0.86,27.99,0.18,-5.45,38.67,-6.36,2.01,15.60,4.65,-1.68,-3.65
-2,0,497,10,-499,3947,-0.43,0.77,28.22,0.10,-4.99,39.47,-6.37,2.01,15.49,4.36,-1.54,-3.63
1,-12,471,16,-458,3880,-0.39,0.62,28.27,0.16,-4.58,38.80,-6.37,2.01,15.38,4.29,-1.25,-3.58
-6,-2,451,-18,-499,3913,-0.38,0.55,28.19,-0.18,-4.99,39.13,-6.37,2.01,15.26,4.43,-1.43,-3.54
-4,5,497,67,-336,4011,-0.37,0.52,28.41,0.67,-3.36,40.11,-6.36,2.00,15.15,4.38,-1.57,-3.63
-9,12,507,-94,-384,3934,-0.39,0.55,28.66,-0.94,-3.84,39.34,-6.35,2.01,15.04,4.48,-1.72,-3.67
-22,22,495,-91,-284,3884,-0.48,0.62,28.81,-0.91,-2.84,38.84,-6.33,2.02,14.92,4.75,-1.95,-3.66
-6,-4,493,-101,-404,4003,-0.47,0.54,28.94,-1.01,-4.04,40.03,-6.31,2.02,14.81,4.42,-1.40,-3.66
-8,1,425,-94,-487,3940,-0.47,0.49,28.64,-0.94,-4.87,39.40,-6.32,2.02,14.69,4.47,-1.49,-3.52
-1,13,396,-90,-494,3927,-0.43,0.52,28.19,-0.90,-4.94,39.27,-6.34,2.02,14.58,4.32,-1.74,-3.43
-7,4,382,-25,-421,3895,-0.43,0.49,27.70,-0.25,-4.21,38.95,-6.33,2.02,14.47,4.44,-1.55,-3.36
2,12,393,4,-398,4013,-0.38,0.52,27.33,0.04,-3.98,40.13,-6.32,2.02,14.36,4.24,-1.72,-3.34
-2,18,483,150,-378,3881,-0.35,0.57,27.54,1.50,-3.78,38.81,-6.32,2.01,14.25,4.31,-1.85,-3.51
-11,24,520,135,-553,3908,-0.38,0.66,27.96,1.35,-5.53,39.08,-6.32,2.01,14.14,4.50,-2.00,-3.60
-19,28,530,-6,-799,4097,-0.46,0.77,28.40,-0.06,-7.99,40.97,-6.34,2.02,14.03,4.69,-2.11,-3.65
-5,46,540,-130,-718,3878,-0.44,0.97,28.85,-1.30,-7.18,38.78,-6.35,2.04,13.92,4.42,-2.54,-3.70
1,15,513,-202,-419,3784,-0.39,0.97,29.09,-2.02,-4.19,37.84,-6.35,2.07,13.80,4.28,-1.94,-3.68
-16,2,513,-74,-537,4021,-0.45,0.88,29.31,-0.74,-5.37,40.21,-6.36,2.08,13.69,4.65,-1.65,-3.69
2,14,475,12,-441,4012,-0.39,0.88,29.28,0.12,-4.41,40.12,-6.36,2.07,13.57,4.26,-1.89,-3.62
-5,7,435,-91,-553,3846,-0.39,0.83,29.01,-0.91,-5.53,38.46,-6.37,2.08,13.46,4.41,-1.74,-3.53
-6,-3,391,-45,-504,3875,-0.38,0.73,28.49,-0.45,-5.04,38.75,-6.38,2.08,13.34,4.44,-1.51,-3.41
1,0,385,-3,-473,3936,-0.34,0.66,27.99,-0.03,-4.73,39.36,-6.38,2.08,13.23,4.28,-1.55,-3.35
-4,2,381,80,-446,3913,-0.33,0.61,27.52,0.80,-4.46,39.13,-6.38,2.08,13.12,4.38,-1.58,-3.30
-7,3,374,26,-493,3862,-0.34,0.56,27.05,0.26,-4.93,38.62,-6.38,2.07,13.02,4.45,-1.58,-3.25
-2,22,375,67,-394,3943,-0.32,0.64,26.63,0.67,-3.94,39.43,-6.38,2.07,12.91,4.34,-1.99,-3.21
-10,7,382,62,-402,3900,-0.35,0.62,26.30,0.62,-4.02,39.00,-6.37,2.07,12.81,4.50,-1.68,-3.19
-10,11,324,-187,-324,3953,-0.37,0.62,25.64,-1.87,-3.24,39.53,-6.35,2.09,12.70,4.50,-1.77,-3.04
-2,19,320,-91,-535,4006,-0.35,0.68,25.03,-0.91,-5.35,40.06,-6.37,2.09,12.60,4.34,-1.95,-2.98
0,5,289,-33,-427,3919,-0.31,0.64,24.29,-0.33,-4.27,39.19,-6.36,2.09,12.51,4.28,-1.65,-2.86
0,-1,270,-87,-456,3937,-0.28,0.57,23.51,-0.87,-4.56,39.37,-6.37,2.08,12.41,4.28,-1.51,-2.76
5,9,262,1,-413,3855,-0.22,0.57,22.76,0.01,-4.13,38.55,-6.36,2.08,12.32,4.16,-1.71,-2.68
-1,3,278,31,-398,3976,-0.21,0.53,22.18,0.31,-3.98,39.76,-6.35,2.07,12.24,4.27,-1.57,-2.66
-3,0,319,-12,-390,3897,-0.20,0.48,21.90,-0.12,-3.90,38.97,-6.35,2.06,12.15,4.31,-1.49,-2.71
1,-5,305,-68,-436,3909,-0.18,0.40,21.57,-0.68,-4.36,39.09,-6.34,2.06,12.06,4.22,-1.36,-2.65
8,-12,265,-61,-438,3880,-0.11,0.29,21.03,-0.61,-4.38,38.80,-6.34,2.05,11.98,4.05,-1.19,-2.54
-3,-3,250,-11,-459,3912,-0.12,0.24,20.45,-0.11,-4.59,39.12,-6.34,2.04,11.90,4.28,-1.35,-2.46
-4,17,247,15,-371,3960,-0.13,0.32,19.92,0.15,-3.71,39.60,-6.33,2.03,11.82,4.30,-1.78,-2.41
-6,16,273,37,-354,3945,-0.15,0.38,19.59,0.37,-3.54,39.45,-6.32,2.03,11.74,4.34,-1.77,-2.43
-4,17,307,-102,-489,3926,-0.16,0.45,19.50,-1.02,-4.89,39.26,-6.34,2.03,11.66,4.31,-1.81,-2.47
-6,11,312,-27,-419,3964,-0.18,0.47,19.46,-0.27,-4.19,39.64,-6.33,2.02,11.59,4.35,-1.69,-2.48
-9,8,303,-8,-568,3859,-0.22,0.47,19.36,-0.08,-5.68,38.59,-6.34,2.02,11.51,4.43,-1.62,-2.45
1,24,292,-49,-597,3898,-0.19,0.57,19.20,-0.49,-5.97,38.98,-6.36,2.02,11.44,4.23,-1.98,-2.42
0,8,270,-41,-577,3828,-0.17,0.56,18.93,-0.41,-5.77,38.28,-6.37,2.02,11.36,4.25,-1.65,-2.35
-8,8,278,3,-592,3902,-0.20,0.56,18.73,0.03,-5.92,39.02,-6.38,2.02,11.29,4.43,-1.65,-2.35
-4,-14,251,45,-455,3917,-0.21,0.42,18.39,0.45,-4.55,39.17,-6.38,2.01,11.21,4.35,-1.16,-2.27
1,0,249,-8,-506,3881,-0.18,0.37,18.07,-0.08,-5.06,38.81,-6.39,2.00,11.14,4.25,-1.42,-2.24
0,4,273,94,-529,3840,-0.16,0.36,17.93,0.94,-5.29,38.40,-6.40,2.00,11.07,4.27,-1.50,-2.27
-7,-3,275,-49,-496,3992,-0.19,0.31,17.81,-0.49,-4.96,39.92,-6.40,1.99,11.00,4.42,-1.34,-2.26
-9,0,270,103,-518,3830,-0.23,0.28,17.68,1.03,-5.18,38.30,-6.41,1.98,10.93,4.47,-1.38,-2.24
-2,-2,265,92,-462,3955,-0.22,0.24,17.53,0.92,-4.62,39.55,-6.41,1.97,10.86,4.33,-1.33,-2.22
-8,7,323,60,-570,3928,-0.24,0.26,17.75,0.60,-5.70,39.28,-6.42,1.97,10.79,4.46,-1.51,-2.33
1,19,341,96,-507,3832,-0.21,0.35,18.05,0.96,-5.07,38.32,-6.42,1.96,10.72,4.27,-1.77,-2.38
