gyroADC_X,gyroADC_Y,gyroADC_Z,accADC_X,accADC_Y,accADC_Z,GyroX,GyroY,GyroZ,AccX,AccY,AccZ,roll_IMU,pitch_IMU,yaw_IMU,roll_PID,pitch_PID,yaw_PID
-2,17,-7,46,-249,3933,0.07,0.21,-0.18,0.46,-2.49,39.33,-4.39,0.18,80.16,2.92,-0.52,-7.12
8,8,-13,63,-16,3860,0.11,0.24,-0.24,0.63,-0.16,38.60,-4.37,0.17,80.16,2.69,-0.34,-7.06
10,-4,7,-19,-253,4028,0.16,0.19,-0.17,-0.19,-2.53,40.28,-4.35,0.17,80.16,2.63,-0.09,-7.24
6,2,-7,-76,-375,3906,0.18,0.18,-0.20,-0.76,-3.75,39.06,-4.37,0.19,80.16,2.71,-0.21,-7.12
5,3,-10,-57,-233,3890,0.19,0.18,-0.24,-0.57,-2.33,38.90,-4.35,0.20,80.16,2.72,-0.24,-7.08
-4,12,16,-12,-438,3928,0.15,0.24,-0.12,-0.12,-4.38,39.28,-4.37,0.20,80.16,2.92,-0.44,-7.33
2,0,53,-34,-471,3979,0.15,0.21,0.22,-0.34,-4.71,39.79,-4.38,0.20,80.16,2.81,-0.19,-7.71
1,-4,53,-84,-463,3890,0.14,0.17,0.52,-0.84,-4.63,38.90,-4.40,0.21,80.16,2.85,-0.10,-7.76
-2,-2,26,-99,-499,3896,0.11,0.14,0.63,-0.99,-4.99,38.96,-4.42,0.22,80.16,2.93,-0.14,-7.55
-5,-4,17,-63,-429,3898,0.07,0.10,0.67,-0.63,-4.29,38.98,-4.43,0.22,80.16,3.01,-0.09,-7.49
0,-5,5,-41,-340,3907,0.06,0.06,0.63,-0.41,-3.40,39.07,-4.45,0.24,80.15,2.92,-0.07,-7.38
-1,-3,2,-40,-338,3918,0.05,0.04,0.58,-0.40,-3.38,39.18,-4.46,0.25,80.15,2.95,-0.11,-7.34
-2,-1,-1,-22,-318,3924,0.03,0.03,0.52,-0.22,-3.18,39.24,-4.48,0.25,80.15,2.99,-0.15,-7.30
-1,-1,-1,-19,-318,3923,0.02,0.02,0.46,-0.19,-3.18,39.23,-4.50,0.26,80.15,2.98,-0.15,-7.29
-3,-4,-3,-15,-319,3921,0.00,-0.01,0.39,-0.15,-3.19,39.21,-4.52,0.25,80.15,3.04,-0.08,-7.26
-3,-3,-3,-22,-311,3927,-0.02,-0.03,0.34,-0.22,-3.11,39.27,-4.52,0.27,80.15,3.05,-0.11,-7.25
0,-1,-3,-17,-313,3932,-0.01,-0.03,0.28,-0.17,-3.13,39.32,-4.53,0.26,80.14,3.00,-0.14,-7.24
-1,-1,-3,-22,-312,3931,-0.02,-0.03,0.24,-0.22,-3.12,39.31,-4.54,0.28,80.14,3.02,-0.15,-7.23
-4,-3,-2,-26,-305,3923,-0.04,-0.05,0.20,-0.26,-3.05,39.23,-4.52,0.29,80.14,3.08,-0.12,-7.23
-4,-3,-2,-23,-309,3930,-0.06,-0.06,0.17,-0.23,-3.09,39.30,-4.51,0.31,80.14,3.08,-0.12,-7.23
-5,-3,-2,-28,-319,3919,-0.09,-0.07,0.14,-0.28,-3.19,39.19,-4.53,0.32,80.14,3.11,-0.13,-7.22
-5,-3,-1,-19,-326,3922,-0.11,-0.08,0.12,-0.19,-3.26,39.22,-4.55,0.31,80.14,3.13,-0.12,-7.23
3,-5,1,-52,-357,3985,-0.08,-0.11,0.11,-0.52,-3.57,39.85,-4.56,0.32,80.14,2.97,-0.08,-7.24
6,-2,3,-63,-375,3906,-0.03,-0.11,0.12,-0.63,-3.75,39.06,-4.58,0.33,80.14,2.91,-0.15,-7.26
-2,-10,-3,-5,-286,3948,-0.04,-0.16,0.09,-0.05,-2.86,39.48,-4.56,0.32,80.14,3.06,0.03,-7.20
0,-7,-4,56,-263,3930,-0.04,-0.19,0.06,0.56,-2.63,39.30,-4.55,0.31,80.14,3.01,-0.01,-7.19
-2,-3,-4,-4,-296,3922,-0.05,-0.19,0.03,-0.04,-2.96,39.22,-4.54,0.29,80.14,3.05,-0.08,-7.18
0,-3,-3,-10,-311,3920,-0.04,-0.18,0.01,-0.10,-3.11,39.20,-4.54,0.27,80.14,3.01,-0.07,-7.19
0,-1,-3,-13,-314,3914,-0.04,-0.17,-0.01,-0.13,-3.14,39.14,-4.55,0.26,80.14,3.01,-0.10,-7.18
1,0,-4,-16,-314,3921,-0.03,-0.16,-0.04,-0.16,-3.14,39.21,-4.56,0.25,80.14,3.00,-0.12,-7.17
5,2,-3,-16,-312,3925,0.01,-0.13,-0.05,-0.16,-3.12,39.25,-4.55,0.23,80.14,2.90,-0.16,-7.18
4,2,-2,-20,-317,3925,0.03,-0.10,-0.06,-0.20,-3.17,39.25,-4.56,0.25,80.14,2.92,-0.17,-7.18
2,1,-1,-21,-305,3916,0.04,-0.09,-0.06,-0.21,-3.05,39.16,-4.55,0.25,80.14,2.95,-0.16,-7.19
3,1,-1,-21,-300,3911,0.05,-0.07,-0.06,-0.21,-3.00,39.11,-4.53,0.26,80.14,2.91,-0.17,-7.19
4,1,-3,-12,-316,3924,0.07,-0.06,-0.07,-0.12,-3.16,39.24,-4.54,0.25,80.14,2.90,-0.17,-7.17
3,2,-2,-12,-315,3930,0.08,-0.04,-0.08,-0.12,-3.15,39.30,-4.55,0.23,80.14,2.92,-0.18,-7.18
1,3,0,-25,-313,3919,0.08,-0.02,-0.07,-0.25,-3.13,39.19,-4.55,0.25,80.14,2.96,-0.22,-7.20
2,2,-1,-30,-309,3914,0.08,-0.00,-0.07,-0.30,-3.09,39.14,-4.55,0.27,80.14,2.94,-0.22,-7.19
0,-3,-4,-13,-314,3891,0.08,-0.02,-0.09,-0.13,-3.14,38.91,-4.56,0.25,80.14,2.99,-0.10,-7.16
-6,-5,-5,-10,-309,3905,0.03,-0.05,-0.11,-0.10,-3.09,39.05,-4.55,0.23,80.14,3.12,-0.04,-7.15
0,-4,-5,-19,-289,3927,0.03,-0.07,-0.13,-0.19,-2.89,39.27,-4.54,0.24,80.14,2.99,-0.06,-7.15
2,-3,-6,-29,-297,3917,0.04,-0.08,-0.15,-0.29,-2.97,39.17,-4.52,0.25,80.14,2.93,-0.08,-7.13
-1,3,-10,-41,-337,3933,0.03,-0.05,-0.20,-0.41,-3.37,39.33,-4.53,0.26,80.14,3.01,-0.22,-7.09
0,2,-9,-21,-328,3952,0.03,-0.04,-0.23,-0.21,-3.28,39.52,-4.55,0.26,80.14,3.00,-0.20,-7.09
-2,-2,-3,-17,-324,3926,0.01,-0.05,-0.23,-0.17,-3.24,39.26,-4.57,0.26,80.15,3.05,-0.12,-7.14
-3,-4,-1,-24,-321,3921,-0.01,-0.07,-0.21,-0.24,-3.21,39.21,-4.59,0.27,80.15,3.09,-0.08,-7.16
-3,-3,-3,-21,-310,3934,-0.03,-0.08,-0.21,-0.21,-3.10,39.34,-4.57,0.28,80.15,3.08,-0.10,-7.15
-2,-2,-3,-19,-307,3929,-0.04,-0.08,-0.21,-0.19,-3.07,39.29,-4.55,0.28,80.15,3.05,-0.12,-7.15
-1,-1,-2,-15,-304,3928,-0.04,-0.08,-0.20,-0.15,-3.04,39.28,-4.53,0.27,80.15,3.02,-0.14,-7.16
-1,-1,-2,-19,-303,3926,-0.04,-0.08,-0.19,-0.19,-3.03,39.26,-4.52,0.27,80.15,3.01,-0.14,-7.16
0,3,1,-25,-309,3930,-0.04,-0.05,-0.16,-0.25,-3.09,39.30,-4.51,0.29,80.15,2.99,-0.24,-7.19
-1,3,2,-21,-312,3927,-0.04,-0.03,-0.14,-0.21,-3.12,39.27,-4.53,0.30,80.15,3.02,-0.25,-7.20
-3,0,4,-12,-323,3919,-0.05,-0.03,-0.10,-0.12,-3.23,39.19,-4.54,0.29,80.15,3.07,-0.18,-7.23
-4,-2,3,-22,-314,3916,-0.07,-0.03,-0.07,-0.22,-3.14,39.16,-4.56,0.30,80.15,3.11,-0.15,-7.23
-2,-1,0,-25,-313,3915,-0.08,-0.04,-0.06,-0.25,-3.13,39.15,-4.56,0.32,80.15,3.07,-0.18,-7.20
1,4,11,32,-356,3927,-0.06,-0.01,0.01,0.32,-3.56,39.27,-4.57,0.30,80.15,3.02,-0.28,-7.31
2,-1,25,4,-332,3925,-0.04,-0.01,0.16,0.04,-3.32,39.25,-4.58,0.29,80.15,3.00,-0.17,-7.46
2,1,33,15,-339,3934,-0.03,-0.01,0.35,0.15,-3.39,39.34,-4.59,0.27,80.15,3.00,-0.20,-7.56
1,-3,47,-36,-312,3922,-0.02,-0.02,0.60,-0.36,-3.12,39.22,-4.59,0.29,80.15,3.02,-0.12,-7.73
1,-2,48,-25,-313,3908,-0.01,-0.03,0.83,-0.25,-3.13,39.08,-4.59,0.31,80.14,3.01,-0.15,-7.78
-9,6,84,7,-305,3936,-0.07,0.01,1.26,0.07,-3.05,39.36,-4.58,0.29,80.14,3.22,-0.32,-8.17
-3,4,84,-52,-258,3907,-0.08,0.03,1.65,-0.52,-2.58,39.07,-4.57,0.30,80.13,3.10,-0.29,-8.24
0,1,29,-66,-269,3900,-0.07,0.03,1.66,-0.66,-2.69,39.00,-4.55,0.32,80.13,3.02,-0.24,-7.77
-1,1,18,-48,-282,3900,-0.07,0.04,1.60,-0.48,-2.82,39.00,-4.54,0.33,80.12,3.04,-0.25,-7.67
0,0,2,-21,-302,3906,-0.06,0.03,1.46,-0.21,-3.02,39.06,-4.52,0.33,80.11,3.00,-0.22,-7.51
0,-1,1,-27,-309,3909,-0.06,0.02,1.32,-0.27,-3.09,39.09,-4.52,0.34,80.11,3.00,-0.21,-7.47
-3,0,3,-27,-312,3919,-0.07,0.02,1.20,-0.27,-3.12,39.19,-4.53,0.36,80.10,3.07,-0.24,-7.46
0,-1,3,-35,-340,3955,-0.06,0.01,1.10,-0.35,-3.40,39.55,-4.55,0.37,80.10,3.02,-0.23,-7.44
-6,0,23,-7,-392,3951,-0.09,0.01,1.13,-0.07,-3.92,39.51,-4.57,0.36,80.09,3.16,-0.24,-7.62
-4,4,41,19,-410,3944,-0.11,0.03,1.27,0.19,-4.10,39.44,-4.58,0.36,80.09,3.14,-0.33,-7.80
1,-4,114,-140,-508,3909,-0.09,0.01,1.84,-1.40,-5.08,39.09,-4.60,0.37,80.08,3.04,-0.16,-8.52
-3,1,126,-154,-467,3881,-0.10,0.01,2.42,-1.54,-4.67,38.81,-4.62,0.38,80.07,3.13,-0.27,-8.74
-9,0,165,-40,-430,3906,-0.14,0.01,3.19,-0.40,-4.30,39.06,-4.63,0.38,80.06,3.28,-0.26,-9.21
-5,-7,159,-37,-352,3853,-0.16,-0.03,3.84,-0.37,-3.52,38.53,-4.65,0.39,80.04,3.22,-0.11,-9.28
-12,-22,143,1,-329,3978,-0.22,-0.16,4.33,0.01,-3.29,39.78,-4.66,0.37,80.03,3.38,0.25,-9.24
-1,-25,107,114,-16,3928,-0.20,-0.30,4.55,1.14,-0.16,39.28,-4.64,0.36,80.01,3.14,0.35,-8.98
-5,-16,62,36,-146,3888,-0.21,-0.37,4.47,0.36,-1.46,38.88,-4.62,0.36,79.99,3.21,0.19,-8.58
-6,-14,44,29,-155,3926,-0.23,-0.42,4.29,0.29,-1.55,39.26,-4.61,0.35,79.97,3.22,0.17,-8.39
-7,-15,14,-100,-370,3959,-0.25,-0.47,3.95,-1.00,-3.70,39.59,-4.62,0.37,79.96,3.26,0.19,-8.07
-9,-9,15,-36,-325,3979,-0.28,-0.47,3.64,-0.36,-3.25,39.79,-4.63,0.38,79.94,3.31,0.06,-8.02
-2,-4,56,3,-364,3924,-0.26,-0.45,3.62,0.03,-3.64,39.24,-4.64,0.37,79.93,3.18,-0.04,-8.36
-8,-9,61,-33,-341,3896,-0.28,-0.46,3.63,-0.33,-3.41,38.96,-4.66,0.38,79.91,3.32,0.06,-8.40
-7,-13,54,-40,-381,3917,-0.30,-0.49,3.60,-0.40,-3.81,39.17,-4.68,0.38,79.90,3.31,0.15,-8.34
-9,-16,53,-28,-360,3921,-0.32,-0.54,3.56,-0.28,-3.60,39.21,-4.70,0.38,79.89,3.37,0.22,-8.32
-6,-12,55,-47,-354,3881,-0.33,-0.56,3.54,-0.47,-3.54,38.81,-4.72,0.39,79.87,3.32,0.14,-8.33
-12,-16,47,-7,-347,3941,-0.37,-0.60,3.47,-0.07,-3.47,39.41,-4.73,0.38,79.86,3.47,0.24,-8.25
10,5,71,50,-258,3963,-0.27,-0.51,3.56,0.50,-2.58,39.63,-4.72,0.36,79.84,2.98,-0.20,-8.47
3,8,65,41,-272,3901,-0.23,-0.41,3.60,0.41,-2.72,39.01,-4.71,0.35,79.83,3.11,-0.28,-8.42
4,4,48,-8,-241,3922,-0.18,-0.35,3.53,-0.08,-2.41,39.22,-4.69,0.34,79.81,3.06,-0.21,-8.27
4,5,44,-18,-261,3939,-0.14,-0.28,3.45,-0.18,-2.61,39.39,-4.67,0.34,79.80,3.04,-0.25,-8.21
3,14,51,21,-251,3935,-0.10,-0.17,3.41,0.21,-2.51,39.35,-4.66,0.33,79.79,3.04,-0.46,-8.27
3,11,39,41,-251,3898,-0.08,-0.08,3.31,0.41,-2.51,38.98,-4.65,0.32,79.77,3.03,-0.41,-8.14
2,5,24,9,-310,3899,-0.06,-0.05,3.13,0.09,-3.10,38.99,-4.64,0.30,79.76,3.04,-0.29,-7.98
2,4,23,8,-324,3909,-0.04,-0.02,2.95,0.08,-3.24,39.09,-4.65,0.29,79.75,3.04,-0.27,-7.94
1,2,30,-29,-331,3917,-0.03,-0.00,2.84,-0.29,-3.31,39.17,-4.66,0.30,79.74,3.06,-0.24,-7.97
2,0,22,-24,-297,3931,-0.01,-0.00,2.69,-0.24,-2.97,39.31,-4.64,0.30,79.73,3.03,-0.20,-7.88
1,3,12,8,-277,3913,-0.01,0.02,2.50,0.08,-2.77,39.13,-4.63,0.29,79.72,3.04,-0.26,-7.75
1,3,10,16,-272,3914,0.00,0.03,2.31,0.16,-2.72,39.14,-4.61,0.28,79.71,3.02,-0.26,-7.70
0,2,2,-14,-306,3919,0.00,0.04,2.09,-0.14,-3.06,39.19,-4.60,0.27,79.70,3.03,-0.23,-7.59
0,3,2,-21,-307,3919,0.00,0.06,1.89,-0.21,-3.07,39.19,-4.58,0.28,79.69,3.02,-0.26,-7.55
-2,3,5,-26,-315,3924,-0.01,0.07,1.73,-0.26,-3.15,39.24,-4.58,0.30,79.68,3.07,-0.28,-7.55
-3,3,9,-21,-307,3923,-0.03,0.08,1.61,-0.21,-3.07,39.23,-4.56,0.30,79.68,3.08,-0.28,-7.56
0,1,11,-22,-337,3891,-0.03,0.08,1.52,-0.22,-3.37,38.91,-4.58,0.30,79.67,3.03,-0.24,-7.55
-2,2,11,-7,-310,3930,-0.04,0.08,1.44,-0.07,-3.10,39.30,-4.58,0.29,79.67,3.07,-0.25,-7.54
1,1,2,-7,-312,3919,-0.03,0.08,1.30,-0.07,-3.12,39.19,-4.57,0.27,79.66,3.00,-0.22,-7.44
-2,0,1,-8,-321,3923,-0.04,0.07,1.18,-0.08,-3.21,39.23,-4.58,0.25,79.66,3.08,-0.19,-7.40
-1,-2,3,-28,-354,3945,-0.04,0.05,1.08,-0.28,-3.54,39.45,-4.60,0.26,79.65,3.07,-0.14,-7.40
2,-2,10,-83,-413,3861,-0.02,0.04,1.03,-0.83,-4.13,38.61,-4.62,0.27,79.65,3.01,-0.15,-7.45
-3,4,73,5,-467,3907,-0.04,0.06,1.38,0.05,-4.67,39.07,-4.63,0.27,79.64,3.13,-0.27,-8.05
-7,-3,98,47,-440,3880,-0.08,0.03,1.84,0.47,-4.40,38.80,-4.65,0.26,79.64,3.23,-0.12,-8.35
-20,-5,145,20,-451,3863,-0.19,-0.00,2.54,0.20,-4.51,38.63,-4.67,0.26,79.63,3.54,-0.07,-8.88
-14,-11,147,16,-317,3971,-0.26,-0.07,3.18,0.16,-3.17,39.71,-4.67,0.24,79.61,3.44,0.08,-9.02
-7,-4,71,105,-128,3986,-0.27,-0.09,3.29,1.05,-1.28,39.86,-4.65,0.23,79.60,3.29,-0.05,-8.40
1,5,43,51,-160,3935,-0.24,-0.05,3.23,0.51,-1.60,39.35,-4.64,0.22,79.59,3.11,-0.24,-8.14
-2,-5,17,-68,-181,3932,-0.23,-0.07,3.01,-0.68,-1.81,39.32,-4.62,0.23,79.57,3.15,-0.03,-7.88
-2,-1,5,-44,-258,3935,-0.22,-0.07,2.74,-0.44,-2.58,39.35,-4.60,0.24,79.56,3.14,-0.12,-7.73
-4,1,9,-27,-307,3933,-0.22,-0.06,2.52,-0.27,-3.07,39.33,-4.59,0.25,79.55,3.17,-0.17,-7.72
-5,1,9,-8,-310,3933,-0.23,-0.05,2.32,-0.08,-3.10,39.33,-4.58,0.24,79.54,3.19,-0.16,-7.68
2,-8,25,5,-361,3923,-0.19,-0.09,2.24,0.05,-3.61,39.23,-4.60,0.23,79.54,3.05,0.04,-7.80
-4,-8,33,-3,-381,3949,-0.20,-0.13,2.22,-0.03,-3.81,39.49,-4.62,0.23,79.53,3.18,0.05,-7.86
-8,2,109,79,-390,3887,-0.23,-0.10,2.66,0.79,-3.90,38.87,-4.63,0.21,79.52,3.28,-0.15,-8.59
-10,-8,121,82,-341,3952,-0.27,-0.14,3.13,0.82,-3.41,39.52,-4.64,0.20,79.50,3.34,0.07,-8.78
-4,-8,113,-95,-302,3970,-0.26,-0.18,3.51,-0.95,-3.02,39.70,-4.63,0.21,79.49,3.21,0.07,-8.78
-9,-2,104,-50,-308,3868,-0.29,-0.17,3.79,-0.50,-3.08,38.68,-4.63,0.23,79.47,3.32,-0.07,-8.76
3,7,124,-12,-359,3935,-0.24,-0.11,4.17,-0.12,-3.59,39.35,-4.65,0.23,79.46,3.08,-0.26,-9.00
-3,6,147,38,-365,3914,-0.24,-0.06,4.65,0.38,-3.65,39.14,-4.66,0.22,79.44,3.20,-0.25,-9.28
-14,11,187,40,-232,3891,-0.30,0.01,5.33,0.40,-2.32,38.91,-4.65,0.21,79.42,3.44,-0.37,-9.75
-3,2,189,70,-244,3975,-0.29,0.02,5.95,0.70,-2.44,39.75,-4.64,0.20,79.39,3.20,-0.18,-9.88
-4,-7,226,8,-144,3873,-0.28,-0.02,6.73,0.08,-1.44,38.73,-4.62,0.20,79.37,3.21,0.02,-10.34
8,-2,259,39,-136,3899,-0.21,-0.03,7.64,0.39,-1.36,38.99,-4.60,0.20,79.34,2.93,-0.08,-10.79
-3,15,323,25,-320,3967,-0.20,0.06,8.84,0.25,-3.20,39.67,-4.61,0.18,79.30,3.16,-0.44,-11.56
-1,18,324,-25,-306,3917,-0.19,0.16,9.94,-0.25,-3.06,39.17,-4.60,0.20,79.26,3.10,-0.54,-11.78
3,11,340,-12,-264,3954,-0.15,0.22,11.02,-0.12,-2.64,39.54,-4.58,0.20,79.22,3.00,-0.42,-12.12
5,4,324,-37,-245,3890,-0.11,0.22,11.89,-0.37,-2.45,38.90,-4.56,0.21,79.17,2.94,-0.28,-12.14
3,2,185,-102,-291,3931,-0.08,0.21,11.83,-1.02,-2.91,39.31,-4.56,0.24,79.12,2.97,-0.25,-10.95
2,2,136,-71,-312,3907,-0.06,0.20,11.48,-0.71,-3.12,39.07,-4.56,0.26,79.08,2.98,-0.27,-10.46
-3,-1,111,-37,-326,3924,-0.07,0.17,11.01,-0.37,-3.26,39.24,-4.57,0.28,79.03,3.09,-0.21,-10.16
2,1,109,-42,-355,3923,-0.05,0.16,10.57,-0.42,-3.55,39.23,-4.58,0.29,78.99,3.00,-0.26,-10.05
-3,4,114,4,-403,3954,-0.06,0.17,10.21,0.04,-4.03,39.54,-4.60,0.29,78.95,3.11,-0.32,-10.02
0,4,120,-5,-410,3920,-0.06,0.18,9.92,-0.05,-4.10,39.20,-4.62,0.29,78.91,3.06,-0.32,-10.01
2,3,127,-48,-353,3920,-0.04,0.18,9.70,-0.48,-3.53,39.20,-4.63,0.31,78.87,3.03,-0.31,-10.03
-1,0,119,-44,-286,3918,-0.04,0.16,9.46,-0.44,-2.86,39.18,-4.62,0.32,78.84,3.08,-0.26,-9.91
1,3,85,-62,-280,3907,-0.03,0.16,9.03,-0.62,-2.80,39.07,-4.61,0.34,78.80,3.03,-0.33,-9.54
0,3,82,-79,-328,3922,-0.03,0.16,8.63,-0.79,-3.28,39.22,-4.61,0.36,78.77,3.05,-0.34,-9.43
-1,7,78,-65,-348,3919,-0.03,0.19,8.24,-0.65,-3.48,39.19,-4.62,0.38,78.73,3.08,-0.44,-9.32
-3,9,82,-47,-382,3939,-0.05,0.23,7.92,-0.47,-3.82,39.39,-4.64,0.39,78.70,3.13,-0.50,-9.29
-8,10,117,36,-417,3906,-0.09,0.27,7.84,0.36,-4.17,39.06,-4.65,0.38,78.67,3.26,-0.53,-9.57
-3,11,126,20,-382,3954,-0.10,0.31,7.82,0.20,-3.82,39.54,-4.67,0.37,78.64,3.17,-0.55,-9.64
2,11,108,21,-332,3930,-0.08,0.34,7.70,0.21,-3.32,39.30,-4.67,0.36,78.61,3.06,-0.55,-9.46
3,9,107,28,-368,3925,-0.05,0.36,7.58,0.28,-3.68,39.25,-4.68,0.35,78.58,3.05,-0.51,-9.43
4,1,102,43,-308,3896,-0.02,0.33,7.45,0.43,-3.08,38.96,-4.68,0.33,78.55,3.01,-0.33,-9.36
-1,-1,106,67,-320,3909,-0.03,0.29,7.35,0.67,-3.20,39.09,-4.68,0.32,78.52,3.12,-0.27,-9.37
-4,0,181,93,-387,3894,-0.05,0.26,7.72,0.93,-3.87,38.94,-4.69,0.31,78.49,3.19,-0.28,-10.07
-3,-3,192,67,-418,3947,-0.06,0.22,8.12,0.67,-4.18,39.47,-4.70,0.30,78.46,3.18,-0.20,-10.24
-4,6,233,36,-401,3918,-0.08,0.23,8.73,0.36,-4.01,39.18,-4.72,0.29,78.42,3.22,-0.38,-10.70
2,6,263,47,-449,3924,-0.06,0.25,9.46,0.47,-4.49,39.24,-4.74,0.29,78.38,3.10,-0.38,-11.09
-3,-1,317,-1,-361,3959,-0.07,0.22,10.45,-0.01,-3.61,39.59,-4.75,0.28,78.34,3.22,-0.23,-11.73
-5,-1,317,20,-282,3930,-0.10,0.19,11.34,0.20,-2.82,39.30,-4.74,0.28,78.30,3.25,-0.21,-11.90
-6,4,307,-118,-149,3905,-0.12,0.19,12.07,-1.18,-1.49,39.05,-4.72,0.29,78.25,3.27,-0.32,-11.95
-8,-7,286,-169,-223,3891,-0.16,0.13,12.61,-1.69,-2.23,38.91,-4.71,0.31,78.20,3.32,-0.10,-11.87
-1,-1,220,-147,-204,3930,-0.15,0.11,12.69,-1.47,-2.04,39.30,-4.70,0.33,78.15,3.16,-0.23,-11.32
-9,0,193,-145,-212,3893,-0.19,0.10,12.60,-1.45,-2.12,38.93,-4.69,0.35,78.10,3.33,-0.26,-11.07
3,4,141,-84,-388,3853,-0.15,0.12,12.20,-0.84,-3.88,38.53,-4.70,0.36,78.05,3.08,-0.35,-10.55
-5,6,161,-90,-394,3960,-0.17,0.14,11.96,-0.90,-3.94,39.60,-4.72,0.38,78.00,3.26,-0.41,-10.67
-1,3,248,73,-472,3938,-0.16,0.14,12.28,0.73,-4.72,39.38,-4.73,0.37,77.95,3.19,-0.35,-11.46
-23,21,326,42,-382,3891,-0.28,0.26,13.04,0.42,-3.82,38.91,-4.75,0.36,77.90,3.68,-0.74,-12.27
-9,4,418,39,-394,3907,-0.31,0.26,14.29,0.39,-3.94,39.07,-4.76,0.36,77.85,3.41,-0.39,-13.28
-9,5,427,-22,-277,3969,-0.33,0.26,15.46,-0.22,-2.77,39.69,-4.74,0.36,77.78,3.40,-0.41,-13.57
1,2,416,-28,-220,3962,-0.29,0.25,16.45,-0.28,-2.20,39.62,-4.72,0.37,77.72,3.18,-0.35,-13.66
-10,-4,391,-97,-162,3911,-0.32,0.20,17.19,-0.97,-1.62,39.11,-4.71,0.38,77.65,3.40,-0.23,-13.59
0,-6,255,-119,-134,3944,-0.29,0.14,17.03,-1.19,-1.34,39.44,-4.69,0.40,77.58,3.18,-0.18,-12.40
3,2,216,-159,-192,3933,-0.24,0.14,16.64,-1.59,-1.92,39.33,-4.68,0.42,77.51,3.09,-0.35,-11.99
0,4,107,-70,-299,3930,-0.22,0.15,15.63,-0.70,-2.99,39.30,-4.67,0.44,77.45,3.14,-0.41,-10.86
0,6,89,-25,-271,3925,-0.20,0.17,14.61,-0.25,-2.71,39.25,-4.65,0.44,77.39,3.13,-0.46,-10.51
1,6,80,-36,-303,3917,-0.17,0.19,13.64,-0.36,-3.03,39.17,-4.64,0.45,77.34,3.09,-0.47,-10.24
0,2,86,-5,-321,3904,-0.15,0.18,12.80,-0.05,-3.21,39.04,-4.64,0.44,77.29,3.11,-0.38,-10.13
-1,-2,112,-88,-333,3946,-0.15,0.15,12.20,-0.88,-3.33,39.46,-4.64,0.46,77.24,3.13,-0.31,-10.23
-5,-3,85,-132,-359,3932,-0.16,0.12,11.50,-1.32,-3.59,39.32,-4.65,0.48,77.19,3.22,-0.29,-9.87
-1,3,27,-38,-302,3935,-0.15,0.13,10.52,-0.38,-3.02,39.35,-4.63,0.49,77.15,3.12,-0.42,-9.18
2,4,22,-34,-311,3914,-0.12,0.14,9.60,-0.34,-3.11,39.14,-4.62,0.50,77.11,3.04,-0.45,-8.96
-1,4,21,-31,-325,3929,-0.12,0.15,8.77,-0.31,-3.25,39.29,-4.63,0.49,77.08,3.11,-0.45,-8.79
-1,3,17,-15,-312,3898,-0.11,0.15,7.99,-0.15,-3.12,38.98,-4.63,0.48,77.05,3.11,-0.42,-8.61
-1,-1,0,-21,-318,3919,-0.11,0.13,7.19,-0.21,-3.18,39.19,-4.63,0.46,77.02,3.11,-0.32,-8.31
-1,-1,-1,-20,-322,3921,-0.10,0.11,6.47,-0.20,-3.22,39.21,-4.64,0.45,76.99,3.11,-0.31,-8.16
-1,2,0,-15,-342,3911,-0.10,0.11,5.82,-0.15,-3.42,39.11,-4.65,0.44,76.97,3.12,-0.36,-8.04
0,5,11,-30,-379,3947,-0.09,0.13,5.31,-0.30,-3.79,39.47,-4.67,0.44,76.95,3.11,-0.43,-8.03
4,8,97,6,-491,3913,-0.06,0.17,5.37,0.06,-4.91,39.13,-4.69,0.44,76.93,3.03,-0.50,-8.77
0,12,139,18,-508,3908,-0.05,0.22,5.68,0.18,-5.08,39.08,-4.71,0.44,76.91,3.12,-0.60,-9.18
-9,7,289,61,-509,3869,-0.10,0.24,6.87,0.61,-5.09,38.69,-4.72,0.44,76.88,3.33,-0.50,-10.68
0,9,337,29,-471,3984,-0.09,0.27,8.24,0.29,-4.71,39.84,-4.74,0.43,76.85,3.15,-0.54,-11.35
9,9,468,69,-399,4011,-0.03,0.30,10.27,0.69,-3.99,40.11,-4.75,0.42,76.80,2.96,-0.54,-12.84
4,10,478,105,-372,3938,0.00,0.33,12.16,1.05,-3.72,39.38,-4.76,0.41,76.76,3.06,-0.56,-13.28
-10,3,483,31,-323,3902,-0.06,0.32,13.89,0.31,-3.23,39.02,-4.76,0.40,76.70,3.36,-0.41,-13.65
4,20,479,6,-291,3876,-0.03,0.41,15.42,0.06,-2.91,38.76,-4.74,0.39,76.64,3.06,-0.78,-13.90
-4,3,465,-29,-290,3944,-0.05,0.39,16.72,-0.29,-2.90,39.44,-4.72,0.40,76.57,3.21,-0.43,-14.03
-5,7,467,-25,-294,3890,-0.08,0.39,17.90,-0.25,-2.94,38.90,-4.71,0.40,76.50,3.23,-0.52,-14.26
-5,-7,491,-45,-310,3952,-0.10,0.31,19.10,-0.45,-3.10,39.52,-4.69,0.43,76.43,3.23,-0.22,-14.69
-11,-1,488,-106,-271,4022,-0.16,0.27,20.17,-1.06,-2.71,40.22,-4.68,0.45,76.35,3.36,-0.35,-14.86
1,14,534,22,-441,3988,-0.13,0.33,21.41,0.22,-4.41,39.88,-4.70,0.45,76.26,3.12,-0.67,-15.48
-15,6,574,65,-432,3830,-0.21,0.33,22.77,0.65,-4.32,38.30,-4.71,0.45,76.17,3.47,-0.51,-16.07
-15,7,741,104,-430,3919,-0.28,0.34,25.01,1.04,-4.30,39.19,-4.72,0.44,76.07,3.50,-0.53,-17.90
-16,-1,782,102,-382,3955,-0.35,0.30,27.28,1.02,-3.82,39.55,-4.73,0.43,75.96,3.54,-0.35,-18.68
-34,-21,818,-41,-190,3903,-0.52,0.14,29.54,-0.41,-1.90,39.03,-4.72,0.45,75.84,3.95,0.09,-19.40
-48,-30,783,-77,-243,3933,-0.76,-0.05,31.36,-0.77,-2.43,39.33,-4.70,0.46,75.72,4.29,0.32,-19.44
-57,-43,577,-32,-131,3887,-1.04,-0.31,31.75,-0.32,-1.31,38.87,-4.69,0.47,75.59,4.53,0.65,-17.76
-38,-45,460,-145,-85,3903,-1.16,-0.55,31.38,-1.45,-0.85,39.03,-4.67,0.49,75.47,4.17,0.74,-16.69
-21,-18,356,-94,-249,3922,-1.18,-0.61,30.41,-0.94,-2.49,39.22,-4.66,0.51,75.34,3.83,0.20,-15.61
-19,-5,359,-139,-201,3969,-1.17,-0.58,29.56,-1.39,-2.01,39.69,-4.65,0.53,75.23,3.78,-0.09,-15.46
-12,-3,347,-114,-363,3925,-1.13,-0.54,28.72,-1.14,-3.63,39.25,-4.67,0.55,75.11,3.63,-0.16,-15.19
-7,-1,359,-94,-339,4006,-1.06,-0.49,28.04,-0.94,-3.39,40.06,-4.67,0.58,75.00,3.51,-0.23,-15.15
-31,-2,357,128,-382,3981,-1.14,-0.45,27.41,1.28,-3.82,39.81,-4.68,0.57,74.89,4.03,-0.21,-15.00
-20,-7,334,23,-380,3915,-1.15,-0.45,26.71,0.23,-3.80,39.15,-4.70,0.56,74.78,3.82,-0.10,-14.66
-13,8,345,4,-287,3949,-1.11,-0.36,26.14,0.04,-2.87,39.49,-4.69,0.55,74.68,3.66,-0.43,-14.64
-4,4,333,-13,-198,3858,-1.03,-0.30,25.56,-0.13,-1.98,38.58,-4.67,0.56,74.58,3.45,-0.37,-14.42
19,8,247,-158,-257,3909,-0.81,-0.22,24.51,-1.58,-2.57,39.09,-4.67,0.58,74.48,2.92,-0.49,-13.48
33,24,219,-163,-262,3970,-0.53,-0.05,23.40,-1.63,-2.62,39.70,-4.66,0.60,74.39,2.55,-0.87,-13.02
16,13,90,-20,-251,3920,-0.38,0.03,21.60,-0.20,-2.51,39.20,-4.64,0.61,74.30,2.84,-0.67,-11.58
7,7,65,-32,-289,3906,-0.30,0.07,19.84,-0.32,-2.89,39.06,-4.63,0.61,74.22,2.99,-0.56,-11.02
4,2,88,44,-481,3929,-0.24,0.08,18.39,0.44,-4.81,39.29,-4.64,0.60,74.15,3.05,-0.46,-10.93
-6,-1,136,108,-580,3900,-0.25,0.06,17.38,1.08,-5.80,39.00,-4.66,0.60,74.08,3.27,-0.39,-11.14
-3,16,383,131,-646,3925,-0.25,0.16,17.98,1.31,-6.46,39.25,-4.68,0.60,74.01,3.21,-0.76,-13.34
-2,8,447,11,-596,3909,-0.23,0.19,18.91,0.11,-5.96,39.09,-4.69,0.60,73.93,3.20,-0.61,-14.05
-23,2,634,-18,-461,3928,-0.35,0.18,20.89,-0.18,-4.61,39.28,-4.71,0.61,73.85,3.67,-0.49,-16.01
-32,2,658,-75,-381,3861,-0.51,0.18,22.81,-0.75,-3.81,38.61,-4.73,0.62,73.76,3.91,-0.50,-16.57
-12,-2,589,-112,-75,3908,-0.53,0.15,24.12,-1.12,-0.75,39.08,-4.71,0.64,73.66,3.50,-0.42,-16.23
-6,1,504,-117,38,3935,-0.52,0.14,24.79,-1.17,0.38,39.35,-4.70,0.65,73.56,3.36,-0.49,-15.63
-8,-2,302,-78,-28,3939,-0.51,0.11,24.15,-0.78,-0.28,39.39,-4.68,0.66,73.47,3.39,-0.43,-13.79
-9,-10,254,-95,-73,3919,-0.52,0.04,23.28,-0.95,-0.73,39.19,-4.66,0.67,73.37,3.40,-0.25,-13.21
-10,-6,156,-61,-298,3941,-0.53,-0.00,21.91,-0.61,-2.98,39.41,-4.65,0.69,73.29,3.41,-0.33,-12.10
-29,-11,135,-15,-378,3935,-0.65,-0.07,20.54,-0.15,-3.78,39.35,-4.67,0.69,73.20,3.85,-0.21,-11.66
-31,-12,216,104,-480,3886,-0.78,-0.13,19.80,1.04,-4.80,38.86,-4.68,0.68,73.13,3.93,-0.17,-12.20
-21,-12,266,11,-447,3919,-0.83,-0.19,19.45,0.11,-4.47,39.19,-4.70,0.68,73.05,3.75,-0.15,-12.54
9,-10,497,87,-392,3863,-0.69,-0.24,20.53,0.87,-3.92,38.63,-4.71,0.67,72.97,3.11,-0.17,-14.70
-58,-15,551,121,-516,3951,-0.97,-0.30,21.84,1.21,-5.16,39.51,-4.73,0.66,72.88,4.56,-0.05,-15.40
-52,-5,652,34,-577,4087,-1.19,-0.30,23.63,0.34,-5.77,40.87,-4.75,0.66,72.78,4.52,-0.25,-16.59
-36,-13,551,53,-653,3874,-1.29,-0.35,24.63,0.53,-6.53,38.74,-4.77,0.66,72.69,4.23,-0.08,-15.92
-17,3,471,-76,-162,3940,-1.27,-0.30,25.04,-0.76,-1.62,39.40,-4.76,0.67,72.59,3.83,-0.42,-15.31
10,3,432,-52,-180,3929,-1.08,-0.25,25.17,-0.52,-1.80,39.29,-4.74,0.68,72.49,3.22,-0.44,-14.99
18,7,295,-150,-157,3885,-0.86,-0.18,24.45,-1.50,-1.57,38.85,-4.73,0.70,72.39,2.99,-0.55,-13.69
2,0,277,-99,-207,3898,-0.76,-0.16,23.70,-0.99,-2.07,38.98,-4.71,0.71,72.29,3.28,-0.43,-13.38
1,5,254,67,-405,3982,-0.68,-0.12,22.88,0.67,-4.05,39.82,-4.72,0.71,72.20,3.28,-0.54,-13.02
-3,10,260,77,-482,3951,-0.63,-0.05,22.18,0.77,-4.82,39.51,-4.74,0.70,72.11,3.36,-0.65,-12.93
-1,3,316,29,-489,3943,-0.57,-0.02,21.89,0.29,-4.89,39.43,-4.76,0.70,72.03,3.32,-0.52,-13.34
-7,6,344,-4,-429,3912,-0.56,0.02,21.80,-0.04,-4.29,39.12,-4.78,0.70,71.94,3.45,-0.59,-13.55
1,5,491,-17,-310,3905,-0.50,0.05,22.61,-0.17,-3.10,39.05,-4.77,0.69,71.85,3.26,-0.57,-14.95
-1,5,538,-65,-294,3907,-0.45,0.07,23.63,-0.65,-2.94,39.07,-4.75,0.71,71.76,3.28,-0.59,-15.53
0,15,499,-103,-197,3950,-0.41,0.16,24.31,-1.03,-1.97,39.50,-4.74,0.72,71.66,3.24,-0.83,-15.32
-7,7,474,-87,-203,3921,-0.41,0.18,24.77,-0.87,-2.03,39.21,-4.72,0.74,71.56,3.37,-0.68,-15.19
-8,13,388,-34,-292,3955,-0.42,0.24,24.66,-0.34,-2.92,39.55,-4.70,0.74,71.46,3.38,-0.82,-14.43
-14,0,362,5,-319,3909,-0.46,0.22,24.40,0.05,-3.19,39.09,-4.70,0.73,71.36,3.51,-0.54,-14.15
-11,-1,283,45,-455,3891,-0.48,0.19,23.69,0.45,-4.55,38.91,-4.72,0.73,71.27,3.47,-0.51,-13.34
-16,8,284,49,-470,3911,-0.53,0.22,23.05,0.49,-4.70,39.11,-4.73,0.73,71.18,3.60,-0.70,-13.22
-12,0,244,2,-369,3896,-0.55,0.20,22.24,0.02,-3.69,38.96,-4.75,0.72,71.09,3.53,-0.53,-12.71
-1,6,253,14,-380,3868,-0.50,0.22,21.56,0.14,-3.80,38.68,-4.76,0.72,71.00,3.30,-0.65,-12.65
-7,6,341,64,-384,3931,-0.50,0.23,21.48,0.64,-3.84,39.31,-4.77,0.71,70.92,3.43,-0.65,-13.38
-7,1,407,37,-333,3914,-0.49,0.21,21.82,0.37,-3.33,39.14,-4.77,0.70,70.83,3.43,-0.54,-13.99
-15,6,421,-73,-354,3913,-0.53,0.23,22.20,-0.73,-3.54,39.13,-4.79,0.72,70.74,3.61,-0.66,-14.18
9,12,418,-68,-361,3962,-0.42,0.28,22.53,-0.68,-3.61,39.62,-4.80,0.74,70.65,3.10,-0.81,-14.21
-13,1,440,-76,-416,3901,-0.46,0.26,22.96,-0.76,-4.16,39.01,-4.82,0.75,70.56,3.57,-0.59,-14.47
-13,5,445,-10,-442,3884,-0.49,0.26,23.38,-0.10,-4.42,38.84,-4.84,0.75,70.47,3.59,-0.67,-14.58
-16,5,395,-124,-414,3936,-0.54,0.27,23.45,-1.24,-4.14,39.36,-4.85,0.77,70.38,3.68,-0.69,-14.16
-5,6,398,-61,-406,3946,-0.52,0.28,23.53,-0.61,-4.06,39.46,-4.87,0.78,70.28,3.46,-0.72,-14.20
-5,3,388,-58,-264,3912,-0.50,0.27,23.55,-0.58,-2.64,39.12,-4.86,0.79,70.19,3.44,-0.66,-14.10
0,14,390,-41,-245,3900,-0.45,0.33,23.57,-0.41,-2.45,39.00,-4.84,0.80,70.09,3.31,-0.90,-14.12
0,3,351,-22,-167,3824,-0.40,0.31,23.36,-0.22,-1.67,38.24,-4.82,0.81,70.00,3.29,-0.68,-13.74
7,6,367,87,-135,3962,-0.32,0.32,23.26,0.87,-1.35,39.62,-4.81,0.81,69.91,3.12,-0.74,-13.85
1,5,386,2,-184,3911,-0.28,0.32,23.29,0.02,-1.84,39.11,-4.79,0.81,69.82,3.22,-0.72,-14.00
-4,4,397,17,-251,3888,-0.28,0.31,23.38,0.17,-2.51,38.88,-4.77,0.80,69.72,3.31,-0.70,-14.11
-5,8,328,-10,-399,3930,-0.28,0.33,23.04,-0.10,-3.99,39.30,-4.79,0.80,69.63,3.34,-0.78,-13.45
1,4,312,3,-428,3951,-0.25,0.32,22.64,0.03,-4.28,39.51,-4.81,0.80,69.54,3.22,-0.70,-13.23
-9,3,254,70,-471,3901,-0.28,0.30,21.93,0.70,-4.71,39.01,-4.82,0.80,69.45,3.44,-0.67,-12.59
2,2,249,94,-474,3933,-0.24,0.29,21.25,0.94,-4.74,39.33,-4.83,0.79,69.37,3.21,-0.64,-12.41
-9,8,283,85,-419,3905,-0.27,0.31,20.85,0.85,-4.19,39.05,-4.84,0.79,69.29,3.45,-0.77,-12.62
-2,2,316,155,-325,3881,-0.25,0.29,20.70,1.55,-3.25,38.81,-4.84,0.78,69.20,3.30,-0.63,-12.86
-9,-1,393,22,-342,3940,-0.28,0.25,21.02,0.22,-3.42,39.40,-4.84,0.77,69.12,3.46,-0.55,-13.57
-12,-5,401,-45,-353,3941,-0.33,0.20,21.37,-0.45,-3.53,39.41,-4.86,0.77,69.04,3.54,-0.46,-13.69
-10,6,431,-82,-378,3846,-0.36,0.21,21.86,-0.82,-3.78,38.46,-4.88,0.79,68.95,3.52,-0.70,-14.03
-11,1,443,-116,-243,3942,-0.39,0.20,22.38,-1.16,-2.43,39.42,-4.86,0.80,68.86,3.54,-0.60,-14.23
-16,11,431,-177,-278,3927,-0.45,0.25,22.77,-1.77,-2.78,39.27,-4.85,0.83,68.77,3.65,-0.84,-14.19
-9,4,430,-128,-185,3901,-0.46,0.25,23.11,-1.28,-1.85,39.01,-4.84,0.85,68.68,3.50,-0.71,-14.24
-2,7,405,-75,-320,3964,-0.42,0.26,23.27,-0.75,-3.20,39.64,-4.83,0.87,68.58,3.34,-0.79,-14.05
-3,12,401,-59,-324,3883,-0.40,0.31,23.39,-0.59,-3.24,38.83,-4.81,0.88,68.49,3.34,-0.91,-14.03
-9,-4,394,13,-426,3940,-0.41,0.26,23.46,0.13,-4.26,39.40,-4.82,0.87,68.40,3.48,-0.57,-13.98
-24,4,412,8,-590,3926,-0.52,0.25,23.62,0.08,-5.90,39.26,-4.84,0.88,68.30,3.82,-0.73,-14.15
-5,5,455,42,-332,3950,-0.50,0.26,24.04,0.42,-3.32,39.50,-4.84,0.87,68.21,3.43,-0.75,-14.59
-8,2,493,31,-318,3902,-0.50,0.25,24.64,0.31,-3.18,39.02,-4.84,0.86,68.11,3.49,-0.68,-15.02
-19,0,545,-80,-336,3938,-0.56,0.22,25.50,-0.80,-3.36,39.38,-4.84,0.89,68.01,3.74,-0.65,-15.61
0,9,560,-169,-376,3945,-0.51,0.25,26.37,-1.69,-3.76,39.45,-4.85,0.92,67.90,3.34,-0.86,-15.89
-16,8,572,-41,-315,3968,-0.55,0.28,27.22,-0.41,-3.15,39.68,-4.84,0.91,67.79,3.67,-0.84,-16.15
-5,12,533,-136,-226,3908,-0.53,0.32,27.75,-1.36,-2.26,39.08,-4.82,0.93,67.68,3.43,-0.95,-15.91
-1,5,410,-191,-398,3932,-0.48,0.32,27.47,-1.91,-3.98,39.32,-4.83,0.96,67.57,3.34,-0.82,-14.81
-14,6,374,-83,-348,3923,-0.52,0.33,27.01,-0.83,-3.48,39.23,-4.84,0.98,67.47,3.62,-0.86,-14.40
2,7,354,-44,-339,3941,-0.46,0.34,26.47,-0.44,-3.39,39.41,-4.85,0.98,67.36,3.28,-0.88,-14.12
-12,-3,356,-41,-394,3853,-0.48,0.28,25.99,-0.41,-3.94,38.53,-4.86,0.98,67.26,3.59,-0.66,-14.04
-6,9,389,-6,-443,3945,-0.47,0.31,25.77,-0.06,-4.43,39.45,-4.88,0.98,67.16,3.47,-0.91,-14.26
-10,17,427,4,-451,3894,-0.48,0.38,25.79,0.04,-4.51,38.94,-4.90,0.98,67.05,3.57,-1.10,-14.58
-6,8,393,-108,-473,3912,-0.47,0.39,25.61,-1.08,-4.73,39.12,-4.91,1.00,66.95,3.49,-0.93,-14.25
-2,15,393,-115,-494,3922,-0.44,0.45,25.45,-1.15,-4.94,39.22,-4.93,1.01,66.85,3.41,-1.09,-14.21
-2,22,429,12,-370,3890,-0.41,0.54,25.52,0.12,-3.70,38.90,-4.94,1.01,66.75,3.41,-1.26,-14.52
-4,13,420,21,-355,3919,-0.39,0.56,25.53,0.21,-3.55,39.19,-4.94,1.00,66.65,3.45,-1.08,-14.44
1,17,397,4,-342,3870,-0.35,0.61,25.40,0.04,-3.42,38.70,-4.94,0.99,66.55,3.34,-1.17,-14.21
0,21,391,-80,-401,3944,-0.31,0.68,25.24,-0.80,-4.01,39.44,-4.96,1.01,66.45,3.36,-1.28,-14.12
-6,17,401,98,-334,3974,-0.32,0.71,25.17,0.98,-3.34,39.74,-4.96,1.00,66.35,3.48,-1.20,-14.18
0,23,389,13,-293,3965,-0.28,0.78,25.02,0.13,-2.93,39.65,-4.95,1.00,66.25,3.34,-1.34,-14.04
0,21,391,-84,-308,3913,-0.26,0.83,24.90,-0.84,-3.08,39.13,-4.93,1.02,66.15,3.32,-1.32,-14.03
10,27,425,-85,-311,4016,-0.17,0.91,25.01,-0.85,-3.11,40.16,-4.91,1.04,66.05,3.09,-1.48,-14.32
16,17,433,-107,-376,3980,-0.05,0.93,25.15,-1.07,-3.76,39.80,-4.92,1.06,65.95,2.94,-1.30,-14.41
9,19,452,-136,-364,3861,0.01,0.95,25.39,-1.36,-3.64,38.61,-4.93,1.09,65.85,3.07,-1.36,-14.61
-8,14,427,-10,-368,3917,-0.04,0.94,25.46,-0.10,-3.68,39.17,-4.94,1.09,65.75,3.43,-1.26,-14.40
-10,11,400,48,-343,3960,-0.10,0.91,25.35,0.48,-3.43,39.60,-4.94,1.08,65.65,3.49,-1.19,-14.14
-3,3,347,-78,-341,3902,-0.11,0.84,24.93,-0.78,-3.41,39.02,-4.95,1.11,65.55,3.36,-1.02,-13.60
-4,2,323,-86,-275,3938,-0.12,0.77,24.41,-0.86,-2.75,39.38,-4.93,1.12,65.45,3.37,-0.99,-13.29
-7,0,280,-1,-308,3906,-0.15,0.69,23.68,-0.01,-3.08,39.06,-4.92,1.11,65.36,3.43,-0.92,-12.78
-1,-7,273,-20,-331,3923,-0.14,0.58,22.97,-0.20,-3.31,39.23,-4.92,1.11,65.26,3.30,-0.74,-12.58
6,4,273,-57,-283,3944,-0.09,0.55,22.34,-0.57,-2.83,39.44,-4.90,1.11,65.18,3.14,-0.96,-12.45
-3,5,292,-71,-329,3904,-0.10,0.52,21.89,-0.71,-3.29,39.04,-4.88,1.11,65.09,3.31,-0.97,-12.51
-6,4,338,-87,-333,3912,-0.13,0.49,21.76,-0.87,-3.33,39.12,-4.88,1.13,65.00,3.38,-0.96,-12.87
3,12,349,-72,-320,3928,-0.10,0.52,21.71,-0.72,-3.20,39.28,-4.86,1.14,64.91,3.17,-1.14,-12.95
-3,1,353,-66,-324,3908,-0.11,0.47,21.70,-0.66,-3.24,39.08,-4.85,1.13,64.83,3.29,-0.90,-12.97
-1,3,357,-63,-308,3921,-0.10,0.44,21.70,-0.63,-3.08,39.21,-4.83,1.13,64.74,3.24,-0.93,-13.00
-14,4,363,26,-381,3918,-0.18,0.42,21.75,0.26,-3.81,39.18,-4.84,1.12,64.65,3.53,-0.94,-13.05
-8,5,378,39,-379,3913,-0.21,0.41,21.88,0.39,-3.79,39.13,-4.85,1.12,64.57,3.42,-0.95,-13.19
-15,23,439,-16,-303,3904,-0.28,0.51,22.37,-0.16,-3.03,39.04,-4.84,1.11,64.48,3.57,-1.34,-13.80
-14,7,447,-4,-334,3932,-0.34,0.50,22.86,-0.04,-3.34,39.32,-4.84,1.10,64.39,3.57,-1.01,-13.95
-4,15,448,-24,-336,3924,-0.33,0.54,23.31,-0.24,-3.36,39.24,-4.84,1.09,64.29,3.36,-1.17,-14.04
-7,15,467,14,-281,3911,-0.34,0.58,23.82,0.14,-2.81,39.11,-4.83,1.09,64.20,3.42,-1.18,-14.29
5,19,515,35,-272,3895,-0.27,0.64,24.58,0.35,-2.72,38.95,-4.82,1.08,64.10,3.15,-1.27,-14.83
-6,9,545,38,-255,3901,-0.28,0.63,25.45,0.38,-2.55,39.01,-4.81,1.08,64.00,3.37,-1.06,-15.24
-8,20,643,58,-357,3908,-0.30,0.69,26.83,0.58,-3.57,39.08,-4.81,1.07,63.89,3.42,-1.30,-16.32
-3,2,660,15,-388,3996,-0.29,0.63,28.17,0.15,-3.88,39.96,-4.82,1.07,63.78,3.32,-0.92,-16.72
-14,7,730,48,-397,3945,-0.35,0.61,29.81,0.48,-3.97,39.45,-4.83,1.06,63.66,3.57,-1.01,-17.61
-8,5,764,132,-410,3927,-0.36,0.58,31.49,1.32,-4.10,39.27,-4.83,1.06,63.54,3.45,-0.96,-18.21
-3,21,939,144,-472,3859,-0.34,0.65,34.07,1.44,-4.72,38.59,-4.84,1.06,63.40,3.35,-1.30,-20.00
-25,8,1004,189,-535,3917,-0.46,0.63,36.78,1.89,-5.35,39.17,-4.85,1.06,63.26,3.84,-1.03,-20.00
-12,10,1182,121,-439,3956,-0.49,0.63,40.31,1.21,-4.39,39.56,-4.86,1.06,63.10,3.58,-1.07,-20.00
-11,10,1233,65,-443,3935,-0.51,0.63,43.80,0.65,-4.43,39.35,-4.87,1.06,62.92,3.58,-1.07,-20.00
-7,16,1313,-14,-445,3943,-0.50,0.66,47.43,-0.14,-4.45,39.43,-4.88,1.07,62.73,3.50,-1.21,-20.00
-25,3,1321,-28,-373,3907,-0.60,0.62,50.75,-0.28,-3.73,39.07,-4.90,1.08,62.53,3.90,-0.94,-20.00
-7,10,1288,-105,-346,3960,-0.58,0.62,53.53,-1.05,-3.46,39.60,-4.90,1.11,62.32,3.53,-1.11,-20.00
-18,8,1280,-92,-355,3883,-0.64,0.60,55.99,-0.92,-3.55,38.83,-4.91,1.15,62.10,3.78,-1.08,-20.00
-16,15,1226,-113,-337,3891,-0.67,0.63,57.87,-1.13,-3.37,38.91,-4.91,1.19,61.87,3.75,-1.26,-20.00
-9,19,1203,-110,-287,3921,-0.66,0.69,59.42,-1.10,-2.87,39.21,-4.89,1.22,61.63,3.59,-1.38,-20.00
0,23,1125,-139,-247,3955,-0.59,0.76,60.34,-1.39,-2.47,39.55,-4.87,1.25,61.39,3.38,-1.50,-20.00
-5,13,1075,-179,-217,3902,-0.56,0.76,60.86,-1.79,-2.17,39.02,-4.86,1.29,61.15,3.46,-1.32,-20.00
-19,10,903,-95,-412,3883,-0.62,0.75,60.28,-0.95,-4.12,38.83,-4.87,1.31,60.91,3.77,-1.27,-20.00
-18,6,844,-47,-392,3940,-0.67,0.71,59.40,-0.47,-3.92,39.40,-4.88,1.32,60.67,3.77,-1.19,-20.00
-16,-3,725,-42,-412,3950,-0.70,0.62,57.89,-0.42,-4.12,39.50,-4.90,1.34,60.44,3.75,-0.99,-20.00
-11,-3,642,-68,-448,3949,-0.70,0.54,56.01,-0.68,-4.48,39.49,-4.91,1.35,60.22,3.65,-0.98,-20.00
-8,3,392,-190,-273,3939,-0.68,0.50,52.80,-1.90,-2.73,39.39,-4.90,1.39,60.01,3.58,-1.12,-18.81
-6,-11,335,-178,-236,3898,-0.65,0.39,49.57,-1.78,-2.36,38.98,-4.88,1.42,59.81,3.52,-0.82,-17.69
-7,4,210,-204,-189,3897,-0.62,0.37,45.89,-2.04,-1.89,38.97,-4.87,1.45,59.63,3.52,-1.14,-15.92
5,4,181,-218,-259,3911,-0.53,0.36,42.41,-2.18,-2.59,39.11,-4.85,1.48,59.46,3.25,-1.16,-14.99
9,6,54,-176,-361,3925,-0.42,0.36,38.49,-1.76,-3.61,39.25,-4.86,1.51,59.30,3.14,-1.22,-13.15
11,7,33,-117,-392,3933,-0.31,0.37,34.85,-1.17,-3.92,39.33,-4.87,1.53,59.16,3.08,-1.25,-12.26
-1,5,10,-90,-467,3943,-0.29,0.36,31.42,-0.90,-4.67,39.43,-4.89,1.54,59.04,3.33,-1.21,-11.40
-1,5,8,-83,-431,3933,-0.27,0.35,28.33,-0.83,-4.31,39.33,-4.90,1.54,58.93,3.33,-1.22,-10.79
-6,-6,-16,-102,-405,3918,-0.28,0.28,25.40,-1.02,-4.05,39.18,-4.92,1.55,58.83,3.45,-0.98,-10.01
-1,-4,-12,-53,-393,3936,-0.25,0.23,22.79,-0.53,-3.93,39.36,-4.93,1.55,58.74,3.35,-1.00,-9.54
-9,2,44,-49,-331,3896,-0.28,0.22,20.78,-0.49,-3.31,38.96,-4.93,1.54,58.65,3.51,-1.12,-9.62
-5,0,53,-65,-328,3958,-0.29,0.20,19.02,-0.65,-3.28,39.58,-4.92,1.53,58.58,3.43,-1.06,-9.36
-4,5,94,-73,-332,3911,-0.28,0.21,17.69,-0.73,-3.32,39.11,-4.92,1.52,58.51,3.41,-1.16,-9.44
-1,6,100,-51,-330,3912,-0.26,0.22,16.53,-0.51,-3.30,39.12,-4.92,1.51,58.44,3.34,-1.18,-9.27
-1,7,84,-72,-257,3898,-0.24,0.24,15.39,-0.72,-2.57,38.98,-4.90,1.51,58.38,3.32,-1.20,-8.91
1,7,84,-72,-295,3917,-0.21,0.26,14.37,-0.72,-2.95,39.17,-4.88,1.50,58.32,3.26,-1.20,-8.71
-1,7,90,-15,-266,3937,-0.19,0.28,13.48,-0.15,-2.66,39.37,-4.87,1.49,58.27,3.29,-1.20,-8.58
-2,5,87,-34,-271,3926,-0.19,0.28,12.66,-0.34,-2.71,39.26,-4.86,1.48,58.22,3.30,-1.16,-8.40
-4,0,76,-73,-315,3920,-0.19,0.25,11.86,-0.73,-3.15,39.20,-4.85,1.47,58.17,3.33,-1.04,-8.15
-3,1,76,-83,-349,3919,-0.19,0.23,11.14,-0.83,-3.49,39.19,-4.86,1.46,58.13,3.32,-1.05,-8.00
-3,5,85,-44,-370,3909,-0.19,0.24,10.54,-0.44,-3.70,39.09,-4.87,1.45,58.08,3.33,-1.13,-7.96
-1,5,90,-30,-383,3910,-0.18,0.25,10.04,-0.30,-3.83,39.10,-4.88,1.44,58.04,3.29,-1.12,-7.90
3,18,184,3,-443,3898,-0.14,0.33,10.15,0.03,-4.43,38.98,-4.89,1.44,58.00,3.21,-1.40,-8.72
-1,16,225,-15,-450,3906,-0.13,0.40,10.51,-0.15,-4.50,39.06,-4.91,1.43,57.96,3.30,-1.38,-9.13
3,25,349,-45,-419,3954,-0.10,0.51,11.59,-0.45,-4.19,39.54,-4.92,1.43,57.92,3.22,-1.59,-10.38
-2,20,377,-40,-377,3923,-0.10,0.58,12.73,-0.40,-3.77,39.23,-4.93,1.42,57.87,3.32,-1.50,-10.83
-8,15,407,-19,-346,3917,-0.14,0.61,13.94,-0.19,-3.46,39.17,-4.93,1.41,57.81,3.46,-1.40,-11.32
-6,11,415,-21,-361,3949,-0.16,0.62,15.08,-0.21,-3.61,39.49,-4.94,1.40,57.75,3.43,-1.31,-11.60
-3,6,399,-83,-357,3903,-0.17,0.59,16.00,-0.83,-3.57,39.03,-4.95,1.39,57.69,3.37,-1.20,-11.63
-6,6,402,-23,-390,3917,-0.19,0.57,16.86,-0.23,-3.90,39.17,-4.96,1.39,57.62,3.45,-1.19,-11.81
-1,8,422,13,-302,3940,-0.17,0.56,17.74,0.13,-3.02,39.40,-4.95,1.38,57.55,3.34,-1.23,-12.15
2,10,430,-30,-346,3910,-0.14,0.57,18.59,-0.30,-3.46,39.10,-4.95,1.37,57.48,3.27,-1.26,-12.37
-5,2,420,-47,-314,3956,-0.16,0.52,19.30,-0.47,-3.14,39.56,-4.94,1.36,57.40,3.41,-1.08,-12.41
1,12,406,-56,-307,3912,-0.14,0.54,19.84,-0.56,-3.07,39.12,-4.93,1.36,57.32,3.27,-1.29,-12.39
-3,7,411,-35,-368,3939,-0.14,0.53,20.37,-0.35,-3.68,39.39,-4.94,1.35,57.24,3.36,-1.18,-12.53
-11,4,414,-10,-309,3939,-0.20,0.50,20.85,-0.10,-3.09,39.39,-4.93,1.34,57.16,3.53,-1.10,-12.64
-4,2,441,9,-382,3909,-0.20,0.47,21.46,0.09,-3.82,39.09,-4.94,1.33,57.07,3.39,-1.05,-12.97
-7,6,459,-37,-410,3935,-0.22,0.46,22.11,-0.37,-4.10,39.35,-4.95,1.33,56.98,3.47,-1.13,-13.24
-2,6,402,-68,-411,3909,-0.21,0.45,22.35,-0.68,-4.11,39.09,-4.97,1.34,56.90,3.38,-1.13,-12.80
-10,4,389,-73,-382,3900,-0.25,0.43,22.49,-0.73,-3.82,39.00,-4.98,1.34,56.81,3.56,-1.08,-12.71
-13,4,367,-96,-380,3930,-0.31,0.41,22.48,-0.96,-3.80,39.30,-5.00,1.35,56.72,3.65,-1.08,-12.51
4,6,354,-90,-381,3955,-0.25,0.40,22.39,-0.90,-3.81,39.55,-5.02,1.36,56.63,3.30,-1.13,-12.38
1,6,298,-88,-348,3949,-0.22,0.40,21.97,-0.88,-3.48,39.49,-5.02,1.35,56.54,3.35,-1.12,-11.81
-5,2,279,-76,-354,3888,-0.23,0.37,21.48,-0.76,-3.54,38.88,-5.03,1.34,56.46,3.48,-1.03,-11.55
0,5,232,17,-382,3951,-0.21,0.37,20.74,0.17,-3.82,39.51,-5.03,1.33,56.37,3.38,-1.08,-11.00
-11,-6,227,-16,-340,3890,-0.25,0.29,20.05,-0.16,-3.40,38.90,-5.03,1.32,56.29,3.61,-0.83,-10.82
-9,-2,223,43,-342,3939,-0.28,0.25,19.41,0.43,-3.42,39.39,-5.03,1.31,56.22,3.58,-0.89,-10.66
-6,1,239,0,-370,3911,-0.29,0.23,18.93,0.00,-3.70,39.11,-5.03,1.30,56.14,3.52,-0.94,-10.69
3,12,318,-74,-353,3888,-0.24,0.28,18.97,-0.74,-3.53,38.88,-5.04,1.30,56.07,3.33,-1.18,-11.37
8,10,350,-78,-329,3878,-0.17,0.31,19.21,-0.78,-3.29,38.78,-5.03,1.29,55.99,3.20,-1.14,-11.68
13,15,410,-19,-405,3997,-0.07,0.37,19.79,-0.19,-4.05,39.97,-5.04,1.29,55.91,3.08,-1.26,-12.29
-20,1,409,15,-438,3875,-0.19,0.34,20.31,0.15,-4.38,38.75,-5.05,1.28,55.83,3.79,-0.96,-12.37
-14,-2,416,-18,-356,3940,-0.25,0.30,20.81,-0.18,-3.56,39.40,-5.05,1.27,55.75,3.69,-0.88,-12.52
-8,7,412,-41,-447,3892,-0.28,0.31,21.25,-0.41,-4.47,38.92,-5.07,1.27,55.66,3.58,-1.07,-12.56
-8,-2,425,-49,-334,3912,-0.30,0.27,21.71,-0.49,-3.34,39.12,-5.06,1.27,55.58,3.58,-0.87,-12.75
7,14,440,-52,-359,3910,-0.23,0.33,22.23,-0.52,-3.59,39.10,-5.07,1.26,55.49,3.26,-1.20,-12.97
1,13,470,-81,-318,3881,-0.20,0.37,22.87,-0.81,-3.18,38.81,-5.05,1.26,55.40,3.36,-1.20,-13.34
-6,3,455,-57,-368,3910,-0.21,0.35,23.36,-0.57,-3.68,39.10,-5.06,1.26,55.30,3.52,-0.99,-13.30
-7,0,439,-37,-374,3888,-0.24,0.32,23.70,-0.37,-3.74,38.88,-5.07,1.25,55.21,3.55,-0.91,-13.22
-12,9,442,23,-367,3931,-0.29,0.34,24.03,0.23,-3.67,39.31,-5.07,1.24,55.11,3.67,-1.10,-13.30
-4,3,424,-8,-341,3917,-0.28,0.33,24.21,-0.08,-3.41,39.17,-5.06,1.24,55.02,3.50,-0.97,-13.17
-6,-1,447,-44,-368,3902,-0.29,0.29,24.52,-0.44,-3.68,39.02,-5.07,1.23,54.92,3.55,-0.87,-13.42
-8,2,513,-11,-365,3962,-0.31,0.27,25.19,-0.11,-3.65,39.62,-5.07,1.22,54.82,3.60,-0.92,-14.09
-6,9,523,-3,-366,3921,-0.32,0.30,25.86,-0.03,-3.66,39.21,-5.08,1.21,54.72,3.56,-1.07,-14.30
-6,12,581,-95,-420,3908,-0.32,0.34,26.82,-0.95,-4.20,39.08,-5.09,1.23,54.61,3.57,-1.15,-14.96
-9,15,597,-119,-350,3953,-0.34,0.40,27.78,-1.19,-3.50,39.53,-5.09,1.26,54.50,3.64,-1.24,-15.27
-9,15,654,-89,-339,3959,-0.36,0.45,28.99,-0.89,-3.39,39.59,-5.07,1.27,54.39,3.63,-1.27,-15.98
-17,14,678,-143,-297,3924,-0.43,0.49,30.23,-1.43,-2.97,39.24,-5.06,1.30,54.26,3.80,-1.28,-16.41
-10,21,677,-128,-321,3851,-0.45,0.57,31.34,-1.28,-3.21,38.51,-5.05,1.33,54.14,3.66,-1.46,-16.60
-5,24,669,-176,-330,3942,-0.43,0.66,32.28,-1.76,-3.30,39.42,-5.05,1.36,54.01,3.55,-1.57,-16.70
6,29,642,-171,-399,3943,-0.35,0.77,32.97,-1.71,-3.99,39.43,-5.05,1.39,53.88,3.31,-1.72,-16.59
0,21,637,-196,-416,3929,-0.32,0.82,33.56,-1.96,-4.16,39.29,-5.06,1.42,53.75,3.43,-1.59,-16.65
-1,28,649,-114,-436,3960,-0.29,0.91,34.16,-1.14,-4.36,39.60,-5.08,1.44,53.61,3.45,-1.77,-16.85
-18,20,654,-100,-475,3906,-0.37,0.94,34.74,-1.00,-4.75,39.06,-5.09,1.46,53.47,3.83,-1.62,-16.99
-16,20,629,-159,-376,3907,-0.43,0.97,35.10,-1.59,-3.76,39.07,-5.10,1.49,53.33,3.81,-1.65,-16.84
-12,19,618,-92,-376,3888,-0.46,0.99,35.36,-0.92,-3.76,38.88,-5.12,1.50,53.19,3.75,-1.64,-16.78
-9,15,561,-12,-305,3926,-0.47,0.98,35.25,-0.12,-3.05,39.26,-5.11,1.50,53.05,3.68,-1.56,-16.26
-3,18,545,8,-298,3960,-0.44,0.99,35.05,0.08,-2.98,39.60,-5.10,1.50,52.91,3.55,-1.63,-16.08
10,17,521,-19,-256,3913,-0.34,1.00,34.72,-0.19,-2.56,39.13,-5.08,1.50,52.78,3.24,-1.61,-15.80
2,8,534,39,-309,3926,-0.29,0.95,34.50,0.39,-3.09,39.26,-5.07,1.50,52.64,3.39,-1.41,-15.86
-13,13,519,141,-397,3931,-0.34,0.93,34.22,1.41,-3.97,39.31,-5.07,1.50,52.50,3.71,-1.51,-15.66
-8,0,528,120,-415,3920,-0.36,0.84,34.02,1.20,-4.15,39.20,-5.08,1.50,52.37,3.61,-1.22,-15.69
-17,-10,562,66,-396,3934,-0.42,0.69,34.05,0.66,-3.96,39.34,-5.08,1.49,52.23,3.81,-0.97,-15.97
-4,2,571,16,-443,3898,-0.41,0.64,34.12,0.16,-4.43,38.98,-5.09,1.49,52.10,3.55,-1.20,-16.05
-2,9,590,24,-418,3900,-0.38,0.63,34.31,0.24,-4.18,39.00,-5.10,1.49,51.96,3.51,-1.34,-16.23
-11,7,595,-30,-403,3907,-0.41,0.61,34.51,-0.30,-4.03,39.07,-5.11,1.49,51.82,3.70,-1.29,-16.30
-5,15,621,-54,-389,3968,-0.40,0.64,34.85,-0.54,-3.89,39.68,-5.11,1.49,51.69,3.59,-1.46,-16.57
-11,9,619,-50,-388,3902,-0.42,0.63,35.14,-0.50,-3.88,39.02,-5.12,1.49,51.55,3.72,-1.34,-16.60
-13,3,568,-31,-375,3941,-0.46,0.58,35.09,-0.31,-3.75,39.41,-5.13,1.49,51.41,3.77,-1.20,-16.14
-5,13,543,-53,-398,3946,-0.45,0.61,34.89,-0.53,-3.98,39.46,-5.14,1.49,51.27,3.61,-1.41,-15.88
6,19,524,-127,-332,3920,-0.36,0.66,34.60,-1.27,-3.32,39.20,-5.12,1.52,51.13,3.36,-1.57,-15.65
-5,0,517,-54,-403,3892,-0.36,0.59,34.29,-0.54,-4.03,38.92,-5.13,1.52,50.99,3.59,-1.17,-15.52
-4,14,521,16,-380,3939,-0.35,0.62,34.04,0.16,-3.80,39.39,-5.14,1.52,50.86,3.57,-1.46,-15.50
2,8,519,-39,-374,3946,-0.30,0.61,33.80,-0.39,-3.74,39.46,-5.14,1.52,50.72,3.43,-1.33,-15.42
1,8,523,-42,-434,3942,-0.26,0.60,33.61,-0.42,-4.34,39.42,-5.15,1.52,50.59,3.45,-1.33,-15.41
-7,9,530,-72,-364,3896,-0.28,0.59,33.48,-0.72,-3.64,38.96,-5.15,1.52,50.46,3.62,-1.35,-15.43
-8,3,539,-80,-343,3956,-0.30,0.55,33.42,-0.80,-3.43,39.56,-5.14,1.52,50.32,3.64,-1.21,-15.48
-7,-4,533,-85,-327,3930,-0.31,0.47,33.33,-0.85,-3.27,39.30,-5.13,1.52,50.19,3.61,-1.05,-15.40
-19,-9,520,-139,-237,3894,-0.40,0.37,33.17,-1.39,-2.37,38.94,-5.11,1.54,50.06,3.87,-0.93,-15.25
-2,4,495,-119,-270,3949,-0.37,0.36,32.87,-1.19,-2.70,39.49,-5.09,1.55,49.93,3.50,-1.20,-14.97
4,5,406,-166,-184,3885,-0.31,0.35,32.06,-1.66,-1.84,38.85,-5.07,1.57,49.80,3.35,-1.24,-14.05
1,2,396,-152,-214,3921,-0.27,0.33,31.27,-1.52,-2.14,39.21,-5.05,1.59,49.67,3.39,-1.18,-13.80
3,21,435,-36,-305,3970,-0.23,0.42,30.80,-0.36,-3.05,39.70,-5.04,1.59,49.55,3.32,-1.59,-14.03
6,20,452,-74,-308,3920,-0.17,0.50,30.48,-0.74,-3.08,39.20,-5.02,1.59,49.43,3.24,-1.59,-14.10
-3,20,504,-89,-388,3956,-0.17,0.57,30.50,-0.89,-3.88,39.56,-5.03,1.59,49.31,3.43,-1.61,-14.54
-4,14,504,-80,-351,3993,-0.18,0.60,30.53,-0.80,-3.51,39.93,-5.03,1.59,49.19,3.45,-1.50,-14.53
-14,4,467,-60,-388,3950,-0.24,0.57,30.32,-0.60,-3.88,39.50,-5.04,1.59,49.07,3.68,-1.28,-14.17
-7,7,444,-90,-378,3966,-0.26,0.55,30.00,-0.90,-3.78,39.66,-5.05,1.59,48.95,3.55,-1.34,-13.90
-9,-2,409,-91,-459,3905,-0.29,0.49,29.49,-0.91,-4.59,39.05,-5.07,1.60,48.83,3.61,-1.15,-13.50
-6,4,410,-97,-428,3910,-0.30,0.46,29.05,-0.97,-4.28,39.10,-5.08,1.61,48.72,3.56,-1.27,-13.41
-15,-2,384,-70,-508,3899,-0.36,0.40,28.48,-0.70,-5.08,38.99,-5.10,1.61,48.60,3.77,-1.13,-13.07
-5,3,366,-83,-494,3921,-0.35,0.38,27.87,-0.83,-4.94,39.21,-5.12,1.62,48.49,3.58,-1.24,-12.79
-3,5,357,-54,-441,3915,-0.34,0.37,27.26,-0.54,-4.41,39.15,-5.13,1.62,48.38,3.54,-1.27,-12.59
-7,4,363,-43,-371,3911,-0.35,0.36,26.75,-0.43,-3.71,39.11,-5.13,1.62,48.28,3.62,-1.25,-12.53
6,11,406,-95,-417,3959,-0.28,0.39,26.55,-0.95,-4.17,39.59,-5.15,1.62,48.17,3.35,-1.40,-12.85
-12,-6,401,-25,-364,3906,-0.32,0.32,26.34,-0.25,-3.64,39.06,-5.15,1.61,48.07,3.73,-1.03,-12.76
-4,1,432,-47,-261,3891,-0.31,0.29,26.34,-0.47,-2.61,38.91,-5.13,1.62,47.96,3.55,-1.17,-13.01
-6,1,492,-23,-342,3916,-0.32,0.27,26.71,-0.23,-3.42,39.16,-5.13,1.61,47.86,3.59,-1.15,-13.58
-3,14,570,-148,-429,3918,-0.30,0.33,27.51,-1.48,-4.29,39.18,-5.14,1.63,47.75,3.54,-1.45,-14.38
6,12,588,-130,-351,3926,-0.24,0.37,28.35,-1.30,-3.51,39.26,-5.14,1.66,47.63,3.33,-1.44,-14.69
-12,18,656,-97,-466,3927,-0.29,0.44,29.52,-0.97,-4.66,39.27,-5.16,1.67,47.52,3.72,-1.59,-15.48
-9,8,678,-72,-426,3978,-0.31,0.44,30.70,-0.72,-4.26,39.78,-5.17,1.67,47.40,3.68,-1.39,-15.88
-21,9,707,-148,-376,3867,-0.41,0.45,31.94,-1.48,-3.76,38.67,-5.18,1.70,47.27,3.96,-1.43,-16.35
-6,6,712,-76,-394,3989,-0.41,0.45,33.09,-0.76,-3.94,39.89,-5.19,1.70,47.14,3.66,-1.36,-16.60
-27,6,686,-110,-291,3917,-0.53,0.44,33.97,-1.10,-2.91,39.17,-5.17,1.71,47.00,4.10,-1.37,-16.53
-9,4,664,-140,-336,3933,-0.53,0.42,34.62,-1.40,-3.36,39.33,-5.15,1.74,46.86,3.73,-1.34,-16.46
-25,-2,630,5,-355,3883,-0.63,0.36,35.00,0.05,-3.55,38.83,-5.15,1.73,46.72,4.08,-1.20,-16.23
-9,-4,640,8,-423,3960,-0.62,0.30,35.41,0.08,-4.23,39.60,-5.16,1.73,46.58,3.76,-1.14,-16.38
-7,3,728,-26,-420,3904,-0.60,0.29,36.31,-0.26,-4.20,39.04,-5.17,1.73,46.44,3.72,-1.28,-17.29
-5,11,753,-33,-529,3922,-0.57,0.33,37.27,-0.33,-5.29,39.22,-5.18,1.74,46.29,3.68,-1.46,-17.67
-9,20,799,-179,-367,3941,-0.57,0.42,38.42,-1.79,-3.67,39.41,-5.18,1.77,46.14,3.76,-1.69,-18.26
5,31,807,-259,-412,3909,-0.48,0.57,39.50,-2.59,-4.12,39.09,-5.19,1.80,45.98,3.45,-1.97,-18.52
-11,27,749,-302,-402,3929,-0.50,0.67,40.12,-3.02,-4.02,39.29,-5.19,1.84,45.82,3.78,-1.95,-18.14
-4,31,714,-329,-324,3966,-0.48,0.80,40.46,-3.29,-3.24,39.66,-5.18,1.87,45.66,3.63,-2.08,-17.89
-23,11,619,-163,-290,3933,-0.57,0.78,40.19,-1.63,-2.90,39.33,-5.16,1.90,45.50,4.03,-1.69,-17.02
-17,13,597,-140,-346,3916,-0.62,0.78,39.81,-1.40,-3.46,39.16,-5.15,1.93,45.34,3.91,-1.75,-16.75
-4,17,528,-91,-484,3930,-0.58,0.81,39.05,-0.91,-4.84,39.30,-5.16,1.94,45.19,3.65,-1.85,-16.00
-7,19,469,-83,-550,3884,-0.56,0.84,38.01,-0.83,-5.50,38.84,-5.18,1.95,45.04,3.71,-1.91,-15.29
1,16,377,190,-396,3970,-0.50,0.86,36.51,1.90,-3.96,39.70,-5.17,1.95,44.89,3.53,-1.85,-14.21
-6,12,361,195,-405,3926,-0.49,0.85,35.06,1.95,-4.05,39.26,-5.17,1.95,44.75,3.67,-1.76,-13.79
-13,8,394,150,-338,3951,-0.52,0.81,33.96,1.50,-3.38,39.51,-5.17,1.95,44.62,3.82,-1.67,-13.84
-16,0,399,106,-276,3880,-0.56,0.73,32.99,1.06,-2.76,38.80,-5.16,1.95,44.49,3.89,-1.48,-13.69
7,10,409,-54,-204,3966,-0.46,0.72,32.19,-0.54,-2.04,39.66,-5.14,1.95,44.36,3.38,-1.69,-13.61
-11,-5,421,-37,-210,3888,-0.49,0.61,31.54,-0.37,-2.10,38.88,-5.13,1.96,44.23,3.74,-1.36,-13.57
-4,12,483,-40,-179,3900,-0.46,0.63,31.33,-0.40,-1.79,39.00,-5.11,1.96,44.11,3.58,-1.71,-14.05
15,25,525,-148,-228,3932,-0.32,0.72,31.40,-1.48,-2.28,39.32,-5.09,1.98,43.98,3.14,-2.01,-14.41
4,14,580,-98,-339,3945,-0.27,0.73,31.80,-0.98,-3.39,39.45,-5.08,1.97,43.85,3.34,-1.79,-14.94
8,22,575,-175,-344,3900,-0.19,0.79,32.13,-1.75,-3.44,39.00,-5.07,2.01,43.73,3.24,-1.99,-14.95
-12,8,512,-11,-465,3987,-0.25,0.76,32.04,-0.11,-4.65,39.87,-5.08,2.01,43.60,3.67,-1.69,-14.38
-13,-1,500,-11,-447,3911,-0.30,0.68,31.88,-0.11,-4.47,39.11,-5.09,2.01,43.47,3.71,-1.49,-14.24
-10,5,516,-45,-395,3883,-0.33,0.64,31.84,-0.45,-3.95,38.83,-5.10,2.00,43.35,3.66,-1.60,-14.36
0,13,533,-83,-360,3915,-0.30,0.66,31.91,-0.83,-3.60,39.15,-5.10,2.00,43.22,3.44,-1.76,-14.50
-5,13,543,-156,-336,3914,-0.30,0.67,32.03,-1.56,-3.36,39.14,-5.08,2.03,43.09,3.54,-1.79,-14.60
-5,13,517,-140,-356,3885,-0.30,0.68,31.98,-1.40,-3.56,38.85,-5.10,2.05,42.96,3.55,-1.80,-14.36
8,16,505,-89,-374,3924,-0.22,0.71,31.86,-0.89,-3.74,39.24,-5.10,2.04,42.84,3.26,-1.87,-14.22
-3,9,535,-57,-376,3946,-0.22,0.70,31.94,-0.57,-3.76,39.46,-5.10,2.04,42.71,3.49,-1.72,-14.48
-6,19,673,44,-364,3879,-0.23,0.74,32.85,0.44,-3.64,38.79,-5.10,2.04,42.58,3.55,-1.93,-15.81
-4,13,714,91,-418,3920,-0.23,0.75,33.92,0.91,-4.18,39.20,-5.10,2.03,42.45,3.51,-1.81,-16.35
-2,5,588,-82,-401,3960,-0.22,0.70,34.12,-0.82,-4.01,39.60,-5.11,2.03,42.31,3.47,-1.64,-15.31
-18,-8,526,-82,-410,3944,-0.31,0.58,33.91,-0.82,-4.10,39.44,-5.12,2.04,42.18,3.83,-1.34,-14.73
-10,-6,358,-153,-322,3925,-0.34,0.49,32.71,-1.53,-3.22,39.25,-5.10,2.06,42.04,3.66,-1.37,-13.07
1,2,350,-137,-287,3900,-0.30,0.45,31.57,-1.37,-2.87,39.00,-5.08,2.07,41.92,3.41,-1.53,-12.77
-15,3,443,-50,-418,3918,-0.36,0.43,31.12,-0.50,-4.18,39.18,-5.09,2.07,41.79,3.76,-1.54,-13.46
-7,5,483,6,-417,3925,-0.37,0.41,30.95,0.06,-4.17,39.25,-5.09,2.06,41.67,3.60,-1.58,-13.76
-5,13,527,23,-468,3965,-0.36,0.45,31.07,0.23,-4.68,39.65,-5.10,2.06,41.55,3.56,-1.75,-14.14
-6,2,541,15,-507,3925,-0.36,0.42,31.26,0.15,-5.07,39.25,-5.11,2.06,41.42,3.59,-1.51,-14.29
-12,8,618,-63,-499,3911,-0.40,0.43,31.91,-0.63,-4.99,39.11,-5.12,2.06,41.30,3.73,-1.64,-15.05
-13,7,638,-89,-517,3936,-0.44,0.43,32.61,-0.89,-5.17,39.36,-5.13,2.07,41.17,3.77,-1.63,-15.34
-12,13,722,-79,-618,3913,-0.47,0.46,33.75,-0.79,-6.18,39.13,-5.15,2.08,41.04,3.77,-1.76,-16.26
-7,22,744,-52,-612,3929,-0.46,0.55,34.91,-0.52,-6.12,39.29,-5.16,2.09,40.90,3.68,-1.98,-16.66
-10,21,824,72,-606,3961,-0.48,0.62,36.45,0.72,-6.06,39.61,-5.17,2.09,40.75,3.75,-1.98,-17.61
-14,18,839,121,-605,3925,-0.52,0.67,37.92,1.21,-6.05,39.25,-5.18,2.10,40.60,3.85,-1.93,-18.01
-12,14,868,104,-539,3898,-0.54,0.69,39.42,1.04,-5.39,38.98,-5.19,2.10,40.45,3.82,-1.86,-18.53
-15,5,869,87,-476,3950,-0.58,0.65,40.78,0.87,-4.76,39.50,-5.19,2.10,40.28,3.89,-1.67,-18.78
-8,13,816,-24,-361,3931,-0.57,0.66,41.68,-0.24,-3.61,39.31,-5.19,2.10,40.12,3.74,-1.83,-18.49
-22,-3,791,-68,-275,3867,-0.64,0.58,42.34,-0.68,-2.75,38.67,-5.17,2.10,39.95,4.04,-1.49,-18.39
-18,2,708,-146,-116,3910,-0.69,0.53,42.42,-1.46,-1.16,39.10,-5.15,2.12,39.78,3.96,-1.59,-17.69
-11,1,694,-106,-119,3889,-0.69,0.49,42.42,-1.06,-1.19,38.89,-5.13,2.14,39.61,3.80,-1.56,-17.55
-2,2,671,-99,-232,3889,-0.63,0.45,42.27,-0.99,-2.32,38.89,-5.11,2.15,39.44,3.59,-1.58,-17.31
1,3,641,-138,-399,3951,-0.56,0.42,41.95,-1.38,-3.99,39.51,-5.12,2.16,39.27,3.52,-1.60,-16.98
-2,-6,484,-146,-553,3827,-0.52,0.34,40.71,-1.46,-5.53,38.27,-5.14,2.17,39.11,3.57,-1.41,-15.40
1,0,447,-135,-476,3900,-0.46,0.31,39.36,-1.35,-4.76,39.00,-5.15,2.19,38.96,3.51,-1.53,-14.82
-7,-2,402,-97,-366,3982,-0.46,0.27,37.88,-0.97,-3.66,39.82,-5.15,2.18,38.81,3.67,-1.47,-14.14
2,5,410,-59,-464,3930,-0.40,0.27,36.59,-0.59,-4.64,39.30,-5.16,2.19,38.66,3.47,-1.62,-13.95
6,9,409,-109,-363,3958,-0.32,0.30,35.43,-1.09,-3.63,39.58,-5.16,2.18,38.52,3.37,-1.70,-13.70
-12,10,407,-89,-380,3954,-0.36,0.33,34.37,-0.89,-3.80,39.54,-5.16,2.18,38.38,3.75,-1.73,-13.47
-13,11,399,-107,-454,3954,-0.41,0.36,33.37,-1.07,-4.54,39.54,-5.18,2.18,38.25,3.79,-1.76,-13.20
-16,0,377,-117,-453,3947,-0.46,0.33,32.33,-1.17,-4.53,39.47,-5.19,2.19,38.12,3.88,-1.54,-12.80
-13,16,336,-144,-292,3873,-0.50,0.39,31.15,-1.44,-2.92,38.73,-5.17,2.20,38.00,3.81,-1.89,-12.22
-10,14,330,-180,-343,3895,-0.51,0.44,30.04,-1.80,-3.43,38.95,-5.16,2.23,37.88,3.75,-1.88,-11.95
10,26,359,-250,-315,3912,-0.40,0.55,29.23,-2.50,-3.15,39.12,-5.15,2.26,37.76,3.30,-2.17,-12.03
6,25,371,-174,-323,3887,-0.32,0.65,28.57,-1.74,-3.23,38.87,-5.13,2.29,37.65,3.35,-2.19,-11.99
7,37,394,-135,-319,3925,-0.24,0.81,28.12,-1.35,-3.19,39.25,-5.11,2.29,37.53,3.30,-2.48,-12.09
18,16,399,-269,-368,3964,-0.11,0.83,27.74,-2.69,-3.68,39.64,-5.11,2.32,37.42,3.04,-2.08,-12.05
3,23,303,-145,-322,3982,-0.08,0.89,26.81,-1.45,-3.22,39.82,-5.09,2.33,37.32,3.32,-2.24,-11.05
-7,7,301,-101,-327,3898,-0.12,0.84,25.97,-1.01,-3.27,38.98,-5.08,2.32,37.21,3.53,-1.90,-10.86
-8,9,303,-85,-331,3938,-0.15,0.81,25.22,-0.85,-3.31,39.38,-5.07,2.32,37.11,3.55,-1.93,-10.73
-7,7,338,-18,-321,3934,-0.18,0.77,24.76,-0.18,-3.21,39.34,-5.07,2.31,37.01,3.54,-1.88,-10.93
-2,16,441,-23,-471,3899,-0.17,0.79,24.97,-0.23,-4.71,38.99,-5.08,2.31,36.92,3.44,-2.06,-11.83
-2,20,445,-80,-537,3879,-0.17,0.84,25.19,-0.80,-5.37,38.79,-5.09,2.31,36.82,3.45,-2.16,-11.90
1,20,431,-66,-532,3941,-0.15,0.87,25.30,-0.66,-5.32,39.41,-5.10,2.32,36.72,3.39,-2.17,-11.79
2,22,403,-92,-490,3909,-0.12,0.92,25.23,-0.92,-4.90,39.09,-5.12,2.32,36.62,3.37,-2.23,-11.53
-2,4,318,-56,-382,3869,-0.12,0.85,24.65,-0.56,-3.82,38.69,-5.12,2.32,36.52,3.45,-1.84,-10.69
3,17,312,-49,-394,3932,-0.09,0.87,24.08,-0.49,-3.94,39.32,-5.12,2.31,36.42,3.34,-2.11,-10.52
5,15,341,-87,-259,3954,-0.05,0.88,23.76,-0.87,-2.59,39.54,-5.10,2.31,36.33,3.28,-2.07,-10.70
0,17,356,-141,-298,3921,-0.05,0.89,23.55,-1.41,-2.98,39.21,-5.08,2.32,36.23,3.37,-2.12,-10.78
4,4,420,-78,-510,3982,-0.02,0.83,23.76,-0.78,-5.10,39.82,-5.09,2.32,36.14,3.29,-1.84,-11.35
-4,1,422,-30,-439,3981,-0.04,0.75,23.96,-0.30,-4.39,39.81,-5.10,2.32,36.05,3.46,-1.75,-11.40
-6,-1,408,-56,-498,3939,-0.07,0.67,24.05,-0.56,-4.98,39.39,-5.11,2.32,35.95,3.52,-1.69,-11.29
-6,6,409,-61,-381,3899,-0.10,0.64,24.14,-0.61,-3.81,38.99,-5.11,2.31,35.85,3.52,-1.82,-11.31
-7,8,416,-90,-399,3806,-0.13,0.62,24.26,-0.90,-3.99,38.06,-5.12,2.31,35.76,3.56,-1.86,-11.38
1,1,406,-90,-379,3963,-0.11,0.57,24.31,-0.90,-3.79,39.63,-5.13,2.30,35.66,3.39,-1.70,-11.30
-2,2,368,-184,-464,3910,-0.11,0.52,24.13,-1.84,-4.64,39.10,-5.14,2.32,35.57,3.46,-1.71,-10.93
6,6,351,-239,-494,3888,-0.07,0.51,23.86,-2.39,-4.94,38.88,-5.15,2.34,35.47,3.30,-1.80,-10.73
-6,-4,245,-17,-365,3960,-0.10,0.43,22.96,-0.17,-3.65,39.60,-5.15,2.33,35.38,3.55,-1.57,-9.65
11,-4,224,33,-291,4049,-0.02,0.36,22.03,0.33,-2.91,40.49,-5.14,2.32,35.29,3.17,-1.55,-9.29
-13,2,230,25,-387,3889,-0.10,0.34,21.23,0.25,-3.87,38.89,-5.14,2.31,35.21,3.68,-1.66,-9.18
-10,4,243,-115,-395,3918,-0.15,0.33,20.59,-1.15,-3.95,39.18,-5.15,2.31,35.13,3.64,-1.69,-9.16
5,14,284,-234,-451,3945,-0.10,0.38,20.27,-2.34,-4.51,39.45,-5.16,2.33,35.05,3.33,-1.93,-9.43
1,8,288,-184,-449,3831,-0.09,0.39,20.00,-1.84,-4.49,38.31,-5.18,2.34,34.97,3.42,-1.82,-9.41
6,8,331,-112,-485,4034,-0.04,0.40,20.02,-1.12,-4.85,40.34,-5.19,2.34,34.89,3.32,-1.82,-9.77
5,9,339,-129,-520,3921,-0.01,0.42,20.08,-1.29,-5.20,39.21,-5.21,2.35,34.81,3.34,-1.85,-9.84
-4,-3,388,-88,-412,3898,-0.03,0.36,20.44,-0.88,-4.12,38.98,-5.21,2.34,34.73,3.53,-1.58,-10.32
2,-3,382,-149,-414,3961,-0.02,0.30,20.73,-1.49,-4.14,39.61,-5.23,2.35,34.65,3.41,-1.57,-10.32
-10,12,376,-22,-239,4080,-0.07,0.35,20.95,-0.22,-2.39,40.80,-5.21,2.34,34.56,3.66,-1.88,-10.30
13,20,397,-96,-334,3963,0.01,0.43,21.27,-0.96,-3.34,39.63,-5.20,2.33,34.48,3.17,-2.07,-10.53
13,30,448,-277,-470,3862,0.09,0.57,21.88,-2.77,-4.70,38.62,-5.21,2.36,34.39,3.15,-2.32,-11.07
21,27,451,-246,-507,3958,0.21,0.68,22.44,-2.46,-5.07,39.58,-5.22,2.38,34.30,2.96,-2.30,-11.20
15,31,436,-74,-517,3730,0.28,0.80,22.86,-0.74,-5.17,37.30,-5.23,2.38,34.21,3.07,-2.42,-11.14
-31,-5,454,-21,-450,4022,0.06,0.69,23.34,-0.21,-4.50,40.22,-5.24,2.38,34.12,4.07,-1.66,-11.38
-33,-6,468,-82,-447,3932,-0.14,0.59,23.86,-0.82,-4.47,39.32,-5.25,2.37,34.03,4.17,-1.61,-11.59
-23,-11,463,-97,-293,3933,-0.27,0.46,24.30,-0.97,-2.93,39.33,-5.23,2.37,33.93,3.99,-1.47,-11.62
-13,2,454,-166,-372,3937,-0.32,0.43,24.64,-1.66,-3.72,39.37,-5.25,2.39,33.83,3.82,-1.73,-11.60
-6,7,460,-192,-454,3863,-0.33,0.43,24.98,-1.92,-4.54,38.63,-5.26,2.40,33.73,3.68,-1.84,-11.71
4,27,496,-185,-352,3950,-0.27,0.55,25.51,-1.85,-3.52,39.50,-5.25,2.43,33.63,3.46,-2.30,-12.10
13,31,533,-205,-331,3902,-0.16,0.68,26.21,-2.05,-3.31,39.02,-5.23,2.46,33.53,3.24,-2.44,-12.54
38,47,614,-119,-437,3899,0.08,0.90,27.33,-1.19,-4.37,38.99,-5.25,2.46,33.42,2.67,-2.83,-13.43
24,42,624,61,-399,4037,0.22,1.07,28.41,0.61,-3.99,40.37,-5.24,2.46,33.31,2.91,-2.77,-13.71
15,33,568,12,-345,3863,0.29,1.16,29.03,0.12,-3.45,38.63,-5.23,2.45,33.19,3.07,-2.61,-13.35
15,27,576,82,-278,3955,0.35,1.21,29.64,0.82,-2.78,39.55,-5.22,2.45,33.07,3.05,-2.50,-13.52
20,44,637,-16,-384,3856,0.44,1.36,30.56,-0.16,-3.84,38.56,-5.22,2.45,32.95,2.92,-2.88,-14.20
35,49,665,41,-308,3958,0.61,1.52,31.56,0.41,-3.08,39.58,-5.21,2.45,32.83,2.56,-3.03,-14.62
60,90,794,5,-348,3907,0.91,1.92,33.25,0.05,-3.48,39.07,-5.20,2.45,32.69,1.96,-3.97,-16.02
70,93,828,-54,-360,3833,1.25,2.29,34.98,-0.54,-3.60,38.33,-5.19,2.46,32.56,1.66,-4.14,-16.63
92,105,956,43,-257,4018,1.69,2.70,37.31,0.43,-2.57,40.18,-5.17,2.46,32.41,1.08,-4.50,-18.15
96,105,986,21,-324,3881,2.10,3.07,39.59,0.21,-3.24,38.81,-5.15,2.47,32.25,0.87,-4.61,-18.82
7,44,1047,-104,-475,3834,1.94,3.04,42.02,-1.04,-4.75,38.34,-5.15,2.49,32.08,2.73,-3.37,-19.79
13,44,1034,-54,-420,3970,1.82,3.00,44.13,-0.54,-4.20,39.70,-5.14,2.50,31.91,2.63,-3.36,-20.00
0,52,982,-26,-392,3867,1.64,3.02,45.70,-0.26,-3.92,38.67,-5.13,2.51,31.73,2.94,-3.54,-19.91
9,30,971,-43,-497,3921,1.53,2.90,47.06,-0.43,-4.97,39.21,-5.13,2.53,31.54,2.79,-3.07,-20.00
-9,27,879,-6,-466,3938,1.32,2.77,47.71,-0.06,-4.66,39.38,-5.13,2.54,31.35,3.21,-2.98,-19.39
-2,46,860,-164,-465,3944,1.18,2.78,48.19,-1.64,-4.65,39.44,-5.14,2.57,31.16,3.11,-3.39,-19.30
0,20,852,-212,-342,3891,1.06,2.62,48.57,-2.12,-3.42,38.91,-5.12,2.62,30.97,3.09,-2.85,-19.29
-9,6,830,-143,-298,3908,0.90,2.40,48.77,-1.43,-2.98,39.08,-5.09,2.63,30.78,3.30,-2.51,-19.12
1,17,792,-212,-579,3852,0.82,2.26,48.73,-2.12,-5.79,38.52,-5.10,2.66,30.58,3.12,-2.72,-18.77
3,3,808,-174,-517,3944,0.75,2.05,48.78,-1.74,-5.17,39.44,-5.10,2.68,30.39,3.10,-2.39,-18.90
3,3,828,-63,-384,3888,0.70,1.87,48.96,-0.63,-3.84,38.88,-5.10,2.69,30.20,3.11,-2.35,-19.09
-4,10,778,-147,-599,4186,0.60,1.74,48.81,-1.47,-5.99,41.86,-5.10,2.71,30.00,3.29,-2.47,-18.62
-1,-15,612,-188,-336,3955,0.54,1.47,47.66,-1.88,-3.36,39.55,-5.07,2.74,29.81,3.22,-1.90,-16.98
-9,-13,542,-95,-235,3851,0.43,1.25,46.20,-0.95,-2.35,38.51,-5.05,2.74,29.63,3.40,-1.89,-16.09
-13,-14,388,-228,-198,3963,0.30,1.04,43.95,-2.28,-1.98,39.63,-5.02,2.77,29.45,3.50,-1.83,-14.34
-5,-18,371,-224,-198,3903,0.24,0.82,41.81,-2.24,-1.98,39.03,-4.99,2.79,29.28,3.33,-1.70,-13.77
-7,-2,385,-246,-382,3966,0.18,0.73,39.98,-2.46,-3.82,39.66,-5.00,2.82,29.13,3.39,-2.02,-13.52
0,-1,422,-148,-381,3943,0.16,0.65,38.56,-1.48,-3.81,39.43,-5.00,2.82,28.97,3.26,-2.02,-13.55
-5,-7,395,47,-267,3925,0.11,0.54,37.11,0.47,-2.67,39.25,-4.99,2.82,28.82,3.36,-1.87,-13.03
-9,-10,346,-15,-351,3935,0.05,0.43,35.51,-0.15,-3.51,39.35,-4.98,2.82,28.68,3.46,-1.77,-12.30
-11,-15,282,-121,-405,3917,-0.03,0.29,33.68,-1.21,-4.05,39.17,-4.99,2.82,28.55,3.52,-1.63,-11.40
-5,-6,286,-202,-452,3995,-0.05,0.23,32.06,-2.02,-4.52,39.95,-5.00,2.83,28.42,3.41,-1.81,-11.11
-2,11,313,-39,-259,3974,-0.06,0.27,30.76,-0.39,-2.59,39.74,-4.98,2.83,28.30,3.35,-2.16,-11.08
10,-1,288,28,-131,4011,0.01,0.24,29.44,0.28,-1.31,40.11,-4.96,2.82,28.18,3.07,-1.91,-10.60
-8,-1,191,-148,-389,3933,-0.04,0.21,27.66,-1.48,-3.89,39.33,-4.97,2.82,28.07,3.46,-1.90,-9.43
-1,1,195,-150,-379,3887,-0.04,0.19,26.09,-1.50,-3.79,38.87,-4.98,2.82,27.97,3.32,-1.93,-9.15
1,5,324,-215,-176,3899,-0.03,0.20,25.45,-2.15,-1.76,38.99,-4.96,2.83,27.87,3.26,-2.03,-10.12
1,13,367,-192,-268,3973,-0.02,0.26,25.15,-1.92,-2.68,39.73,-4.93,2.84,27.77,3.24,-2.21,-10.41
0,13,416,-103,-351,3955,-0.02,0.32,25.17,-1.03,-3.51,39.55,-4.93,2.83,27.67,3.26,-2.22,-10.82
2,21,388,-146,-361,3962,-0.01,0.41,25.02,-1.46,-3.61,39.62,-4.93,2.82,27.57,3.22,-2.40,-10.55
5,21,346,-123,-560,3899,0.02,0.50,24.63,-1.23,-5.60,38.99,-4.95,2.83,27.47,3.16,-2.43,-10.11
-1,15,345,-29,-499,3948,0.02,0.54,24.27,-0.29,-4.99,39.48,-4.95,2.83,27.37,3.29,-2.32,-10.02
1,14,287,24,-573,3912,0.02,0.57,23.59,0.24,-5.73,39.12,-4.96,2.82,27.28,3.25,-2.30,-9.40
-3,10,278,-6,-561,3900,-0.00,0.58,22.93,-0.06,-5.61,39.00,-4.97,2.82,27.19,3.34,-2.22,-9.18
-7,-4,272,36,-398,3951,-0.04,0.49,22.30,0.36,-3.98,39.51,-4.97,2.81,27.10,3.43,-1.91,-9.00
-10,-10,259,25,-301,3930,-0.10,0.38,21.65,0.25,-3.01,39.30,-4.96,2.80,27.01,3.51,-1.75,-8.76
4,-3,271,-20,-268,3886,-0.07,0.33,21.13,-0.20,-2.68,38.86,-4.95,2.80,26.93,3.21,-1.87,-8.76
0,-3,296,-27,-261,3896,-0.06,0.28,20.83,-0.27,-2.61,38.96,-4.94,2.79,26.85,3.28,-1.85,-8.90
1,8,402,-31,-294,3854,-0.05,0.30,21.20,-0.31,-2.94,38.54,-4.93,2.78,26.76,3.25,-2.08,-9.87
-7,7,393,-69,-369,3908,-0.08,0.31,21.47,-0.69,-3.69,39.08,-4.93,2.77,26.68,3.42,-2.05,-9.83
-13,25,354,-325,-666,4088,-0.16,0.43,21.49,-3.25,-6.66,40.88,-4.95,2.79,26.59,3.57,-2.46,-9.50
-4,-6,302,-205,-526,3698,-0.16,0.35,21.18,-2.05,-5.26,36.98,-4.96,2.80,26.51,3.40,-1.82,-8.99
6,13,242,-52,-418,4003,-0.11,0.40,20.54,-0.52,-4.18,40.03,-4.97,2.79,26.43,3.19,-2.21,-8.35
7,17,252,-24,-525,3885,-0.06,0.46,20.02,-0.24,-5.25,38.85,-4.98,2.78,26.35,3.16,-2.31,-8.33
-5,11,311,3,-529,3926,-0.08,0.48,19.92,0.03,-5.29,39.26,-4.99,2.78,26.27,3.41,-2.19,-8.81
-1,20,326,27,-514,3989,-0.08,0.56,19.91,0.27,-5.14,39.89,-4.99,2.77,26.19,3.34,-2.39,-8.92
-3,12,289,78,-421,3925,-0.09,0.57,19.68,0.78,-4.21,39.25,-5.00,2.77,26.11,3.38,-2.23,-8.56
-2,13,236,38,-417,3870,-0.09,0.59,19.16,0.38,-4.17,38.70,-5.00,2.76,26.04,3.36,-2.25,-8.00
20,55,324,23,-603,3913,0.04,0.87,19.22,0.23,-6.03,39.13,-5.01,2.76,25.96,2.89,-3.18,-8.75
0,19,394,169,-430,3824,0.03,0.90,19.70,1.69,-4.30,38.24,-5.01,2.75,25.88,3.30,-2.45,-9.43
-3,51,567,-97,-661,3845,0.01,1.12,21.19,-0.97,-6.61,38.45,-5.02,2.76,25.80,3.37,-3.16,-11.17
0,15,559,15,-507,3950,0.01,1.10,22.48,0.15,-5.07,39.50,-5.03,2.75,25.71,3.32,-2.42,-11.35
5,34,551,-232,-701,3913,0.04,1.20,23.59,-2.32,-7.01,39.13,-5.04,2.77,25.62,3.22,-2.85,-11.48
0,48,561,-301,-797,4020,0.04,1.37,24.65,-3.01,-7.97,40.20,-5.06,2.79,25.52,3.33,-3.19,-11.76
-2,18,532,-98,-367,4029,0.02,1.34,25.43,-0.98,-3.67,40.29,-5.05,2.78,25.42,3.37,-2.57,-11.66
-6,11,493,-87,-283,4003,-0.02,1.28,25.90,-0.87,-2.83,40.03,-5.04,2.78,25.32,3.45,-2.41,-11.40
-7,-10,421,-80,-294,3909,-0.06,1.09,25.88,-0.80,-2.94,39.09,-5.03,2.78,25.21,3.48,-1.93,-10.78
-16,-3,413,-97,-300,3927,-0.15,0.96,25.81,-0.97,-3.00,39.27,-5.01,2.78,25.11,3.68,-2.03,-10.69
-19,5,448,-203,-341,3929,-0.25,0.89,25.96,-2.03,-3.41,39.29,-5.00,2.81,25.01,3.76,-2.20,-11.01
-7,-12,461,-179,-359,3933,-0.27,0.73,26.18,-1.79,-3.59,39.33,-5.01,2.81,24.90,3.52,-1.81,-11.15
-5,-18,439,-294,-369,4011,-0.27,0.55,26.24,-2.94,-3.69,40.11,-5.01,2.83,24.80,3.48,-1.65,-10.97
-6,-23,392,-207,-401,3890,-0.28,0.35,26.00,-2.07,-4.01,38.90,-5.03,2.85,24.70,3.52,-1.51,-10.51
-3,-38,362,-80,-402,4008,-0.27,0.09,25.61,-0.80,-4.02,40.08,-5.03,2.84,24.59,3.45,-1.13,-10.18
-12,-33,350,-118,-456,3868,-0.32,-0.12,25.19,-1.18,-4.56,38.68,-5.04,2.84,24.49,3.66,-1.17,-9.98
-19,25,413,-329,-917,4352,-0.40,0.04,25.19,-3.29,-9.17,43.52,-5.05,2.85,24.39,3.83,-2.40,-10.51
33,2,436,37,-649,3701,-0.16,0.05,25.33,0.37,-6.49,37.01,-5.07,2.85,24.29,2.72,-1.94,-10.72
-28,-26,356,76,-127,4074,-0.32,-0.11,24.97,0.76,-1.27,40.74,-5.05,2.85,24.19,3.99,-1.32,-9.96
-13,-30,360,1,-224,3915,-0.36,-0.29,24.67,0.01,-2.24,39.15,-5.04,2.84,24.09,3.69,-1.18,-9.93
-12,-24,425,-185,-271,3855,-0.40,-0.40,24.79,-1.85,-2.71,38.55,-5.02,2.84,23.99,3.66,-1.28,-10.50
-8,-28,427,-113,-189,3965,-0.41,-0.53,24.92,-1.13,-1.89,39.65,-5.00,2.84,23.89,3.57,-1.16,-10.53
-26,-14,410,-91,-183,3679,-0.53,-0.57,24.93,-0.91,-1.83,36.79,-4.98,2.84,23.79,3.96,-1.43,-10.38
-12,-24,415,-109,-172,3985,-0.55,-0.66,24.97,-1.09,-1.72,39.85,-4.96,2.83,23.69,3.67,-1.20,-10.42
-10,-4,559,-45,-533,3807,-0.55,-0.61,25.88,-0.45,-5.33,38.07,-4.97,2.83,23.59,3.64,-1.62,-11.80
-8,-3,576,38,-463,3986,-0.55,-0.57,26.80,0.38,-4.63,39.86,-4.98,2.82,23.48,3.60,-1.65,-12.12
-3,1,546,-126,-639,3833,-0.51,-0.51,27.45,-1.26,-6.39,38.33,-4.99,2.82,23.38,3.49,-1.75,-11.98
2,3,550,-154,-613,3917,-0.45,-0.44,28.06,-1.54,-6.13,39.17,-5.00,2.83,23.26,3.38,-1.81,-12.12
-13,-2,599,-7,-316,4022,-0.48,-0.41,28.91,-0.07,-3.16,40.22,-5.00,2.82,23.15,3.69,-1.71,-12.68
-5,12,597,-28,-369,3928,-0.46,-0.29,29.66,-0.28,-3.69,39.28,-5.00,2.81,23.03,3.53,-2.02,-12.80
-8,11,510,-284,-287,3535,-0.47,-0.20,29.81,-2.84,-2.87,35.35,-4.99,2.84,22.91,3.58,-2.04,-12.08
-19,-1,511,-133,-23,3906,-0.54,-0.18,29.94,-1.33,-0.23,39.06,-4.97,2.85,22.79,3.81,-1.81,-12.10
35,48,399,-729,-228,3680,-0.27,0.13,29.38,-7.29,-2.28,36.80,-4.96,2.87,22.67,2.63,-2.91,-11.04
20,44,504,-543,-698,3941,-0.12,0.38,29.52,-5.43,-6.98,39.41,-4.97,2.90,22.56,2.90,-2.91,-11.94
5,4,389,236,-561,4140,-0.08,0.37,28.94,2.36,-5.61,41.40,-4.97,2.89,22.44,3.20,-2.09,-10.85
-15,-5,335,141,-679,3841,-0.16,0.30,28.09,1.41,-6.79,38.41,-4.98,2.89,22.33,3.63,-1.89,-10.22
-5,4,372,-77,-629,3920,-0.18,0.30,27.55,-0.77,-6.29,39.20,-4.99,2.90,22.22,3.44,-2.07,-10.42
-4,7,396,-29,-636,3822,-0.18,0.31,27.21,-0.29,-6.36,38.22,-5.00,2.90,22.11,3.43,-2.14,-10.55
-2,16,427,49,-569,3844,-0.18,0.38,27.09,0.49,-5.69,38.44,-5.01,2.89,22.01,3.39,-2.34,-10.78
1,20,450,23,-676,3782,-0.15,0.46,27.13,0.23,-6.76,37.82,-5.02,2.90,21.90,3.33,-2.44,-10.97
-13,-5,503,-1,-378,3990,-0.22,0.38,27.48,-0.01,-3.78,39.90,-5.02,2.89,21.79,3.63,-1.91,-11.48
3,-2,490,-110,-374,3979,-0.18,0.33,27.73,-1.10,-3.74,39.79,-5.02,2.88,21.68,3.30,-1.95,-11.40
2,14,471,-164,-523,3724,-0.15,0.39,27.83,-1.64,-5.23,37.24,-5.03,2.89,21.57,3.32,-2.30,-11.25
12,9,453,-19,-398,3940,-0.06,0.40,27.81,-0.19,-3.98,39.40,-5.03,2.89,21.46,3.09,-2.20,-11.08
4,3,386,-94,-444,3969,-0.03,0.38,27.38,-0.94,-4.44,39.69,-5.04,2.88,21.35,3.25,-2.07,-10.42
-2,3,360,-17,-495,3955,-0.04,0.36,26.84,-0.17,-4.95,39.55,-5.04,2.88,21.24,3.38,-2.06,-10.09
-8,14,366,-47,-368,3884,-0.08,0.41,26.39,-0.47,-3.68,38.84,-5.04,2.87,21.14,3.51,-2.29,-10.05
-3,16,369,-24,-473,3930,-0.09,0.47,26.00,-0.24,-4.73,39.30,-5.05,2.87,21.04,3.42,-2.35,-9.99
7,41,344,-41,-441,3877,-0.04,0.67,25.50,-0.41,-4.41,38.77,-5.05,2.86,20.93,3.20,-2.91,-9.67
8,52,318,7,-477,3856,0.01,0.92,24.89,0.07,-4.77,38.56,-5.06,2.86,20.84,3.17,-3.20,-9.33
0,33,209,-69,-628,4001,0.01,1.03,23.67,-0.69,-6.28,40.01,-5.07,2.87,20.74,3.34,-2.84,-8.16
16,18,174,-33,-527,3933,0.11,1.04,22.37,-0.33,-5.27,39.33,-5.08,2.87,20.65,3.00,-2.54,-7.61
5,15,140,232,-663,3905,0.13,1.02,20.99,2.32,-6.63,39.05,-5.08,2.86,20.57,3.22,-2.47,-7.05
4,21,210,-47,-684,3972,0.14,1.05,20.17,-0.47,-6.84,39.72,-5.10,2.87,20.49,3.24,-2.60,-7.48
-5,27,456,-193,-440,3931,0.09,1.11,20.93,-1.93,-4.40,39.31,-5.11,2.88,20.41,3.45,-2.75,-9.70
7,46,475,-218,-347,4079,0.13,1.28,21.74,-2.18,-3.47,40.79,-5.09,2.90,20.32,3.18,-3.20,-10.01
1,28,464,-316,-186,3911,0.12,1.32,22.39,-3.16,-1.86,39.11,-5.07,2.92,20.23,3.29,-2.86,-10.03
-19,27,453,-305,-14,3999,-0.01,1.35,22.92,-3.05,-0.14,39.99,-5.05,2.94,20.14,3.72,-2.86,-10.03
17,35,425,-297,-71,3816,0.10,1.43,23.22,-2.97,-0.71,38.16,-5.02,2.96,20.05,2.94,-3.06,-9.84
14,31,430,-255,-203,3964,0.17,1.48,23.52,-2.55,-2.03,39.64,-5.00,2.98,19.95,2.97,-3.00,-9.93
11,15,371,-372,-449,3824,0.22,1.42,23.43,-3.72,-4.49,38.24,-5.01,3.01,19.86,3.02,-2.68,-9.41
-1,31,355,-207,-436,3931,0.19,1.47,23.25,-2.07,-4.36,39.31,-5.02,3.03,19.77,3.28,-3.03,-9.23
-2,16,275,43,-402,3851,0.16,1.42,22.61,0.43,-4.02,38.51,-5.02,3.02,19.68,3.31,-2.71,-8.42
0,-1,283,27,-415,3928,0.15,1.27,22.07,0.27,-4.15,39.28,-5.02,3.02,19.59,3.27,-2.32,-8.38
-4,-1,296,-44,-389,3954,0.11,1.14,21.67,-0.44,-3.89,39.54,-5.02,3.01,19.51,3.36,-2.28,-8.40
-7,1,312,-62,-372,3892,0.05,1.03,21.41,-0.62,-3.72,38.92,-5.02,3.00,19.42,3.44,-2.28,-8.48
-1,2,400,-46,-550,3802,0.04,0.94,21.71,-0.46,-5.50,38.02,-5.03,3.01,19.34,3.33,-2.28,-9.28
-12,1,409,-133,-501,3895,-0.03,0.85,22.03,-1.33,-5.01,38.95,-5.04,3.01,19.25,3.58,-2.24,-9.41
12,23,461,-125,-399,3922,0.04,0.91,22.64,-1.25,-3.99,39.22,-5.04,3.01,19.16,3.07,-2.70,-9.96
9,10,470,-192,-369,3973,0.09,0.88,23.24,-1.92,-3.69,39.73,-5.05,3.00,19.07,3.13,-2.43,-10.14
-14,-4,364,-288,-318,3877,-0.00,0.77,23.14,-2.88,-3.18,38.77,-5.04,3.03,18.98,3.61,-2.13,-9.21
4,3,361,-249,-294,4008,0.02,0.71,23.03,-2.49,-2.94,40.08,-5.02,3.05,18.88,3.23,-2.27,-9.16
-14,1,286,-98,-759,3852,-0.07,0.64,22.47,-0.98,-7.59,38.52,-5.03,3.06,18.80,3.63,-2.21,-8.41
-18,-8,284,23,-830,3834,-0.17,0.53,21.95,0.23,-8.30,38.34,-5.05,3.06,18.71,3.74,-2.00,-8.29
-16,-11,264,-16,-609,3716,-0.25,0.41,21.37,-0.16,-6.09,37.16,-5.06,3.06,18.63,3.73,-1.91,-8.00
3,-17,289,-28,-515,3891,-0.21,0.26,20.99,-0.28,-5.15,38.91,-5.07,3.06,18.54,3.34,-1.74,-8.13
-13,-22,351,-114,-194,3948,-0.26,0.10,21.04,-1.14,-1.94,39.48,-5.05,3.05,18.46,3.67,-1.60,-8.66
-9,7,311,-145,-96,3947,-0.29,0.14,20.83,-1.45,-0.96,39.47,-5.03,3.06,18.37,3.58,-2.20,-8.27
10,16,268,-101,-447,3982,-0.20,0.22,20.38,-1.01,-4.47,39.82,-5.04,3.05,18.29,3.18,-2.40,-7.81
7,26,263,-22,-589,3714,-0.14,0.36,19.95,-0.22,-5.89,37.14,-5.05,3.05,18.21,3.23,-2.64,-7.68
18,3,270,-67,-702,4145,-0.02,0.34,19.60,-0.67,-7.02,41.45,-5.06,3.05,18.14,2.98,-2.17,-7.67
-7,-1,275,-145,-490,3805,-0.06,0.30,19.32,-1.45,-4.90,38.05,-5.07,3.05,18.06,3.51,-2.07,-7.65
-1,-3,234,-312,-416,4050,-0.06,0.25,18.81,-3.12,-4.16,40.50,-5.08,3.07,17.99,3.39,-2.04,-7.20
-23,2,205,-316,-343,3829,-0.19,0.24,18.18,-3.16,-3.43,38.29,-5.08,3.10,17.91,3.87,-2.15,-6.82
0,-3,137,-108,-112,4084,-0.17,0.20,17.20,-1.08,-1.12,40.84,-5.06,3.10,17.84,3.38,-2.04,-6.05
2,31,98,-223,-147,3955,-0.14,0.37,16.08,-2.23,-1.47,39.55,-5.04,3.11,17.78,3.32,-2.78,-5.50
14,22,117,-113,-220,3966,-0.04,0.46,15.18,-1.13,-2.20,39.66,-5.02,3.10,17.72,3.04,-2.62,-5.49
8,27,104,-121,-356,3832,0.01,0.58,14.30,-1.21,-3.56,38.32,-5.02,3.09,17.66,3.15,-2.75,-5.20
8,10,91,36,-533,3940,0.06,0.58,13.42,0.36,-5.33,39.40,-5.03,3.08,17.61,3.14,-2.40,-4.92
5,18,105,113,-420,3980,0.08,0.64,12.72,1.13,-4.20,39.80,-5.03,3.07,17.56,3.19,-2.57,-4.90
6,11,165,-20,-477,3961,0.11,0.64,12.46,-0.20,-4.77,39.61,-5.03,3.07,17.51,3.17,-2.42,-5.35
0,13,155,-69,-510,3817,0.10,0.65,12.16,-0.69,-5.10,38.17,-5.05,3.06,17.46,3.30,-2.46,-5.21
0,9,116,-178,-494,3942,0.09,0.64,11.65,-1.78,-4.94,39.42,-5.06,3.06,17.42,3.32,-2.38,-4.78
-2,3,115,-74,-260,3913,0.07,0.60,11.19,-0.74,-2.60,39.13,-5.05,3.05,17.37,3.35,-2.24,-4.68
3,3,96,40,-165,3929,0.08,0.56,10.65,0.40,-1.65,39.29,-5.04,3.05,17.33,3.24,-2.22,-4.41
0,0,121,-8,-299,3870,0.07,0.50,10.33,-0.08,-2.99,38.70,-5.03,3.03,17.29,3.30,-2.14,-4.55
1,-6,117,-52,-218,3904,0.07,0.41,10.01,-0.52,-2.18,39.04,-5.02,3.02,17.25,3.27,-1.99,-4.46
-2,-5,91,-110,-251,3833,0.05,0.34,9.56,-1.10,-2.51,38.33,-5.00,3.02,17.21,3.33,-1.98,-4.15
9,7,62,-174,-310,3888,0.10,0.35,8.98,-1.74,-3.10,38.88,-4.99,3.01,17.17,3.08,-2.22,-3.79
7,9,44,-112,-393,3945,0.13,0.37,8.35,-1.12,-3.93,39.45,-4.99,3.00,17.14,3.12,-2.26,-3.51
2,-2,61,-29,-569,3941,0.13,0.32,7.89,-0.29,-5.69,39.41,-5.00,2.99,17.11,3.23,-2.02,-3.56
0,-13,78,-63,-543,3975,0.12,0.21,7.58,-0.63,-5.43,39.75,-5.02,2.98,17.08,3.28,-1.76,-3.65
1,9,135,86,-269,4010,0.11,0.24,7.64,0.86,-2.69,40.10,-5.01,2.97,17.05,3.26,-2.21,-4.14
-5,-1,166,-172,-317,3926,0.07,0.21,7.89,-1.72,-3.17,39.26,-5.00,2.96,17.02,3.38,-1.99,-4.45
-4,28,129,-219,-198,3924,0.04,0.36,7.89,-2.19,-1.98,39.24,-4.98,2.96,16.98,3.35,-2.62,-4.13
-7,28,87,-277,-266,3849,-0.01,0.50,7.63,-2.77,-2.66,38.49,-4.96,2.98,16.95,3.42,-2.67,-3.72
11,4,84,-150,-572,3752,0.06,0.47,7.38,-1.50,-5.72,37.52,-4.98,2.98,16.93,3.05,-2.18,-3.65
17,4,107,-135,-730,3765,0.16,0.45,7.29,-1.35,-7.30,37.65,-4.99,2.98,16.90,2.91,-2.17,-3.82
-12,-13,115,-41,-368,4101,0.07,0.32,7.27,-0.41,-3.68,41.01,-4.99,2.97,16.87,3.52,-1.78,-3.88
4,-9,74,-97,-268,4126,0.09,0.24,6.99,-0.97,-2.68,41.26,-4.98,2.96,16.84,3.18,-1.83,-3.48
7,14,121,-107,-425,3942,0.12,0.30,7.03,-1.07,-4.25,39.42,-4.99,2.95,16.81,3.12,-2.31,-3.88
-3,18,154,-58,-460,3933,0.09,0.38,7.27,-0.58,-4.60,39.33,-5.00,2.94,16.78,3.34,-2.41,-4.20
-3,-15,244,87,-374,4038,0.06,0.25,8.03,0.87,-3.74,40.38,-5.00,2.92,16.75,3.34,-1.69,-5.11
-20,38,209,-132,-348,3960,-0.07,0.46,8.50,-1.32,-3.48,39.60,-5.00,2.91,16.72,3.72,-2.82,-4.90
15,42,348,-150,-452,3852,0.03,0.67,9.77,-1.50,-4.52,38.52,-5.01,2.91,16.68,2.99,-2.95,-6.32
22,33,344,-128,-478,3886,0.16,0.80,10.89,-1.28,-4.78,38.86,-5.03,2.91,16.64,2.83,-2.81,-6.49
-14,-66,228,-145,-428,3856,0.06,0.32,11.20,-1.45,-4.28,38.56,-5.04,2.90,16.60,3.59,-0.66,-5.56
-25,-76,184,-180,-350,3859,-0.10,-0.18,11.20,-1.80,-3.50,38.59,-5.05,2.89,16.55,3.87,-0.31,-5.19
-20,-51,122,-184,-193,3909,-0.21,-0.47,10.82,-1.84,-1.93,39.09,-5.03,2.89,16.51,3.78,-0.74,-4.59
-26,-53,105,-252,-112,4080,-0.35,-0.75,10.38,-2.52,-1.12,40.80,-5.01,2.89,16.46,3.93,-0.63,-4.36
-10,-39,24,-262,-249,3976,-0.37,-0.91,9.49,-2.62,-2.49,39.76,-4.99,2.90,16.43,3.60,-0.88,-3.50
-9,-28,28,-148,-373,3843,-0.39,-0.99,8.71,-1.48,-3.73,38.43,-5.00,2.89,16.39,3.59,-1.07,-3.38
1,-14,111,-29,-581,3901,-0.35,-0.98,8.52,-0.29,-5.81,39.01,-5.02,2.88,16.36,3.39,-1.35,-4.04
0,-16,163,-80,-499,3916,-0.31,-0.98,8.66,-0.80,-4.99,39.16,-5.03,2.86,16.32,3.41,-1.30,-4.51
-7,-12,231,9,-657,4077,-0.32,-0.95,9.20,0.09,-6.57,40.77,-5.05,2.85,16.29,3.56,-1.38,-5.18
-7,-9,224,-77,-591,3966,-0.33,-0.91,9.65,-0.77,-5.91,39.66,-5.06,2.84,16.25,3.57,-1.45,-5.20
20,38,207,20,-718,3939,-0.18,-0.59,9.95,0.20,-7.18,39.39,-5.08,2.84,16.21,2.99,-2.48,-5.11
13,38,222,2,-696,3885,-0.08,-0.30,10.31,0.02,-6.96,38.85,-5.09,2.83,16.17,3.12,-2.56,-5.31
10,-4,179,-235,-223,3982,-0.01,-0.29,10.37,-2.35,-2.23,39.82,-5.07,2.84,16.13,3.15,-1.71,-4.95
-11,-5,106,-339,-233,3820,-0.08,-0.29,9.98,-3.39,-2.33,38.20,-5.06,2.85,16.09,3.58,-1.70,-4.25
4,13,12,-262,-53,3889,-0.05,-0.18,9.05,-2.62,-0.53,38.89,-5.04,2.86,16.05,3.26,-2.10,-3.28
8,14,20,-293,-211,3927,0.01,-0.08,8.27,-2.93,-2.11,39.27,-5.02,2.87,16.02,3.15,-2.16,-3.19
16,31,-10,-82,-413,3941,0.10,0.12,7.38,-0.82,-4.13,39.41,-5.03,2.86,15.99,2.97,-2.55,-2.76
15,36,-7,130,-442,4020,0.19,0.32,6.60,1.30,-4.42,40.20,-5.03,2.85,15.96,2.97,-2.70,-2.64
9,18,12,-136,-469,3923,0.22,0.40,6.01,-1.36,-4.69,39.23,-5.05,2.84,15.94,3.09,-2.35,-2.69
4,20,27,-119,-418,3891,0.22,0.48,5.58,-1.19,-4.18,38.91,-5.06,2.83,15.92,3.20,-2.41,-2.73
-16,16,64,-4,-393,3948,0.10,0.53,5.41,-0.04,-3.93,39.48,-5.06,2.82,15.89,3.64,-2.33,-3.01
-8,16,63,-69,-433,3936,0.05,0.58,5.25,-0.69,-4.33,39.36,-5.07,2.81,15.87,3.50,-2.34,-2.97
-8,26,25,41,-406,3930,-0.01,0.68,4.88,0.41,-4.06,39.30,-5.07,2.80,15.86,3.51,-2.56,-2.57
-13,25,36,9,-316,3933,-0.09,0.76,4.61,0.09,-3.16,39.33,-5.07,2.78,15.84,3.63,-2.55,-2.61
3,33,40,-103,-393,3885,-0.06,0.89,4.39,-1.03,-3.93,38.85,-5.08,2.77,15.82,3.31,-2.74,-2.60
8,29,35,-41,-452,3844,-0.00,0.98,4.17,-0.41,-4.52,38.44,-5.09,2.76,15.80,3.20,-2.68,-2.52
-8,-21,55,65,-574,3792,-0.05,0.75,4.09,0.65,-5.74,37.92,-5.10,2.75,15.79,3.54,-1.59,-2.67
-11,-59,86,35,-499,3858,-0.12,0.32,4.20,0.35,-4.99,38.58,-5.11,2.74,15.77,3.63,-0.70,-2.95
-8,-70,111,99,-330,3938,-0.15,-0.14,4.46,0.99,-3.30,39.38,-5.11,2.72,15.76,3.58,-0.34,-3.21
0,-48,135,105,-290,4092,-0.14,-0.42,4.84,1.05,-2.90,40.92,-5.10,2.71,15.74,3.41,-0.70,-3.48
4,-11,158,-134,-536,3830,-0.10,-0.45,5.32,-1.34,-5.36,38.30,-5.12,2.70,15.72,3.33,-1.44,-3.77
-3,0,175,-189,-517,3901,-0.11,-0.40,5.85,-1.89,-5.17,39.01,-5.14,2.70,15.69,3.48,-1.67,-4.01
0,-7,199,-144,-336,4044,-0.10,-0.40,6.48,-1.44,-3.36,40.44,-5.13,2.69,15.67,3.41,-1.52,-4.33
-3,-18,222,-80,-380,4000,-0.11,-0.47,7.19,-0.80,-3.80,40.00,-5.13,2.67,15.64,3.48,-1.27,-4.66
-9,-17,227,-108,-202,4033,-0.15,-0.53,7.85,-1.08,-2.02,40.33,-5.11,2.66,15.61,3.60,-1.27,-4.83
-11,-21,211,-116,-277,3945,-0.20,-0.61,8.36,-1.16,-2.77,39.45,-5.10,2.65,15.57,3.64,-1.16,-4.79
-10,-18,161,-339,-279,3869,-0.24,-0.65,8.50,-3.39,-2.79,38.69,-5.09,2.67,15.54,3.63,-1.22,-4.39
6,-15,130,-253,-252,3875,-0.18,-0.68,8.44,-2.53,-2.52,38.75,-5.08,2.68,15.50,3.28,-1.28,-4.11
-7,-28,92,-189,-441,3936,-0.21,-0.78,8.16,-1.89,-4.41,39.36,-5.09,2.68,15.47,3.56,-0.99,-3.73
0,-30,84,-180,-403,3952,-0.19,-0.89,7.86,-1.80,-4.03,39.52,-5.11,2.68,15.44,3.42,-0.92,-3.60
-1,-30,55,-128,-366,3958,-0.17,-0.98,7.41,-1.28,-3.66,39.58,-5.12,2.66,15.41,3.44,-0.88,-3.27
0,-29,50,-137,-373,3961,-0.16,-1.06,6.97,-1.37,-3.73,39.61,-5.12,2.64,15.38,3.42,-0.86,-3.14
10,10,94,-158,-331,3993,-0.08,-0.89,6.85,-1.58,-3.31,39.93,-5.11,2.63,15.35,3.19,-1.69,-3.49
9,14,110,-135,-342,3996,-0.02,-0.72,6.83,-1.35,-3.42,39.96,-5.10,2.61,15.33,3.19,-1.81,-3.62
8,20,135,-172,-440,3947,0.03,-0.53,6.97,-1.72,-4.40,39.47,-5.12,2.61,15.30,3.21,-1.98,-3.85
12,24,150,-175,-532,3859,0.10,-0.33,7.19,-1.75,-5.32,38.59,-5.13,2.61,15.27,3.12,-2.12,-4.02
4,5,123,-26,-679,3903,0.12,-0.26,7.22,-0.26,-6.79,39.03,-5.15,2.60,15.24,3.28,-1.75,-3.79
2,-1,114,-167,-631,3908,0.12,-0.24,7.20,-1.67,-6.31,39.08,-5.17,2.60,15.21,3.34,-1.63,-3.71
-8,-3,97,-158,-491,3985,0.06,-0.24,7.07,-1.58,-4.91,39.85,-5.18,2.60,15.19,3.57,-1.59,-3.54
6,10,89,-36,-406,4021,0.09,-0.15,6.90,-0.36,-4.06,40.21,-5.19,2.58,15.16,3.28,-1.87,-3.44
-1,4,68,-21,-276,4010,0.07,-0.11,6.63,-0.21,-2.76,40.10,-5.17,2.57,15.13,3.42,-1.75,-3.20
1,5,63,11,-306,3960,0.07,-0.07,6.35,0.11,-3.06,39.60,-5.17,2.55,15.11,3.37,-1.77,-3.11
-2,2,39,-82,-491,3886,0.05,-0.05,5.95,-0.82,-4.91,38.86,-5.18,2.55,15.08,3.45,-1.71,-2.83
0,0,28,-169,-602,3797,0.05,-0.05,5.53,-1.69,-6.02,37.97,-5.20,2.55,15.06,3.42,-1.67,-2.65
-9,-21,1,-137,-400,3947,-0.01,-0.17,4.98,-1.37,-4.00,39.47,-5.21,2.54,15.04,3.63,-1.20,-2.31
-7,-20,1,-91,-296,3953,-0.05,-0.27,4.49,-0.91,-2.96,39.53,-5.20,2.52,15.02,3.59,-1.18,-2.22
0,1,-16,-40,-332,3924,-0.05,-0.24,3.94,-0.40,-3.32,39.24,-5.20,2.50,15.01,3.44,-1.61,-1.97
-5,-3,-8,83,-383,3957,-0.07,-0.24,3.50,0.83,-3.83,39.57,-5.20,2.49,14.99,3.55,-1.52,-1.95
-25,-31,7,-19,-341,3915,-0.22,-0.40,3.19,-0.19,-3.41,39.15,-5.20,2.47,14.98,4.00,-0.89,-2.02
-40,-48,3,-6,-335,3874,-0.44,-0.65,2.89,-0.06,-3.35,38.74,-5.20,2.45,14.97,4.36,-0.46,-1.93
-54,-52,-3,-105,-426,3889,-0.73,-0.91,2.58,-1.05,-4.26,38.89,-5.21,2.43,14.96,4.74,-0.30,-1.81
-55,-49,-5,-59,-415,3911,-0.99,-1.11,2.30,-0.59,-4.15,39.11,-5.22,2.41,14.95,4.84,-0.29,-1.74
-58,-92,15,-52,-466,3909,-1.24,-1.56,2.16,-0.52,-4.66,39.09,-5.24,2.40,14.94,4.98,0.72,-1.88
-70,-101,12,-63,-486,3870,-1.55,-2.02,2.01,-0.63,-4.86,38.70,-5.26,2.38,14.93,5.32,1.04,-1.83
-111,-150,9,44,-573,3942,-2.07,-2.74,1.87,0.44,-5.73,39.42,-5.28,2.35,14.93,6.31,2.24,-1.78
-110,-142,11,-4,-550,3935,-2.53,-3.33,1.75,-0.04,-5.50,39.35,-5.31,2.33,14.92,6.43,2.26,-1.77
-23,-20,-47,-56,-611,4020,-2.42,-3.12,1.29,-0.56,-6.11,40.20,-5.33,2.31,14.91,4.65,-0.27,-1.19
-3,2,-4,-4,-612,3892,-2.20,-2.79,1.13,-0.04,-6.12,38.92,-5.36,2.29,14.91,4.20,-0.79,-1.52
-41,-28,21,-145,-326,3926,-2.23,-2.69,1.15,-1.45,-3.26,39.26,-5.35,2.27,14.90,4.97,-0.20,-1.74
-47,-25,19,-147,-353,3883,-2.29,-2.57,1.15,-1.47,-3.53,38.83,-5.34,2.25,14.90,5.11,-0.28,-1.72
-35,-14,-18,-143,-268,3916,-2.28,-2.40,0.92,-1.43,-2.68,39.16,-5.33,2.24,14.89,4.85,-0.54,-1.36
-28,-12,-20,-155,-258,3890,-2.22,-2.23,0.71,-1.55,-2.58,38.90,-5.32,2.23,14.89,4.69,-0.62,-1.31
-6,-11,-14,-90,-360,3918,-2.03,-2.08,0.55,-0.90,-3.60,39.18,-5.33,2.21,14.88,4.19,-0.67,-1.33
-5,-11,-9,-71,-378,3897,-1.86,-1.93,0.44,-0.71,-3.78,38.97,-5.34,2.18,14.88,4.13,-0.69,-1.35
0,-15,-41,-269,-459,3877,-1.67,-1.83,0.15,-2.69,-4.59,38.77,-5.36,2.19,14.88,3.99,-0.64,-1.02
4,-15,-60,-228,-433,3946,-1.48,-1.74,-0.23,-2.28,-4.33,39.46,-5.38,2.20,14.88,3.87,-0.67,-0.79
1,-2,-111,-175,-444,3978,-1.33,-1.58,-0.89,-1.75,-4.44,39.78,-5.40,2.19,14.88,3.91,-0.98,-0.23
-4,3,-128,-193,-490,3948,-1.22,-1.40,-1.58,-1.93,-4.90,39.48,-5.42,2.19,14.89,3.99,-1.13,0.05
-11,16,-122,17,-533,3924,-1.16,-1.16,-2.16,0.17,-5.33,39.24,-5.44,2.18,14.90,4.13,-1.44,0.11
-2,16,-108,66,-426,4000,-1.06,-0.95,-2.61,0.66,-4.26,40.00,-5.45,2.15,14.91,3.92,-1.49,0.07
7,27,-39,101,-468,3876,-0.91,-0.69,-2.58,1.01,-4.68,38.76,-5.46,2.13,14.92,3.71,-1.77,-0.52
2,16,-39,46,-477,3835,-0.81,-0.52,-2.56,0.46,-4.77,38.35,-5.47,2.11,14.93,3.79,-1.58,-0.52
5,-2,-23,31,-453,3860,-0.70,-0.48,-2.45,0.31,-4.53,38.60,-5.48,2.09,14.94,3.71,-1.21,-0.68
2,-2,-22,-4,-461,3897,-0.62,-0.45,-2.34,-0.04,-4.61,38.97,-5.49,2.08,14.95,3.75,-1.21,-0.71
11,5,-20,-74,-480,3947,-0.49,-0.37,-2.23,-0.74,-4.80,39.47,-5.51,2.06,14.96,3.55,-1.36,-0.75
19,21,-19,-93,-459,3966,-0.32,-0.21,-2.12,-0.93,-4.59,39.66,-5.53,2.05,14.97,3.35,-1.72,-0.78
26,30,-29,-2,-512,3911,-0.13,-0.00,-2.08,-0.02,-5.12,39.11,-5.54,2.04,14.98,3.16,-1.95,-0.70
18,18,-29,-76,-434,3924,-0.01,0.11,-2.05,-0.76,-4.34,39.24,-5.55,2.02,14.98,3.30,-1.73,-0.71
-5,-4,-45,-10,-421,3928,-0.04,0.07,-2.12,-0.10,-4.21,39.28,-5.56,2.00,14.99,3.78,-1.26,-0.56
-11,-16,-51,-5,-464,3854,-0.10,-0.03,-2.22,-0.05,-4.64,38.54,-5.57,1.99,15.00,3.93,-0.98,-0.49
-29,-38,-75,-12,-363,4016,-0.27,-0.26,-2.46,-0.12,-3.63,40.16,-5.57,1.97,15.01,4.34,-0.45,-0.25
-6,-6,-59,-5,-358,3999,-0.28,-0.27,-2.57,-0.05,-3.58,39.99,-5.57,1.95,15.02,3.87,-1.09,-0.36
2,2,-45,-126,-487,3905,-0.24,-0.23,-2.59,-1.26,-4.87,39.05,-5.58,1.95,15.03,3.71,-1.26,-0.48
11,12,-32,-85,-455,3909,-0.15,-0.14,-2.52,-0.85,-4.55,39.09,-5.60,1.93,15.04,3.51,-1.48,-0.60
14,12,-40,-5,-555,3931,-0.05,-0.05,-2.52,-0.05,-5.55,39.31,-5.62,1.92,15.05,3.43,-1.50,-0.54
11,9,-40,6,-547,3947,0.02,0.01,-2.51,0.06,-5.47,39.47,-5.63,1.91,15.06,3.49,-1.45,-0.54
6,7,-23,-93,-429,3908,0.06,0.05,-2.40,-0.93,-4.29,39.08,-5.64,1.90,15.07,3.59,-1.41,-0.70
-1,0,-28,-15,-422,3929,0.05,0.05,-2.33,-0.15,-4.22,39.29,-5.65,1.88,15.08,3.74,-1.25,-0.68
-19,-17,-20,143,-449,3912,-0.07,-0.06,-2.22,1.43,-4.49,39.12,-5.65,1.86,15.09,4.14,-0.86,-0.77
-15,-7,-3,61,-477,3866,-0.16,-0.10,-2.01,0.61,-4.77,38.66,-5.66,1.84,15.10,4.09,-1.05,-0.95
12,8,70,-159,-400,3976,-0.07,-0.04,-1.39,-1.59,-4.00,39.76,-5.67,1.86,15.11,3.51,-1.38,-1.69
16,13,57,-223,-345,3951,0.04,0.04,-0.90,-2.23,-3.45,39.51,-5.66,1.87,15.11,3.40,-1.51,-1.67
26,23,-4,-183,-457,3950,0.19,0.18,-0.83,-1.83,-4.57,39.50,-5.67,1.89,15.11,3.16,-1.76,-1.17
20,20,-12,-128,-491,3938,0.29,0.28,-0.82,-1.28,-4.91,39.38,-5.69,1.89,15.12,3.27,-1.73,-1.10
5,4,-25,-21,-523,3905,0.29,0.28,-0.89,-0.21,-5.23,39.05,-5.70,1.88,15.12,3.58,-1.40,-0.98
-5,-6,-28,-26,-507,3926,0.23,0.22,-0.98,-0.26,-5.07,39.26,-5.71,1.86,15.13,3.81,-1.17,-0.94
-9,-20,-5,-89,-403,3912,0.16,0.07,-0.91,-0.89,-4.03,39.12,-5.72,1.85,15.13,3.92,-0.83,-1.15
-14,-19,8,-153,-387,3937,0.06,-0.05,-0.77,-1.53,-3.87,39.37,-5.71,1.86,15.13,4.04,-0.83,-1.28
7,16,28,-153,-514,3947,0.09,0.05,-0.52,-1.53,-5.14,39.47,-5.73,1.87,15.14,3.62,-1.57,-1.50
15,26,35,-81,-578,3952,0.17,0.20,-0.26,-0.81,-5.78,39.52,-5.75,1.86,15.14,3.44,-1.81,-1.61
16,22,72,59,-632,3845,0.25,0.32,0.21,0.59,-6.32,38.45,-5.76,1.85,15.14,3.41,-1.76,-2.01
2,18,56,4,-721,3883,0.24,0.40,0.53,0.04,-7.21,38.83,-5.78,1.85,15.14,3.71,-1.69,-1.94
-18,-6,27,5,-596,3928,0.11,0.32,0.64,0.05,-5.96,39.28,-5.79,1.84,15.13,4.16,-1.18,-1.71
-15,-7,16,-37,-517,4008,0.01,0.25,0.68,-0.37,-5.17,40.08,-5.81,1.83,15.13,4.14,-1.13,-1.63
-20,-22,-70,-129,-372,3873,-0.12,0.09,0.18,-1.29,-3.72,38.73,-5.79,1.83,15.13,4.26,-0.79,-0.80
-20,-26,-80,-54,-332,3874,-0.23,-0.08,-0.33,-0.54,-3.32,38.74,-5.78,1.82,15.13,4.28,-0.65,-0.62
-19,-21,-92,2,-305,3886,-0.32,-0.20,-0.85,0.02,-3.05,38.86,-5.77,1.80,15.13,4.28,-0.71,-0.42
-14,-23,-92,24,-405,3831,-0.37,-0.32,-1.33,0.24,-4.05,38.31,-5.77,1.78,15.14,4.20,-0.62,-0.33
-2,-35,-123,-139,-337,3856,-0.35,-0.50,-1.95,-1.39,-3.37,38.56,-5.76,1.79,15.15,3.94,-0.33,0.05
1,-27,-111,-120,-356,3874,-0.31,-0.62,-2.43,-1.20,-3.56,38.74,-5.74,1.78,15.16,3.85,-0.46,0.04
1,6,-66,-1,-365,3940,-0.27,-0.52,-2.59,-0.01,-3.65,39.40,-5.74,1.76,15.17,3.84,-1.14,-0.31
4,7,-68,-38,-447,3936,-0.22,-0.42,-2.75,-0.38,-4.47,39.36,-5.75,1.74,15.18,3.77,-1.18,-0.27
8,10,-82,-52,-513,3922,-0.15,-0.32,-2.97,-0.52,-5.13,39.22,-5.77,1.73,15.19,3.68,-1.26,-0.10
1,8,-73,-27,-514,3900,-0.13,-0.24,-3.12,-0.27,-5.14,39.00,-5.78,1.72,15.20,3.83,-1.23,-0.15
-5,-15,-91,118,-472,3955,-0.15,-0.31,-3.36,1.18,-4.72,39.55,-5.79,1.70,15.21,3.96,-0.73,0.04
-8,-19,-102,61,-443,3932,-0.18,-0.39,-3.65,0.61,-4.43,39.32,-5.79,1.68,15.23,4.03,-0.61,0.19
1,-18,-119,-178,-401,3861,-0.16,-0.46,-4.01,-1.78,-4.01,38.61,-5.80,1.69,15.25,3.85,-0.62,0.40
-4,-15,-119,-171,-343,3948,-0.16,-0.51,-4.33,-1.71,-3.43,39.48,-5.78,1.70,15.26,3.94,-0.68,0.46
-1,-18,-168,-142,-239,3987,-0.15,-0.57,-4.93,-1.42,-2.39,39.87,-5.77,1.70,15.28,3.87,-0.60,0.99
7,-15,-215,-109,-263,3885,-0.10,-0.60,-5.74,-1.09,-2.63,38.85,-5.75,1.69,15.30,3.68,-0.65,1.54
1,-21,-197,-156,-473,3907,-0.08,-0.67,-6.37,-1.56,-4.73,39.07,-5.77,1.70,15.33,3.81,-0.51,1.51
-2,-24,-197,-100,-371,3972,-0.08,-0.75,-6.94,-1.00,-3.71,39.72,-5.75,1.68,15.36,3.86,-0.42,1.61
0,-10,-147,-37,-604,3887,-0.08,-0.74,-7.14,-0.37,-6.04,38.87,-5.77,1.67,15.38,3.83,-0.70,1.23
4,-5,-113,6,-499,3915,-0.04,-0.69,-7.11,0.06,-4.99,39.15,-5.78,1.65,15.41,3.75,-0.80,0.93
-2,-12,-390,-111,-397,3850,-0.05,-0.70,-8.78,-1.11,-3.97,38.50,-5.80,1.64,15.45,3.89,-0.65,3.59
9,1,-429,-196,-602,3702,0.01,-0.62,-10.52,-1.96,-6.02,37.02,-5.82,1.64,15.49,3.66,-0.93,4.25
8,-14,-416,164,-510,4029,0.06,-0.64,-12.01,1.64,-5.10,40.29,-5.83,1.62,15.54,3.67,-0.61,4.42
1,-28,-493,291,-476,3987,0.06,-0.75,-13.81,2.91,-4.76,39.87,-5.83,1.59,15.59,3.81,-0.28,5.41
-8,-29,-626,-228,-315,3848,0.00,-0.85,-16.25,-2.28,-3.15,38.48,-5.83,1.60,15.66,4.01,-0.23,7.00
16,-42,-621,-299,-339,3990,0.10,-1.02,-18.41,-2.99,-3.39,39.90,-5.82,1.60,15.73,3.49,0.08,7.36
2,-28,-632,-579,-190,3892,0.10,-1.09,-20.43,-5.79,-1.90,38.92,-5.82,1.61,15.81,3.77,-0.19,7.84
-3,-29,-642,-635,-178,3872,0.07,-1.16,-22.30,-6.35,-1.78,38.72,-5.81,1.61,15.90,3.88,-0.16,8.27
20,8,-631,-291,-451,3879,0.19,-0.99,-23.92,-2.91,-4.51,38.79,-5.82,1.61,15.99,3.38,-0.96,8.48
20,19,-587,23,-568,3879,0.29,-0.78,-25.11,0.23,-5.68,38.79,-5.83,1.59,16.09,3.36,-1.22,8.32
15,40,-390,388,-864,4005,0.35,-0.46,-24.98,3.88,-8.64,40.05,-5.85,1.56,16.19,3.46,-1.72,6.62
12,41,-331,333,-684,3978,0.39,-0.16,-24.50,3.33,-6.84,39.78,-5.86,1.54,16.29,3.52,-1.80,6.02
4,23,-322,7,-762,3906,0.38,-0.01,-24.01,0.07,-7.62,39.06,-5.88,1.52,16.39,3.69,-1.47,5.84
5,-9,-314,33,-572,3993,0.37,-0.06,-23.53,0.33,-5.72,39.93,-5.89,1.50,16.48,3.69,-0.79,5.67
19,-20,-529,-228,-392,4013,0.45,-0.18,-24.40,-2.28,-3.92,40.13,-5.89,1.51,16.58,3.38,-0.54,7.65
-17,-7,-558,-348,-362,3802,0.30,-0.20,-25.36,-3.48,-3.62,38.02,-5.89,1.51,16.68,4.15,-0.80,8.07
6,-28,-641,-69,-286,3949,0.31,-0.35,-26.74,-0.69,-2.86,39.49,-5.87,1.50,16.78,3.67,-0.32,9.03
4,-38,-664,5,-229,4030,0.30,-0.55,-28.11,0.05,-2.29,40.30,-5.86,1.47,16.89,3.70,-0.05,9.48
1,-22,-692,47,-368,3885,0.28,-0.63,-29.52,0.47,-3.68,38.85,-5.86,1.44,17.01,3.77,-0.33,9.97
17,-30,-663,137,-463,3932,0.35,-0.75,-30.62,1.37,-4.63,39.32,-5.86,1.41,17.13,3.43,-0.11,9.93
4,-42,-507,231,-386,3954,0.34,-0.93,-30.65,2.31,-3.86,39.54,-5.86,1.37,17.26,3.70,0.20,8.60
14,-39,-490,153,-301,3903,0.39,-1.07,-30.57,1.53,-3.01,39.03,-5.86,1.34,17.38,3.47,0.20,8.43
12,3,-354,-172,-371,3903,0.43,-0.95,-29.67,-1.72,-3.71,39.03,-5.85,1.34,17.49,3.50,-0.69,7.10
5,18,-328,-115,-301,3938,0.41,-0.74,-28.71,-1.15,-3.01,39.38,-5.84,1.33,17.61,3.64,-1.04,6.68
2,46,-288,-213,-350,3909,0.39,-0.39,-27.59,-2.13,-3.50,39.09,-5.83,1.33,17.72,3.70,-1.71,6.12
8,14,-289,-83,-339,4026,0.40,-0.26,-26.60,-0.83,-3.39,40.26,-5.81,1.32,17.82,3.57,-1.08,5.93
7,-3,-357,-35,-450,3902,0.40,-0.26,-26.11,-0.35,-4.50,39.02,-5.83,1.29,17.93,3.59,-0.72,6.40
-3,15,-369,-73,-496,3825,0.34,-0.14,-25.75,-0.73,-4.96,38.25,-5.84,1.28,18.03,3.83,-1.11,6.43
6,5,-410,7,-462,3855,0.34,-0.09,-25.68,0.07,-4.62,38.55,-5.86,1.25,18.13,3.65,-0.90,6.75
14,-3,-421,-47,-550,3938,0.39,-0.10,-25.68,-0.47,-5.50,39.38,-5.87,1.24,18.23,3.49,-0.73,6.83
9,0,-466,-74,-512,3963,0.41,-0.09,-25.95,-0.74,-5.12,39.63,-5.89,1.23,18.34,3.59,-0.78,7.26
7,7,-459,-72,-565,3904,0.41,-0.04,-26.16,-0.72,-5.65,39.04,-5.91,1.21,18.44,3.65,-0.93,7.23
15,-10,-431,-89,-687,3806,0.46,-0.10,-26.17,-0.89,-6.87,38.06,-5.93,1.20,18.55,3.48,-0.56,6.98
3,-19,-474,-129,-564,3937,0.43,-0.20,-26.45,-1.29,-5.64,39.37,-5.95,1.20,18.65,3.75,-0.35,7.39
18,-38,-633,-333,-193,3944,0.50,-0.42,-27.66,-3.33,-1.93,39.44,-5.94,1.20,18.76,3.42,0.10,8.96
3,-39,-656,-449,18,3954,0.47,-0.61,-28.90,-4.49,0.18,39.54,-5.92,1.19,18.88,3.72,0.17,9.38
18,-24,-800,-679,130,3800,0.53,-0.70,-30.89,-6.79,1.30,38.00,-5.91,1.19,19.00,3.39,-0.11,10.97
13,-32,-822,-696,79,3884,0.56,-0.82,-32.81,-6.96,0.79,38.84,-5.90,1.19,19.13,3.48,0.09,11.51
12,-34,-982,-475,-253,3883,0.58,-0.95,-35.52,-4.75,-2.53,38.83,-5.90,1.19,19.27,3.49,0.16,13.37
17,-26,-1018,-393,-365,3975,0.62,-1.01,-38.18,-3.93,-3.65,39.75,-5.89,1.19,19.42,3.37,0.02,14.17
12,-13,-922,23,-686,3953,0.63,-0.99,-39.99,0.23,-6.86,39.53,-5.91,1.16,19.58,3.48,-0.23,13.69
22,-2,-832,210,-741,3897,0.70,-0.90,-41.06,2.10,-7.41,38.97,-5.93,1.13,19.74,3.27,-0.46,13.12
-1,-7,-479,612,-970,3889,0.63,-0.86,-39.88,6.12,-9.70,38.89,-5.94,1.09,19.90,3.77,-0.35,9.89
5,-26,-408,648,-779,3992,0.59,-0.93,-38.38,6.48,-7.79,39.92,-5.95,1.06,20.05,3.66,0.08,8.99
-12,0,-281,201,-159,3977,0.46,-0.84,-36.26,2.01,-1.59,39.77,-5.93,1.03,20.20,4.03,-0.45,7.49
-15,2,-276,58,-152,3887,0.32,-0.74,-34.31,0.58,-1.52,38.87,-5.92,1.00,20.33,4.12,-0.50,7.07
18,6,-323,-404,-369,3874,0.40,-0.63,-32.85,-4.04,-3.69,38.74,-5.92,1.00,20.46,3.43,-0.61,7.17
7,-3,-354,-415,-465,3712,0.40,-0.58,-31.73,-4.15,-4.65,37.12,-5.92,1.01,20.59,3.66,-0.44,7.21
13,-10,-533,-265,-456,3957,0.44,-0.59,-31.81,-2.65,-4.56,39.57,-5.93,1.01,20.72,3.53,-0.30,8.73
0,-5,-564,-198,-312,3898,0.40,-0.56,-32.07,-1.98,-3.12,38.98,-5.92,1.01,20.84,3.80,-0.41,9.03
19,-3,-606,57,-519,3933,0.47,-0.52,-32.56,0.57,-5.19,39.33,-5.93,0.98,20.97,3.40,-0.44,9.47
-5,-1,-601,-155,-689,3798,0.40,-0.48,-32.97,-1.55,-6.89,37.98,-5.95,0.97,21.11,3.92,-0.49,9.49
3,-17,-603,251,-786,3969,0.38,-0.53,-33.35,2.51,-7.86,39.69,-5.96,0.94,21.24,3.77,-0.13,9.57
2,-13,-546,290,-422,4011,0.35,-0.56,-33.34,2.90,-4.22,40.11,-5.96,0.91,21.37,3.80,-0.18,9.07
2,-2,-397,23,-411,3881,0.33,-0.51,-32.43,0.23,-4.11,38.81,-5.97,0.87,21.50,3.81,-0.39,7.63
-5,-1,-376,-125,-462,3880,0.26,-0.47,-31.48,-1.25,-4.62,38.80,-5.98,0.87,21.62,3.98,-0.43,7.26
-2,4,-346,-105,-365,3879,0.23,-0.40,-30.44,-1.05,-3.65,38.79,-5.97,0.87,21.75,3.92,-0.55,6.79
8,-8,-342,-51,-459,3909,0.25,-0.41,-29.49,-0.51,-4.59,39.09,-5.99,0.85,21.86,3.72,-0.29,6.56
6,-6,-336,57,-655,3842,0.26,-0.40,-28.59,0.57,-6.55,38.42,-6.00,0.83,21.98,3.77,-0.32,6.33
5,-18,-338,55,-742,3905,0.27,-0.47,-27.79,0.55,-7.42,39.05,-6.02,0.81,22.09,3.80,-0.04,6.19
-1,-14,-268,107,-693,3970,0.23,-0.51,-26.65,1.07,-6.93,39.70,-6.04,0.79,22.19,3.94,-0.10,5.37
10,-18,-242,29,-697,3955,0.27,-0.57,-25.46,0.29,-6.97,39.55,-6.05,0.77,22.29,3.72,0.01,4.91
7,-24,-264,69,-478,3997,0.29,-0.66,-24.52,0.69,-4.78,39.97,-6.06,0.74,22.39,3.78,0.18,4.91
-9,-12,-270,-43,-333,3991,0.20,-0.67,-23.72,-0.43,-3.33,39.91,-6.04,0.73,22.49,4.12,-0.05,4.80
-8,-14,-233,-228,-320,3894,0.13,-0.68,-22.77,-2.28,-3.20,38.94,-6.04,0.73,22.58,4.11,-0.01,4.29
-8,-5,-235,-259,-394,3882,0.07,-0.65,-21.92,-2.59,-3.94,38.82,-6.04,0.74,22.66,4.13,-0.21,4.14
-2,1,-190,-243,-602,3881,0.05,-0.58,-20.89,-2.43,-6.02,38.81,-6.05,0.74,22.75,4.02,-0.35,3.55
3,-1,-179,-216,-708,3904,0.07,-0.52,-19.89,-2.16,-7.08,39.04,-6.07,0.74,22.82,3.92,-0.32,3.26
3,-5,-259,-219,-797,3854,0.08,-0.50,-19.48,-2.19,-7.97,38.54,-6.08,0.74,22.90,3.93,-0.25,3.86
5,-17,-303,-214,-763,3887,0.10,-0.56,-19.38,-2.14,-7.63,38.87,-6.10,0.73,22.98,3.90,0.01,4.20
11,-28,-478,-110,-453,3982,0.16,-0.67,-20.36,-1.10,-4.53,39.82,-6.11,0.74,23.06,3.77,0.27,5.87
1,-30,-497,-110,-404,3916,0.15,-0.79,-21.36,-1.10,-4.04,39.16,-6.10,0.74,23.14,3.97,0.33,6.21
-2,-21,-520,-170,-95,3900,0.12,-0.84,-22.39,-1.70,-0.95,39.00,-6.09,0.74,23.23,4.03,0.17,6.59
6,-11,-599,-388,-110,3827,0.15,-0.82,-23.81,-3.88,-1.10,38.27,-6.08,0.74,23.33,3.85,-0.04,7.53
19,-2,-845,-587,220,3895,0.25,-0.75,-26.58,-5.87,2.20,38.95,-6.06,0.74,23.43,3.55,-0.24,10.13
20,-2,-907,-612,273,3934,0.34,-0.69,-29.46,-6.12,2.73,39.34,-6.05,0.73,23.55,3.49,-0.25,11.19
29,13,-1106,-724,357,3867,0.49,-0.54,-33.26,-7.24,3.57,38.67,-6.04,0.73,23.68,3.26,-0.60,13.59
20,2,-1163,-634,231,3896,0.56,-0.47,-37.03,-6.34,2.31,38.96,-6.02,0.72,23.83,3.41,-0.39,14.78
24,-3,-1324,-131,-217,3964,0.65,-0.44,-41.40,-1.31,-2.17,39.64,-6.00,0.71,23.99,3.30,-0.29,16.97
33,-4,-1288,36,-397,3920,0.79,-0.42,-45.12,0.36,-3.97,39.20,-6.00,0.67,24.17,3.07,-0.25,17.36
34,9,-1007,516,-802,3954,0.92,-0.33,-46.75,5.16,-8.02,39.54,-6.01,0.64,24.36,3.02,-0.51,15.27
35,19,-907,526,-949,3946,1.04,-0.18,-47.61,5.26,-9.49,39.46,-6.02,0.60,24.55,2.98,-0.73,14.57
14,5,-613,281,-1083,3905,1.02,-0.13,-46.58,2.81,-10.83,39.05,-6.03,0.57,24.73,3.42,-0.44,11.87
-4,-24,-529,185,-972,3837,0.89,-0.26,-45.15,1.85,-9.72,38.37,-6.05,0.55,24.91,3.83,0.20,10.87
-6,-24,-391,220,-462,4040,0.77,-0.38,-43.02,2.20,-4.62,40.40,-6.05,0.51,25.08,3.91,0.26,9.28
-4,-6,-364,196,-458,3933,0.67,-0.38,-40.94,1.96,-4.58,39.33,-6.05,0.47,25.25,3.89,-0.09,8.64
-7,-12,-332,-148,-417,3868,0.56,-0.42,-38.87,-1.48,-4.17,38.68,-6.05,0.47,25.40,3.98,0.05,7.96
6,-21,-336,-206,-518,3932,0.54,-0.50,-37.03,-2.06,-5.18,39.32,-6.06,0.47,25.55,3.73,0.25,7.63
9,-6,-348,-33,-456,3888,0.54,-0.49,-35.45,-0.33,-4.56,38.88,-6.08,0.45,25.69,3.68,-0.04,7.41
6,1,-342,3,-529,3892,0.52,-0.43,-33.99,0.03,-5.29,38.92,-6.09,0.43,25.82,3.76,-0.19,7.07
-1,-20,-394,215,-432,3894,0.46,-0.51,-33.00,2.15,-4.32,38.94,-6.09,0.40,25.95,3.92,0.28,7.31
-10,-33,-408,224,-439,3944,0.36,-0.66,-32.19,2.24,-4.39,39.44,-6.09,0.36,26.08,4.13,0.61,7.26
-3,-22,-368,43,-469,3891,0.30,-0.73,-31.21,0.43,-4.69,38.91,-6.11,0.33,26.21,4.01,0.43,6.72
-10,-18,-312,179,-423,3912,0.21,-0.77,-30.00,1.79,-4.23,39.12,-6.11,0.30,26.33,4.18,0.38,6.01
-5,-13,-291,-10,-395,3888,0.16,-0.77,-28.77,-0.10,-3.95,38.88,-6.09,0.28,26.44,4.08,0.29,5.58
1,-9,-303,20,-363,4001,0.15,-0.75,-27.74,0.20,-3.63,40.01,-6.07,0.25,26.55,3.95,0.22,5.48
29,-5,-348,-130,-426,3949,0.31,-0.70,-27.09,-1.30,-4.26,39.49,-6.07,0.26,26.66,3.33,0.13,5.73
4,1,-348,-137,-412,3854,0.30,-0.63,-26.50,-1.37,-4.12,38.54,-6.07,0.26,26.76,3.84,-0.02,5.61
2,7,-352,-106,-501,3997,0.29,-0.52,-26.00,-1.06,-5.01,39.97,-6.08,0.26,26.87,3.90,-0.17,5.53
35,-9,-353,-162,-560,3975,0.47,-0.52,-25.55,-1.62,-5.60,39.75,-6.10,0.26,26.97,3.18,0.15,5.45
4,-2,-283,15,-637,3931,0.45,-0.48,-24.73,0.15,-6.37,39.31,-6.11,0.25,27.06,3.83,0.01,4.69
12,4,-293,50,-650,3918,0.48,-0.41,-24.04,0.50,-6.50,39.18,-6.13,0.23,27.16,3.67,-0.12,4.63
8,-2,-331,21,-621,3916,0.48,-0.38,-23.66,0.21,-6.21,39.16,-6.14,0.21,27.25,3.76,0.00,4.87
4,-4,-322,-29,-513,3968,0.45,-0.37,-23.25,-0.29,-5.13,39.68,-6.16,0.21,27.35,3.86,0.05,4.71
-7,-7,-315,-182,-395,3884,0.37,-0.37,-22.85,-1.82,-3.95,38.84,-6.16,0.21,27.44,4.11,0.10,4.57
-7,0,-325,-186,-375,3946,0.29,-0.34,-22.55,-1.86,-3.75,39.46,-6.15,0.22,27.53,4.12,-0.05,4.59
-4,-8,-341,-95,-497,3917,0.23,-0.35,-22.37,-0.95,-4.97,39.17,-6.16,0.22,27.62,4.09,0.11,4.68
-3,0,-332,-88,-654,3909,0.19,-0.32,-22.16,-0.88,-6.54,39.09,-6.18,0.22,27.70,4.09,-0.06,4.55
18,6,-337,-148,-604,3869,0.28,-0.25,-22.00,-1.48,-6.04,38.69,-6.19,0.22,27.79,3.65,-0.20,4.56
24,8,-350,-89,-589,3929,0.40,-0.17,-21.94,-0.89,-5.89,39.29,-6.21,0.21,27.88,3.50,-0.26,4.65
52,42,-398,-227,-600,3914,0.68,0.10,-22.17,-2.27,-6.00,39.14,-6.22,0.22,27.97,2.86,-1.03,5.09
66,53,-418,-278,-580,3919,1.01,0.41,-22.50,-2.78,-5.80,39.19,-6.22,0.23,28.06,2.49,-1.34,5.32
126,142,-479,-409,-502,3975,1.68,1.24,-23.17,-4.09,-5.02,39.75,-6.22,0.24,28.15,1.09,-3.38,5.95
150,146,-545,-294,-602,3885,2.43,2.00,-24.18,-2.94,-6.02,38.85,-6.22,0.25,28.25,0.39,-3.68,6.70
62,84,-748,-204,-399,3848,2.56,2.32,-26.33,-2.04,-3.99,38.48,-6.21,0.27,28.35,2.14,-2.52,8.82
28,36,-703,16,-389,4058,2.48,2.30,-27.98,0.16,-3.89,40.58,-6.19,0.25,28.46,2.84,-1.53,8.74
11,-5,-525,178,-233,4044,2.30,2.04,-28.39,1.78,-2.33,40.44,-6.16,0.24,28.58,3.22,-0.61,7.30
15,-14,-492,90,-232,3958,2.16,1.75,-28.55,0.90,-2.32,39.58,-6.14,0.22,28.69,3.16,-0.34,7.04
1,-6,-446,-158,-328,3846,1.95,1.54,-28.41,-1.58,-3.28,38.46,-6.12,0.23,28.81,3.49,-0.45,6.62
6,-12,-414,-70,-372,3906,1.79,1.31,-28.10,-0.70,-3.72,39.06,-6.10,0.24,28.92,3.42,-0.27,6.27
6,13,-326,-179,-473,3847,1.65,1.26,-27.28,-1.79,-4.73,38.47,-6.10,0.25,29.03,3.46,-0.77,5.36
9,16,-338,-162,-533,3874,1.54,1.23,-26.61,-1.62,-5.33,38.74,-6.11,0.26,29.13,3.43,-0.83,5.33
6,7,-384,0,-610,3883,1.42,1.15,-26.29,0.00,-6.10,38.83,-6.12,0.25,29.24,3.53,-0.62,5.65
3,2,-421,8,-398,3866,1.30,1.05,-26.23,0.08,-3.98,38.66,-6.11,0.23,29.34,3.62,-0.48,5.94
-7,-9,-425,54,-477,4016,1.12,0.89,-26.20,0.54,-4.77,40.16,-6.11,0.21,29.45,3.87,-0.20,5.96
-1,-4,-410,28,-473,3904,1.01,0.78,-26.08,0.28,-4.73,39.04,-6.12,0.19,29.55,3.79,-0.25,5.80
-19,-22,-443,-198,-363,3940,0.79,0.56,-26.18,-1.98,-3.63,39.40,-6.12,0.20,29.66,4.21,0.16,6.09
-5,-21,-441,-185,-416,3960,0.68,0.38,-26.25,-1.85,-4.16,39.60,-6.11,0.20,29.76,3.95,0.19,6.07
6,-22,-417,-160,-254,3897,0.65,0.21,-26.17,-1.60,-2.54,38.97,-6.10,0.21,29.87,3.73,0.25,5.85
13,-22,-428,-79,-236,3970,0.66,0.05,-26.16,-0.79,-2.36,39.70,-6.08,0.20,29.97,3.57,0.30,5.93
7,-10,-472,-400,-261,3919,0.64,-0.01,-26.42,-4.00,-2.61,39.19,-6.07,0.21,30.07,3.69,0.07,6.34
1,-15,-488,-308,-293,3906,0.58,-0.10,-26.76,-3.08,-2.93,39.06,-6.06,0.21,30.18,3.82,0.19,6.53
1,1,-497,-142,-411,3959,0.53,-0.09,-27.11,-1.42,-4.11,39.59,-6.06,0.22,30.29,3.83,-0.14,6.67
3,-5,-444,50,-320,3958,0.49,-0.11,-27.11,0.50,-3.20,39.58,-6.04,0.20,30.40,3.79,0.00,6.21
-3,-2,-428,-55,-406,3900,0.43,-0.11,-27.01,-0.55,-4.06,39.00,-6.04,0.20,30.50,3.93,-0.06,6.04
8,2,-433,-104,-409,3850,0.43,-0.09,-26.95,-1.04,-4.09,38.50,-6.03,0.21,30.61,3.70,-0.16,6.06
3,-9,-474,-217,-352,3892,0.41,-0.13,-27.15,-2.17,-3.52,38.92,-6.03,0.21,30.72,3.81,0.08,6.44
2,3,-475,-251,-355,3930,0.38,-0.10,-27.33,-2.51,-3.55,39.30,-6.02,0.22,30.83,3.83,-0.18,6.47
0,-25,-488,-155,-471,3847,0.34,-0.24,-27.57,-1.55,-4.71,38.47,-6.03,0.22,30.94,3.89,0.43,6.62
0,-16,-489,-170,-419,3998,0.31,-0.32,-27.80,-1.70,-4.19,39.98,-6.03,0.23,31.05,3.89,0.26,6.66
-9,-11,-477,-96,-320,3897,0.22,-0.35,-27.93,-0.96,-3.20,38.97,-6.01,0.23,31.16,4.09,0.17,6.57
-16,-23,-450,-27,-387,3933,0.10,-0.46,-27.88,-0.27,-3.87,39.33,-6.00,0.22,31.27,4.26,0.45,6.33
-1,-2,-337,-6,-398,3959,0.09,-0.42,-27.15,-0.06,-3.98,39.59,-5.98,0.20,31.38,3.94,0.02,5.22
-1,11,-320,-151,-425,3864,0.07,-0.31,-26.39,-1.51,-4.25,38.64,-5.98,0.21,31.48,3.95,-0.27,4.92
0,7,-299,-149,-367,3894,0.06,-0.24,-25.57,-1.49,-3.67,38.94,-5.98,0.21,31.58,3.93,-0.22,4.58
0,6,-308,-111,-400,3905,0.06,-0.18,-24.89,-1.11,-4.00,39.05,-5.98,0.22,31.68,3.93,-0.22,4.52
-1,0,-311,3,-331,3939,0.05,-0.16,-24.30,0.03,-3.31,39.39,-5.96,0.21,31.78,3.94,-0.09,4.42
-3,-9,-298,81,-332,3911,0.02,-0.20,-23.69,0.81,-3.32,39.11,-5.95,0.18,31.87,3.98,0.12,4.18
1,-11,-224,-38,-360,3913,0.03,-0.25,-22.69,-0.38,-3.60,39.13,-5.93,0.18,31.96,3.89,0.17,3.36
6,-7,-217,-103,-335,3960,0.06,-0.27,-21.74,-1.03,-3.35,39.60,-5.92,0.18,32.05,3.77,0.09,3.11
-4,-2,-224,-254,-345,3880,0.03,-0.25,-20.93,-2.54,-3.45,38.80,-5.92,0.19,32.13,3.98,-0.02,3.01
0,-2,-248,-199,-253,3982,0.03,-0.24,-20.35,-1.99,-2.53,39.82,-5.91,0.20,32.21,3.89,-0.02,3.09
-3,-10,-260,-192,-337,3883,0.01,-0.28,-19.90,-1.92,-3.37,38.83,-5.90,0.20,32.29,3.95,0.14,3.10
-6,-8,-291,-186,-329,3945,-0.03,-0.30,-19.69,-1.86,-3.29,39.45,-5.89,0.21,32.37,4.02,0.10,3.31
-7,-5,-347,-205,-309,3904,-0.07,-0.30,-19.84,-2.05,-3.09,39.04,-5.88,0.22,32.45,4.05,0.04,3.81
-2,-15,-345,-194,-311,3946,-0.08,-0.36,-19.96,-1.94,-3.11,39.46,-5.88,0.22,32.53,3.94,0.25,3.81
1,-12,-336,-74,-343,3907,-0.06,-0.40,-20.01,-0.74,-3.43,39.07,-5.86,0.23,32.61,3.87,0.20,3.74
1,-19,-374,-26,-417,3908,-0.05,-0.47,-20.29,-0.26,-4.17,39.08,-5.88,0.23,32.69,3.87,0.36,4.10
13,-23,-464,-259,-300,3970,0.03,-0.57,-21.09,-2.59,-3.00,39.70,-5.87,0.23,32.77,3.60,0.47,5.01
-7,-18,-480,-174,-388,3841,-0.01,-0.62,-21.91,-1.74,-3.88,38.41,-5.87,0.24,32.86,4.02,0.38,5.30
10,-12,-535,-123,-281,3907,0.05,-0.63,-22.98,-1.23,-2.81,39.07,-5.86,0.24,32.95,3.65,0.26,5.96
-7,-6,-521,-189,-367,3907,0.00,-0.60,-23.86,-1.89,-3.67,39.07,-5.86,0.25,33.04,4.01,0.12,6.00
-5,4,-435,-66,-418,3962,-0.03,-0.52,-24.13,-0.66,-4.18,39.62,-5.86,0.25,33.14,3.98,-0.11,5.31
5,7,-381,-70,-450,3939,0.01,-0.42,-24.04,-0.70,-4.50,39.39,-5.87,0.25,33.24,3.77,-0.19,4.83
6,-2,-383,-25,-408,3964,0.04,-0.39,-23.97,-0.25,-4.08,39.64,-5.87,0.26,33.33,3.74,-0.02,4.83
10,-6,-419,-68,-464,3883,0.10,-0.39,-24.13,-0.68,-4.64,38.83,-5.89,0.26,33.43,3.66,0.06,5.15
0,-16,-585,-125,-428,3957,0.09,-0.45,-25.29,-1.25,-4.28,39.57,-5.89,0.27,33.53,3.86,0.27,6.77
-10,-26,-610,-80,-397,3900,0.02,-0.56,-26.48,-0.80,-3.97,39.00,-5.89,0.27,33.63,4.09,0.50,7.20
-32,-32,-671,-13,-369,3892,-0.18,-0.70,-27.92,-0.13,-3.69,38.92,-5.87,0.26,33.74,4.58,0.67,7.98
2,-18,-649,-126,-293,3868,-0.15,-0.74,-29.09,-1.26,-2.93,38.68,-5.86,0.25,33.86,3.87,0.40,8.01
5,3,-493,-25,-149,3941,-0.10,-0.65,-29.19,-0.25,-1.49,39.41,-5.84,0.24,33.97,3.78,-0.04,6.70
10,13,-431,60,-230,3942,-0.03,-0.51,-28.90,0.60,-2.30,39.42,-5.83,0.22,34.09,3.65,-0.27,6.11
3,-1,-404,-79,-310,3909,-0.01,-0.46,-28.47,-0.79,-3.10,39.09,-5.81,0.22,34.20,3.78,0.00,5.79
-9,-5,-429,-126,-285,3946,-0.06,-0.45,-28.24,-1.26,-2.85,39.46,-5.80,0.22,34.31,4.03,0.08,5.94
-19,-25,-504,-178,-387,3864,-0.17,-0.55,-28.49,-1.78,-3.87,38.64,-5.80,0.22,34.43,4.26,0.51,6.62
-5,-37,-533,-108,-389,3933,-0.19,-0.72,-28.90,-1.08,-3.89,39.33,-5.80,0.22,34.54,3.98,0.80,6.93
-16,-30,-578,-102,-420,3934,-0.27,-0.83,-29.53,-1.02,-4.20,39.34,-5.81,0.23,34.66,4.23,0.69,7.42
-16,-25,-594,-165,-462,3860,-0.34,-0.90,-30.20,-1.65,-4.62,38.60,-5.82,0.23,34.78,4.26,0.60,7.67
-15,-34,-675,-129,-285,3948,-0.39,-1.02,-31.30,-1.29,-2.85,39.48,-5.81,0.22,34.90,4.24,0.82,8.56
-24,-35,-685,25,-291,3917,-0.50,-1.13,-32.35,0.25,-2.91,39.17,-5.79,0.20,35.03,4.45,0.89,8.83
-36,-49,-765,-39,-374,3963,-0.67,-1.32,-33.78,-0.39,-3.74,39.63,-5.78,0.19,35.17,4.73,1.23,9.77
-14,-58,-797,-62,-346,3984,-0.69,-1.54,-35.26,-0.62,-3.46,39.84,-5.77,0.18,35.31,4.28,1.48,10.31
-15,-48,-751,33,-307,4018,-0.71,-1.68,-36.32,0.33,-3.07,40.18,-5.76,0.15,35.45,4.30,1.33,10.11
-19,-28,-657,-1,-363,3892,-0.76,-1.68,-36.69,-0.01,-3.63,38.92,-5.74,0.13,35.59,4.38,0.94,9.38
6,8,-460,38,-377,3912,-0.64,-1.46,-35.83,0.38,-3.77,39.12,-5.74,0.09,35.74,3.84,0.18,7.53
12,10,-420,42,-350,3925,-0.51,-1.26,-34.81,0.42,-3.50,39.25,-5.73,0.06,35.87,3.68,0.10,6.98
6,20,-395,3,-340,3919,-0.42,-1.01,-33.74,0.03,-3.40,39.19,-5.71,0.04,36.01,3.76,-0.16,6.55
14,15,-402,-15,-398,3970,-0.29,-0.82,-32.82,-0.15,-3.98,39.70,-5.72,0.04,36.14,3.57,-0.11,6.42
5,-2,-501,-84,-433,3848,-0.23,-0.75,-32.59,-0.84,-4.33,38.48,-5.73,0.04,36.27,3.74,0.22,7.21
8,-12,-534,-134,-407,3912,-0.16,-0.75,-32.59,-1.34,-4.07,39.12,-5.73,0.04,36.40,3.66,0.42,7.48
5,-21,-601,-70,-330,3911,-0.11,-0.80,-33.00,-0.70,-3.30,39.11,-5.72,0.04,36.53,3.70,0.62,8.11
-3,-16,-595,1,-293,3957,-0.12,-0.82,-33.33,0.01,-2.93,39.57,-5.70,0.02,36.66,3.86,0.53,8.11
-16,-6,-593,-165,-342,3892,-0.21,-0.77,-33.61,-1.65,-3.42,38.92,-5.69,0.02,36.79,4.14,0.32,8.14
-6,-15,-580,-127,-255,3896,-0.22,-0.79,-33.79,-1.27,-2.55,38.96,-5.68,0.02,36.93,3.93,0.51,8.05
16,6,-437,-29,-287,3997,-0.10,-0.67,-33.07,-0.29,-2.87,39.97,-5.67,0.01,37.06,3.44,0.06,6.69
29,17,-403,-113,-289,3882,0.08,-0.50,-32.23,-1.13,-2.89,38.82,-5.65,0.01,37.19,3.12,-0.21,6.23
22,18,-346,-8,-465,3937,0.21,-0.34,-31.11,-0.08,-4.65,39.37,-5.67,-0.00,37.31,3.24,-0.27,5.52
25,16,-335,-31,-435,3959,0.34,-0.21,-30.05,-0.31,-4.35,39.59,-5.68,-0.01,37.43,3.15,-0.26,5.21
27,10,-304,-208,-381,3950,0.47,-0.13,-28.90,-2.08,-3.81,39.50,-5.68,-0.00,37.55,3.07,-0.17,4.72
9,6,-288,-184,-410,3920,0.48,-0.08,-27.76,-1.84,-4.10,39.20,-5.68,0.01,37.66,3.44,-0.11,4.36
5,-9,-313,-107,-454,3911,0.46,-0.12,-26.90,-1.07,-4.54,39.11,-5.69,0.01,37.76,3.53,0.21,4.39
7,-10,-310,-174,-391,3965,0.46,-0.17,-26.10,-1.74,-3.91,39.65,-5.69,0.02,37.87,3.49,0.24,4.21
10,-3,-262,-181,-571,3910,0.47,-0.17,-25.09,-1.81,-5.71,39.10,-5.70,0.02,37.97,3.43,0.09,3.60
5,1,-228,-192,-506,3921,0.46,-0.15,-23.97,-1.92,-5.06,39.21,-5.70,0.03,38.06,3.54,0.00,3.09
23,1,-204,-29,-361,3974,0.55,-0.13,-22.82,-0.29,-3.61,39.74,-5.69,0.03,38.15,3.14,-0.00,2.65
6,10,-205,-64,-346,3961,0.53,-0.06,-21.78,-0.64,-3.46,39.61,-5.67,0.03,38.24,3.48,-0.21,2.46
12,-1,-172,-119,-372,3917,0.55,-0.06,-20.66,-1.19,-3.72,39.17,-5.67,0.04,38.32,3.35,0.01,1.96
5,4,-163,-96,-362,3926,0.53,-0.03,-19.58,-0.96,-3.62,39.26,-5.66,0.05,38.40,3.49,-0.11,1.67
10,8,-159,-104,-371,3902,0.54,0.03,-18.60,-1.04,-3.71,39.02,-5.66,0.06,38.47,3.38,-0.21,1.44
18,20,-145,-138,-444,3922,0.59,0.14,-17.62,-1.38,-4.44,39.22,-5.66,0.07,38.54,3.21,-0.50,1.13
15,16,-125,-72,-364,3976,0.62,0.23,-16.62,-0.72,-3.64,39.76,-5.65,0.09,38.61,3.26,-0.44,0.76
18,18,-146,-7,-353,3937,0.67,0.31,-15.85,-0.07,-3.53,39.37,-5.63,0.08,38.67,3.17,-0.51,0.79
12,8,-229,-113,-430,3893,0.68,0.33,-15.66,-1.13,-4.30,38.93,-5.64,0.09,38.74,3.29,-0.31,1.45
6,-3,-249,-125,-545,3895,0.65,0.28,-15.61,-1.25,-5.45,38.95,-5.65,0.10,38.80,3.43,-0.08,1.60
-4,-10,-323,-82,-489,3904,0.56,0.19,-16.02,-0.82,-4.89,39.04,-5.66,0.10,38.86,3.67,0.08,2.30
5,-10,-346,-108,-418,3956,0.53,0.11,-16.53,-1.08,-4.18,39.56,-5.66,0.12,38.93,3.49,0.10,2.59
4,-2,-384,-151,-438,3930,0.50,0.09,-17.22,-1.51,-4.38,39.30,-5.67,0.13,39.00,3.52,-0.07,3.03
2,-7,-388,-55,-478,3883,0.47,0.04,-17.87,-0.55,-4.78,38.83,-5.68,0.13,39.07,3.58,0.05,3.19
-13,-12,-496,-187,-450,3842,0.34,-0.04,-19.10,-1.87,-4.50,38.42,-5.69,0.14,39.14,3.93,0.16,4.33
23,-9,-530,-208,-244,3971,0.45,-0.09,-20.43,-2.08,-2.44,39.71,-5.67,0.14,39.23,3.16,0.11,4.86
-2,-4,-595,-241,-433,3943,0.39,-0.11,-22.01,-2.41,-4.33,39.43,-5.68,0.15,39.31,3.68,0.01,5.71
-1,11,-614,-231,-388,3951,0.34,-0.03,-23.56,-2.31,-3.88,39.51,-5.68,0.16,39.41,3.67,-0.32,6.16
11,-9,-654,-73,-450,3954,0.38,-0.08,-25.19,-0.73,-4.50,39.54,-5.69,0.16,39.51,3.43,0.10,6.80
22,-22,-684,-91,-380,3971,0.47,-0.21,-26.84,-0.91,-3.80,39.71,-5.68,0.17,39.61,3.17,0.39,7.36
-2,-17,-672,-11,-218,3839,0.41,-0.29,-28.26,-0.11,-2.18,38.39,-5.66,0.16,39.73,3.66,0.32,7.52
2,-10,-668,-36,-388,4011,0.38,-0.32,-29.51,-0.36,-3.88,40.11,-5.65,0.16,39.84,3.59,0.18,7.71
11,-16,-652,-137,-428,3902,0.41,-0.39,-30.53,-1.37,-4.28,39.02,-5.66,0.17,39.96,3.40,0.32,7.76
4,-24,-647,87,-329,3914,0.40,-0.49,-31.43,0.87,-3.29,39.14,-5.65,0.14,40.09,3.54,0.53,7.88
5,0,-623,-153,-355,4019,0.39,-0.45,-32.09,-1.53,-3.55,40.19,-5.64,0.14,40.22,3.52,0.03,7.79
1,-15,-608,-248,-429,3817,0.35,-0.49,-32.59,-2.48,-4.29,38.17,-5.64,0.14,40.35,3.61,0.34,7.75
1,-18,-618,-276,-384,3882,0.33,-0.55,-33.10,-2.76,-3.84,38.82,-5.64,0.15,40.48,3.62,0.42,7.92
1,-8,-633,-258,-440,3937,0.30,-0.55,-33.65,-2.58,-4.40,39.37,-5.65,0.15,40.61,3.62,0.21,8.14
-4,-5,-598,-151,-318,3927,0.24,-0.52,-33.93,-1.51,-3.18,39.27,-5.64,0.15,40.75,3.74,0.15,7.88
0,-17,-580,-46,-354,3949,0.22,-0.57,-34.08,-0.46,-3.54,39.49,-5.62,0.15,40.88,3.65,0.41,7.75
-8,-5,-519,-186,-338,3930,0.15,-0.55,-33.83,-1.86,-3.38,39.30,-5.62,0.15,41.02,3.83,0.15,7.17
-12,1,-475,2,-337,3949,0.06,-0.49,-33.35,0.02,-3.37,39.49,-5.60,0.13,41.15,3.92,0.03,6.69
14,-1,-345,24,-315,3945,0.14,-0.44,-32.12,0.24,-3.15,39.45,-5.58,0.11,41.28,3.36,0.07,5.35
-1,-3,-342,17,-316,3930,0.12,-0.42,-30.99,0.17,-3.16,39.30,-5.57,0.09,41.40,3.66,0.12,5.09
5,0,-333,-130,-442,3908,0.14,-0.38,-29.92,-1.30,-4.42,39.08,-5.57,0.09,41.52,3.54,0.04,4.80
0,0,-311,-94,-389,3868,0.12,-0.34,-28.83,-0.94,-3.89,38.68,-5.58,0.10,41.63,3.65,0.03,4.40
3,3,-229,-11,-300,3925,0.13,-0.29,-27.34,-0.11,-3.00,39.25,-5.56,0.09,41.74,3.57,-0.04,3.41
0,0,-195,8,-375,3887,0.12,-0.26,-25.80,0.08,-3.75,38.87,-5.55,0.06,41.85,3.63,0.03,2.82
4,-7,-197,-112,-389,3927,0.13,-0.27,-24.42,-1.12,-3.89,39.27,-5.55,0.07,41.94,3.55,0.17,2.56
1,-7,-252,-174,-379,3889,0.12,-0.29,-23.52,-1.74,-3.79,38.89,-5.55,0.07,42.04,3.61,0.17,2.85
5,-12,-409,-201,-176,3935,0.14,-0.33,-23.66,-2.01,-1.76,39.35,-5.54,0.08,42.13,3.52,0.29,4.19
-9,-24,-455,-235,-220,3909,0.07,-0.45,-24.07,-2.35,-2.20,39.09,-5.53,0.08,42.23,3.81,0.56,4.65
-5,-14,-567,-106,-272,3926,0.03,-0.49,-25.12,-1.06,-2.72,39.26,-5.52,0.08,42.33,3.73,0.36,5.80
-1,-11,-586,-110,-251,3957,0.03,-0.51,-26.18,-1.10,-2.51,39.57,-5.50,0.08,42.43,3.64,0.31,6.15
11,-20,-609,10,-373,3985,0.09,-0.58,-27.28,0.10,-3.73,39.85,-5.49,0.05,42.54,3.38,0.53,6.54
6,-8,-620,-1,-347,4006,0.12,-0.57,-28.33,-0.01,-3.47,40.06,-5.47,0.04,42.65,3.46,0.29,6.83
5,-24,-618,-19,-381,3917,0.14,-0.66,-29.27,-0.19,-3.81,39.17,-5.48,0.04,42.77,3.48,0.64,6.98
-14,-29,-613,-114,-374,3893,0.04,-0.77,-30.08,-1.14,-3.74,38.93,-5.48,0.04,42.89,3.89,0.77,7.08
-36,-48,-650,-124,-407,3944,-0.19,-0.98,-31.04,-1.24,-4.07,39.44,-5.48,0.05,43.01,4.40,1.21,7.57
-48,-59,-648,-53,-426,3946,-0.46,-1.25,-31.89,-0.53,-4.26,39.46,-5.50,0.04,43.14,4.73,1.51,7.70
-50,-71,-664,12,-417,3917,-0.72,-1.55,-32.75,0.12,-4.17,39.17,-5.52,0.02,43.27,4.85,1.86,7.99
-61,-66,-695,18,-421,3969,-1.02,-1.80,-33.71,0.18,-4.21,39.69,-5.54,-0.01,43.40,5.17,1.84,8.43
-62,-89,-820,17,-376,3979,-1.30,-2.16,-35.34,0.17,-3.76,39.79,-5.53,-0.05,43.54,5.27,2.43,9.78
-55,-79,-851,-19,-493,4038,-1.50,-2.43,-37.00,-0.19,-4.93,40.38,-5.56,-0.07,43.69,5.20,2.31,10.35
-24,-45,-938,-128,-349,3970,-1.50,-2.46,-39.02,-1.28,-3.49,39.70,-5.56,-0.08,43.84,4.56,1.64,11.46
-21,-45,-955,-77,-213,3957,-1.48,-2.49,-40.95,-0.77,-2.13,39.57,-5.55,-0.09,44.00,4.49,1.66,11.96
0,-20,-861,82,-197,3892,-1.33,-2.36,-42.10,0.82,-1.97,38.92,-5.54,-0.13,44.17,4.02,1.13,11.37
13,-23,-800,111,-135,3928,-1.12,-2.27,-42.77,1.11,-1.35,39.28,-5.52,-0.16,44.34,3.69,1.19,10.96
4,-21,-592,94,-273,3941,-0.98,-2.17,-42.11,0.94,-2.73,39.41,-5.51,-0.20,44.50,3.82,1.15,9.06
-1,-14,-494,98,-313,3912,-0.89,-2.04,-40.91,0.98,-3.13,39.12,-5.50,-0.23,44.67,3.90,0.99,7.98
0,-2,-370,-87,-378,3953,-0.80,-1.85,-39.08,-0.87,-3.78,39.53,-5.51,-0.24,44.82,3.85,0.70,6.57
3,-6,-368,-62,-359,3895,-0.70,-1.70,-37.41,-0.62,-3.59,38.95,-5.50,-0.24,44.97,3.76,0.74,6.22
1,1,-345,-114,-392,3918,-0.63,-1.52,-35.78,-1.14,-3.92,39.18,-5.51,-0.24,45.11,3.79,0.55,5.70
7,3,-341,-124,-362,3970,-0.52,-1.35,-34.28,-1.24,-3.62,39.70,-5.51,-0.24,45.25,3.63,0.47,5.37
6,-8,-340,-118,-427,3938,-0.43,-1.26,-32.92,-1.18,-4.27,39.38,-5.51,-0.24,45.38,3.63,0.67,5.09
3,-8,-357,-80,-411,3900,-0.37,-1.19,-31.81,-0.80,-4.11,39.00,-5.52,-0.24,45.50,3.68,0.65,5.01
-5,-8,-379,-35,-348,3923,-0.36,-1.12,-30.94,-0.35,-3.48,39.23,-5.51,-0.24,45.63,3.84,0.63,5.02
-1,-13,-379,-32,-378,3935,-0.33,-1.08,-30.16,-0.32,-3.78,39.35,-5.51,-0.24,45.75,3.75,0.72,4.86
-6,-13,-385,-84,-357,3934,-0.34,-1.06,-29.49,-0.84,-3.57,39.34,-5.51,-0.24,45.86,3.85,0.71,4.77
3,-17,-393,3,-294,3929,-0.28,-1.05,-28.94,0.03,-2.94,39.29,-5.49,-0.25,45.98,3.64,0.80,4.72
4,0,-364,-139,-325,3883,-0.23,-0.95,-28.27,-1.39,-3.25,38.83,-5.49,-0.25,46.09,3.60,0.42,4.34
3,-4,-363,-130,-339,3873,-0.19,-0.88,-27.65,-1.30,-3.39,38.73,-5.48,-0.24,46.20,3.61,0.48,4.20
-2,4,-324,-150,-348,3906,-0.18,-0.77,-26.86,-1.50,-3.48,39.06,-5.48,-0.24,46.31,3.71,0.29,3.71
3,-10,-307,-184,-347,3948,-0.15,-0.75,-26.05,-1.84,-3.47,39.48,-5.48,-0.23,46.41,3.59,0.56,3.40
0,-1,-261,-95,-381,3934,-0.13,-0.68,-25.04,-0.95,-3.81,39.34,-5.48,-0.23,46.51,3.65,0.36,2.81
2,-2,-241,-106,-380,3892,-0.11,-0.63,-24.00,-1.06,-3.80,38.92,-5.48,-0.22,46.61,3.61,0.36,2.43
-2,-6,-194,-138,-310,3938,-0.11,-0.60,-22.79,-1.38,-3.10,39.38,-5.47,-0.22,46.70,3.68,0.43,1.80
-4,-6,-194,-128,-296,3906,-0.12,-0.58,-21.69,-1.28,-2.96,39.06,-5.46,-0.21,46.78,3.72,0.42,1.58
13,-7,-184,-245,-433,3908,-0.03,-0.56,-20.65,-2.45,-4.33,39.08,-5.47,-0.20,46.86,3.35,0.43,1.29
15,2,-174,-149,-513,3954,0.06,-0.49,-19.64,-1.49,-5.13,39.54,-5.48,-0.20,46.94,3.29,0.22,1.00
9,4,-185,37,-465,3918,0.11,-0.42,-18.81,0.37,-4.65,39.18,-5.50,-0.21,47.02,3.41,0.17,0.93
8,4,-192,-38,-497,3954,0.15,-0.35,-18.10,-0.38,-4.97,39.54,-5.51,-0.21,47.09,3.43,0.16,0.85
2,-5,-210,-58,-437,3947,0.15,-0.35,-17.57,-0.58,-4.37,39.47,-5.52,-0.21,47.16,3.56,0.33,0.89
4,-5,-214,-67,-431,3921,0.16,-0.34,-17.12,-0.67,-4.31,39.21,-5.53,-0.20,47.23,3.53,0.33,0.83
11,2,-227,-154,-444,3914,0.21,-0.30,-16.79,-1.54,-4.44,39.14,-5.54,-0.19,47.29,3.37,0.17,0.88
14,0,-222,-120,-433,3942,0.27,-0.27,-16.47,-1.20,-4.33,39.42,-5.54,-0.18,47.36,3.30,0.19,0.77
-1,-3,-200,-106,-435,3939,0.24,-0.26,-16.04,-1.06,-4.35,39.39,-5.55,-0.17,47.42,3.62,0.24,0.49
-4,-6,-185,-132,-399,3943,0.19,-0.27,-15.56,-1.32,-3.99,39.43,-5.55,-0.16,47.48,3.69,0.30,0.27
4,7,-109,-145,-397,3934,0.20,-0.20,-14.67,-1.45,-3.97,39.34,-5.55,-0.15,47.54,3.53,0.01,-0.55
3,9,-66,-109,-367,3917,0.20,-0.13,-13.61,-1.09,-3.67,39.17,-5.55,-0.13,47.60,3.55,-0.06,-1.12
-1,11,-38,-30,-402,3938,0.17,-0.05,-12.48,-0.30,-4.02,39.38,-5.55,-0.12,47.65,3.64,-0.13,-1.58
-1,9,-44,-17,-425,3928,0.15,0.01,-11.50,-0.17,-4.25,39.28,-5.57,-0.12,47.69,3.66,-0.11,-1.72
-3,-2,-84,-33,-446,3890,0.11,0.00,-10.86,-0.33,-4.46,38.90,-5.58,-0.11,47.74,3.72,0.11,-1.51
-5,-7,-90,-26,-455,3874,0.07,-0.04,-10.32,-0.26,-4.55,38.74,-5.60,-0.11,47.78,3.78,0.23,-1.56
12,6,-122,-138,-364,3935,0.14,-0.00,-10.04,-1.38,-3.64,39.35,-5.60,-0.10,47.82,3.41,-0.06,-1.35
16,8,-121,-166,-319,3920,0.22,0.05,-9.77,-1.66,-3.19,39.20,-5.59,-0.08,47.86,3.30,-0.12,-1.41
10,10,-166,-196,-399,3923,0.26,0.10,-9.81,-1.96,-3.99,39.23,-5.59,-0.07,47.89,3.42,-0.19,-1.03
6,8,-217,-222,-430,3924,0.27,0.14,-10.15,-2.22,-4.30,39.24,-5.59,-0.05,47.94,3.50,-0.17,-0.54
1,-15,-411,-114,-277,4003,0.25,0.04,-11.64,-1.14,-2.77,40.03,-5.58,-0.04,47.98,3.59,0.32,1.39
-9,-24,-452,-88,-439,3891,0.17,-0.11,-13.23,-0.88,-4.39,38.91,-5.59,-0.03,48.03,3.82,0.54,2.04
-8,-4,-365,-16,-329,3844,0.10,-0.13,-14.14,-0.16,-3.29,38.44,-5.57,-0.03,48.09,3.81,0.14,1.47
2,-14,-332,-8,-251,3982,0.11,-0.20,-14.75,-0.08,-2.51,39.82,-5.55,-0.04,48.15,3.59,0.36,1.30
9,6,-218,-6,-264,3922,0.15,-0.14,-14.60,-0.06,-2.64,39.22,-5.53,-0.04,48.21,3.43,-0.05,0.30
6,6,-213,-48,-273,3946,0.17,-0.09,-14.44,-0.48,-2.73,39.46,-5.52,-0.04,48.26,3.47,-0.07,0.22
20,4,-240,-70,-397,3965,0.28,-0.06,-14.46,-0.70,-3.97,39.65,-5.52,-0.03,48.32,3.16,-0.05,0.45
10,8,-263,-140,-409,3907,0.31,-0.00,-14.62,-1.40,-4.09,39.07,-5.52,-0.02,48.38,3.36,-0.15,0.67
28,12,-264,-80,-304,3986,0.45,0.07,-14.77,-0.80,-3.04,39.86,-5.51,-0.01,48.44,2.94,-0.26,0.70
17,10,-255,-66,-348,3862,0.51,0.12,-14.85,-0.66,-3.48,38.62,-5.50,0.00,48.50,3.14,-0.24,0.63
24,5,-129,-25,-328,3969,0.60,0.14,-14.15,-0.25,-3.28,39.69,-5.48,0.01,48.56,2.96,-0.14,-0.57
-4,0,-137,-75,-353,3946,0.52,0.13,-13.57,-0.75,-3.53,39.46,-5.47,0.02,48.61,3.55,-0.05,-0.62
3,-10,-254,-224,-330,3877,0.49,0.05,-13.76,-2.24,-3.30,38.77,-5.47,0.03,48.66,3.41,0.17,0.40
-16,-17,-315,-240,-356,3895,0.34,-0.06,-14.31,-2.40,-3.56,38.95,-5.46,0.04,48.72,3.84,0.33,1.02
-13,-32,-499,-49,-338,3917,0.23,-0.24,-15.92,-0.49,-3.38,39.17,-5.45,0.05,48.78,3.80,0.68,2.88
3,-11,-500,-105,-334,3964,0.22,-0.29,-17.38,-1.05,-3.34,39.64,-5.44,0.06,48.85,3.47,0.26,3.16
4,-6,-430,-10,-381,3863,0.22,-0.30,-18.26,-0.10,-3.81,38.63,-5.46,0.06,48.93,3.46,0.16,2.73
0,-15,-416,15,-393,3900,0.20,-0.36,-18.98,0.15,-3.93,39.00,-5.47,0.04,49.00,3.56,0.38,2.74
-8,1,-348,-40,-365,3870,0.13,-0.32,-19.20,-0.40,-3.65,38.70,-5.47,0.05,49.08,3.74,0.03,2.20
12,-7,-314,-28,-332,3970,0.19,-0.33,-19.20,-0.28,-3.32,39.70,-5.45,0.05,49.15,3.30,0.20,1.90
-5,-12,-307,80,-472,3947,0.14,-0.37,-19.15,0.80,-4.72,39.47,-5.46,0.03,49.23,3.67,0.33,1.83
-2,-17,-340,60,-424,3953,0.12,-0.43,-19.31,0.60,-4.24,39.53,-5.47,0.00,49.31,3.62,0.46,2.13
-8,-17,-342,-14,-399,3919,0.06,-0.49,-19.46,-0.14,-3.99,39.19,-5.49,0.00,49.38,3.77,0.48,2.17
-6,-16,-337,11,-341,3970,0.01,-0.54,-19.57,0.11,-3.41,39.70,-5.47,-0.01,49.46,3.73,0.48,2.14
-11,-26,-359,-62,-359,4009,-0.05,-0.65,-19.81,-0.62,-3.59,40.09,-5.47,-0.00,49.54,3.85,0.71,2.37
-3,-21,-371,-73,-310,3977,-0.07,-0.71,-20.09,-0.73,-3.10,39.77,-5.45,-0.00,49.62,3.68,0.62,2.52
5,-9,-425,-301,-344,3893,-0.03,-0.69,-20.67,-3.01,-3.44,38.93,-5.45,0.01,49.70,3.50,0.37,3.08
-7,-4,-451,-317,-336,3905,-0.07,-0.65,-21.36,-3.17,-3.36,39.05,-5.45,0.01,49.79,3.76,0.25,3.42
-1,-3,-439,-151,-310,3862,-0.07,-0.60,-21.90,-1.51,-3.10,38.62,-5.44,0.02,49.87,3.63,0.21,3.42
12,-6,-399,-37,-350,4016,0.01,-0.58,-22.14,-0.37,-3.50,40.16,-5.43,0.02,49.96,3.34,0.26,3.12
10,0,-247,-57,-291,3895,0.07,-0.52,-21.43,-0.57,-2.91,38.95,-5.42,0.02,50.05,3.35,0.13,1.68
6,3,-137,-39,-388,3920,0.10,-0.45,-20.13,-0.39,-3.88,39.20,-5.42,0.03,50.13,3.43,0.04,0.50
-6,-3,-34,-59,-378,3940,0.05,-0.42,-18.32,-0.59,-3.78,39.40,-5.42,0.04,50.20,3.69,0.15,-0.73
-11,-8,-25,-51,-342,3938,-0.02,-0.43,-16.64,-0.51,-3.42,39.38,-5.41,0.05,50.27,3.80,0.25,-1.13
-12,-10,-54,-20,-409,3930,-0.09,-0.45,-15.31,-0.20,-4.09,39.30,-5.43,0.05,50.33,3.85,0.29,-1.15
-8,-10,-73,-58,-399,3909,-0.13,-0.46,-14.22,-0.58,-3.99,39.09,-5.44,0.06,50.38,3.79,0.29,-1.20
-11,-12,-234,-138,-348,3880,-0.18,-0.49,-14.23,-1.38,-3.48,38.80,-5.44,0.07,50.44,3.86,0.33,0.16
-6,-13,-289,-91,-325,3849,-0.20,-0.52,-14.57,-0.91,-3.25,38.49,-5.43,0.08,50.50,3.76,0.36,0.69
6,0,-423,-53,-261,3901,-0.15,-0.47,-15.69,-0.53,-2.61,39.01,-5.41,0.08,50.56,3.49,0.08,2.03
3,-10,-431,95,-337,3856,-0.11,-0.48,-16.75,0.95,-3.37,38.56,-5.41,0.05,50.63,3.54,0.30,2.30
25,-11,-490,27,-462,3924,0.05,-0.50,-18.06,0.27,-4.62,39.24,-5.43,0.04,50.70,3.06,0.34,3.04
9,-15,-475,53,-356,3952,0.10,-0.54,-19.16,0.53,-3.56,39.52,-5.42,0.01,50.77,3.37,0.45,3.12
5,6,-569,-178,-366,4038,0.12,-0.45,-20.71,-1.78,-3.66,40.38,-5.42,0.02,50.86,3.44,-0.01,4.20
-5,3,-611,-242,-324,3872,0.08,-0.39,-22.37,-2.42,-3.24,38.72,-5.42,0.03,50.95,3.65,0.03,4.87
14,8,-665,-292,-298,3846,0.16,-0.30,-24.19,-2.92,-2.98,38.46,-5.41,0.03,51.04,3.24,-0.10,5.66
9,2,-672,-183,-371,3885,0.20,-0.26,-25.87,-1.83,-3.71,38.85,-5.41,0.04,51.14,3.33,0.00,6.03
17,-9,-771,-220,-348,3904,0.28,-0.29,-27.98,-2.20,-3.48,39.04,-5.41,0.05,51.26,3.15,0.23,7.27
15,-5,-819,-239,-557,4063,0.34,-0.29,-30.18,-2.39,-5.57,40.63,-5.42,0.05,51.38,3.18,0.15,8.08
21,-14,-943,-228,-440,4009,0.44,-0.35,-32.92,-2.28,-4.40,40.09,-5.42,0.05,51.51,3.03,0.34,9.64
-3,-10,-978,-235,-425,3895,0.38,-0.37,-35.59,-2.35,-4.25,38.95,-5.42,0.06,51.65,3.54,0.27,10.44
6,-31,-1089,-215,-345,3883,0.37,-0.52,-38.67,-2.15,-3.45,38.83,-5.42,0.06,51.80,3.35,0.74,11.96
-12,-56,-1128,-152,-365,3990,0.26,-0.81,-41.69,-1.52,-3.65,39.90,-5.42,0.06,51.97,3.75,1.32,12.85
-2,-31,-1120,-171,-224,3748,0.22,-0.92,-44.35,-1.71,-2.24,37.48,-5.41,0.05,52.14,3.55,0.85,13.27
-12,-35,-1097,1,-447,3911,0.13,-1.04,-46.61,0.01,-4.47,39.11,-5.42,0.03,52.33,3.79,0.98,13.49
-8,-21,-1004,37,-375,3862,0.07,-1.07,-48.07,0.37,-3.75,38.62,-5.43,-0.01,52.52,3.73,0.73,12.97
10,-25,-994,36,-455,3929,0.12,-1.11,-49.33,0.36,-4.55,39.29,-5.44,-0.04,52.72,3.36,0.84,13.10
11,-18,-907,40,-407,3970,0.18,-1.11,-49.93,0.40,-4.07,39.70,-5.45,-0.08,52.91,3.33,0.72,12.46
9,-23,-876,90,-448,3914,0.21,-1.14,-50.28,0.90,-4.48,39.14,-5.46,-0.12,53.11,3.36,0.86,12.25
7,-10,-746,55,-375,3997,0.24,-1.09,-49.80,0.55,-3.75,39.97,-5.46,-0.16,53.31,3.40,0.61,11.04
5,-15,-680,112,-331,3950,0.24,-1.07,-48.97,1.12,-3.31,39.50,-5.45,-0.20,53.51,3.43,0.73,10.30
8,-11,-429,106,-317,3907,0.27,-1.03,-46.69,1.06,-3.17,39.07,-5.44,-0.24,53.69,3.35,0.66,7.72
7,-9,-302,127,-389,3962,0.28,-0.98,-43.86,1.27,-3.89,39.62,-5.44,-0.28,53.87,3.37,0.63,6.09
6,-6,-166,16,-298,3948,0.29,-0.92,-40.49,0.16,-2.98,39.48,-5.42,-0.29,54.03,3.38,0.57,4.28
4,-8,-141,-5,-324,3928,0.29,-0.88,-37.30,-0.05,-3.24,39.28,-5.40,-0.30,54.18,3.41,0.60,3.45
4,-2,-108,-98,-260,3921,0.28,-0.80,-34.23,-0.98,-2.60,39.21,-5.39,-0.31,54.31,3.40,0.46,2.57
1,-5,-95,-109,-252,3919,0.26,-0.75,-31.39,-1.09,-2.52,39.19,-5.37,-0.31,54.44,3.45,0.51,1.90
1,-1,-71,-53,-309,3941,0.24,-0.68,-28.68,-0.53,-3.09,39.41,-5.36,-0.31,54.55,3.45,0.41,1.17
1,0,-73,-44,-343,3954,0.22,-0.61,-26.26,-0.44,-3.43,39.54,-5.35,-0.30,54.66,3.45,0.37,0.72
-1,-3,-53,-72,-355,3919,0.19,-0.57,-23.95,-0.72,-3.55,39.19,-5.35,-0.29,54.75,3.50,0.41,0.10
-1,-4,-51,-56,-339,3935,0.17,-0.54,-21.87,-0.56,-3.39,39.35,-5.34,-0.29,54.84,3.50,0.42,-0.32
-3,-5,-38,-124,-336,3913,0.13,-0.52,-19.92,-1.24,-3.36,39.13,-5.33,-0.28,54.92,3.55,0.43,-0.81
0,-1,-19,-114,-353,3916,0.12,-0.47,-18.04,-1.14,-3.53,39.16,-5.33,-0.27,54.99,3.49,0.33,-1.34
-4,2,-1,-81,-349,3913,0.08,-0.41,-16.24,-0.81,-3.49,39.13,-5.33,-0.26,55.05,3.58,0.24,-1.84
-6,-1,-3,-95,-311,3921,0.04,-0.38,-14.64,-0.95,-3.11,39.21,-5.32,-0.25,55.11,3.62,0.29,-2.14
-5,-6,-37,-138,-327,3947,0.00,-0.37,-13.40,-1.38,-3.27,39.47,-5.32,-0.24,55.16,3.61,0.38,-2.09
-4,-6,-49,-146,-309,3948,-0.02,-0.37,-12.36,-1.46,-3.09,39.48,-5.31,-0.23,55.21,3.59,0.37,-2.19
-2,-15,-125,-216,-302,3882,-0.03,-0.43,-11.88,-2.16,-3.02,38.82,-5.30,-0.22,55.26,3.55,0.56,-1.64
5,-20,-152,-159,-335,3890,0.00,-0.51,-11.62,-1.59,-3.35,38.90,-5.30,-0.20,55.31,3.40,0.68,-1.47
5,-10,-203,-54,-289,3995,0.03,-0.52,-11.70,-0.54,-2.89,39.95,-5.29,-0.20,55.35,3.38,0.48,-1.03
1,-15,-209,25,-297,3933,0.04,-0.56,-11.80,0.25,-2.97,39.33,-5.27,-0.21,55.40,3.45,0.59,-0.96
4,-8,-215,-50,-300,3891,0.06,-0.55,-11.93,-0.50,-3.00,38.91,-5.26,-0.20,55.45,3.37,0.45,-0.89
-5,-12,-246,-60,-288,3941,0.02,-0.57,-12.24,-0.60,-2.88,39.41,-5.24,-0.19,55.50,3.56,0.53,-0.57
9,-13,-323,-69,-280,3943,0.07,-0.59,-12.99,-0.69,-2.80,39.43,-5.23,-0.19,55.55,3.25,0.55,0.22
5,-5,-337,-35,-308,3904,0.10,-0.56,-13.74,-0.35,-3.08,39.04,-5.22,-0.18,55.60,3.31,0.38,0.48
4,0,-354,10,-421,3921,0.11,-0.51,-14.53,0.10,-4.21,39.21,-5.23,-0.19,55.66,3.34,0.26,0.77
4,-6,-350,11,-426,3912,0.12,-0.49,-15.21,0.11,-4.26,39.12,-5.25,-0.20,55.72,3.35,0.39,0.86
7,8,-336,91,-528,3923,0.15,-0.39,-15.74,0.91,-5.28,39.23,-5.27,-0.21,55.78,3.29,0.08,0.83
12,0,-297,169,-500,3912,0.21,-0.35,-15.98,1.69,-5.00,39.12,-5.28,-0.23,55.85,3.18,0.25,0.54
5,-4,-183,30,-442,3898,0.22,-0.34,-15.50,0.30,-4.42,38.98,-5.30,-0.24,55.91,3.33,0.34,-0.52
1,-2,-157,-40,-442,3907,0.21,-0.32,-14.90,-0.40,-4.42,39.07,-5.31,-0.24,55.97,3.43,0.29,-0.86
-5,-6,-132,-3,-408,3925,0.15,-0.33,-14.22,-0.03,-4.08,39.25,-5.32,-0.24,56.02,3.57,0.37,-1.21
-3,-7,-157,-82,-359,3910,0.12,-0.34,-13.76,-0.82,-3.59,39.10,-5.32,-0.23,56.08,3.54,0.38,-1.09
8,-2,-259,-108,-325,3952,0.16,-0.31,-13.96,-1.08,-3.25,39.52,-5.32,-0.22,56.13,3.30,0.27,-0.19
11,-4,-287,-83,-315,3887,0.21,-0.31,-14.31,-0.83,-3.15,38.87,-5.31,-0.21,56.19,3.22,0.30,0.11
1,-3,-287,2,-342,3946,0.19,-0.30,-14.63,0.02,-3.42,39.46,-5.29,-0.20,56.25,3.42,0.28,0.17
-2,-15,-290,63,-354,3943,0.16,-0.36,-14.94,0.63,-3.54,39.43,-5.28,-0.23,56.31,3.48,0.55,0.24
