gyroADC_X,gyroADC_Y,gyroADC_Z,accADC_X,accADC_Y,accADC_Z,GyroX,GyroY,GyroZ,AccX,AccY,AccZ,roll_IMU,pitch_IMU,yaw_IMU,roll_PID,pitch_PID,yaw_PID
-4,-4,38,-11,-298,3890,-0.09,0.11,1.16,-0.11,-2.98,38.90,-4.95,0.00,86.18,3.37,0.05,-9.43
-13,-7,60,169,-297,3870,-0.16,0.05,1.41,1.69,-2.97,38.70,-4.95,-0.01,86.18,3.57,0.14,-10.72
-6,-2,119,112,-290,3878,-0.18,0.04,2.00,1.12,-2.90,38.78,-4.94,-0.03,86.17,3.43,0.05,-14.26
-6,-5,125,68,-248,3947,-0.20,0.00,2.56,0.68,-2.48,39.47,-4.93,-0.04,86.16,3.43,0.13,-14.23
6,-8,74,114,-261,3874,-0.15,-0.05,2.75,1.14,-2.61,38.74,-4.92,-0.05,86.15,3.16,0.21,-10.62
-6,-3,56,96,-377,3928,-0.17,-0.06,2.82,0.96,-3.77,39.28,-4.93,-0.07,86.14,3.42,0.12,-9.35
-7,-2,9,12,-311,3897,-0.19,-0.07,2.59,0.12,-3.11,38.97,-4.91,-0.07,86.13,3.44,0.11,-6.34
5,-2,-65,-69,-454,3912,-0.14,-0.07,1.94,-0.69,-4.54,39.12,-4.92,-0.06,86.12,3.19,0.10,-1.83
-3,-4,-74,-74,-496,3914,-0.15,-0.09,1.29,-0.74,-4.96,39.14,-4.94,-0.06,86.12,3.36,0.14,-1.73
1,-2,-57,-128,-540,3903,-0.13,-0.09,0.82,-1.28,-5.40,39.03,-4.96,-0.05,86.11,3.29,0.10,-3.25
5,-8,-44,-114,-541,3897,-0.08,-0.13,0.47,-1.14,-5.41,38.97,-4.97,-0.04,86.11,3.20,0.22,-4.40
3,0,-26,-33,-388,3915,-0.06,-0.12,0.26,-0.33,-3.88,39.15,-4.99,-0.03,86.11,3.25,0.05,-5.78
3,1,-27,11,-395,3912,-0.03,-0.10,0.07,0.11,-3.95,39.12,-5.01,-0.03,86.11,3.25,0.03,-5.87
2,-4,-33,20,-381,3900,-0.02,-0.12,-0.14,0.20,-3.81,39.00,-5.02,-0.04,86.11,3.28,0.14,-5.62
0,-3,-29,10,-338,3916,-0.02,-0.12,-0.30,0.10,-3.38,39.16,-5.01,-0.05,86.11,3.31,0.13,-6.02
-3,-4,-22,15,-341,3893,-0.03,-0.13,-0.41,0.15,-3.41,38.93,-5.01,-0.07,86.11,3.38,0.17,-6.58
-4,-5,-20,31,-356,3892,-0.05,-0.15,-0.49,0.31,-3.56,38.92,-5.02,-0.09,86.11,3.41,0.20,-6.78
-3,-5,-12,11,-358,3904,-0.07,-0.17,-0.51,0.11,-3.58,39.04,-5.04,-0.09,86.12,3.40,0.21,-7.34
-3,-5,-6,21,-367,3893,-0.08,-0.18,-0.50,0.21,-3.67,38.93,-5.05,-0.11,86.12,3.42,0.22,-7.73
-1,-3,3,-28,-304,3900,-0.08,-0.18,-0.43,-0.28,-3.04,39.00,-5.04,-0.09,86.12,3.37,0.17,-8.29
1,-4,-1,-33,-299,3901,-0.06,-0.19,-0.39,-0.33,-2.99,39.01,-5.03,-0.08,86.12,3.31,0.19,-7.99
2,-3,-4,-1,-339,3909,-0.04,-0.19,-0.38,-0.01,-3.39,39.09,-5.02,-0.07,86.12,3.28,0.16,-7.77
2,-3,-4,1,-323,3903,-0.03,-0.19,-0.36,0.01,-3.23,39.03,-5.00,-0.07,86.12,3.27,0.16,-7.76
2,-2,4,-6,-323,3905,-0.01,-0.18,-0.30,-0.06,-3.23,39.05,-4.98,-0.06,86.13,3.25,0.13,-8.26
2,-2,4,-7,-321,3903,0.00,-0.17,-0.25,-0.07,-3.21,39.03,-4.97,-0.05,86.13,3.24,0.12,-8.22
2,3,3,-5,-339,3897,0.01,-0.14,-0.21,-0.05,-3.39,38.97,-4.97,-0.03,86.13,3.23,-0.00,-8.12
2,4,4,-4,-324,3899,0.02,-0.10,-0.16,-0.04,-3.24,38.99,-4.95,-0.03,86.13,3.22,-0.04,-8.15
3,3,5,-4,-352,3924,0.04,-0.07,-0.11,-0.04,-3.52,39.24,-4.97,-0.02,86.13,3.21,-0.03,-8.18
4,2,5,5,-341,3904,0.06,-0.05,-0.07,0.05,-3.41,39.04,-4.97,-0.04,86.13,3.19,-0.00,-8.15
4,2,4,3,-338,3900,0.08,-0.04,-0.04,0.03,-3.38,39.00,-4.96,-0.04,86.13,3.17,-0.00,-8.05
3,1,5,16,-347,3893,0.09,-0.03,-0.01,0.16,-3.47,38.93,-4.97,-0.06,86.13,3.19,0.02,-8.10
4,-2,3,11,-360,3889,0.10,-0.04,0.01,0.11,-3.60,38.89,-4.98,-0.06,86.13,3.18,0.09,-7.94
5,0,1,-2,-357,3905,0.12,-0.03,0.02,-0.02,-3.57,39.05,-5.00,-0.06,86.13,3.16,0.05,-7.81
2,-4,-24,29,-323,3865,0.12,-0.05,-0.13,0.29,-3.23,38.65,-4.99,-0.07,86.13,3.22,0.14,-6.23
4,-1,-25,25,-367,3902,0.14,-0.05,-0.27,0.25,-3.67,39.02,-5.00,-0.08,86.13,3.18,0.09,-6.27
0,-4,-14,18,-342,3892,0.12,-0.07,-0.33,0.18,-3.42,38.92,-5.01,-0.10,86.13,3.27,0.17,-7.06
1,-3,-17,-2,-337,3899,0.12,-0.08,-0.40,-0.02,-3.37,38.99,-5.00,-0.09,86.13,3.25,0.14,-6.91
1,-4,-14,28,-373,3906,0.11,-0.10,-0.44,0.28,-3.73,39.06,-5.01,-0.10,86.13,3.26,0.17,-7.15
0,-5,-10,28,-378,3898,0.10,-0.12,-0.46,0.28,-3.78,38.98,-5.03,-0.11,86.14,3.29,0.21,-7.43
0,-8,-3,13,-352,3895,0.09,-0.16,-0.43,0.13,-3.52,38.95,-5.04,-0.12,86.14,3.30,0.28,-7.89
0,-8,-4,11,-348,3883,0.08,-0.19,-0.41,0.11,-3.48,38.83,-5.06,-0.13,86.14,3.32,0.30,-7.81
0,-10,-14,15,-354,3892,0.07,-0.23,-0.46,0.15,-3.54,38.92,-5.07,-0.14,86.14,3.33,0.36,-7.16
1,-11,-15,16,-356,3903,0.07,-0.28,-0.50,0.16,-3.56,39.03,-5.09,-0.15,86.14,3.32,0.40,-7.13
1,-13,-12,32,-337,3901,0.07,-0.33,-0.53,0.32,-3.37,39.01,-5.08,-0.17,86.14,3.31,0.47,-7.35
2,-11,-9,20,-353,3903,0.08,-0.36,-0.53,0.20,-3.53,39.03,-5.09,-0.19,86.15,3.30,0.44,-7.56
-6,-10,-6,-30,-346,3913,0.03,-0.39,-0.51,-0.30,-3.46,39.13,-5.09,-0.17,86.15,3.47,0.42,-7.75
-7,-8,-10,-6,-340,3914,-0.01,-0.40,-0.52,-0.06,-3.40,39.14,-5.08,-0.15,86.15,3.50,0.37,-7.48
-7,-12,-12,-58,-294,3906,-0.06,-0.43,-0.54,-0.58,-2.94,39.06,-5.07,-0.14,86.15,3.50,0.45,-7.36
-10,-16,-13,-84,-242,3909,-0.11,-0.49,-0.57,-0.84,-2.42,39.09,-5.06,-0.13,86.15,3.57,0.54,-7.32
0,-6,-80,62,-314,3882,-0.10,-0.47,-1.00,0.62,-3.14,38.82,-5.05,-0.15,86.16,3.36,0.35,-3.11
2,-11,-86,19,-360,3932,-0.08,-0.49,-1.42,0.19,-3.60,39.32,-5.06,-0.16,86.16,3.32,0.47,-3.04
-2,-12,-35,125,-453,3886,-0.08,-0.52,-1.50,1.25,-4.53,38.86,-5.08,-0.18,86.17,3.41,0.50,-6.55
0,-6,-28,70,-408,3890,-0.07,-0.50,-1.52,0.70,-4.08,38.90,-5.09,-0.19,86.18,3.38,0.39,-7.04
2,-9,-2,30,-367,3893,-0.05,-0.51,-1.38,0.30,-3.67,38.93,-5.10,-0.21,86.18,3.34,0.46,-8.70
2,-7,0,18,-377,3900,-0.04,-0.50,-1.24,0.18,-3.77,39.00,-5.12,-0.21,86.19,3.35,0.42,-8.72
0,-6,-5,21,-340,3893,-0.03,-0.49,-1.15,0.21,-3.40,38.93,-5.11,-0.23,86.19,3.38,0.40,-8.31
0,-7,-4,4,-348,3905,-0.03,-0.48,-1.06,0.04,-3.48,39.05,-5.11,-0.21,86.19,3.38,0.41,-8.31
-2,-7,-3,-9,-355,3913,-0.04,-0.47,-0.97,-0.09,-3.55,39.13,-5.11,-0.19,86.20,3.42,0.40,-8.31
-2,-7,-8,-12,-357,3899,-0.05,-0.47,-0.92,-0.12,-3.57,38.99,-5.12,-0.18,86.20,3.43,0.39,-7.93
-3,-5,-8,1,-333,3914,-0.06,-0.45,-0.88,0.01,-3.33,39.14,-5.10,-0.17,86.20,3.44,0.34,-7.90
-1,-4,-7,10,-333,3906,-0.06,-0.43,-0.83,0.10,-3.33,39.06,-5.08,-0.17,86.21,3.39,0.31,-7.93
-1,-3,0,15,-334,3898,-0.06,-0.41,-0.75,0.15,-3.34,38.98,-5.07,-0.18,86.21,3.38,0.29,-8.34
-1,-3,1,1,-333,3900,-0.06,-0.38,-0.67,0.01,-3.33,39.00,-5.05,-0.17,86.21,3.37,0.28,-8.35
2,-1,-4,32,-347,3894,-0.04,-0.35,-0.63,0.32,-3.47,38.94,-5.06,-0.19,86.22,3.31,0.24,-7.98
2,-4,-3,34,-352,3908,-0.03,-0.34,-0.58,0.34,-3.52,39.08,-5.06,-0.21,86.22,3.31,0.31,-8.01
-3,2,-15,10,-98,3756,-0.04,-0.30,-0.61,0.10,-0.98,37.56,-5.04,-0.21,86.22,3.40,0.18,-7.22
-2,-10,-67,-13,-277,3909,-0.05,-0.33,-0.96,-0.13,-2.77,39.09,-5.03,-0.20,86.22,3.37,0.43,-3.97
-6,-18,-79,63,-502,3928,-0.08,-0.40,-1.35,0.63,-5.02,39.28,-5.04,-0.21,86.23,3.47,0.61,-3.46
-2,-13,-55,39,-541,3878,-0.09,-0.44,-1.55,0.39,-5.41,38.78,-5.06,-0.21,86.24,3.40,0.53,-5.24
-2,-7,-19,2,-361,3908,-0.09,-0.44,-1.51,0.02,-3.61,39.08,-5.08,-0.20,86.24,3.42,0.40,-7.65
3,-6,-27,9,-360,3904,-0.06,-0.43,-1.52,0.09,-3.60,39.04,-5.09,-0.20,86.25,3.32,0.37,-7.12
2,-2,-35,-8,-391,3907,-0.04,-0.40,-1.58,-0.08,-3.91,39.07,-5.11,-0.19,86.25,3.34,0.28,-6.63
1,-3,-30,1,-395,3923,-0.03,-0.38,-1.61,0.01,-3.95,39.23,-5.13,-0.19,86.26,3.37,0.29,-6.99
1,-2,-14,11,-378,3898,-0.02,-0.35,-1.53,0.11,-3.78,38.98,-5.15,-0.19,86.27,3.38,0.26,-8.01
1,-1,-12,18,-361,3889,-0.02,-0.33,-1.45,0.18,-3.61,38.89,-5.16,-0.20,86.27,3.39,0.24,-8.09
0,0,-9,11,-339,3918,-0.01,-0.29,-1.36,0.11,-3.39,39.18,-5.14,-0.20,86.28,3.40,0.21,-8.22
1,1,-9,8,-341,3903,-0.01,-0.26,-1.28,0.08,-3.41,39.03,-5.13,-0.19,86.28,3.37,0.18,-8.16
0,1,-13,20,-329,3895,-0.01,-0.23,-1.23,0.20,-3.29,38.95,-5.11,-0.20,86.29,3.37,0.17,-7.85
-1,2,-13,48,-300,3886,-0.01,-0.19,-1.19,0.48,-3.00,38.86,-5.10,-0.21,86.29,3.39,0.15,-7.81
2,1,-36,36,-213,3904,0.00,-0.17,-1.29,0.36,-2.13,39.04,-5.08,-0.22,86.30,3.31,0.17,-6.33
-5,-6,-53,26,-175,3876,-0.03,-0.19,-1.48,0.26,-1.75,38.76,-5.06,-0.22,86.30,3.45,0.32,-5.33
-8,-10,-120,41,-326,3914,-0.07,-0.23,-2.07,0.41,-3.26,39.14,-5.05,-0.23,86.31,3.52,0.42,-1.25
-4,-11,-129,15,-397,3937,-0.09,-0.27,-2.65,0.15,-3.97,39.37,-5.07,-0.24,86.32,3.45,0.45,-1.09
-14,-18,-84,8,-385,3873,-0.17,-0.35,-2.90,0.08,-3.85,38.73,-5.09,-0.23,86.33,3.69,0.62,-4.34
-5,-12,-80,43,-390,3955,-0.18,-0.39,-3.09,0.43,-3.90,39.55,-5.10,-0.25,86.34,3.52,0.51,-4.77
4,4,-43,1,-502,3923,-0.14,-0.33,-3.05,0.01,-5.02,39.23,-5.12,-0.25,86.36,3.34,0.17,-7.24
1,3,-16,1,-460,3880,-0.12,-0.28,-2.84,0.01,-4.60,38.80,-5.14,-0.25,86.37,3.40,0.18,-8.91
2,4,-2,2,-355,3893,-0.09,-0.23,-2.57,0.02,-3.55,38.93,-5.15,-0.23,86.38,3.38,0.13,-9.64
2,4,-1,5,-356,3903,-0.07,-0.18,-2.32,0.05,-3.56,39.03,-5.15,-0.22,86.39,3.38,0.11,-9.52
0,4,6,51,-333,3954,-0.07,-0.14,-2.05,0.51,-3.33,39.54,-5.14,-0.23,86.39,3.41,0.11,-9.78
-3,-2,6,36,-298,3890,-0.08,-0.13,-1.81,0.36,-2.98,38.90,-5.13,-0.24,86.40,3.47,0.24,-9.59
0,4,-3,-14,-392,3901,-0.07,-0.10,-1.64,-0.14,-3.92,39.01,-5.14,-0.23,86.41,3.41,0.10,-8.86
-1,3,-1,-62,-389,3910,-0.07,-0.07,-1.49,-0.62,-3.89,39.10,-5.15,-0.22,86.41,3.44,0.10,-8.87
0,-4,-1,76,-377,3875,-0.06,-0.09,-1.34,0.76,-3.77,38.75,-5.16,-0.23,86.42,3.42,0.26,-8.76
0,-5,3,48,-375,3894,-0.06,-0.11,-1.19,0.48,-3.75,38.94,-5.17,-0.25,86.42,3.43,0.30,-8.91
0,-3,-1,39,-368,3885,-0.05,-0.12,-1.08,0.39,-3.68,38.85,-5.18,-0.26,86.43,3.43,0.27,-8.55
-1,-3,-5,33,-353,3882,-0.05,-0.12,-1.00,0.33,-3.53,38.82,-5.18,-0.28,86.43,3.45,0.28,-8.22
-3,-5,-9,10,-350,3895,-0.06,-0.14,-0.96,0.10,-3.50,38.95,-5.17,-0.27,86.44,3.49,0.32,-7.92
-4,-4,-10,16,-360,3892,-0.08,-0.15,-0.92,0.16,-3.60,38.92,-5.19,-0.26,86.44,3.53,0.30,-7.82
-5,-6,-2,22,-351,3895,-0.10,-0.17,-0.84,0.22,-3.51,38.95,-5.18,-0.28,86.44,3.55,0.35,-8.30
-7,-7,-2,34,-357,3885,-0.14,-0.20,-0.77,0.34,-3.57,38.85,-5.19,-0.30,86.45,3.60,0.39,-8.25
-8,-5,5,27,-357,3899,-0.17,-0.21,-0.66,0.27,-3.57,38.99,-5.20,-0.31,86.45,3.64,0.37,-8.64
-9,-4,5,34,-351,3878,-0.21,-0.21,-0.57,0.34,-3.51,38.78,-5.19,-0.33,86.45,3.67,0.36,-8.56
-9,-8,15,28,-348,3879,-0.24,-0.24,-0.42,0.28,-3.48,38.79,-5.18,-0.35,86.45,3.67,0.46,-9.12
-9,-7,16,11,-319,3899,-0.27,-0.26,-0.28,0.11,-3.19,38.99,-5.17,-0.34,86.45,3.67,0.44,-9.08
-3,-12,26,61,-486,3860,-0.27,-0.31,-0.09,0.61,-4.86,38.60,-5.19,-0.35,86.45,3.56,0.56,-9.61
-7,-15,22,-84,-299,3901,-0.28,-0.37,0.05,-0.84,-2.99,39.01,-5.18,-0.34,86.45,3.64,0.63,-9.23
18,6,-6,97,-555,4016,-0.14,-0.29,0.01,0.97,-5.55,40.16,-5.20,-0.34,86.45,3.10,0.18,-7.37
11,-7,3,94,-666,3930,-0.06,-0.31,0.03,0.94,-6.66,39.30,-5.21,-0.35,86.45,3.23,0.46,-7.96
17,23,106,-65,-573,3856,0.05,-0.14,0.67,-0.65,-5.73,38.56,-5.23,-0.34,86.45,3.09,-0.21,-14.44
12,12,117,-40,-487,3909,0.12,-0.05,1.32,-0.40,-4.87,39.09,-5.25,-0.33,86.44,3.19,-0.01,-14.68
1,-2,35,39,16,3987,0.11,-0.06,1.40,0.39,0.16,39.87,-5.23,-0.33,86.44,3.40,0.28,-9.06
10,2,-2,70,-165,3910,0.16,-0.04,1.25,0.70,-1.65,39.10,-5.21,-0.34,86.43,3.19,0.19,-6.67
38,18,-26,151,-656,4061,0.38,0.08,0.96,1.51,-6.56,40.61,-5.23,-0.34,86.43,2.57,-0.16,-5.26
17,4,-14,71,-659,3802,0.44,0.09,0.78,0.71,-6.59,38.02,-5.24,-0.35,86.43,2.99,0.12,-6.22
5,16,115,11,-459,3660,0.43,0.18,1.41,0.11,-4.59,36.60,-5.26,-0.34,86.42,3.25,-0.15,-14.47
-1,2,145,-28,-252,4156,0.38,0.17,2.15,-0.28,-2.52,41.56,-5.24,-0.34,86.41,3.38,0.13,-15.93
6,5,150,-15,-226,4090,0.38,0.19,2.85,-0.15,-2.26,40.90,-5.22,-0.33,86.40,3.22,0.06,-15.72
-1,-10,141,-23,-249,3864,0.33,0.11,3.42,-0.23,-2.49,38.64,-5.20,-0.32,86.39,3.36,0.39,-14.66
2,-6,91,-11,-205,3843,0.31,0.06,3.64,-0.11,-2.05,38.43,-5.18,-0.31,86.37,3.30,0.31,-11.10
3,-2,82,-18,-240,3909,0.30,0.04,3.77,-0.18,-2.40,39.09,-5.17,-0.31,86.36,3.27,0.23,-10.38
-1,2,71,44,-274,3921,0.26,0.05,3.83,0.44,-2.74,39.21,-5.15,-0.31,86.34,3.35,0.15,-9.59
-1,-1,64,44,-267,3906,0.23,0.04,3.84,0.44,-2.67,39.06,-5.13,-0.31,86.33,3.34,0.22,-9.11
-1,-2,39,26,-301,3893,0.20,0.02,3.69,0.26,-3.01,38.93,-5.11,-0.31,86.31,3.34,0.24,-7.53
0,1,35,28,-319,3896,0.18,0.03,3.54,0.28,-3.19,38.96,-5.09,-0.32,86.30,3.31,0.18,-7.38
-2,0,32,9,-365,3909,0.15,0.02,3.38,0.09,-3.65,39.09,-5.11,-0.30,86.29,3.37,0.19,-7.30
-1,0,36,-6,-377,3895,0.13,0.02,3.26,-0.06,-3.77,38.95,-5.12,-0.29,86.27,3.36,0.19,-7.66
2,-3,38,-5,-376,3891,0.13,0.00,3.16,-0.05,-3.76,38.91,-5.13,-0.28,86.26,3.31,0.24,-7.87
3,-1,45,-19,-413,3904,0.13,-0.01,3.12,-0.19,-4.13,39.04,-5.15,-0.27,86.25,3.30,0.20,-8.37
-2,0,49,-59,-319,3910,0.11,-0.00,3.11,-0.59,-3.19,39.10,-5.14,-0.25,86.24,3.40,0.17,-8.65
-4,-4,38,-48,-316,3952,0.07,-0.03,3.03,-0.48,-3.16,39.52,-5.13,-0.23,86.22,3.45,0.24,-7.97
-6,1,12,-72,-413,3869,0.03,-0.02,2.80,-0.72,-4.13,38.69,-5.14,-0.22,86.21,3.51,0.13,-6.38
4,3,7,-98,-444,3860,0.05,0.00,2.56,-0.98,-4.44,38.60,-5.15,-0.20,86.20,3.30,0.07,-6.23
-3,6,57,1,-404,3883,0.03,0.04,2.65,0.01,-4.04,38.83,-5.17,-0.20,86.19,3.47,-0.00,-9.55
-9,10,83,-14,-398,3951,-0.03,0.09,2.90,-0.14,-3.98,39.51,-5.18,-0.18,86.18,3.61,-0.11,-11.12
5,11,153,-68,-506,3925,0.00,0.15,3.54,-0.68,-5.06,39.25,-5.20,-0.17,86.17,3.33,-0.15,-15.36
-5,-2,160,-58,-474,3808,-0.03,0.12,4.16,-0.58,-4.74,38.08,-5.22,-0.16,86.15,3.55,0.11,-15.35
-4,2,163,-31,-367,3902,-0.05,0.12,4.74,-0.31,-3.67,39.02,-5.22,-0.14,86.13,3.54,0.02,-15.10
-10,6,173,-37,-343,3991,-0.10,0.15,5.32,-0.37,-3.43,39.91,-5.21,-0.12,86.11,3.67,-0.08,-15.32
-1,17,140,-38,-351,4047,-0.10,0.24,5.64,-0.38,-3.51,40.47,-5.21,-0.10,86.09,3.49,-0.34,-12.83
-6,-3,126,-102,-422,3819,-0.13,0.20,5.85,-1.02,-4.22,38.19,-5.22,-0.09,86.06,3.60,0.06,-11.72
-6,-20,142,-97,-579,3784,-0.15,0.05,6.13,-0.97,-5.79,37.84,-5.24,-0.08,86.04,3.62,0.44,-12.58
2,12,166,-73,-629,3801,-0.12,0.12,6.53,-0.73,-6.29,38.01,-5.25,-0.07,86.01,3.46,-0.23,-13.89
-7,-3,310,-54,-614,3794,-0.15,0.09,7.77,-0.54,-6.14,37.94,-5.27,-0.06,85.98,3.66,0.08,-20.00
12,27,352,-64,-526,3969,-0.07,0.25,9.14,-0.64,-5.26,39.69,-5.29,-0.05,85.95,3.27,-0.58,-20.00
-6,25,439,-32,-319,4039,-0.10,0.37,10.90,-0.32,-3.19,40.39,-5.28,-0.03,85.90,3.63,-0.59,-20.00
18,7,446,-34,-174,3710,0.02,0.38,12.53,-0.34,-1.74,37.10,-5.26,-0.02,85.85,3.10,-0.23,-20.00
10,5,389,45,-320,3743,0.08,0.37,13.65,0.45,-3.20,37.43,-5.25,-0.03,85.80,3.24,-0.18,-20.00
-2,39,382,11,-325,3718,0.06,0.57,14.62,0.11,-3.25,37.18,-5.23,-0.03,85.74,3.48,-0.93,-20.00
8,21,408,176,-195,3888,0.10,0.64,15.64,1.76,-1.95,38.88,-5.22,-0.04,85.68,3.25,-0.58,-20.00
-3,-1,412,172,-168,4212,0.08,0.57,16.59,1.72,-1.68,42.12,-5.20,-0.04,85.61,3.48,-0.11,-20.00
-24,-13,370,161,-146,4130,-0.08,0.44,17.19,1.61,-1.46,41.30,-5.19,-0.04,85.54,3.93,0.17,-19.35
0,-18,343,138,-84,3646,-0.07,0.28,17.56,1.38,-0.84,36.46,-5.17,-0.05,85.47,3.43,0.32,-17.22
3,8,261,252,-220,3797,-0.04,0.30,17.40,2.52,-2.20,37.97,-5.17,-0.06,85.41,3.36,-0.21,-11.79
-9,-10,236,246,-167,4050,-0.10,0.21,17.10,2.46,-1.67,40.50,-5.15,-0.06,85.34,3.61,0.19,-10.32
-11,-14,145,178,-185,3870,-0.15,0.11,16.27,1.78,-1.85,38.70,-5.14,-0.07,85.27,3.66,0.30,-4.79
2,6,94,127,-240,3965,-0.13,0.13,15.22,1.27,-2.40,39.65,-5.13,-0.08,85.21,3.38,-0.11,-2.15
-3,3,70,45,-335,3890,-0.13,0.14,14.12,0.45,-3.35,38.90,-5.13,-0.09,85.16,3.48,-0.04,-1.38
-4,3,78,43,-359,3869,-0.14,0.14,13.19,0.43,-3.59,38.69,-5.13,-0.10,85.10,3.51,-0.03,-2.64
-4,-1,66,14,-360,3902,-0.15,0.12,12.27,0.14,-3.60,39.02,-5.15,-0.11,85.05,3.52,0.06,-2.54
-4,-3,65,23,-361,3894,-0.16,0.09,11.44,0.23,-3.61,38.94,-5.16,-0.12,85.01,3.53,0.11,-3.12
-7,-4,87,30,-413,3885,-0.19,0.06,10.83,0.30,-4.13,38.85,-5.18,-0.12,84.97,3.61,0.14,-5.09
-6,-1,90,24,-408,3871,-0.21,0.05,10.29,0.24,-4.08,38.71,-5.19,-0.12,84.92,3.61,0.09,-5.70
-7,-4,71,-37,-327,3931,-0.23,0.02,9.70,-0.37,-3.27,39.31,-5.19,-0.10,84.89,3.63,0.14,-4.88
-7,-7,63,-13,-326,3920,-0.25,-0.03,9.11,-0.13,-3.26,39.20,-5.17,-0.09,84.85,3.62,0.21,-4.79
-6,-4,53,19,-345,3888,-0.26,-0.05,8.52,0.19,-3.45,38.88,-5.16,-0.10,84.82,3.60,0.16,-4.57
-8,-5,49,55,-320,3897,-0.28,-0.07,7.97,0.55,-3.20,38.97,-5.15,-0.11,84.78,3.64,0.20,-4.73
-3,-2,19,58,-282,3905,-0.27,-0.08,7.29,0.58,-2.82,39.05,-5.14,-0.12,84.76,3.53,0.14,-3.22
-1,-2,10,40,-307,3900,-0.25,-0.08,6.62,0.40,-3.07,39.00,-5.13,-0.13,84.73,3.47,0.15,-3.13
-4,0,2,27,-355,3904,-0.25,-0.08,5.97,0.27,-3.55,39.04,-5.13,-0.15,84.71,3.54,0.12,-3.09
-3,1,0,22,-367,3906,-0.24,-0.06,5.37,0.22,-3.67,39.06,-5.15,-0.16,84.68,3.53,0.10,-3.42
2,9,-6,12,-412,3879,-0.21,-0.00,4.80,0.12,-4.12,38.79,-5.17,-0.16,84.66,3.43,-0.08,-3.46
5,11,-4,16,-504,3883,-0.16,0.07,4.30,0.16,-5.04,38.83,-5.19,-0.15,84.65,3.36,-0.14,-3.99
28,20,91,76,-769,3974,0.03,0.18,4.42,0.76,-7.69,39.74,-5.20,-0.15,84.63,2.86,-0.35,-10.33
11,15,153,48,-698,3921,0.09,0.26,4.91,0.48,-6.98,39.21,-5.22,-0.15,84.61,3.20,-0.27,-14.15
13,29,248,-43,-241,4066,0.16,0.41,5.93,-0.43,-2.41,40.66,-5.20,-0.14,84.59,3.13,-0.61,-19.79
2,25,198,-48,-204,3706,0.16,0.52,6.55,-0.48,-2.04,37.06,-5.19,-0.13,84.56,3.34,-0.56,-15.92
18,14,107,55,-405,3822,0.25,0.55,6.55,0.55,-4.05,38.22,-5.20,-0.14,84.53,3.00,-0.34,-9.75
-5,14,108,59,-376,3955,0.20,0.58,6.55,0.59,-3.76,39.55,-5.21,-0.15,84.51,3.48,-0.34,-9.81
-3,6,85,-106,-46,4036,0.16,0.56,6.41,-1.06,-0.46,40.36,-5.19,-0.14,84.48,3.44,-0.18,-8.35
32,8,39,64,-288,4175,0.34,0.55,6.01,0.64,-2.88,41.75,-5.17,-0.14,84.46,2.67,-0.22,-5.55
1,1,58,-3,-593,4011,0.31,0.50,5.76,-0.03,-5.93,40.11,-5.19,-0.14,84.44,3.32,-0.07,-7.03
1,16,103,-1,-573,3769,0.29,0.55,5.82,-0.01,-5.73,37.69,-5.21,-0.13,84.41,3.34,-0.39,-10.04
-21,10,139,-79,194,4093,0.13,0.56,6.08,-0.79,1.94,40.93,-5.19,-0.13,84.39,3.81,-0.27,-12.27
-13,-14,62,121,165,4059,0.04,0.42,5.85,1.21,1.65,40.59,-5.17,-0.13,84.37,3.67,0.26,-7.22
21,36,-37,38,-429,3926,0.16,0.59,5.04,0.38,-4.29,39.26,-5.19,-0.13,84.35,2.95,-0.81,-1.15
39,51,-46,165,-852,4028,0.38,0.85,4.26,1.65,-8.52,40.28,-5.20,-0.13,84.33,2.54,-1.18,-1.15
-13,15,120,0,-289,3809,0.27,0.85,4.56,0.00,-2.89,38.09,-5.18,-0.12,84.31,3.61,-0.46,-12.16
-9,31,155,-135,-25,3719,0.18,0.96,5.05,-1.35,-0.25,37.19,-5.16,-0.11,84.29,3.54,-0.82,-14.15
26,57,120,-19,-310,3590,0.32,1.21,5.28,-0.19,-3.10,35.90,-5.15,-0.09,84.27,2.78,-1.43,-11.59
12,39,111,-45,-325,4067,0.37,1.33,5.43,-0.45,-3.25,40.67,-5.14,-0.07,84.25,3.05,-1.11,-10.87
-7,-15,20,-132,-20,4014,0.29,1.10,5.01,-1.32,-0.20,40.14,-5.12,-0.05,84.23,3.45,0.04,-5.03
5,-8,-10,7,-142,3775,0.29,0.94,4.45,0.07,-1.42,37.75,-5.10,-0.05,84.21,3.19,-0.06,-3.43
2,-9,-31,16,-407,3998,0.27,0.79,3.81,0.16,-4.07,39.98,-5.12,-0.05,84.20,3.27,-0.00,-2.50
55,21,-48,23,-782,4143,0.58,0.84,3.14,0.23,-7.82,41.43,-5.14,-0.04,84.19,2.11,-0.63,-1.87
5,-4,57,-101,-670,3956,0.55,0.73,3.17,-1.01,-6.70,39.56,-5.15,-0.03,84.17,3.15,-0.10,-8.96
-4,-6,142,-150,-149,3694,0.47,0.62,3.72,-1.50,-1.49,36.94,-5.14,-0.02,84.16,3.34,-0.04,-14.29
5,-7,36,44,-26,4061,0.46,0.52,3.57,0.44,-0.26,40.61,-5.12,-0.02,84.15,3.15,0.01,-7.23
-2,-15,-5,85,-93,3897,0.40,0.38,3.18,0.85,-0.93,38.97,-5.10,-0.02,84.13,3.30,0.22,-4.75
0,-5,-28,0,-338,3871,0.36,0.31,2.69,0.00,-3.38,38.71,-5.08,-0.01,84.12,3.25,0.03,-3.57
0,-9,-28,-22,-334,3918,0.32,0.22,2.25,-0.22,-3.34,39.18,-5.07,0.00,84.11,3.26,0.12,-3.91
1,-8,-15,37,-358,3887,0.30,0.15,1.94,0.37,-3.58,38.87,-5.07,-0.01,84.11,3.25,0.13,-5.04
-4,-10,-1,51,-345,3914,0.24,0.07,1.74,0.51,-3.45,39.14,-5.07,-0.03,84.10,3.36,0.20,-6.15
-8,-16,31,18,-321,3910,0.17,-0.03,1.75,0.18,-3.21,39.10,-5.05,-0.04,84.09,3.45,0.36,-8.30
-8,-16,39,15,-326,3899,0.10,-0.13,1.81,0.15,-3.26,38.99,-5.04,-0.05,84.09,3.46,0.39,-8.79
-11,-12,58,8,-321,3908,0.03,-0.19,1.99,0.08,-3.21,39.08,-5.02,-0.05,84.08,3.53,0.33,-9.95
-12,-11,67,11,-329,3902,-0.05,-0.23,2.20,0.11,-3.29,39.02,-5.00,-0.06,84.07,3.56,0.33,-10.39
-8,-6,78,13,-306,3908,-0.09,-0.25,2.45,0.13,-3.06,39.08,-4.99,-0.07,84.06,3.48,0.23,-10.94
-4,-3,75,18,-307,3904,-0.11,-0.24,2.66,0.18,-3.07,39.04,-4.97,-0.07,84.05,3.39,0.18,-10.57
-5,3,84,-4,-336,3914,-0.13,-0.20,2.91,-0.04,-3.36,39.14,-4.96,-0.06,84.04,3.41,0.03,-10.98
-3,5,79,-22,-356,3907,-0.13,-0.15,3.10,-0.22,-3.56,39.07,-4.97,-0.04,84.02,3.38,-0.03,-10.49
-4,-1,71,7,-425,3901,-0.14,-0.14,3.22,0.07,-4.25,39.01,-4.99,-0.04,84.01,3.42,0.09,-9.85
-4,-4,79,7,-399,3884,-0.15,-0.15,3.38,0.07,-3.99,38.84,-5.01,-0.04,84.00,3.43,0.15,-10.27
-5,-12,86,-12,-383,3892,-0.17,-0.21,3.57,-0.12,-3.83,38.92,-5.03,-0.04,83.98,3.47,0.32,-10.60
-5,-9,93,8,-394,3871,-0.18,-0.24,3.78,0.08,-3.94,38.71,-5.05,-0.04,83.97,3.48,0.27,-10.91
-16,-15,147,-32,-372,3885,-0.26,-0.31,4.30,-0.32,-3.72,38.85,-5.06,-0.02,83.95,3.74,0.40,-14.16
-17,-18,134,-3,-302,3899,-0.34,-0.39,4.69,-0.03,-3.02,38.99,-5.04,-0.02,83.93,3.77,0.49,-12.98
-6,-9,51,50,-275,3921,-0.34,-0.40,4.53,0.50,-2.75,39.21,-5.03,-0.03,83.91,3.54,0.31,-7.47
-5,-7,33,19,-310,3909,-0.34,-0.41,4.28,0.19,-3.10,39.09,-5.01,-0.04,83.90,3.50,0.28,-6.45
-6,-1,11,3,-328,3908,-0.34,-0.37,3.92,0.03,-3.28,39.08,-5.00,-0.04,83.88,3.51,0.15,-5.24
-6,-3,9,8,-339,3908,-0.34,-0.35,3.58,0.08,-3.39,39.08,-4.99,-0.06,83.87,3.51,0.19,-5.36
-8,-11,5,-11,-353,3896,-0.36,-0.38,3.25,-0.11,-3.53,38.96,-5.00,-0.04,83.85,3.56,0.36,-5.35
3,-11,6,-28,-426,3823,-0.30,-0.41,2.96,-0.28,-4.26,38.23,-5.02,-0.04,83.84,3.34,0.36,-5.64
-10,-13,48,-53,-425,3887,-0.33,-0.45,2.96,-0.53,-4.25,38.87,-5.04,-0.03,83.83,3.62,0.41,-8.49
-12,-22,49,-42,-382,3915,-0.37,-0.54,2.96,-0.42,-3.82,39.15,-5.05,-0.02,83.82,3.68,0.60,-8.55
-21,-19,85,-48,-469,3884,-0.47,-0.60,3.19,-0.48,-4.69,38.84,-5.07,-0.01,83.80,3.90,0.56,-10.82
-22,-26,105,-29,-333,3958,-0.55,-0.70,3.51,-0.29,-3.33,39.58,-5.06,0.00,83.79,3.94,0.72,-11.92
-16,-15,94,9,-297,3928,-0.60,-0.72,3.73,0.09,-2.97,39.28,-5.05,-0.00,83.78,3.82,0.50,-11.00
-10,-15,83,39,-247,3974,-0.60,-0.74,3.86,0.39,-2.47,39.74,-5.03,-0.01,83.76,3.69,0.51,-10.15
0,-5,37,22,-358,3925,-0.54,-0.70,3.70,0.22,-3.58,39.25,-5.05,-0.03,83.74,3.48,0.31,-7.15
0,-3,41,12,-383,3891,-0.48,-0.65,3.58,0.12,-3.83,38.91,-5.06,-0.03,83.73,3.47,0.26,-7.52
22,12,77,116,-1248,3738,-0.30,-0.51,3.69,1.16,-12.48,37.38,-5.08,-0.03,83.72,2.99,-0.08,-9.87
44,54,175,-92,-935,3803,-0.00,-0.13,4.39,-0.92,-9.35,38.03,-5.10,-0.03,83.70,2.47,-1.04,-15.96
19,37,538,-47,-680,3890,0.11,0.11,7.23,-0.47,-6.80,38.90,-5.12,-0.03,83.67,2.96,-0.77,-20.00
-25,-14,587,-219,-165,3696,-0.05,0.01,10.09,-2.19,-1.65,36.96,-5.11,-0.01,83.63,3.89,0.29,-20.00
6,-37,198,113,538,3869,-0.01,-0.21,10.29,1.13,5.38,38.69,-5.09,-0.01,83.59,3.24,0.81,-12.90
30,-51,19,135,91,4084,0.18,-0.50,9.38,1.35,0.91,40.84,-5.07,-0.01,83.55,2.69,1.18,-1.48
29,-67,-21,122,-277,3784,0.33,-0.86,8.31,1.22,-2.77,37.84,-5.06,-0.03,83.52,2.66,1.62,0.40
49,-22,-17,395,-788,4323,0.60,-0.91,7.38,3.95,-7.88,43.23,-5.07,-0.04,83.49,2.19,0.72,-0.60
-23,-26,31,-66,-317,3782,0.40,-0.98,6.83,-0.66,-3.17,37.82,-5.07,-0.02,83.46,3.70,0.81,-4.28
10,19,151,190,-665,3660,0.42,-0.76,7.07,1.90,-6.65,36.60,-5.08,-0.03,83.43,3.04,-0.16,-12.22
-7,70,376,52,-533,3972,0.34,-0.26,8.65,0.52,-5.33,39.72,-5.10,-0.04,83.40,3.42,-1.33,-20.00
-26,62,419,25,-569,3873,0.14,0.14,10.34,0.25,-5.69,38.73,-5.12,-0.03,83.36,3.87,-1.28,-20.00
-18,-20,500,121,-305,4091,0.02,0.01,12.36,1.21,-3.05,40.91,-5.11,-0.05,83.31,3.73,0.44,-20.00
-29,-51,526,92,-238,3911,-0.16,-0.30,14.33,0.92,-2.38,39.11,-5.09,-0.05,83.25,3.99,1.16,-20.00
-7,64,498,1,-183,3817,-0.19,0.12,15.94,0.01,-1.83,38.17,-5.08,-0.05,83.19,3.54,-1.30,-20.00
-24,45,468,33,-169,3953,-0.31,0.38,17.20,0.33,-1.69,39.53,-5.06,-0.04,83.12,3.91,-0.99,-20.00
11,-22,375,54,-139,3997,-0.22,0.21,17.77,0.54,-1.39,39.97,-5.04,-0.04,83.05,3.16,0.42,-19.01
0,-30,335,34,-77,3838,-0.19,0.00,18.03,0.34,-0.77,38.38,-5.03,-0.04,82.97,3.37,0.63,-16.09
-6,58,232,32,-212,3831,-0.21,0.36,17.64,0.32,-2.12,38.31,-5.01,-0.03,82.90,3.49,-1.26,-9.40
-18,59,209,41,-162,3986,-0.30,0.68,17.15,0.41,-1.62,39.86,-4.99,-0.03,82.84,3.74,-1.37,-8.22
1,2,109,-64,-256,3957,-0.26,0.63,16.10,-0.64,-2.56,39.57,-4.98,-0.01,82.77,3.34,-0.21,-2.26
5,-4,84,-45,-260,3932,-0.21,0.54,15.01,-0.45,-2.60,39.32,-4.96,0.01,82.71,3.23,-0.07,-1.42
-1,0,78,-34,-357,3876,-0.19,0.48,13.98,-0.34,-3.57,38.76,-4.97,0.03,82.66,3.36,-0.15,-1.80
-4,4,78,-57,-339,3885,-0.20,0.46,13.06,-0.57,-3.39,38.85,-4.97,0.05,82.61,3.42,-0.24,-2.52
-5,4,81,-109,-316,3887,-0.21,0.44,12.25,-1.09,-3.16,38.87,-4.97,0.08,82.56,3.44,-0.25,-3.35
-6,0,67,-71,-249,3924,-0.22,0.39,11.43,-0.71,-2.49,39.24,-4.96,0.09,82.51,3.45,-0.17,-3.04
-2,-11,44,0,-237,3909,-0.21,0.29,10.56,0.00,-2.37,39.09,-4.94,0.10,82.47,3.36,0.08,-2.16
1,-11,38,14,-244,3900,-0.19,0.19,9.73,0.14,-2.44,39.00,-4.92,0.10,82.43,3.28,0.11,-2.39
3,-10,29,27,-317,3882,-0.15,0.11,8.94,0.27,-3.17,38.82,-4.91,0.09,82.39,3.22,0.12,-2.40
3,-11,28,18,-322,3884,-0.12,0.03,8.21,0.18,-3.22,38.84,-4.91,0.07,82.36,3.21,0.17,-2.89
1,-18,39,-39,-287,3901,-0.10,-0.08,7.63,-0.39,-2.87,39.01,-4.89,0.09,82.33,3.24,0.33,-4.09
9,-29,56,-77,-340,3781,-0.03,-0.25,7.21,-0.77,-3.40,37.81,-4.90,0.10,82.30,3.06,0.59,-5.57
-2,-10,80,-28,-427,3904,-0.04,-0.28,6.98,-0.28,-4.27,39.04,-4.91,0.11,82.27,3.30,0.21,-7.38
-6,-14,82,-52,-397,3935,-0.07,-0.34,6.78,-0.52,-3.97,39.35,-4.93,0.12,82.25,3.40,0.30,-7.67
-2,-30,79,-12,-376,3901,-0.08,-0.49,6.58,-0.12,-3.76,39.01,-4.95,0.12,82.22,3.33,0.66,-7.61
-3,-28,74,-13,-391,3880,-0.09,-0.61,6.38,-0.13,-3.91,38.80,-4.97,0.13,82.20,3.36,0.65,-7.43
-1,-19,84,-49,-424,3891,-0.09,-0.67,6.25,-0.49,-4.24,38.91,-4.98,0.13,82.17,3.33,0.48,-8.21
-7,-15,93,-45,-421,3889,-0.12,-0.69,6.19,-0.45,-4.21,38.89,-5.00,0.14,82.15,3.48,0.40,-8.86
-5,-2,124,14,-449,3940,-0.14,-0.63,6.33,0.14,-4.49,39.40,-5.02,0.13,82.12,3.45,0.12,-10.85
-1,-6,133,34,-436,3929,-0.13,-0.61,6.51,0.34,-4.36,39.29,-5.04,0.13,82.09,3.38,0.20,-11.32
-4,5,158,59,-407,3872,-0.14,-0.52,6.82,0.59,-4.07,38.72,-5.05,0.11,82.07,3.45,-0.04,-12.77
-8,7,168,91,-399,3888,-0.18,-0.42,7.16,0.91,-3.99,38.88,-5.06,0.10,82.04,3.55,-0.09,-13.17
1,0,183,21,-327,3940,-0.15,-0.38,7.56,0.21,-3.27,39.40,-5.05,0.09,82.01,3.35,0.05,-13.88
-1,-7,184,42,-317,3924,-0.14,-0.38,7.93,0.42,-3.17,39.24,-5.04,0.07,81.98,3.39,0.20,-13.65
-4,-29,191,38,-314,3886,-0.15,-0.52,8.30,0.38,-3.14,38.86,-5.03,0.06,81.94,3.44,0.69,-13.84
-9,-12,183,51,-320,3846,-0.19,-0.54,8.59,0.51,-3.20,38.46,-5.02,0.04,81.91,3.55,0.37,-13.07
-6,0,143,60,-282,3953,-0.21,-0.49,8.60,0.60,-2.82,39.53,-5.01,0.03,81.87,3.49,0.11,-10.34
0,-24,137,55,-314,3966,-0.19,-0.59,8.58,0.55,-3.14,39.66,-5.00,0.01,81.84,3.35,0.64,-9.95
5,-38,142,39,-346,3849,-0.14,-0.76,8.59,0.39,-3.46,38.49,-5.01,-0.00,81.81,3.24,0.98,-10.28
2,-23,144,36,-366,3843,-0.11,-0.82,8.61,0.36,-3.66,38.43,-5.02,-0.02,81.77,3.30,0.70,-10.40
-8,4,174,-25,-415,3876,-0.15,-0.72,8.81,-0.25,-4.15,38.76,-5.04,-0.01,81.74,3.53,0.12,-12.27
-9,2,183,-16,-449,3937,-0.19,-0.63,9.04,-0.16,-4.49,39.37,-5.06,-0.01,81.70,3.57,0.14,-12.69
-5,-41,255,-23,-487,3914,-0.20,-0.82,9.69,-0.23,-4.87,39.14,-5.08,-0.01,81.66,3.51,1.06,-17.06
5,-39,273,8,-494,3894,-0.15,-0.98,10.39,0.08,-4.94,38.94,-5.09,-0.01,81.62,3.30,1.06,-17.73
-16,7,359,33,-395,3844,-0.23,-0.84,11.54,0.33,-3.95,38.44,-5.11,-0.02,81.57,3.76,0.10,-20.00
-20,9,393,127,-339,3928,-0.33,-0.70,12.78,1.27,-3.39,39.28,-5.11,-0.03,81.52,3.87,0.03,-20.00
-2,-28,469,128,-394,3918,-0.31,-0.80,14.37,1.28,-3.94,39.18,-5.12,-0.05,81.46,3.50,0.82,-20.00
4,-18,486,113,-426,3785,-0.26,-0.83,15.89,1.13,-4.26,37.85,-5.13,-0.06,81.40,3.37,0.63,-20.00
-7,41,545,109,-324,3819,-0.27,-0.50,17.63,1.09,-3.24,38.19,-5.13,-0.07,81.33,3.60,-0.65,-20.00
-37,39,545,111,-263,3843,-0.47,-0.21,19.19,1.11,-2.63,38.43,-5.12,-0.08,81.25,4.26,-0.68,-20.00
-29,-4,569,30,-337,4041,-0.60,-0.21,20.74,0.30,-3.37,40.41,-5.11,-0.09,81.17,4.12,0.20,-20.00
-11,-26,590,54,-321,4049,-0.61,-0.35,22.27,0.54,-3.21,40.49,-5.10,-0.10,81.08,3.75,0.69,-20.00
-3,-47,547,26,-346,3904,-0.57,-0.60,23.38,0.26,-3.46,39.04,-5.10,-0.11,80.99,3.58,1.19,-20.00
-13,-33,524,-9,-288,3792,-0.59,-0.74,24.24,-0.09,-2.88,37.92,-5.08,-0.10,80.89,3.78,0.94,-20.00
-32,8,487,-14,-228,3891,-0.72,-0.62,24.78,-0.14,-2.28,38.91,-5.07,-0.09,80.79,4.19,0.06,-20.00
-31,15,461,24,-245,3929,-0.84,-0.47,25.12,0.24,-2.45,39.29,-5.05,-0.08,80.69,4.20,-0.12,-18.89
-1,-17,436,26,-331,3939,-0.76,-0.52,25.26,0.26,-3.31,39.39,-5.05,-0.09,80.59,3.56,0.55,-17.07
-13,-17,441,33,-335,3846,-0.77,-0.57,25.43,0.33,-3.35,38.46,-5.05,-0.10,80.49,3.80,0.57,-17.27
-25,19,466,19,-392,3846,-0.84,-0.40,25.73,0.19,-3.92,38.46,-5.07,-0.10,80.39,4.08,-0.21,-18.72
-10,23,468,6,-356,3943,-0.82,-0.22,26.01,0.06,-3.56,39.43,-5.09,-0.09,80.28,3.79,-0.35,-18.63
-5,-4,470,22,-298,3888,-0.77,-0.22,26.28,0.22,-2.98,38.88,-5.08,-0.09,80.18,3.66,0.20,-18.55
-1,1,476,54,-370,3912,-0.70,-0.19,26.55,0.54,-3.70,39.12,-5.09,-0.09,80.07,3.57,0.09,-18.73
-18,27,502,49,-274,3786,-0.74,-0.01,26.96,0.49,-2.74,37.86,-5.07,-0.09,79.97,3.92,-0.48,-20.00
-28,26,529,43,-286,3842,-0.83,0.15,27.49,0.43,-2.86,38.42,-5.06,-0.09,79.86,4.14,-0.51,-20.00
5,13,524,79,-271,4052,-0.72,0.21,27.94,0.79,-2.71,40.52,-5.05,-0.09,79.74,3.43,-0.26,-20.00
-3,-41,516,54,-473,3977,-0.67,-0.06,28.29,0.54,-4.73,39.77,-5.07,-0.09,79.63,3.59,0.91,-20.00
-18,-1,542,30,-479,3777,-0.71,-0.06,28.77,0.30,-4.79,37.77,-5.09,-0.08,79.52,3.92,0.09,-20.00
-20,27,542,92,-404,3768,-0.76,0.11,29.20,0.92,-4.04,37.68,-5.11,-0.09,79.40,3.98,-0.52,-20.00
-26,53,547,11,-264,3989,-0.84,0.42,29.61,0.11,-2.64,39.89,-5.09,-0.08,79.28,4.12,-1.14,-20.00
-14,39,541,17,-341,4048,-0.84,0.62,29.95,0.17,-3.41,40.48,-5.08,-0.07,79.16,3.87,-0.91,-20.00
14,-43,524,2,-372,3885,-0.67,0.30,30.15,0.02,-3.72,38.85,-5.10,-0.06,79.04,3.27,0.83,-19.08
-15,-68,523,11,-415,3930,-0.70,-0.15,30.33,0.11,-4.15,39.30,-5.12,-0.05,78.92,3.88,1.46,-18.86
-10,8,496,-2,-301,3838,-0.69,-0.09,30.32,-0.02,-3.01,38.38,-5.11,-0.04,78.80,3.76,-0.11,-17.03
-8,30,476,-17,-325,3862,-0.67,0.11,30.19,-0.17,-3.25,38.62,-5.10,-0.01,78.68,3.71,-0.63,-15.76
16,14,425,-51,-330,3937,-0.50,0.18,29.77,-0.51,-3.30,39.37,-5.09,0.01,78.56,3.17,-0.34,-12.63
4,-20,415,-20,-363,3861,-0.43,0.04,29.32,-0.20,-3.63,38.61,-5.11,0.04,78.45,3.41,0.37,-12.28
-3,73,466,107,-427,3876,-0.41,0.48,29.23,1.07,-4.27,38.76,-5.12,0.04,78.33,3.55,-1.64,-15.80
-40,60,458,2,-413,3806,-0.61,0.80,29.10,0.02,-4.13,38.06,-5.14,0.05,78.21,4.37,-1.47,-15.35
-8,-15,440,-16,-333,4119,-0.60,0.63,28.88,-0.16,-3.33,41.19,-5.12,0.07,78.10,3.71,0.09,-14.30
9,-33,429,14,-383,3976,-0.48,0.36,28.61,0.14,-3.83,39.76,-5.14,0.07,77.99,3.34,0.53,-13.75
-13,-6,460,68,-395,3785,-0.51,0.29,28.55,0.68,-3.95,37.85,-5.15,0.06,77.87,3.81,0.00,-15.88
-32,-1,464,39,-344,3805,-0.66,0.26,28.53,0.39,-3.44,38.05,-5.16,0.06,77.76,4.23,-0.09,-16.17
-6,-2,491,-24,-349,3938,-0.63,0.22,28.67,-0.24,-3.49,39.38,-5.15,0.09,77.64,3.69,-0.08,-17.87
-23,-17,477,19,-314,4030,-0.71,0.09,28.71,0.19,-3.14,40.30,-5.14,0.09,77.53,4.05,0.26,-16.88
-22,10,449,13,-371,3785,-0.77,0.14,28.58,0.13,-3.71,37.85,-5.16,0.09,77.42,4.06,-0.30,-15.08
-22,34,468,35,-347,3910,-0.83,0.34,28.58,0.35,-3.47,39.10,-5.16,0.08,77.30,4.08,-0.84,-16.36
4,-3,521,21,-281,3889,-0.72,0.29,28.90,0.21,-2.81,38.89,-5.14,0.09,77.19,3.51,-0.07,-19.69
-9,-5,520,-58,-403,3883,-0.70,0.23,29.18,-0.58,-4.03,38.83,-5.16,0.11,77.07,3.78,-0.03,-19.39
-16,34,480,8,-249,3812,-0.73,0.41,29.19,0.08,-2.49,38.12,-5.14,0.12,76.96,3.92,-0.88,-16.66
-12,28,470,-11,-280,3959,-0.73,0.54,29.14,-0.11,-2.80,39.59,-5.13,0.13,76.84,3.83,-0.81,-16.01
5,-26,449,-26,-442,3871,-0.63,0.33,28.96,-0.26,-4.42,38.71,-5.15,0.15,76.72,3.47,0.34,-14.71
-25,-43,429,-62,-372,3910,-0.72,0.03,28.68,-0.62,-3.72,39.10,-5.16,0.18,76.61,4.11,0.75,-13.57
1,21,392,-60,-367,3939,-0.64,0.16,28.21,-0.60,-3.67,39.39,-5.16,0.21,76.50,3.56,-0.61,-11.42
-7,13,379,-22,-354,3968,-0.62,0.22,27.70,-0.22,-3.54,39.68,-5.16,0.23,76.39,3.71,-0.48,-10.93
-7,-13,350,-83,-408,3921,-0.60,0.12,27.06,-0.83,-4.08,39.21,-5.17,0.26,76.28,3.72,0.06,-9.45
-20,-4,364,54,-338,3875,-0.66,0.08,26.58,0.54,-3.38,38.75,-5.17,0.25,76.17,4.00,-0.11,-10.77
-20,12,426,29,-441,3944,-0.72,0.15,26.52,0.29,-4.41,39.44,-5.19,0.25,76.07,4.03,-0.45,-15.01
-18,23,432,-36,-409,3905,-0.75,0.27,26.50,-0.36,-4.09,39.05,-5.21,0.27,75.96,4.01,-0.72,-15.42
-1,36,399,-93,-347,3910,-0.69,0.47,26.28,-0.93,-3.47,39.10,-5.21,0.30,75.86,3.64,-1.05,-13.34
-8,14,357,-190,-163,4001,-0.67,0.50,25.83,-1.90,-1.63,40.01,-5.20,0.32,75.76,3.77,-0.63,-10.84
15,-6,136,-69,-297,3880,-0.51,0.42,24.08,-0.69,-2.97,38.80,-5.18,0.34,75.66,3.25,-0.22,2.78
9,7,111,-44,-327,3871,-0.40,0.42,22.35,-0.44,-3.27,38.71,-5.17,0.36,75.57,3.34,-0.50,3.13
14,3,108,-22,-473,3900,-0.28,0.40,20.77,-0.22,-4.73,39.00,-5.19,0.37,75.49,3.22,-0.41,2.11
-1,-1,88,-18,-514,3930,-0.25,0.35,19.23,-0.18,-5.14,39.30,-5.21,0.38,75.41,3.53,-0.33,2.27
-4,34,38,59,-294,3906,-0.25,0.52,17.54,0.59,-2.94,39.06,-5.20,0.37,75.34,3.58,-1.08,4.35
-6,36,55,108,-142,3994,-0.26,0.69,16.12,1.08,-1.42,39.94,-5.18,0.37,75.28,3.61,-1.17,2.09
-5,14,69,-18,-424,3841,-0.27,0.71,14.93,-0.18,-4.24,38.41,-5.20,0.38,75.22,3.61,-0.73,0.22
-6,19,58,-66,-380,3884,-0.28,0.75,13.79,-0.66,-3.80,38.84,-5.21,0.40,75.16,3.64,-0.86,0.08
-5,40,28,-8,-392,3898,-0.28,0.92,12.58,-0.08,-3.92,38.98,-5.23,0.40,75.11,3.63,-1.33,1.17
-5,36,22,-6,-382,3885,-0.28,1.05,11.46,-0.06,-3.82,38.85,-5.24,0.40,75.07,3.64,-1.28,0.70
-2,6,31,-9,-329,3936,-0.27,0.98,10.50,-0.09,-3.29,39.36,-5.23,0.40,75.03,3.56,-0.65,-0.65
0,1,39,-1,-285,3907,-0.24,0.89,9.69,-0.01,-2.85,39.07,-5.21,0.40,74.99,3.51,-0.52,-1.82
0,20,75,57,-270,3902,-0.22,0.92,9.18,0.57,-2.70,39.02,-5.20,0.39,74.95,3.49,-0.92,-4.66
-4,32,90,39,-220,3941,-0.22,1.02,8.81,0.39,-2.20,39.41,-5.18,0.39,74.92,3.56,-1.19,-5.96
5,25,87,-31,-136,3891,-0.17,1.07,8.46,-0.31,-1.36,38.91,-5.17,0.40,74.89,3.35,-1.06,-6.03
-12,9,114,25,-184,3880,-0.22,1.02,8.31,0.25,-1.84,38.80,-5.15,0.40,74.85,3.70,-0.73,-7.97
-2,24,162,26,-258,3953,-0.21,1.07,8.47,0.26,-2.58,39.53,-5.13,0.40,74.82,3.49,-1.04,-11.10
-5,10,176,66,-281,3974,-0.22,1.02,8.69,0.66,-2.81,39.74,-5.12,0.39,74.78,3.54,-0.74,-11.87
19,-68,246,-31,-109,3964,-0.08,0.50,9.32,-0.31,-1.09,39.64,-5.11,0.40,74.75,3.01,0.98,-16.12
4,-67,266,35,-140,3779,-0.05,0.04,10.01,0.35,-1.40,37.79,-5.09,0.40,74.71,3.29,1.09,-16.93
-9,13,198,92,-382,3827,-0.10,0.12,10.22,0.92,-3.82,38.27,-5.09,0.38,74.67,3.57,-0.55,-12.16
-5,33,175,69,-343,3967,-0.12,0.31,10.27,0.69,-3.43,39.67,-5.09,0.37,74.63,3.50,-1.00,-10.56
8,-12,206,34,-554,4043,-0.06,0.20,10.50,0.34,-5.54,40.43,-5.11,0.37,74.58,3.23,-0.06,-12.48
17,-32,205,20,-525,3854,0.05,-0.01,10.70,0.20,-5.25,38.54,-5.13,0.37,74.54,3.02,0.41,-12.25
2,10,201,6,-332,3890,0.06,0.05,10.85,0.06,-3.32,38.90,-5.12,0.36,74.50,3.32,-0.45,-11.85
-6,20,190,-100,-376,3892,0.01,0.17,10.93,-1.00,-3.76,38.92,-5.12,0.38,74.46,3.50,-0.70,-11.04
-1,11,159,-49,-416,4022,0.01,0.22,10.80,-0.49,-4.16,40.22,-5.14,0.39,74.41,3.41,-0.54,-9.03
4,-3,142,-13,-383,3891,0.03,0.18,10.59,-0.13,-3.83,38.91,-5.16,0.39,74.37,3.31,-0.24,-8.05
2,-16,106,54,-507,3917,0.04,0.06,10.18,0.54,-5.07,39.17,-5.17,0.38,74.33,3.36,0.06,-5.92
-5,13,96,100,-472,3822,0.01,0.14,9.75,1.00,-4.72,38.22,-5.19,0.37,74.29,3.52,-0.55,-5.58
-7,22,80,-2,-523,3877,-0.04,0.26,9.26,-0.02,-5.23,38.77,-5.20,0.38,74.25,3.59,-0.76,-4.87
-5,16,69,-48,-504,3885,-0.06,0.33,8.75,-0.48,-5.04,38.85,-5.22,0.38,74.22,3.57,-0.67,-4.52
-3,11,46,-28,-430,3923,-0.08,0.36,8.16,-0.28,-4.30,39.23,-5.24,0.39,74.19,3.54,-0.58,-3.42
0,9,46,-41,-416,3934,-0.07,0.38,7.62,-0.41,-4.16,39.34,-5.26,0.40,74.16,3.49,-0.55,-3.84
6,-7,59,-35,-384,3905,-0.03,0.30,7.22,-0.35,-3.84,39.05,-5.27,0.41,74.13,3.37,-0.21,-5.03
2,3,67,-22,-333,3854,-0.01,0.29,6.91,-0.22,-3.33,38.54,-5.26,0.41,74.10,3.43,-0.41,-5.81
-6,33,58,43,-295,3915,-0.05,0.46,6.57,0.43,-2.95,39.15,-5.24,0.40,74.08,3.60,-1.06,-5.47
-4,37,50,52,-292,3933,-0.07,0.64,6.22,0.52,-2.92,39.33,-5.23,0.39,74.05,3.55,-1.18,-5.20
3,37,27,62,-317,3938,-0.04,0.80,5.76,0.62,-3.17,39.38,-5.22,0.38,74.03,3.40,-1.22,-3.99
4,38,23,51,-320,3872,-0.01,0.95,5.33,0.51,-3.20,38.72,-5.22,0.36,74.01,3.37,-1.27,-4.06
4,26,31,46,-323,3897,0.01,1.02,4.98,0.46,-3.23,38.97,-5.21,0.35,73.99,3.35,-1.04,-4.87
5,20,37,55,-346,3915,0.04,1.04,4.71,0.55,-3.46,39.15,-5.21,0.34,73.97,3.32,-0.91,-5.49
3,2,46,-48,-352,3860,0.06,0.95,4.52,-0.48,-3.52,38.60,-5.21,0.37,73.95,3.36,-0.54,-6.24
0,16,43,11,-324,3839,0.05,0.95,4.33,0.11,-3.24,38.39,-5.20,0.36,73.93,3.41,-0.82,-6.19
-8,-5,434,-135,-709,4027,-0.00,0.82,6.54,-1.35,-7.09,40.27,-5.21,0.37,73.91,3.60,-0.37,-20.00
8,-24,247,-31,0,3938,0.05,0.59,7.40,-0.31,0.00,39.38,-5.19,0.37,73.88,3.25,0.08,-17.61
-11,9,96,-16,-192,3843,-0.03,0.59,7.24,-0.16,-1.92,38.43,-5.18,0.38,73.85,3.65,-0.59,-7.50
-10,30,67,-55,-280,3809,-0.08,0.71,6.93,-0.55,-2.80,38.09,-5.16,0.39,73.82,3.63,-1.06,-5.77
-8,36,10,-72,-393,3966,-0.12,0.86,6.30,-0.72,-3.93,39.66,-5.17,0.41,73.80,3.61,-1.24,-2.40
-4,27,5,-42,-429,3967,-0.14,0.94,5.70,-0.42,-4.29,39.67,-5.19,0.42,73.78,3.54,-1.08,-2.53
10,-21,28,-38,-458,3905,-0.06,0.72,5.30,-0.38,-4.58,39.05,-5.21,0.43,73.76,3.25,-0.05,-4.40
10,-22,38,-25,-418,3918,0.01,0.51,5.00,-0.25,-4.18,39.18,-5.23,0.43,73.74,3.24,0.03,-5.31
-3,22,59,-25,-307,3877,-0.01,0.60,4.86,-0.25,-3.07,38.77,-5.21,0.43,73.72,3.50,-0.89,-6.84
0,13,58,-36,-387,3913,-0.01,0.62,4.73,-0.36,-3.87,39.13,-5.22,0.44,73.70,3.45,-0.72,-6.87
1,-1,20,-49,-316,3889,-0.00,0.55,4.38,-0.49,-3.16,38.89,-5.21,0.45,73.68,3.42,-0.43,-4.57
3,0,15,-60,-332,3891,0.01,0.49,4.03,-0.60,-3.32,38.91,-5.20,0.47,73.66,3.37,-0.44,-4.50
0,18,12,-30,-363,3897,0.01,0.55,3.70,-0.30,-3.63,38.97,-5.21,0.47,73.65,3.44,-0.83,-4.55
-3,22,17,-34,-309,3907,-0.01,0.63,3.43,-0.34,-3.09,39.07,-5.20,0.47,73.64,3.49,-0.93,-5.10
1,16,16,-17,-260,3896,-0.00,0.67,3.19,-0.17,-2.60,38.96,-5.18,0.47,73.62,3.40,-0.82,-5.22
4,12,16,-36,-269,3907,0.02,0.67,2.97,-0.36,-2.69,39.07,-5.16,0.48,73.61,3.32,-0.74,-5.39
-1,9,31,-94,-330,3866,0.02,0.66,2.86,-0.94,-3.30,38.66,-5.15,0.50,73.60,3.42,-0.69,-6.49
-4,18,31,-82,-339,3834,-0.01,0.70,2.76,-0.82,-3.39,38.34,-5.15,0.52,73.59,3.48,-0.90,-6.57
-14,18,24,-89,-339,3922,-0.09,0.74,2.63,-0.89,-3.39,39.22,-5.15,0.54,73.58,3.71,-0.93,-6.19
-11,12,27,-68,-350,3925,-0.15,0.74,2.53,-0.68,-3.50,39.25,-5.15,0.56,73.57,3.66,-0.82,-6.47
2,-12,51,-51,-376,3933,-0.12,0.60,2.59,-0.51,-3.76,39.33,-5.16,0.58,73.56,3.40,-0.30,-8.05
2,-15,66,-21,-332,3901,-0.10,0.44,2.74,-0.21,-3.32,39.01,-5.15,0.57,73.55,3.38,-0.19,-8.96
-14,38,36,-4,-326,3830,-0.18,0.63,2.68,-0.04,-3.26,38.30,-5.14,0.55,73.54,3.72,-1.31,-6.96
-20,55,29,25,-345,3927,-0.28,0.90,2.59,0.25,-3.45,39.27,-5.14,0.54,73.53,3.87,-1.72,-6.56
4,10,58,-81,-411,4017,-0.23,0.87,2.68,-0.81,-4.11,40.17,-5.15,0.56,73.52,3.38,-0.81,-8.45
10,-13,69,-100,-375,3963,-0.14,0.71,2.84,-1.00,-3.75,39.63,-5.16,0.58,73.51,3.24,-0.31,-9.08
-3,-1,52,-80,-324,3767,-0.15,0.63,2.87,-0.80,-3.24,37.67,-5.15,0.60,73.50,3.50,-0.55,-7.90
-11,21,37,-91,-349,3764,-0.20,0.70,2.81,-0.91,-3.49,37.64,-5.16,0.62,73.49,3.68,-1.03,-6.93
-11,22,4,-17,-398,4080,-0.25,0.76,2.55,-0.17,-3.98,40.80,-5.17,0.61,73.48,3.70,-1.06,-4.89
3,-7,16,-56,-400,4031,-0.20,0.64,2.40,-0.56,-4.00,40.31,-5.19,0.62,73.47,3.42,-0.44,-5.83
3,-39,65,-20,-248,3789,-0.17,0.34,2.55,-0.20,-2.48,37.89,-5.17,0.62,73.46,3.40,0.29,-9.02
-16,9,65,-101,-232,3713,-0.25,0.36,2.69,-1.01,-2.32,37.13,-5.16,0.63,73.45,3.80,-0.70,-8.91
-1,54,69,15,-503,4053,-0.23,0.65,2.85,0.15,-5.03,40.53,-5.17,0.63,73.43,3.50,-1.69,-9.06
2,23,81,113,-544,4115,-0.19,0.73,3.05,1.13,-5.44,41.15,-5.19,0.62,73.42,3.44,-1.08,-9.71
22,-71,126,-126,-486,3764,-0.04,0.22,3.52,-1.26,-4.86,37.64,-5.20,0.63,73.41,3.00,0.97,-12.40
7,-41,152,-84,-473,3758,0.01,-0.05,4.09,-0.84,-4.73,37.58,-5.22,0.64,73.39,3.30,0.43,-13.71
-32,79,168,-65,-346,3865,-0.19,0.44,4.71,-0.65,-3.46,38.65,-5.22,0.66,73.37,4.14,-2.16,-14.31
-23,79,170,1,-385,3993,-0.31,0.88,5.27,0.01,-3.85,39.93,-5.22,0.65,73.35,4.00,-2.27,-14.00
11,-46,196,-38,-395,3936,-0.21,0.51,5.94,-0.38,-3.95,39.36,-5.24,0.65,73.33,3.29,0.37,-15.24
10,-55,187,-38,-330,3875,-0.13,0.12,6.49,-0.38,-3.30,38.75,-5.23,0.65,73.30,3.28,0.66,-14.20
-15,50,170,52,-303,3842,-0.21,0.41,6.88,0.52,-3.03,38.42,-5.22,0.64,73.28,3.81,-1.55,-12.75
-16,50,178,-71,-343,3913,-0.29,0.68,7.28,-0.71,-3.43,39.13,-5.21,0.66,73.25,3.84,-1.63,-12.97
-2,-7,180,73,-367,3982,-0.27,0.57,7.65,0.73,-3.67,39.82,-5.21,0.64,73.22,3.55,-0.44,-12.82
2,-23,173,38,-320,3958,-0.23,0.37,7.94,0.38,-3.20,39.58,-5.20,0.63,73.19,3.46,-0.05,-12.11
-4,14,148,45,-365,3834,-0.23,0.42,8.05,0.45,-3.65,38.34,-5.21,0.62,73.15,3.58,-0.81,-10.33
0,26,147,27,-382,3872,-0.21,0.54,8.14,0.27,-3.82,38.72,-5.22,0.61,73.12,3.50,-1.07,-10.19
0,1,131,14,-253,3982,-0.19,0.49,8.12,0.14,-2.53,39.82,-5.20,0.60,73.09,3.48,-0.55,-9.11
0,-7,119,32,-278,3910,-0.17,0.40,8.04,0.32,-2.78,39.10,-5.19,0.59,73.06,3.47,-0.36,-8.36
-2,20,98,-25,-306,3845,-0.16,0.48,7.83,-0.25,-3.06,38.45,-5.17,0.59,73.03,3.50,-0.93,-7.10
-6,29,91,-52,-313,3862,-0.18,0.61,7.60,-0.52,-3.13,38.62,-5.15,0.60,73.00,3.57,-1.15,-6.80
-8,21,85,-7,-400,3929,-0.21,0.68,7.36,-0.07,-4.00,39.29,-5.17,0.60,72.97,3.63,-1.01,-6.58
2,16,76,-16,-419,3911,-0.18,0.71,7.09,-0.16,-4.19,39.11,-5.19,0.60,72.94,3.43,-0.91,-6.18
-5,13,88,-14,-386,3929,-0.19,0.71,6.92,-0.14,-3.86,39.29,-5.20,0.59,72.91,3.59,-0.85,-7.12
-1,12,87,-21,-397,3905,-0.18,0.72,6.76,-0.21,-3.97,39.05,-5.22,0.59,72.89,3.51,-0.83,-7.18
-9,25,132,-2,-258,3910,-0.22,0.80,6.89,-0.02,-2.58,39.10,-5.20,0.59,72.86,3.67,-1.11,-10.13
-4,31,153,50,-397,3890,-0.22,0.91,7.13,0.50,-3.97,38.90,-5.21,0.58,72.83,3.58,-1.26,-11.36
2,30,156,-46,-417,3950,-0.19,1.00,7.37,-0.46,-4.17,39.50,-5.23,0.58,72.80,3.46,-1.27,-11.37
0,21,155,-55,-399,3886,-0.17,1.03,7.58,-0.55,-3.99,38.86,-5.24,0.60,72.77,3.51,-1.10,-11.14
-7,21,273,4,-431,3917,-0.19,1.05,8.48,0.04,-4.31,39.17,-5.26,0.60,72.74,3.67,-1.11,-18.42
-10,11,260,-11,-388,3944,-0.23,1.01,9.22,-0.11,-3.88,39.44,-5.27,0.59,72.70,3.75,-0.89,-16.96
1,5,188,-19,-385,3867,-0.21,0.94,9.45,-0.19,-3.85,38.67,-5.29,0.58,72.67,3.53,-0.74,-11.90
5,7,184,24,-341,3963,-0.15,0.89,9.62,0.24,-3.41,39.63,-5.28,0.58,72.63,3.43,-0.76,-11.49
-4,3,178,40,-374,3884,-0.16,0.82,9.75,0.40,-3.74,38.84,-5.28,0.56,72.59,3.61,-0.66,-10.98
-4,-1,170,31,-366,3923,-0.17,0.73,9.81,0.31,-3.66,39.23,-5.29,0.55,72.55,3.62,-0.54,-10.39
-5,1,186,-45,-368,3900,-0.18,0.67,9.96,-0.45,-3.68,39.00,-5.30,0.57,72.51,3.65,-0.58,-11.35
-5,11,203,-36,-392,3851,-0.20,0.67,10.21,-0.36,-3.92,38.51,-5.32,0.58,72.47,3.66,-0.79,-12.31
-4,12,214,31,-263,3899,-0.20,0.67,10.49,0.31,-2.63,38.99,-5.30,0.57,72.43,3.64,-0.81,-12.83
-3,8,209,-15,-290,3917,-0.20,0.65,10.72,-0.15,-2.90,39.17,-5.29,0.57,72.39,3.60,-0.72,-12.31
-10,-9,220,30,-346,3881,-0.24,0.53,10.99,0.30,-3.46,38.81,-5.28,0.56,72.34,3.76,-0.33,-12.84
-16,1,230,-26,-335,3815,-0.31,0.49,11.29,-0.26,-3.35,38.15,-5.27,0.56,72.30,3.89,-0.52,-13.28
-4,8,231,-15,-356,3870,-0.31,0.49,11.57,-0.15,-3.56,38.70,-5.27,0.55,72.25,3.64,-0.66,-13.12
-7,2,253,-78,-362,3952,-0.32,0.45,11.96,-0.78,-3.62,39.52,-5.27,0.57,72.20,3.71,-0.54,-14.31
1,8,288,-136,-362,3931,-0.28,0.45,12.52,-1.36,-3.62,39.31,-5.27,0.59,72.16,3.53,-0.68,-16.24
-12,11,301,-95,-388,3913,-0.33,0.48,13.10,-0.95,-3.88,39.13,-5.28,0.62,72.10,3.82,-0.76,-16.66
-2,14,347,-183,-396,3877,-0.31,0.51,13.91,-1.83,-3.96,38.77,-5.28,0.64,72.05,3.61,-0.85,-19.14
-5,16,364,-133,-425,3839,-0.31,0.56,14.74,-1.33,-4.25,38.39,-5.30,0.66,71.99,3.68,-0.92,-19.64
-4,22,448,-49,-513,3897,-0.30,0.64,16.00,-0.49,-5.13,38.97,-5.31,0.67,71.93,3.67,-1.07,-20.00
-10,10,466,-31,-475,3930,-0.33,0.64,17.24,-0.31,-4.75,39.30,-5.33,0.68,71.86,3.81,-0.83,-20.00
-9,5,575,34,-399,3999,-0.35,0.60,19.02,0.34,-3.99,39.99,-5.34,0.67,71.78,3.80,-0.71,-20.00
-13,3,610,124,-380,3821,-0.40,0.56,20.84,1.24,-3.80,38.21,-5.34,0.66,71.70,3.90,-0.65,-20.00
2,24,738,44,-290,3870,-0.34,0.65,23.26,0.44,-2.90,38.70,-5.33,0.66,71.61,3.57,-1.10,-20.00
-19,13,793,10,-302,3861,-0.43,0.66,25.77,0.10,-3.02,38.61,-5.32,0.66,71.50,4.01,-0.88,-20.00
-8,29,798,25,-456,3812,-0.43,0.78,28.06,0.25,-4.56,38.12,-5.33,0.66,71.39,3.80,-1.24,-20.00
-29,12,776,-8,-437,3878,-0.57,0.77,29.99,-0.08,-4.37,38.78,-5.35,0.67,71.27,4.28,-0.90,-20.00
-21,11,709,20,-315,3908,-0.64,0.76,31.32,0.20,-3.15,39.08,-5.34,0.67,71.15,4.13,-0.87,-20.00
9,19,716,-78,-256,3924,-0.52,0.80,32.55,-0.78,-2.56,39.24,-5.32,0.69,71.02,3.47,-1.06,-20.00
-18,13,708,-57,-310,3863,-0.58,0.80,33.62,-0.57,-3.10,38.63,-5.31,0.71,70.89,4.03,-0.95,-20.00
-16,19,708,-72,-232,3846,-0.62,0.84,34.57,-0.72,-2.32,38.46,-5.29,0.73,70.75,3.98,-1.10,-20.00
-6,23,711,-92,-294,3922,-0.59,0.89,35.45,-0.92,-2.94,39.22,-5.27,0.76,70.61,3.76,-1.21,-20.00
-8,25,700,-100,-366,3964,-0.58,0.96,36.18,-1.00,-3.66,39.64,-5.27,0.79,70.46,3.80,-1.29,-20.00
-6,21,627,-137,-386,4013,-0.56,0.99,36.38,-1.37,-3.86,40.13,-5.28,0.83,70.32,3.76,-1.24,-20.00
-4,26,485,-74,-280,3819,-0.53,1.05,35.70,-0.74,-2.80,38.19,-5.26,0.85,70.18,3.70,-1.37,-11.30
-2,29,407,120,-393,3925,-0.49,1.12,34.62,1.20,-3.93,39.25,-5.26,0.85,70.04,3.65,-1.45,-6.85
-4,23,416,5,-313,3843,-0.46,1.15,33.69,0.05,-3.13,38.43,-5.25,0.85,69.91,3.67,-1.34,-8.17
-1,17,391,-15,-190,3887,-0.42,1.14,32.71,-0.15,-1.90,38.87,-5.24,0.86,69.78,3.59,-1.22,-7.23
1,29,383,-7,-245,3924,-0.37,1.20,31.77,-0.07,-2.45,39.24,-5.22,0.87,69.65,3.53,-1.49,-7.41
-2,34,390,-51,-275,3920,-0.35,1.29,30.98,-0.51,-2.75,39.20,-5.20,0.88,69.53,3.57,-1.63,-8.50
-8,10,394,-24,-331,3980,-0.36,1.22,30.28,-0.24,-3.31,39.80,-5.19,0.89,69.41,3.69,-1.12,-9.30
-17,-18,401,-112,-379,3895,-0.43,0.99,29.70,-1.12,-3.79,38.95,-5.20,0.92,69.29,3.89,-0.51,-10.22
2,16,412,-63,-320,3907,-0.38,0.99,29.24,-0.63,-3.20,39.07,-5.18,0.93,69.17,3.48,-1.21,-11.31
-13,2,481,-98,-320,3909,-0.42,0.90,29.25,-0.98,-3.20,39.09,-5.16,0.96,69.06,3.79,-0.92,-15.97
-10,5,522,-123,-331,3907,-0.44,0.84,29.51,-1.23,-3.31,39.07,-5.16,0.99,68.94,3.73,-0.98,-18.53
-2,3,576,-179,-241,3917,-0.40,0.78,30.07,-1.79,-2.41,39.17,-5.14,1.02,68.82,3.55,-0.94,-20.00
-1,12,579,-210,-282,3912,-0.37,0.77,30.60,-2.10,-2.82,39.12,-5.13,1.05,68.70,3.51,-1.15,-20.00
6,8,551,-95,-199,4051,-0.30,0.74,30.90,-0.95,-1.99,40.51,-5.12,1.06,68.57,3.33,-1.07,-19.38
-6,-3,534,-8,-229,4002,-0.30,0.65,31.07,-0.08,-2.29,40.02,-5.10,1.07,68.45,3.57,-0.82,-18.09
-16,5,465,-74,-169,3902,-0.37,0.62,30.80,-0.74,-1.69,39.02,-5.08,1.08,68.33,3.78,-0.98,-13.61
-1,12,448,-82,-192,3894,-0.34,0.63,30.45,-0.82,-1.92,38.94,-5.06,1.10,68.21,3.45,-1.14,-12.72
-7,-1,332,-3,-427,3912,-0.35,0.56,29.43,-0.03,-4.27,39.12,-5.07,1.10,68.09,3.59,-0.86,-5.64
-9,-9,299,-83,-329,3905,-0.37,0.45,28.31,-0.83,-3.29,39.05,-5.06,1.12,67.98,3.62,-0.68,-4.27
-9,-9,231,-124,-232,3866,-0.39,0.35,26.89,-1.24,-2.32,38.66,-5.04,1.13,67.87,3.61,-0.66,-0.76
-1,-4,195,38,-331,4006,-0.35,0.29,25.39,0.38,-3.31,40.06,-5.03,1.13,67.77,3.44,-0.74,0.52
-4,0,133,163,-411,3945,-0.34,0.26,23.66,1.63,-4.11,39.45,-5.04,1.12,67.67,3.50,-0.81,3.38
-3,2,142,119,-358,3930,-0.33,0.25,22.16,1.19,-3.58,39.30,-5.04,1.11,67.58,3.48,-0.84,1.60
1,11,235,88,-525,3824,-0.29,0.29,21.38,0.88,-5.25,38.24,-5.05,1.11,67.50,3.39,-1.03,-5.30
-9,19,251,52,-582,3935,-0.31,0.38,20.77,0.52,-5.82,39.35,-5.07,1.11,67.42,3.61,-1.22,-6.85
-7,7,321,-22,-447,3888,-0.33,0.38,20.65,-0.22,-4.47,38.88,-5.08,1.11,67.34,3.59,-0.98,-11.68
-1,8,342,-41,-442,3905,-0.30,0.39,20.67,-0.41,-4.42,39.05,-5.10,1.11,67.25,3.47,-1.00,-13.08
-14,-1,418,-45,-407,3852,-0.35,0.35,21.16,-0.45,-4.07,38.52,-5.12,1.11,67.17,3.76,-0.81,-17.85
-4,9,445,-92,-361,3863,-0.34,0.37,21.76,-0.92,-3.61,38.63,-5.13,1.13,67.08,3.56,-1.03,-19.21
-5,1,520,-101,-358,3963,-0.34,0.34,22.75,-1.01,-3.58,39.63,-5.13,1.16,66.99,3.58,-0.88,-20.00
-7,-6,531,-159,-328,3857,-0.35,0.27,23.72,-1.59,-3.28,38.57,-5.13,1.19,66.90,3.62,-0.73,-20.00
-5,-6,538,-14,-329,3898,-0.34,0.20,24.63,-0.14,-3.29,38.98,-5.12,1.18,66.80,3.57,-0.71,-20.00
-13,-6,522,-3,-329,3965,-0.39,0.15,25.35,-0.03,-3.29,39.65,-5.11,1.17,66.70,3.75,-0.69,-20.00
-9,-7,491,-114,-244,3960,-0.41,0.09,25.81,-1.14,-2.44,39.60,-5.10,1.19,66.60,3.66,-0.66,-19.11
-3,-13,487,-101,-297,3890,-0.38,0.00,26.20,-1.01,-2.97,38.90,-5.08,1.20,66.49,3.52,-0.53,-18.53
-8,-28,426,-52,-305,3960,-0.39,-0.17,26.18,-0.52,-3.05,39.60,-5.06,1.20,66.39,3.61,-0.18,-14.40
4,-28,418,-76,-310,3837,-0.33,-0.32,26.11,-0.76,-3.10,38.37,-5.04,1.21,66.28,3.34,-0.14,-13.90
-10,-41,345,5,-366,3888,-0.36,-0.54,25.60,0.05,-3.66,38.88,-5.05,1.19,66.18,3.63,0.19,-9.34
-13,-41,315,31,-376,3941,-0.40,-0.74,24.96,0.31,-3.76,39.41,-5.05,1.18,66.08,3.71,0.25,-7.80
2,-36,288,-1,-127,3918,-0.35,-0.88,24.22,-0.01,-1.27,39.18,-5.03,1.18,65.98,3.38,0.19,-6.54
6,-54,291,-48,-208,3910,-0.28,-1.12,23.58,-0.48,-2.08,39.10,-5.01,1.18,65.89,3.26,0.63,-7.24
-6,-24,220,27,-368,3809,-0.29,-1.16,22.56,0.27,-3.68,38.09,-5.02,1.17,65.80,3.51,0.03,-3.21
-3,22,192,56,-387,3852,-0.28,-0.91,21.48,0.56,-3.87,38.52,-5.02,1.15,65.71,3.45,-0.96,-2.15
-17,77,115,-37,-491,3916,-0.35,-0.35,20.03,-0.37,-4.91,39.16,-5.04,1.15,65.63,3.77,-2.23,1.94
-16,53,103,-61,-488,4019,-0.41,0.01,18.66,-0.61,-4.88,40.19,-5.06,1.16,65.56,3.78,-1.84,1.69
12,-28,51,-40,-472,3982,-0.30,-0.16,17.10,-0.40,-4.72,39.82,-5.08,1.16,65.49,3.19,-0.15,4.01
12,-35,48,-41,-435,3937,-0.20,-0.36,15.68,-0.41,-4.35,39.37,-5.09,1.15,65.43,3.17,0.05,3.11
1,22,47,-10,-437,3818,-0.17,-0.19,14.40,-0.10,-4.37,38.18,-5.11,1.15,65.37,3.40,-1.15,2.18
-3,37,45,-1,-428,3861,-0.17,0.06,13.24,-0.01,-4.28,38.61,-5.12,1.14,65.32,3.49,-1.52,1.41
6,-3,80,24,-378,4009,-0.12,0.03,12.40,0.24,-3.78,40.09,-5.12,1.13,65.27,3.29,-0.69,-1.61
15,-34,116,43,-372,3967,-0.01,-0.18,11.87,0.43,-3.72,39.67,-5.13,1.11,65.22,3.08,0.01,-4.46
11,-28,166,-18,-543,3854,0.05,-0.33,11.69,-0.18,-5.43,38.54,-5.14,1.11,65.18,3.16,-0.07,-7.98
6,-12,189,10,-543,3803,0.08,-0.37,11.68,0.10,-5.43,38.03,-5.16,1.11,65.13,3.26,-0.38,-9.55
-13,10,347,102,-372,3923,-0.00,-0.27,12.63,1.02,-3.72,39.23,-5.16,1.09,65.08,3.67,-0.85,-19.51
-4,3,396,109,-323,3946,-0.03,-0.23,13.78,1.09,-3.23,39.46,-5.15,1.08,65.02,3.49,-0.71,-20.00
-1,-5,558,14,-372,3849,-0.03,-0.24,15.81,0.14,-3.72,38.49,-5.16,1.06,64.96,3.43,-0.54,-20.00
-20,-4,591,-1,-364,3912,-0.15,-0.24,17.83,-0.01,-3.64,39.12,-5.16,1.05,64.89,3.85,-0.55,-20.00
-15,56,680,-47,-333,3871,-0.23,0.13,20.19,-0.47,-3.33,38.71,-5.15,1.04,64.81,3.77,-1.86,-20.00
-17,48,696,-64,-307,3969,-0.31,0.41,22.42,-0.64,-3.07,39.69,-5.13,1.05,64.72,3.82,-1.78,-20.00
-10,9,639,-103,-389,3930,-0.34,0.42,24.08,-1.03,-3.89,39.30,-5.14,1.07,64.62,3.69,-1.01,-20.00
0,11,577,-131,-376,3868,-0.30,0.45,25.19,-1.31,-3.76,38.68,-5.15,1.10,64.52,3.48,-1.07,-20.00
-10,46,398,-182,-233,3868,-0.33,0.68,25.10,-1.82,-2.33,38.68,-5.14,1.12,64.42,3.69,-1.86,-13.17
-23,44,358,-213,-220,3898,-0.44,0.88,24.77,-2.13,-2.20,38.98,-5.12,1.15,64.33,3.97,-1.89,-10.70
-11,9,223,-180,-226,3950,-0.46,0.85,23.65,-1.80,-2.26,39.50,-5.11,1.17,64.23,3.72,-1.19,-2.42
-3,7,192,-174,-185,3923,-0.44,0.81,22.46,-1.74,-1.85,39.23,-5.09,1.19,64.14,3.54,-1.15,-1.24
-2,-7,114,-147,-337,3874,-0.40,0.68,20.91,-1.47,-3.37,38.74,-5.09,1.22,64.06,3.51,-0.85,2.84
4,-16,90,-81,-346,3930,-0.34,0.52,19.37,-0.81,-3.46,39.30,-5.08,1.22,63.98,3.36,-0.62,3.27
14,-41,106,60,-365,3917,-0.22,0.22,18.08,0.60,-3.65,39.17,-5.08,1.21,63.91,3.13,-0.02,1.18
18,-35,121,147,-370,3858,-0.09,-0.02,17.01,1.47,-3.70,38.58,-5.08,1.20,63.84,3.01,-0.07,-0.66
-4,12,259,69,-345,3883,-0.10,0.06,16.89,0.69,-3.45,38.83,-5.08,1.18,63.77,3.46,-1.04,-10.10
-4,29,305,16,-401,3903,-0.12,0.23,17.06,0.16,-4.01,39.03,-5.09,1.18,63.71,3.47,-1.43,-13.08
-11,3,348,-33,-401,3884,-0.17,0.22,17.48,-0.33,-4.01,38.84,-5.10,1.17,63.64,3.64,-0.89,-15.66
0,4,348,-6,-379,3885,-0.16,0.23,17.85,-0.06,-3.79,38.85,-5.11,1.16,63.57,3.41,-0.91,-15.36
-15,33,348,-41,-311,3929,-0.23,0.40,18.19,-0.41,-3.11,39.29,-5.09,1.16,63.49,3.73,-1.54,-15.09
-19,46,345,-50,-228,3848,-0.32,0.64,18.47,-0.50,-2.28,38.48,-5.07,1.16,63.42,3.82,-1.88,-14.66
-22,47,361,-140,-220,3828,-0.43,0.87,18.83,-1.40,-2.20,38.28,-5.06,1.18,63.35,3.90,-1.97,-15.46
-27,38,351,-199,-189,3952,-0.55,1.01,19.09,-1.99,-1.89,39.52,-5.04,1.20,63.27,4.03,-1.84,-14.57
-12,-7,291,-162,-99,3929,-0.57,0.87,18.95,-1.62,-0.99,39.29,-5.03,1.22,63.19,3.72,-0.90,-10.61
8,3,255,-129,-178,3878,-0.46,0.80,18.61,-1.29,-1.78,38.78,-5.01,1.23,63.12,3.27,-1.09,-8.42
3,10,88,-92,-259,3927,-0.40,0.78,17.29,-0.92,-2.59,39.27,-4.99,1.24,63.05,3.34,-1.24,1.87
0,-15,16,-101,-311,4007,-0.36,0.61,15.66,-1.01,-3.11,40.07,-4.98,1.26,62.99,3.38,-0.69,5.48
9,-22,-111,-21,-519,3876,-0.27,0.42,13.41,-0.21,-5.19,38.76,-4.99,1.26,62.93,3.18,-0.50,12.34
8,0,-131,3,-514,3852,-0.19,0.37,11.27,0.03,-5.14,38.52,-5.01,1.25,62.89,3.20,-0.93,12.03
12,-11,-111,-29,-637,3881,-0.10,0.27,9.47,-0.29,-6.37,38.81,-5.03,1.25,62.85,3.10,-0.68,9.26
13,-22,-90,-12,-697,3817,-0.01,0.11,7.97,-0.12,-6.97,38.17,-5.04,1.25,62.82,3.07,-0.41,6.67
-12,5,26,11,-691,3853,-0.08,0.13,7.34,0.11,-6.91,38.53,-5.06,1.25,62.79,3.61,-0.96,-1.68
-16,19,73,29,-627,3841,-0.17,0.23,7.05,0.29,-6.27,38.41,-5.08,1.25,62.77,3.72,-1.27,-5.09
-2,10,193,79,-434,4010,-0.17,0.27,7.52,0.79,-4.34,40.10,-5.09,1.24,62.74,3.44,-1.09,-12.85
-2,-15,235,74,-417,4017,-0.16,0.15,8.20,0.74,-4.17,40.17,-5.09,1.22,62.70,3.45,-0.54,-15.17
-8,-32,375,-2,-564,3837,-0.19,-0.06,9.67,-0.02,-5.64,38.37,-5.11,1.22,62.66,3.59,-0.14,-20.00
-9,21,396,-7,-574,3804,-0.23,0.07,11.12,-0.07,-5.74,38.04,-5.13,1.22,62.62,3.63,-1.25,-20.00
-5,25,401,2,-623,4034,-0.24,0.22,12.45,0.02,-6.23,40.34,-5.14,1.22,62.57,3.56,-1.37,-20.00
-6,0,401,-12,-590,3984,-0.25,0.20,13.65,-0.12,-5.90,39.84,-5.16,1.22,62.52,3.60,-0.86,-20.00
-1,-26,424,8,-474,3855,-0.23,0.02,14.87,0.08,-4.74,38.55,-5.18,1.21,62.46,3.50,-0.28,-20.00
1,-10,440,24,-473,3816,-0.20,-0.04,16.07,0.24,-4.73,38.16,-5.19,1.21,62.39,3.46,-0.58,-20.00
-10,49,541,-3,-515,3892,-0.24,0.26,17.76,-0.03,-5.15,38.92,-5.20,1.21,62.32,3.70,-1.86,-20.00
-23,35,577,6,-496,3960,-0.36,0.45,19.51,0.06,-4.96,39.60,-5.22,1.20,62.25,4.01,-1.63,-20.00
-12,-5,660,-39,-521,3923,-0.40,0.37,21.58,-0.39,-5.21,39.23,-5.24,1.21,62.16,3.81,-0.80,-20.00
-16,-7,681,-21,-480,3897,-0.45,0.29,23.58,-0.21,-4.80,38.97,-5.25,1.21,62.07,3.92,-0.74,-20.00
-29,36,740,-123,-492,3817,-0.59,0.48,25.73,-1.23,-4.92,38.17,-5.27,1.23,61.97,4.23,-1.67,-20.00
-4,39,750,-129,-460,3951,-0.55,0.67,27.74,-1.29,-4.60,39.51,-5.29,1.25,61.86,3.72,-1.80,-20.00
-7,11,743,-50,-532,3934,-0.54,0.67,29.49,-0.50,-5.32,39.34,-5.30,1.26,61.74,3.79,-1.24,-20.00
-24,1,746,4,-495,3886,-0.63,0.61,31.10,0.04,-4.95,38.86,-5.32,1.26,61.62,4.17,-1.02,-20.00
-27,25,713,-73,-452,3861,-0.73,0.70,32.34,-0.73,-4.52,38.61,-5.34,1.27,61.49,4.27,-1.54,-20.00
-26,5,702,-91,-532,3966,-0.82,0.66,33.38,-0.91,-5.32,39.66,-5.36,1.29,61.36,4.29,-1.13,-20.00
-13,9,673,-92,-368,3902,-0.82,0.65,34.15,-0.92,-3.68,39.02,-5.37,1.32,61.22,4.03,-1.23,-20.00
-35,-10,663,-23,-407,3987,-0.95,0.53,34.78,-0.23,-4.07,39.87,-5.37,1.32,61.08,4.52,-0.81,-20.00
-22,-6,649,-49,-313,3952,-0.99,0.44,35.26,-0.49,-3.13,39.52,-5.36,1.32,60.94,4.25,-0.87,-20.00
-20,1,657,-32,-331,3818,-1.01,0.40,35.74,-0.32,-3.31,38.18,-5.35,1.32,60.80,4.21,-1.00,-20.00
-9,9,661,-15,-361,3966,-0.96,0.41,36.20,-0.15,-3.61,39.66,-5.35,1.32,60.65,3.98,-1.17,-20.00
1,22,644,-68,-349,3965,-0.86,0.51,36.51,-0.68,-3.49,39.65,-5.34,1.32,60.51,3.74,-1.46,-20.00
2,29,593,-108,-333,3914,-0.76,0.63,36.48,-1.08,-3.33,39.14,-5.32,1.35,60.36,3.68,-1.65,-17.13
-17,1,574,-33,-294,3952,-0.79,0.58,36.33,-0.33,-2.94,39.52,-5.31,1.35,60.22,4.06,-1.07,-15.95
-43,-10,534,-48,-335,3891,-0.97,0.46,35.95,-0.48,-3.35,38.91,-5.30,1.35,60.08,4.64,-0.81,-13.52
-16,15,525,-75,-262,3857,-0.97,0.50,35.56,-0.75,-2.62,38.57,-5.28,1.36,59.93,4.08,-1.34,-13.20
-7,25,495,-22,-269,3905,-0.92,0.60,35.02,-0.22,-2.69,39.05,-5.27,1.37,59.79,3.87,-1.57,-11.57
-4,9,488,1,-226,4011,-0.85,0.60,34.50,0.01,-2.26,40.11,-5.25,1.37,59.66,3.78,-1.25,-11.50
9,15,462,-133,-286,3925,-0.71,0.63,33.87,-1.33,-2.86,39.25,-5.24,1.39,59.52,3.47,-1.40,-10.22
-7,16,463,-56,-243,3795,-0.68,0.67,33.30,-0.56,-2.43,37.95,-5.22,1.40,59.39,3.77,-1.43,-10.71
-28,-1,471,-48,-308,3818,-0.79,0.59,32.85,-0.48,-3.08,38.18,-5.21,1.40,59.26,4.22,-1.07,-11.60
7,15,465,-68,-291,4009,-0.66,0.63,32.40,-0.68,-2.91,40.09,-5.19,1.41,59.13,3.46,-1.41,-11.53
-18,-6,481,-61,-260,3854,-0.71,0.53,32.09,-0.61,-2.60,38.54,-5.17,1.42,59.00,3.97,-0.96,-12.84
-4,12,488,-73,-294,3851,-0.66,0.55,31.86,-0.73,-2.94,38.51,-5.15,1.42,58.87,3.66,-1.33,-13.49
-9,15,500,-47,-391,3806,-0.65,0.58,31.72,-0.47,-3.91,38.06,-5.17,1.42,58.75,3.77,-1.40,-14.40
-13,7,491,-127,-407,3998,-0.66,0.57,31.55,-1.27,-4.07,39.98,-5.18,1.45,58.62,3.86,-1.25,-13.91
-27,-5,460,-151,-338,3967,-0.76,0.48,31.20,-1.51,-3.38,39.67,-5.17,1.48,58.50,4.17,-1.00,-12.07
6,12,463,-61,-319,3944,-0.65,0.51,30.90,-0.61,-3.19,39.44,-5.16,1.48,58.37,3.46,-1.36,-12.50
-8,10,451,-23,-335,3888,-0.63,0.52,30.56,-0.23,-3.35,38.88,-5.16,1.47,58.25,3.74,-1.32,-11.94
-5,10,441,-56,-322,3912,-0.60,0.53,30.20,-0.56,-3.22,39.12,-5.15,1.47,58.13,3.66,-1.32,-11.53
-1,26,413,-87,-388,3827,-0.55,0.63,29.70,-0.87,-3.88,38.27,-5.16,1.48,58.01,3.58,-1.68,-10.02
-2,-3,409,-35,-329,3952,-0.50,0.55,29.22,-0.35,-3.29,39.52,-5.15,1.47,57.90,3.58,-1.06,-10.11
-9,0,360,-88,-400,3861,-0.51,0.50,28.50,-0.88,-4.00,38.61,-5.17,1.48,57.79,3.73,-1.11,-7.34
-4,4,350,-51,-372,3923,-0.48,0.47,27.78,-0.51,-3.72,39.23,-5.18,1.48,57.67,3.63,-1.18,-7.21
-6,6,336,-83,-276,3866,-0.47,0.46,27.05,-0.83,-2.76,38.66,-5.16,1.48,57.57,3.65,-1.23,-6.82
2,9,332,-66,-292,3918,-0.41,0.47,26.37,-0.66,-2.92,39.18,-5.14,1.49,57.46,3.46,-1.29,-7.07
-7,-5,283,-33,-407,3921,-0.41,0.39,25.46,-0.33,-4.07,39.21,-5.15,1.48,57.36,3.65,-0.98,-4.46
-16,-8,270,-31,-402,3831,-0.47,0.30,24.56,-0.31,-4.02,38.31,-5.16,1.48,57.26,3.86,-0.90,-4.27
-5,-3,255,5,-453,3846,-0.45,0.25,23.66,0.05,-4.53,38.46,-5.17,1.48,57.17,3.64,-0.98,-3.95
1,7,263,17,-445,3930,-0.40,0.27,22.90,0.17,-4.45,39.30,-5.18,1.47,57.08,3.51,-1.19,-5.08
-7,2,295,-79,-467,3855,-0.40,0.26,22.41,-0.79,-4.67,38.55,-5.20,1.48,56.99,3.69,-1.08,-7.62
-15,-8,322,-126,-483,3851,-0.46,0.18,22.13,-1.26,-4.83,38.51,-5.22,1.49,56.90,3.87,-0.87,-9.66
-20,-26,394,-45,-417,3925,-0.53,0.01,22.32,-0.45,-4.17,39.25,-5.23,1.48,56.81,4.00,-0.45,-14.38
-1,9,413,-94,-445,3863,-0.48,0.06,22.61,-0.94,-4.45,38.63,-5.25,1.49,56.72,3.62,-1.18,-15.44
-17,-3,459,-105,-482,3935,-0.54,0.04,23.15,-1.05,-4.82,39.35,-5.27,1.50,56.63,3.97,-0.94,-18.13
-8,9,473,-137,-481,3854,-0.53,0.09,23.72,-1.37,-4.81,38.54,-5.28,1.51,56.54,3.80,-1.21,-18.62
-17,13,482,-5,-485,4019,-0.58,0.16,24.29,-0.05,-4.85,40.19,-5.30,1.51,56.44,4.00,-1.30,-18.78
-4,7,461,-3,-375,3981,-0.55,0.18,24.67,-0.03,-3.75,39.81,-5.30,1.50,56.34,3.73,-1.18,-17.05
6,21,431,-11,-394,3819,-0.46,0.29,24.83,-0.11,-3.94,38.19,-5.31,1.50,56.24,3.50,-1.49,-14.88
4,27,439,-57,-387,3864,-0.39,0.43,25.03,-0.57,-3.87,38.64,-5.31,1.49,56.15,3.53,-1.65,-15.26
-7,0,517,-95,-536,3899,-0.39,0.39,25.68,-0.95,-5.36,38.99,-5.33,1.50,56.04,3.77,-1.10,-20.00
-5,6,583,-158,-526,3864,-0.38,0.38,26.67,-1.58,-5.26,38.64,-5.35,1.52,55.94,3.74,-1.23,-20.00
-29,2,716,-108,-388,3937,-0.52,0.36,28.37,-1.08,-3.88,39.37,-5.36,1.53,55.83,4.27,-1.15,-20.00
-19,1,752,-148,-365,3956,-0.59,0.33,30.12,-1.48,-3.65,39.56,-5.36,1.56,55.71,4.08,-1.14,-20.00
-17,6,829,-106,-325,3767,-0.63,0.33,32.16,-1.06,-3.25,37.67,-5.34,1.58,55.58,4.04,-1.26,-20.00
-9,13,832,-74,-316,3980,-0.62,0.38,34.02,-0.74,-3.16,39.80,-5.33,1.58,55.44,3.87,-1.41,-20.00
-21,21,880,-141,-436,3939,-0.69,0.47,35.99,-1.41,-4.36,39.39,-5.34,1.61,55.30,4.14,-1.62,-20.00
-27,-9,882,-207,-288,3954,-0.78,0.37,37.77,-2.07,-2.88,39.54,-5.33,1.64,55.15,4.28,-1.00,-20.00
-18,11,901,-66,-334,3930,-0.82,0.40,39.49,-0.66,-3.34,39.30,-5.32,1.64,54.99,4.10,-1.41,-20.00
-13,20,915,-91,-280,3866,-0.81,0.48,41.12,-0.91,-2.80,38.66,-5.30,1.65,54.83,3.98,-1.63,-20.00
-19,28,971,-77,-309,3913,-0.85,0.60,42.93,-0.77,-3.09,39.13,-5.28,1.66,54.65,4.10,-1.83,-20.00
-22,12,1001,290,-133,3876,-0.90,0.62,44.75,2.90,-1.33,38.76,-5.27,1.66,54.48,4.17,-1.51,-20.00
3,29,1017,490,-105,3903,-0.79,0.73,46.47,4.90,-1.05,39.03,-5.26,1.66,54.29,3.63,-1.89,-20.00
7,38,1009,241,-224,3861,-0.67,0.89,47.98,2.41,-2.24,38.61,-5.25,1.67,54.10,3.51,-2.12,-20.00
-35,6,928,-808,-663,3824,-0.81,0.84,48.84,-8.08,-6.63,38.24,-5.26,1.71,53.91,4.40,-1.48,-20.00
-27,-2,883,-729,-624,4070,-0.90,0.74,49.35,-7.29,-6.24,40.70,-5.26,1.74,53.71,4.27,-1.31,-20.00
-39,4,741,-218,-381,4012,-1.05,0.69,48.93,-2.18,-3.81,40.12,-5.26,1.78,53.52,4.55,-1.45,-16.82
-20,13,708,-124,-333,3864,-1.06,0.70,48.36,-1.24,-3.33,38.64,-5.24,1.81,53.32,4.16,-1.65,-15.01
9,11,581,-136,-318,3838,-0.90,0.70,47.07,-1.36,-3.18,38.38,-5.22,1.83,53.13,3.51,-1.62,-7.40
-9,5,551,-61,-279,3882,-0.87,0.66,45.72,-0.61,-2.79,38.82,-5.21,1.84,52.95,3.86,-1.50,-6.40
-2,17,468,-31,-322,3983,-0.79,0.70,44.00,-0.31,-3.22,39.83,-5.20,1.84,52.78,3.69,-1.75,-2.10
-3,19,418,-241,-196,3768,-0.73,0.74,42.15,-2.41,-1.96,37.68,-5.18,1.87,52.61,3.68,-1.82,-0.14
2,19,302,24,-347,3953,-0.65,0.78,39.78,0.24,-3.47,39.53,-5.18,1.87,52.45,3.55,-1.84,5.88
-1,10,280,11,-291,3972,-0.59,0.77,37.51,0.11,-2.91,39.72,-5.16,1.87,52.30,3.59,-1.65,5.61
0,15,201,22,-454,3870,-0.53,0.78,34.98,0.22,-4.54,38.70,-5.17,1.87,52.16,3.56,-1.75,9.01
5,15,189,26,-414,3869,-0.45,0.80,32.64,0.26,-4.14,38.69,-5.18,1.87,52.03,3.44,-1.76,8.00
5,4,140,45,-575,3816,-0.37,0.74,30.23,0.45,-5.75,38.16,-5.19,1.87,51.91,3.42,-1.52,9.45
4,4,136,69,-539,3920,-0.31,0.69,28.04,0.69,-5.39,39.20,-5.20,1.87,51.80,3.43,-1.51,8.02
-4,1,105,110,-498,3904,-0.30,0.63,25.87,1.10,-4.98,39.04,-5.21,1.87,51.70,3.60,-1.43,8.44
-5,4,88,84,-456,3900,-0.30,0.59,23.82,0.84,-4.56,39.00,-5.21,1.86,51.60,3.62,-1.47,8.00
-2,1,33,22,-454,3877,-0.28,0.54,21.64,0.22,-4.54,38.77,-5.22,1.86,51.52,3.56,-1.39,10.03
-2,-3,9,14,-449,3859,-0.27,0.46,19.53,0.14,-4.49,38.59,-5.23,1.85,51.44,3.57,-1.29,10.02
-11,-8,-6,48,-324,3908,-0.31,0.37,17.54,0.48,-3.24,39.08,-5.23,1.84,51.37,3.76,-1.15,9.49
-7,-1,-20,39,-344,3924,-0.32,0.33,15.67,0.39,-3.44,39.24,-5.22,1.83,51.31,3.68,-1.28,8.97
4,-14,-54,8,-442,3870,-0.26,0.21,13.77,0.08,-4.42,38.70,-5.23,1.82,51.25,3.44,-0.97,9.80
3,-20,-55,-8,-467,3860,-0.22,0.07,12.06,-0.08,-4.67,38.60,-5.25,1.81,51.21,3.46,-0.81,8.54
2,-23,-33,-76,-501,3881,-0.19,-0.08,10.65,-0.76,-5.01,38.81,-5.26,1.81,51.17,3.48,-0.71,5.95
-3,-25,-26,-63,-489,3903,-0.18,-0.23,9.43,-0.63,-4.89,39.03,-5.28,1.81,51.13,3.59,-0.62,4.52
-1,-18,-6,23,-512,3939,-0.17,-0.31,8.45,0.23,-5.12,39.39,-5.29,1.79,51.09,3.56,-0.73,2.41
0,-10,11,-35,-461,3928,-0.16,-0.34,7.67,-0.35,-4.61,39.28,-5.30,1.78,51.06,3.54,-0.88,0.65
-2,-4,46,-52,-410,3886,-0.15,-0.33,7.18,-0.52,-4.10,38.86,-5.31,1.77,51.04,3.59,-1.00,-2.10
1,5,62,-84,-457,3963,-0.13,-0.27,6.84,-0.84,-4.57,39.63,-5.33,1.76,51.01,3.53,-1.19,-3.45
-3,9,97,-86,-465,3901,-0.14,-0.19,6.75,-0.86,-4.65,39.01,-5.35,1.76,50.98,3.63,-1.29,-5.89
-3,7,97,-89,-468,3853,-0.14,-0.13,6.67,-0.89,-4.68,38.53,-5.36,1.76,50.96,3.64,-1.27,-5.95
1,3,106,5,-555,3915,-0.12,-0.09,6.65,0.05,-5.55,39.15,-5.38,1.75,50.93,3.56,-1.19,-6.58
0,8,121,21,-548,3900,-0.11,-0.04,6.72,0.21,-5.48,39.00,-5.39,1.74,50.90,3.59,-1.30,-7.53
-9,6,158,-13,-502,3899,-0.15,0.00,7.01,-0.13,-5.02,38.99,-5.41,1.73,50.88,3.79,-1.27,-9.81
1,14,165,2,-471,3883,-0.13,0.09,7.32,0.02,-4.71,38.83,-5.42,1.72,50.85,3.59,-1.44,-10.04
9,14,227,-44,-525,4015,-0.06,0.17,7.97,-0.44,-5.25,40.15,-5.43,1.71,50.82,3.42,-1.46,-13.73
-16,-7,256,-30,-416,3904,-0.15,0.11,8.74,-0.30,-4.16,39.04,-5.44,1.70,50.78,3.96,-1.01,-15.10
1,4,312,-87,-402,3832,-0.13,0.12,9.76,-0.87,-4.02,38.32,-5.46,1.70,50.74,3.62,-1.23,-18.09
-7,4,324,-116,-413,3934,-0.16,0.13,10.76,-1.16,-4.13,39.34,-5.47,1.70,50.70,3.80,-1.24,-18.11
7,-1,314,-14,-375,3986,-0.10,0.11,11.60,-0.14,-3.75,39.86,-5.47,1.69,50.66,3.50,-1.12,-16.78
1,-2,312,-17,-416,3871,-0.09,0.09,12.35,-0.17,-4.16,38.71,-5.48,1.67,50.61,3.62,-1.09,-16.06
-12,1,314,-159,-302,3855,-0.15,0.09,13.03,-1.59,-3.02,38.55,-5.46,1.69,50.55,3.89,-1.16,-15.66
-14,0,308,-134,-291,3907,-0.22,0.08,13.60,-1.34,-2.91,39.07,-5.44,1.70,50.50,3.94,-1.14,-14.79
-9,6,247,-100,-231,3968,-0.25,0.11,13.75,-1.00,-2.31,39.68,-5.43,1.70,50.44,3.83,-1.28,-10.54
1,1,211,-30,-185,3973,-0.22,0.10,13.66,-0.30,-1.85,39.73,-5.41,1.70,50.39,3.61,-1.17,-8.16
5,6,102,-156,-197,3880,-0.17,0.13,12.92,-1.56,-1.97,38.80,-5.39,1.71,50.34,3.50,-1.29,-1.35
5,6,78,-132,-256,3865,-0.12,0.15,12.10,-1.32,-2.56,38.65,-5.37,1.72,50.29,3.48,-1.30,-0.36
2,4,58,-32,-429,3922,-0.10,0.16,11.25,-0.32,-4.29,39.22,-5.38,1.71,50.24,3.54,-1.25,0.33
-6,7,68,-57,-411,3901,-0.12,0.19,10.54,-0.57,-4.11,39.01,-5.39,1.70,50.20,3.71,-1.31,-0.90
3,2,60,-24,-401,3878,-0.09,0.18,9.85,-0.24,-4.01,38.78,-5.40,1.69,50.16,3.53,-1.20,-0.89
1,1,65,-37,-412,3882,-0.08,0.17,9.26,-0.37,-4.12,38.82,-5.40,1.67,50.13,3.57,-1.17,-1.68
-3,-5,78,-52,-396,3883,-0.09,0.12,8.81,-0.52,-3.96,38.83,-5.41,1.66,50.09,3.66,-1.03,-2.91
-5,-6,73,-61,-393,3901,-0.11,0.07,8.37,-0.61,-3.93,39.01,-5.42,1.65,50.06,3.71,-0.99,-2.91
0,-15,89,9,-433,3903,-0.10,-0.03,8.08,0.09,-4.33,39.03,-5.43,1.63,50.03,3.61,-0.77,-4.22
-3,-9,107,-16,-465,3877,-0.11,-0.08,7.92,-0.16,-4.65,38.77,-5.44,1.62,50.00,3.68,-0.87,-5.56
-3,0,126,24,-470,3918,-0.12,-0.07,7.90,0.24,-4.70,39.18,-5.45,1.61,49.96,3.69,-1.04,-6.87
-5,1,129,-14,-446,3888,-0.13,-0.06,7.90,-0.14,-4.46,38.88,-5.46,1.60,49.93,3.74,-1.06,-7.07
-7,5,143,-2,-428,3940,-0.16,-0.02,7.98,-0.02,-4.28,39.40,-5.47,1.59,49.90,3.80,-1.14,-7.95
4,0,138,39,-449,3884,-0.12,-0.02,8.02,0.39,-4.49,38.84,-5.48,1.57,49.87,3.57,-1.03,-7.57
-2,8,154,-34,-409,3793,-0.12,0.03,8.16,-0.34,-4.09,37.93,-5.48,1.56,49.84,3.69,-1.20,-8.55
2,18,150,-68,-417,4005,-0.10,0.14,8.26,-0.68,-4.17,40.05,-5.50,1.55,49.81,3.61,-1.43,-8.20
-1,-7,179,-51,-478,3849,-0.09,0.08,8.53,-0.51,-4.78,38.49,-5.51,1.55,49.77,3.68,-0.90,-9.95
-8,4,207,14,-512,3936,-0.13,0.10,8.94,0.14,-5.12,39.36,-5.52,1.54,49.74,3.85,-1.12,-11.53
0,4,249,-78,-500,3953,-0.12,0.11,9.56,-0.78,-5.00,39.53,-5.54,1.54,49.70,3.69,-1.13,-13.88
-16,-12,252,8,-427,3863,-0.21,0.03,10.14,0.08,-4.27,38.63,-5.55,1.52,49.66,4.04,-0.77,-13.63
-1,11,320,-18,-608,3894,-0.19,0.09,11.08,-0.18,-6.08,38.94,-5.57,1.52,49.62,3.75,-1.25,-17.50
-18,5,338,29,-584,3857,-0.28,0.11,12.03,0.29,-5.84,38.57,-5.58,1.52,49.57,4.13,-1.13,-17.97
-20,-3,424,10,-591,3806,-0.38,0.08,13.42,0.10,-5.91,38.06,-5.60,1.52,49.52,4.20,-0.96,-20.00
-17,3,496,-116,-605,3949,-0.44,0.09,15.10,-1.16,-6.05,39.49,-5.62,1.52,49.46,4.17,-1.09,-20.00
-20,-3,611,-56,-465,4016,-0.52,0.07,17.32,-0.56,-4.65,40.16,-5.63,1.52,49.39,4.26,-0.96,-20.00
-19,1,658,6,-462,3879,-0.58,0.07,19.60,0.06,-4.62,38.79,-5.64,1.51,49.31,4.27,-1.04,-20.00
-5,6,760,-36,-531,3872,-0.56,0.10,22.28,-0.36,-5.31,38.72,-5.66,1.51,49.22,3.99,-1.15,-20.00
-12,8,777,84,-504,3969,-0.57,0.14,24.79,0.84,-5.04,39.69,-5.67,1.51,49.12,4.14,-1.19,-20.00
-33,-5,721,-51,-267,3952,-0.72,0.09,26.71,-0.51,-2.67,39.52,-5.65,1.51,49.02,4.60,-0.92,-20.00
-9,7,702,-144,-360,3879,-0.70,0.12,28.32,-1.44,-3.60,38.79,-5.64,1.54,48.90,4.10,-1.19,-20.00
-28,-14,627,-147,-394,3827,-0.80,0.03,29.31,-1.47,-3.94,38.27,-5.65,1.57,48.79,4.52,-0.76,-20.00
-13,6,603,-60,-444,3885,-0.80,0.06,30.06,-0.60,-4.44,38.85,-5.66,1.57,48.67,4.22,-1.17,-20.00
-11,15,590,38,-501,4006,-0.79,0.15,30.65,0.38,-5.01,40.06,-5.67,1.57,48.55,4.18,-1.38,-20.00
-25,28,629,-144,-583,3778,-0.86,0.30,31.42,-1.44,-5.83,37.78,-5.69,1.58,48.42,4.50,-1.70,-20.00
-11,20,703,-36,-493,3907,-0.84,0.39,32.57,-0.36,-4.93,39.07,-5.70,1.59,48.29,4.22,-1.56,-20.00
-12,31,730,-124,-506,3922,-0.83,0.54,33.77,-1.24,-5.06,39.22,-5.72,1.61,48.16,4.25,-1.84,-20.00
-33,18,803,-81,-481,3746,-0.95,0.60,35.29,-0.81,-4.81,37.46,-5.74,1.62,48.02,4.72,-1.60,-20.00
-13,36,815,-41,-422,3891,-0.93,0.76,36.73,-0.41,-4.22,38.91,-5.75,1.62,47.87,4.31,-2.01,-20.00
-32,13,817,63,-246,4040,-1.04,0.76,38.04,0.63,-2.46,40.40,-5.73,1.62,47.72,4.72,-1.54,-20.00
-5,19,787,-99,-252,3783,-0.96,0.80,39.04,-0.99,-2.52,37.83,-5.72,1.64,47.57,4.14,-1.69,-20.00
-15,16,711,-90,-183,3815,-0.96,0.82,39.47,-0.90,-1.83,38.15,-5.70,1.66,47.41,4.33,-1.64,-20.00
-24,13,686,-81,-142,4000,-1.01,0.82,39.71,-0.81,-1.42,40.00,-5.68,1.67,47.25,4.51,-1.59,-19.73
-6,8,562,-194,-126,3924,-0.94,0.78,39.17,-1.94,-1.26,39.24,-5.66,1.70,47.09,4.12,-1.50,-11.74
-4,17,540,-200,-245,3890,-0.87,0.81,38.54,-2.00,-2.45,38.90,-5.64,1.73,46.94,4.04,-1.71,-10.72
-7,12,457,-1,-261,3939,-0.83,0.80,37.48,-0.01,-2.61,39.39,-5.63,1.73,46.79,4.08,-1.61,-5.91
1,9,411,7,-372,3968,-0.74,0.78,36.24,0.07,-3.72,39.68,-5.62,1.73,46.65,3.89,-1.54,-3.75
-14,4,299,-54,-271,3870,-0.75,0.72,34.44,-0.54,-2.71,38.70,-5.61,1.74,46.51,4.19,-1.43,2.45
-8,15,263,-65,-295,3864,-0.73,0.74,32.60,-0.65,-2.95,38.64,-5.59,1.74,46.38,4.05,-1.66,3.46
2,7,146,-32,-392,3899,-0.64,0.71,30.23,-0.32,-3.92,38.99,-5.59,1.74,46.26,3.82,-1.48,9.55
0,6,121,-36,-401,3912,-0.58,0.68,27.94,-0.36,-4.01,39.12,-5.60,1.74,46.15,3.85,-1.45,9.47
-1,12,132,-26,-416,3927,-0.53,0.68,25.95,-0.26,-4.16,39.27,-5.60,1.73,46.05,3.86,-1.57,7.18
2,8,156,14,-363,3958,-0.46,0.66,24.31,0.14,-3.63,39.58,-5.60,1.73,45.95,3.78,-1.48,4.28
-10,2,191,-26,-346,3916,-0.48,0.61,23.04,-0.26,-3.46,39.16,-5.59,1.72,45.86,4.02,-1.34,0.93
-3,0,179,-50,-280,3829,-0.45,0.55,21.83,-0.50,-2.80,38.29,-5.57,1.72,45.77,3.86,-1.28,0.80
6,14,147,-159,-653,3815,-0.36,0.58,20.55,-1.59,-6.53,38.15,-5.59,1.73,45.69,3.67,-1.59,1.97
4,-17,117,19,-513,3957,-0.30,0.42,19.20,0.19,-5.13,39.57,-5.60,1.73,45.61,3.70,-0.91,2.97
-5,-14,83,-11,-405,3952,-0.30,0.29,17.79,-0.11,-4.05,39.52,-5.60,1.72,45.54,3.88,-0.93,4.17
-5,-7,91,22,-335,3942,-0.30,0.22,16.57,0.22,-3.35,39.42,-5.59,1.71,45.48,3.88,-1.05,2.68
-2,16,84,-36,-415,3954,-0.29,0.29,15.42,-0.36,-4.15,39.54,-5.60,1.70,45.41,3.81,-1.53,2.27
0,15,82,-9,-441,3917,-0.26,0.36,14.38,-0.09,-4.41,39.17,-5.61,1.69,45.36,3.77,-1.52,1.59
3,8,54,-47,-469,3887,-0.21,0.37,13.27,-0.47,-4.69,38.87,-5.62,1.69,45.31,3.71,-1.38,2.63
3,2,54,7,-450,3896,-0.17,0.34,12.27,0.07,-4.50,38.96,-5.63,1.68,45.26,3.70,-1.24,1.85
-8,-18,65,-31,-507,3804,-0.21,0.20,11.44,-0.31,-5.07,38.04,-5.64,1.67,45.21,3.94,-0.79,0.46
0,-14,76,-114,-504,3920,-0.18,0.09,10.76,-1.14,-5.04,39.20,-5.66,1.68,45.17,3.79,-0.85,-0.81
-2,-15,110,-6,-474,3958,-0.18,-0.01,10.36,-0.06,-4.74,39.58,-5.67,1.66,45.13,3.83,-0.79,-3.43
-5,-12,117,-78,-468,3889,-0.19,-0.08,10.03,-0.78,-4.68,38.89,-5.69,1.66,45.09,3.91,-0.83,-4.15
3,-3,93,-45,-376,3919,-0.15,-0.09,9.60,-0.45,-3.76,39.19,-5.68,1.65,45.05,3.73,-1.00,-2.86
2,-7,72,5,-393,3932,-0.13,-0.12,9.08,0.05,-3.93,39.32,-5.68,1.63,45.01,3.75,-0.90,-1.84
-6,-3,72,-139,-389,3906,-0.15,-0.13,8.61,-1.39,-3.89,39.06,-5.68,1.65,44.98,3.91,-0.99,-2.20
-6,-12,72,-96,-343,3924,-0.17,-0.19,8.19,-0.96,-3.43,39.24,-5.67,1.65,44.95,3.91,-0.79,-2.53
-1,-4,47,-50,-358,3920,-0.16,-0.19,7.66,-0.50,-3.58,39.20,-5.66,1.63,44.92,3.80,-0.94,-1.25
-1,-1,44,-18,-388,3951,-0.15,-0.18,7.16,-0.18,-3.88,39.51,-5.66,1.62,44.89,3.80,-1.00,-1.43
1,-5,48,-95,-432,3865,-0.13,-0.19,6.74,-0.95,-4.32,38.65,-5.68,1.61,44.86,3.76,-0.91,-2.03
-2,-8,59,-81,-456,3862,-0.13,-0.22,6.42,-0.81,-4.56,38.62,-5.69,1.61,44.84,3.83,-0.84,-3.02
0,-5,84,-19,-442,3935,-0.12,-0.23,6.29,-0.19,-4.42,39.35,-5.70,1.59,44.81,3.79,-0.89,-4.81
-3,-9,96,-33,-453,3913,-0.12,-0.26,6.25,-0.33,-4.53,39.13,-5.71,1.58,44.79,3.86,-0.79,-5.66
-10,-18,76,-74,-394,3891,-0.17,-0.35,6.09,-0.74,-3.94,38.91,-5.71,1.57,44.76,4.02,-0.57,-4.42
-5,-18,59,-52,-409,3888,-0.18,-0.42,5.84,-0.52,-4.09,38.88,-5.72,1.55,44.74,3.93,-0.54,-3.46
-1,-8,92,2,-497,3917,-0.17,-0.43,5.82,0.02,-4.97,39.17,-5.73,1.54,44.72,3.85,-0.73,-5.72
-9,-2,115,-17,-493,3928,-0.21,-0.40,5.94,-0.17,-4.93,39.28,-5.75,1.52,44.69,4.03,-0.86,-7.18
-9,7,175,9,-538,3934,-0.24,-0.32,6.41,0.09,-5.38,39.34,-5.76,1.51,44.67,4.05,-1.06,-10.87
-8,-1,196,21,-529,3965,-0.27,-0.29,6.96,0.21,-5.29,39.65,-5.78,1.50,44.64,4.05,-0.89,-11.86
-6,3,232,3,-419,3827,-0.28,-0.24,7.68,0.03,-4.19,38.27,-5.78,1.49,44.61,4.01,-0.98,-13.74
-16,5,225,-71,-392,3956,-0.35,-0.19,8.29,-0.71,-3.92,39.56,-5.78,1.47,44.58,4.23,-1.02,-12.79
-12,-2,209,-89,-439,3827,-0.39,-0.18,8.73,-0.89,-4.39,38.27,-5.80,1.47,44.54,4.17,-0.88,-11.35
-15,-1,204,-48,-433,3979,-0.44,-0.17,9.10,-0.48,-4.33,39.79,-5.80,1.46,44.51,4.26,-0.90,-10.72
-5,-8,223,15,-521,3945,-0.43,-0.20,9.55,0.15,-5.21,39.45,-5.82,1.45,44.47,4.06,-0.74,-11.65
-11,-8,239,-33,-506,3844,-0.45,-0.23,10.06,-0.33,-5.06,38.44,-5.84,1.44,44.43,4.20,-0.73,-12.34
-16,6,264,-84,-399,3883,-0.50,-0.17,10.66,-0.84,-3.99,38.83,-5.84,1.43,44.39,4.32,-1.02,-13.56
1,15,264,-51,-419,3973,-0.45,-0.06,11.21,-0.51,-4.19,39.73,-5.84,1.41,44.34,3.96,-1.22,-13.13
-12,8,281,-124,-470,3906,-0.48,-0.01,11.80,-1.24,-4.70,39.06,-5.86,1.43,44.29,4.24,-1.10,-13.82
-2,7,268,-71,-418,3895,-0.44,0.04,12.25,-0.71,-4.18,38.95,-5.87,1.42,44.25,4.04,-1.09,-12.57
-7,6,213,-91,-370,3819,-0.44,0.07,12.33,-0.91,-3.70,38.19,-5.86,1.42,44.20,4.13,-1.08,-8.78
0,2,180,-31,-345,3917,-0.39,0.07,12.19,-0.31,-3.45,39.17,-5.84,1.41,44.15,3.96,-0.99,-6.65
12,-2,196,16,-474,3934,-0.28,0.06,12.17,0.16,-4.74,39.34,-5.85,1.40,44.10,3.70,-0.90,-7.75
3,-1,216,83,-511,3824,-0.24,0.04,12.27,0.83,-5.11,38.24,-5.86,1.39,44.05,3.87,-0.91,-9.02
-10,-3,342,181,-528,3950,-0.27,0.02,13.13,1.81,-5.28,39.50,-5.87,1.38,44.00,4.15,-0.85,-16.88
-14,3,372,91,-592,3802,-0.33,0.04,14.09,0.91,-5.92,38.02,-5.88,1.37,43.94,4.26,-0.98,-18.17
-23,14,447,44,-520,3905,-0.44,0.12,15.40,0.44,-5.20,39.05,-5.90,1.36,43.88,4.48,-1.22,-20.00
-6,-9,457,67,-476,3971,-0.43,0.05,16.65,0.67,-4.76,39.71,-5.90,1.35,43.82,4.14,-0.73,-20.00
-11,6,499,-46,-480,3702,-0.45,0.08,18.03,-0.46,-4.80,37.02,-5.92,1.36,43.75,4.25,-1.04,-20.00
-17,19,503,-17,-394,3984,-0.51,0.19,19.30,-0.17,-3.94,39.84,-5.92,1.35,43.67,4.39,-1.33,-20.00
-13,14,484,-139,-364,3966,-0.54,0.26,20.32,-1.39,-3.64,39.66,-5.90,1.37,43.59,4.31,-1.26,-20.00
4,23,418,-105,-295,3936,-0.46,0.37,20.84,-1.05,-2.95,39.36,-5.88,1.38,43.50,3.93,-1.48,-15.97
-1,7,294,-159,-390,3909,-0.42,0.38,20.55,-1.59,-3.90,39.09,-5.88,1.41,43.42,4.02,-1.17,-7.79
7,15,265,-134,-428,3838,-0.34,0.43,20.11,-1.34,-4.28,38.38,-5.89,1.43,43.34,3.84,-1.37,-6.16
-3,3,149,41,-491,3951,-0.32,0.41,19.01,0.41,-4.91,39.51,-5.90,1.43,43.27,4.04,-1.11,0.85
-16,-10,142,22,-487,3921,-0.39,0.30,17.97,0.22,-4.87,39.21,-5.91,1.42,43.20,4.33,-0.82,0.53
-22,-8,171,12,-464,3848,-0.48,0.23,17.22,0.12,-4.64,38.48,-5.92,1.41,43.13,4.49,-0.83,-2.02
-9,-3,159,-40,-433,3929,-0.49,0.18,16.47,-0.40,-4.33,39.29,-5.93,1.40,43.06,4.23,-0.91,-1.79
-4,-12,156,-167,-314,3941,-0.46,0.09,15.77,-1.67,-3.14,39.41,-5.91,1.42,43.00,4.11,-0.72,-2.12
-9,-15,158,-162,-416,3790,-0.47,-0.01,15.16,-1.62,-4.16,37.90,-5.92,1.44,42.94,4.22,-0.65,-2.73
-3,-22,145,-75,-488,3887,-0.44,-0.14,14.53,-0.75,-4.88,38.87,-5.94,1.44,42.88,4.10,-0.47,-2.34
-2,-9,162,-133,-485,3919,-0.41,-0.18,14.06,-1.33,-4.85,39.19,-5.96,1.46,42.83,4.08,-0.73,-3.85
3,18,188,-70,-404,3910,-0.35,-0.05,13.80,-0.70,-4.04,39.10,-5.95,1.44,42.77,3.96,-1.30,-5.81
3,1,174,-91,-515,3825,-0.30,-0.04,13.48,-0.91,-5.15,38.25,-5.97,1.45,42.72,3.96,-0.96,-5.11
-9,15,168,-161,-293,3870,-0.32,0.05,13.16,-1.61,-2.93,38.70,-5.95,1.46,42.67,4.20,-1.28,-4.95
-8,2,169,-247,-316,3843,-0.34,0.06,12.87,-2.47,-3.16,38.43,-5.95,1.48,42.61,4.18,-1.04,-5.23
-2,-4,112,-14,-273,3865,-0.32,0.03,12.27,-0.14,-2.73,38.65,-5.93,1.48,42.56,4.04,-0.90,-1.84
6,7,106,-41,-324,3952,-0.25,0.07,11.69,-0.41,-3.24,39.52,-5.92,1.47,42.52,3.85,-1.13,-1.88
-9,4,141,-84,-351,3932,-0.28,0.09,11.38,-0.84,-3.51,39.32,-5.90,1.47,42.47,4.15,-1.08,-4.49
-9,2,142,-56,-364,3888,-0.31,0.09,11.11,-0.56,-3.64,38.88,-5.89,1.46,42.43,4.15,-1.03,-4.77
-5,1,127,-23,-452,3883,-0.31,0.09,10.77,-0.23,-4.52,38.83,-5.90,1.45,42.39,4.08,-1.00,-4.01
-8,0,115,-59,-438,3909,-0.32,0.08,10.40,-0.59,-4.38,39.09,-5.91,1.44,42.34,4.15,-0.97,-3.48
2,-1,84,-13,-464,3933,-0.28,0.06,9.87,-0.13,-4.64,39.33,-5.92,1.43,42.31,3.94,-0.94,-1.79
0,-3,84,21,-469,3886,-0.25,0.04,9.40,0.21,-4.69,38.86,-5.93,1.42,42.27,3.98,-0.89,-2.16
-1,6,139,5,-495,3877,-0.23,0.07,9.30,0.05,-4.95,38.77,-5.94,1.41,42.23,4.00,-1.07,-5.95
3,10,166,60,-553,3929,-0.19,0.13,9.39,0.60,-5.53,39.29,-5.95,1.40,42.19,3.92,-1.16,-7.72
-15,20,292,-157,-691,3831,-0.26,0.24,10.23,-1.57,-6.91,38.31,-5.97,1.41,42.15,4.32,-1.40,-15.60
-13,13,292,-107,-563,3886,-0.32,0.29,10.99,-1.07,-5.63,38.86,-5.99,1.42,42.11,4.30,-1.28,-15.00
1,1,377,-47,-437,3961,-0.28,0.27,12.19,-0.47,-4.37,39.61,-6.00,1.41,42.06,4.01,-1.02,-19.82
-4,6,414,-43,-470,3912,-0.28,0.28,13.49,-0.43,-4.70,39.12,-6.01,1.40,42.01,4.12,-1.12,-20.00
5,7,528,-17,-505,3841,-0.22,0.29,15.37,-0.17,-5.05,38.41,-6.02,1.40,41.95,3.93,-1.15,-20.00
-14,17,580,-1,-590,3978,-0.28,0.37,17.37,-0.01,-5.90,39.78,-6.04,1.40,41.88,4.35,-1.37,-20.00
-14,13,493,-94,-323,4001,-0.34,0.41,18.64,-0.94,-3.23,40.01,-6.02,1.41,41.81,4.35,-1.30,-20.00
-15,-3,459,-42,-185,3814,-0.40,0.35,19.57,-0.42,-1.85,38.14,-6.00,1.41,41.73,4.37,-0.97,-19.58
-4,22,397,-81,-288,3865,-0.38,0.45,20.04,-0.81,-2.88,38.65,-5.98,1.42,41.65,4.13,-1.51,-15.00
-12,18,380,-110,-362,3890,-0.42,0.51,20.35,-1.10,-3.62,38.90,-5.96,1.44,41.57,4.29,-1.45,-13.60
-6,14,318,-65,-349,3913,-0.41,0.55,20.26,-0.65,-3.49,39.13,-5.95,1.44,41.49,4.16,-1.38,-9.46
2,11,313,-68,-380,3948,-0.36,0.56,20.14,-0.68,-3.80,39.48,-5.94,1.44,41.41,3.97,-1.32,-9.21
-1,3,343,-56,-393,3948,-0.33,0.52,20.22,-0.56,-3.93,39.48,-5.93,1.43,41.32,4.02,-1.15,-11.17
-6,7,344,-35,-418,3776,-0.33,0.51,20.30,-0.35,-4.18,37.76,-5.93,1.42,41.24,4.13,-1.22,-11.17
-7,5,321,12,-479,3900,-0.34,0.49,20.22,0.12,-4.79,39.00,-5.94,1.42,41.16,4.16,-1.17,-9.66
-15,-7,296,-40,-479,3857,-0.40,0.40,20.01,-0.40,-4.79,38.57,-5.96,1.42,41.09,4.35,-0.90,-8.13
-4,14,267,7,-499,3942,-0.38,0.45,19.64,0.07,-4.99,39.42,-5.97,1.41,41.01,4.13,-1.34,-6.45
-13,3,280,38,-565,3869,-0.42,0.42,19.38,0.38,-5.65,38.69,-5.98,1.41,40.93,4.33,-1.11,-7.52
-8,10,267,-104,-345,3869,-0.43,0.44,19.07,-1.04,-3.45,38.69,-5.97,1.42,40.86,4.22,-1.26,-6.88
-4,5,256,-107,-387,3925,-0.41,0.43,18.72,-1.07,-3.87,39.25,-5.95,1.44,40.78,4.12,-1.17,-6.40
-2,10,308,74,-548,4080,-0.38,0.44,18.73,0.74,-5.48,40.80,-5.96,1.43,40.71,4.08,-1.27,-9.91
-4,0,330,53,-632,3793,-0.37,0.40,18.87,0.53,-6.32,37.93,-5.97,1.43,40.63,4.12,-1.05,-11.28
-15,20,452,-30,-513,3759,-0.42,0.48,19.74,-0.30,-5.13,37.59,-5.99,1.43,40.55,4.37,-1.48,-18.87
-16,33,467,-104,-533,3874,-0.48,0.63,20.62,-1.04,-5.33,38.74,-6.01,1.45,40.47,4.42,-1.80,-19.19
-30,-29,470,4,-259,3942,-0.61,0.39,21.42,0.04,-2.59,39.42,-5.99,1.45,40.39,4.73,-0.47,-18.76
9,20,484,-63,-384,3937,-0.50,0.48,22.23,-0.63,-3.84,39.37,-5.98,1.44,40.30,3.90,-1.49,-19.07
-20,8,563,-97,-418,3964,-0.57,0.48,23.44,-0.97,-4.18,39.64,-5.99,1.44,40.21,4.52,-1.24,-20.00
-2,8,570,-79,-503,3932,-0.53,0.48,24.58,-0.79,-5.03,39.32,-6.01,1.45,40.11,4.15,-1.25,-20.00
-17,3,530,24,-444,3828,-0.58,0.45,25.35,0.24,-4.44,38.28,-6.01,1.44,40.01,4.47,-1.14,-19.72
-10,27,508,-34,-424,3886,-0.58,0.57,25.91,-0.34,-4.24,38.86,-6.02,1.44,39.91,4.33,-1.65,-17.78
-6,4,398,15,-500,3929,-0.56,0.54,25.75,0.15,-5.00,39.29,-6.03,1.44,39.80,4.25,-1.18,-10.44
-12,10,377,20,-437,3842,-0.58,0.54,25.48,0.20,-4.37,38.42,-6.03,1.43,39.70,4.38,-1.30,-9.23
-17,6,388,-5,-419,4007,-0.62,0.53,25.29,-0.05,-4.19,40.07,-6.03,1.43,39.60,4.50,-1.21,-10.10
-3,18,395,-11,-473,3834,-0.58,0.58,25.17,-0.11,-4.73,38.34,-6.04,1.43,39.50,4.21,-1.47,-10.66
-8,19,433,-25,-449,4033,-0.57,0.64,25.30,-0.25,-4.49,40.33,-6.05,1.42,39.40,4.31,-1.50,-13.13
-18,7,451,56,-434,3771,-0.62,0.62,25.52,0.56,-4.34,37.71,-6.05,1.42,39.30,4.53,-1.25,-14.17
0,-7,456,65,-461,3860,-0.56,0.51,25.75,0.65,-4.61,38.60,-6.06,1.41,39.20,4.15,-0.93,-14.32
-10,-5,460,-39,-462,3826,-0.56,0.43,25.98,-0.39,-4.62,38.26,-6.07,1.41,39.10,4.36,-0.95,-14.40
-4,-10,487,-61,-404,4013,-0.53,0.33,26.35,-0.61,-4.04,40.13,-6.06,1.41,38.99,4.23,-0.82,-15.93
-11,-4,483,-7,-386,3878,-0.55,0.27,26.66,-0.07,-3.86,38.78,-6.06,1.40,38.88,4.37,-0.92,-15.41
-24,5,389,-59,-277,3870,-0.64,0.27,26.37,-0.59,-2.77,38.70,-6.04,1.41,38.78,4.65,-1.11,-9.26
22,30,349,-76,-312,3954,-0.44,0.43,25.86,-0.76,-3.12,39.54,-6.02,1.42,38.68,3.65,-1.66,-6.93
-9,2,218,-198,-289,3864,-0.45,0.40,24.61,-1.98,-2.89,38.64,-6.00,1.44,38.58,4.27,-1.10,0.97
0,2,186,-215,-311,3877,-0.41,0.37,23.28,-2.15,-3.11,38.77,-5.99,1.47,38.49,4.07,-1.11,2.11
-1,-12,85,-52,-336,3974,-0.37,0.26,21.47,-0.52,-3.36,39.74,-5.98,1.47,38.40,4.07,-0.80,7.55
3,0,43,78,-443,3935,-0.32,0.24,19.59,0.78,-4.43,39.35,-5.98,1.46,38.32,3.97,-1.03,8.94
-4,-19,134,-142,-530,3898,-0.31,0.10,18.44,-1.42,-5.30,38.98,-6.00,1.47,38.25,4.12,-0.61,1.88
-7,-3,167,-46,-547,3882,-0.32,0.07,17.62,-0.46,-5.47,38.82,-6.01,1.47,38.18,4.20,-0.93,-0.99
4,20,198,-30,-509,3908,-0.26,0.18,17.06,-0.30,-5.09,39.08,-6.03,1.47,38.11,3.97,-1.43,-3.52
7,14,185,-42,-535,3909,-0.20,0.25,16.49,-0.42,-5.35,39.09,-6.04,1.47,38.05,3.90,-1.32,-3.09
-3,15,178,-19,-488,3806,-0.19,0.32,15.92,-0.19,-4.88,38.06,-6.05,1.47,37.98,4.11,-1.36,-3.04
-5,11,175,-31,-543,3924,-0.20,0.35,15.40,-0.31,-5.43,39.24,-6.07,1.47,37.92,4.16,-1.29,-3.25
-14,-21,171,58,-436,4017,-0.27,0.19,14.90,0.58,-4.36,40.17,-6.07,1.46,37.86,4.36,-0.58,-3.36
-8,5,187,-53,-530,3683,-0.29,0.20,14.55,-0.53,-5.30,36.83,-6.09,1.46,37.81,4.26,-1.12,-4.71
0,-4,234,-33,-617,3830,-0.26,0.16,14.52,-0.33,-6.17,38.30,-6.10,1.46,37.75,4.10,-0.92,-7.91
-18,-9,294,-65,-640,3853,-0.35,0.09,14.87,-0.65,-6.40,38.53,-6.12,1.46,37.69,4.50,-0.81,-11.71
-14,-4,378,-58,-482,3843,-0.40,0.05,15.68,-0.58,-4.82,38.43,-6.14,1.46,37.63,4.44,-0.90,-16.75
-5,10,401,-94,-477,3848,-0.39,0.11,16.56,-0.94,-4.77,38.48,-6.16,1.47,37.56,4.27,-1.20,-17.62
-12,8,486,-13,-522,3940,-0.42,0.15,17.87,-0.13,-5.22,39.40,-6.17,1.46,37.49,4.43,-1.17,-20.00
-6,12,502,-16,-546,3939,-0.42,0.20,19.15,-0.16,-5.46,39.39,-6.18,1.46,37.42,4.32,-1.26,-20.00
-2,4,515,-113,-544,3898,-0.39,0.21,20.37,-1.13,-5.44,38.98,-6.20,1.47,37.34,4.24,-1.11,-20.00
-10,-2,509,-149,-515,3846,-0.41,0.18,21.44,-1.49,-5.15,38.46,-6.22,1.49,37.25,4.42,-0.99,-20.00
-54,-25,518,65,-292,3933,-0.70,0.01,22.46,0.65,-2.92,39.33,-6.21,1.49,37.16,5.38,-0.47,-20.00
-1,25,502,-95,-277,3669,-0.63,0.16,23.27,-0.95,-2.77,36.69,-6.19,1.50,37.07,4.28,-1.54,-19.18
-3,24,517,-127,-447,3753,-0.59,0.29,24.10,-1.27,-4.47,37.53,-6.20,1.52,36.97,4.32,-1.57,-19.54
-24,1,564,-34,-332,4121,-0.68,0.27,25.13,-0.34,-3.32,41.21,-6.19,1.52,36.87,4.76,-1.10,-20.00
-16,21,518,-42,-150,4131,-0.71,0.37,25.78,-0.42,-1.50,41.31,-6.17,1.53,36.77,4.59,-1.54,-18.28
-11,-2,465,-72,-125,3764,-0.70,0.32,26.04,-0.72,-1.25,37.64,-6.15,1.54,36.67,4.48,-1.06,-14.48
-10,-15,340,16,-405,3802,-0.69,0.19,25.51,0.16,-4.05,38.02,-6.15,1.53,36.57,4.45,-0.76,-6.41
-14,1,324,75,-407,3895,-0.71,0.18,24.93,0.75,-4.07,38.95,-6.15,1.53,36.47,4.54,-1.08,-5.77
-15,1,267,43,-444,4025,-0.73,0.17,24.07,0.43,-4.44,40.25,-6.15,1.52,36.37,4.56,-1.07,-2.57
-13,-3,259,21,-432,3952,-0.74,0.13,23.24,0.21,-4.32,39.52,-6.15,1.51,36.28,4.53,-0.97,-2.67
4,8,250,12,-583,3877,-0.64,0.17,22.44,0.12,-5.83,38.77,-6.17,1.51,36.19,4.16,-1.21,-2.67
1,8,264,43,-615,3896,-0.57,0.20,21.81,0.43,-6.15,38.96,-6.18,1.51,36.10,4.22,-1.21,-4.11
-9,9,326,124,-563,3924,-0.57,0.24,21.62,1.24,-5.63,39.24,-6.19,1.50,36.02,4.42,-1.24,-8.45
3,17,365,125,-503,3991,-0.49,0.32,21.68,1.25,-5.03,39.91,-6.20,1.50,35.93,4.16,-1.42,-11.04
-7,15,453,1,-544,3858,-0.49,0.38,22.28,0.01,-5.44,38.58,-6.21,1.50,35.84,4.37,-1.40,-16.53
-14,2,470,66,-476,3866,-0.52,0.35,22.92,0.66,-4.76,38.66,-6.22,1.49,35.75,4.53,-1.12,-17.17
-27,7,521,62,-437,3855,-0.63,0.36,23.80,0.62,-4.37,38.55,-6.22,1.48,35.66,4.83,-1.22,-19.93
-19,18,513,100,-432,3996,-0.69,0.43,24.55,1.00,-4.32,39.96,-6.22,1.48,35.56,4.68,-1.46,-18.79
2,28,441,-182,-378,3943,-0.61,0.56,24.79,-1.82,-3.78,39.43,-6.21,1.51,35.46,4.22,-1.72,-13.72
-18,-14,428,-163,-344,3888,-0.66,0.42,24.92,-1.63,-3.44,38.88,-6.19,1.53,35.36,4.63,-0.84,-12.73
-17,-31,352,-33,-591,3831,-0.69,0.19,24.57,-0.33,-5.91,38.31,-6.21,1.53,35.27,4.63,-0.43,-7.84
4,-7,329,-5,-545,3817,-0.60,0.13,24.12,-0.05,-5.45,38.17,-6.22,1.53,35.17,4.19,-0.90,-6.62
-10,0,353,-73,-493,3994,-0.60,0.11,23.86,-0.73,-4.93,39.94,-6.24,1.54,35.08,4.49,-1.04,-8.44
-18,16,423,-181,-564,3759,-0.65,0.20,24.06,-1.81,-5.64,37.59,-6.26,1.56,34.98,4.67,-1.41,-13.03
-21,14,460,6,-617,3847,-0.71,0.27,24.46,0.06,-6.17,38.47,-6.27,1.56,34.88,4.76,-1.39,-15.21
-6,11,453,-40,-548,4011,-0.68,0.31,24.78,-0.40,-5.48,40.11,-6.29,1.56,34.79,4.46,-1.34,-14.48
3,-1,466,-105,-547,3877,-0.59,0.27,25.14,-1.05,-5.47,38.77,-6.31,1.57,34.69,4.26,-1.09,-15.07
29,14,481,-53,-581,3769,-0.36,0.33,25.56,-0.53,-5.81,37.69,-6.32,1.58,34.58,3.68,-1.42,-15.75
-33,39,496,-104,-396,3898,-0.52,0.53,26.03,-1.04,-3.96,38.98,-6.30,1.59,34.48,4.97,-1.99,-16.39
-9,31,486,-138,-265,3884,-0.52,0.67,26.39,-1.38,-2.65,38.84,-6.28,1.61,34.38,4.47,-1.87,-15.42
-2,20,447,-147,-284,3835,-0.48,0.72,26.48,-1.47,-2.84,38.35,-6.27,1.63,34.27,4.31,-1.68,-12.70
-5,0,421,-139,-285,3859,-0.47,0.65,26.40,-1.39,-2.85,38.59,-6.25,1.65,34.17,4.35,-1.26,-10.99
-8,-10,343,-6,-423,3891,-0.47,0.53,25.85,-0.06,-4.23,38.91,-6.25,1.64,34.06,4.41,-1.02,-6.12
-8,1,330,-26,-463,3985,-0.47,0.48,25.28,-0.26,-4.63,39.85,-6.25,1.64,33.96,4.42,-1.23,-5.68
-1,17,346,-58,-460,3892,-0.43,0.53,24.86,-0.58,-4.60,38.92,-6.26,1.63,33.86,4.27,-1.57,-7.08
8,14,348,-67,-439,3900,-0.34,0.57,24.50,-0.67,-4.39,39.00,-6.26,1.63,33.77,4.06,-1.51,-7.49
-21,-9,374,74,-424,4093,-0.43,0.45,24.33,0.74,-4.24,40.93,-6.26,1.62,33.67,4.67,-1.01,-9.37
-20,-13,379,30,-369,3925,-0.51,0.33,24.21,0.30,-3.69,39.25,-6.25,1.62,33.57,4.67,-0.89,-9.80
-5,20,341,-147,-253,3865,-0.49,0.42,23.87,-1.47,-2.53,38.65,-6.23,1.63,33.48,4.35,-1.60,-7.48
5,22,332,-132,-227,3887,-0.41,0.51,23.51,-1.32,-2.27,38.87,-6.21,1.65,33.38,4.11,-1.67,-7.15
-3,9,290,-28,-295,3978,-0.39,0.52,22.93,-0.28,-2.95,39.78,-6.20,1.65,33.29,4.26,-1.41,-4.74
-4,-6,278,19,-305,3852,-0.37,0.43,22.33,0.19,-3.05,38.52,-6.18,1.65,33.20,4.26,-1.08,-4.39
11,12,235,-137,-379,3771,-0.27,0.46,21.53,-1.37,-3.79,37.71,-6.17,1.67,33.12,3.92,-1.47,-2.09
3,-9,266,-39,-465,3962,-0.22,0.36,21.00,-0.39,-4.65,39.62,-6.17,1.66,33.04,4.08,-1.01,-4.60
-14,-7,335,94,-596,3860,-0.29,0.28,20.94,0.94,-5.96,38.60,-6.18,1.66,32.95,4.44,-1.03,-9.31
4,-8,322,74,-509,3967,-0.23,0.20,20.81,0.74,-5.09,39.67,-6.19,1.65,32.87,4.07,-0.98,-8.53
-4,-16,258,42,-539,3822,-0.23,0.08,20.30,0.42,-5.39,38.22,-6.20,1.65,32.79,4.24,-0.79,-4.58
-10,6,259,35,-541,3889,-0.27,0.11,19.85,0.35,-5.41,38.89,-6.21,1.64,32.71,4.38,-1.24,-4.99
-4,-2,273,-55,-402,4092,-0.27,0.09,19.53,-0.55,-4.02,40.92,-6.20,1.64,32.63,4.25,-1.06,-6.18
-4,-14,265,-36,-479,3803,-0.27,-0.01,19.20,-0.36,-4.79,38.03,-6.21,1.63,32.56,4.25,-0.79,-5.90
1,11,274,61,-559,3954,-0.23,0.06,18.95,0.61,-5.59,39.54,-6.22,1.63,32.48,4.15,-1.31,-6.69
-8,3,278,18,-526,3818,-0.26,0.07,18.75,0.18,-5.26,38.18,-6.23,1.62,32.41,4.35,-1.15,-7.11
-21,30,336,-77,-493,3921,-0.36,0.25,18.92,-0.77,-4.93,39.21,-6.25,1.62,32.33,4.65,-1.75,-10.90
6,-6,296,80,-494,3843,-0.29,0.19,18.84,0.80,-4.94,38.43,-6.25,1.61,32.26,4.08,-0.99,-8.25
8,29,303,35,-411,3653,-0.21,0.35,18.80,0.35,-4.11,36.53,-6.25,1.60,32.18,4.02,-1.74,-8.75
9,55,301,-62,-442,4003,-0.14,0.65,18.76,-0.62,-4.42,40.03,-6.25,1.60,32.11,3.98,-2.35,-8.64
2,11,282,-21,-445,4051,-0.11,0.65,18.60,-0.21,-4.45,40.51,-6.25,1.59,32.04,4.11,-1.45,-7.47
-4,8,282,-66,-493,3711,-0.12,0.63,18.46,-0.66,-4.93,37.11,-6.27,1.59,31.96,4.25,-1.39,-7.57
-2,35,308,14,-508,3874,-0.12,0.78,18.49,0.14,-5.08,38.74,-6.27,1.59,31.89,4.22,-1.97,-9.30
5,14,319,0,-470,4003,-0.08,0.79,18.59,0.00,-4.70,40.03,-6.28,1.58,31.82,4.06,-1.54,-9.96
0,15,331,-22,-422,3701,-0.07,0.80,18.75,-0.22,-4.22,37.01,-6.28,1.57,31.74,4.16,-1.56,-10.64
-13,18,325,-58,-360,4019,-0.14,0.83,18.86,-0.58,-3.60,40.19,-6.26,1.58,31.67,4.44,-1.63,-10.15
-16,-6,289,-143,-408,3972,-0.23,0.71,18.74,-1.43,-4.08,39.72,-6.25,1.60,31.59,4.51,-1.13,-7.80
-6,5,247,-69,-434,3856,-0.24,0.67,18.37,-0.69,-4.34,38.56,-6.25,1.59,31.52,4.31,-1.34,-5.23
3,3,176,-86,-364,3933,-0.20,0.62,17.61,-0.86,-3.64,39.33,-6.23,1.60,31.45,4.11,-1.29,-1.01
12,3,141,-153,-370,3862,-0.11,0.58,16.71,-1.53,-3.70,38.62,-6.22,1.62,31.38,3.89,-1.29,0.67
10,10,73,-112,-403,3911,-0.03,0.58,15.48,-1.12,-4.03,39.11,-6.20,1.63,31.32,3.90,-1.44,4.32
8,9,49,-116,-405,3891,0.02,0.58,14.23,-1.16,-4.05,38.91,-6.18,1.64,31.26,3.91,-1.43,4.98
2,2,18,-48,-438,3895,0.03,0.53,12.92,-0.48,-4.38,38.95,-6.18,1.63,31.21,4.03,-1.26,6.06
2,3,17,-33,-429,3897,0.04,0.50,11.73,-0.33,-4.29,38.97,-6.18,1.62,31.17,4.03,-1.27,5.20
3,8,34,8,-501,3923,0.05,0.50,10.76,0.08,-5.01,39.23,-6.19,1.61,31.12,4.01,-1.36,3.30
1,5,43,21,-507,3920,0.05,0.48,9.95,0.21,-5.07,39.20,-6.20,1.60,31.09,4.06,-1.29,2.06
-4,-6,190,109,-623,3978,0.02,0.39,10.11,1.09,-6.23,39.78,-6.21,1.60,31.05,4.17,-1.04,-7.77
-3,9,212,-30,-359,3808,0.00,0.41,10.40,-0.30,-3.59,38.08,-6.20,1.59,31.00,4.15,-1.34,-9.04
-3,-4,195,-104,-314,3883,-0.02,0.34,10.55,-1.04,-3.14,38.83,-6.18,1.59,30.96,4.14,-1.06,-7.77
4,-6,156,-108,-288,3881,0.01,0.27,10.44,-1.08,-2.88,38.81,-6.16,1.60,30.92,3.98,-1.01,-5.20
0,-15,56,22,-370,3888,0.01,0.15,9.74,0.22,-3.70,38.88,-6.15,1.59,30.88,4.06,-0.78,1.03
3,-19,71,7,-461,3846,0.03,0.02,9.20,0.07,-4.61,38.46,-6.16,1.57,30.85,4.00,-0.66,-0.40
-7,-1,140,76,-612,3890,-0.02,0.01,9.13,0.76,-6.12,38.90,-6.17,1.56,30.81,4.22,-1.02,-5.13
-7,8,158,83,-622,3913,-0.06,0.06,9.18,0.83,-6.22,39.13,-6.18,1.55,30.77,4.24,-1.21,-6.31
0,16,216,73,-605,3916,-0.05,0.15,9.58,0.73,-6.05,39.16,-6.20,1.55,30.74,4.10,-1.39,-9.92
1,23,240,27,-587,3901,-0.04,0.28,10.09,0.27,-5.87,39.01,-6.21,1.54,30.70,4.09,-1.56,-11.15
6,25,340,-44,-529,3904,-0.00,0.40,11.15,-0.44,-5.29,39.04,-6.22,1.54,30.65,3.99,-1.63,-17.09
4,12,371,20,-430,3910,0.02,0.44,12.30,0.20,-4.30,39.10,-6.22,1.53,30.60,4.02,-1.37,-18.29
6,7,447,-53,-296,4042,0.06,0.43,13.80,-0.53,-2.96,40.42,-6.20,1.53,30.55,3.96,-1.27,-20.00
8,-6,445,-35,-337,3824,0.10,0.35,15.13,-0.35,-3.37,38.24,-6.19,1.52,30.49,3.89,-0.98,-20.00
-4,-7,436,-77,-385,3837,0.07,0.28,16.28,-0.77,-3.85,38.37,-6.17,1.52,30.42,4.14,-0.94,-19.57
-15,4,438,-111,-426,3840,-0.03,0.27,17.32,-1.11,-4.26,38.40,-6.18,1.54,30.35,4.40,-1.17,-18.89
-28,0,377,34,-429,3817,-0.20,0.25,17.89,0.34,-4.29,38.17,-6.19,1.53,30.28,4.71,-1.08,-14.30
-10,-5,298,9,-370,3982,-0.24,0.19,17.92,0.09,-3.70,39.82,-6.18,1.52,30.21,4.34,-0.96,-8.92
-4,0,149,-72,-370,3887,-0.24,0.17,17.04,-0.72,-3.70,38.87,-6.16,1.52,30.14,4.21,-1.05,0.50
3,-1,104,-91,-418,3923,-0.20,0.15,15.97,-0.91,-4.18,39.23,-6.15,1.51,30.08,4.05,-1.02,2.72
5,1,62,72,-474,3925,-0.15,0.14,14.75,0.72,-4.74,39.25,-6.16,1.50,30.02,4.00,-1.05,4.62
2,-5,102,43,-669,3942,-0.12,0.10,13.90,0.43,-6.69,39.42,-6.17,1.50,29.97,4.07,-0.91,1.24
-5,13,200,88,-527,3871,-0.14,0.17,13.73,0.88,-5.27,38.71,-6.18,1.49,29.91,4.22,-1.29,-5.53
-17,22,233,39,-575,3880,-0.23,0.28,13.77,0.39,-5.75,38.80,-6.19,1.48,29.86,4.49,-1.50,-7.72
-2,21,268,15,-357,3842,-0.22,0.38,14.03,0.15,-3.57,38.42,-6.18,1.47,29.80,4.18,-1.50,-9.89
-7,10,267,-40,-390,3873,-0.24,0.41,14.26,-0.40,-3.90,38.73,-6.17,1.47,29.75,4.28,-1.28,-9.64
-11,0,253,-75,-399,3866,-0.28,0.36,14.38,-0.75,-3.99,38.66,-6.16,1.46,29.69,4.37,-1.06,-8.59
-16,-2,261,-35,-437,3964,-0.35,0.32,14.53,-0.35,-4.37,39.64,-6.17,1.45,29.63,4.49,-1.00,-9.01
-11,-2,316,93,-519,3943,-0.38,0.27,15.00,0.93,-5.19,39.43,-6.17,1.44,29.57,4.40,-0.98,-12.36
-8,3,335,84,-597,3815,-0.39,0.26,15.55,0.84,-5.97,38.15,-6.19,1.43,29.51,4.35,-1.08,-13.22
-11,16,438,46,-608,3937,-0.42,0.33,16.66,0.46,-6.08,39.37,-6.20,1.43,29.44,4.43,-1.36,-19.32
-11,17,507,178,-621,3888,-0.45,0.40,18.09,1.78,-6.21,38.88,-6.21,1.43,29.37,4.44,-1.40,-20.00
-13,29,602,182,-602,3901,-0.48,0.54,19.95,1.82,-6.02,39.01,-6.22,1.42,29.29,4.50,-1.67,-20.00
-10,26,636,67,-605,3962,-0.49,0.65,21.84,0.67,-6.05,39.62,-6.23,1.42,29.21,4.45,-1.64,-20.00
-20,29,643,-212,-593,3796,-0.57,0.76,23.58,-2.12,-5.93,37.96,-6.25,1.44,29.11,4.69,-1.75,-20.00
-3,20,635,-216,-606,3843,-0.53,0.80,25.09,-2.16,-6.06,38.43,-6.26,1.47,29.02,4.34,-1.59,-20.00
-21,31,600,130,-384,3831,-0.60,0.91,26.24,1.30,-3.84,38.31,-6.26,1.46,28.91,4.72,-1.85,-20.00
-14,25,590,211,-201,4072,-0.63,0.97,27.22,2.11,-2.01,40.72,-6.25,1.47,28.80,4.58,-1.74,-20.00
3,17,622,47,-392,4104,-0.55,0.98,28.29,0.47,-3.92,41.04,-6.24,1.46,28.69,4.21,-1.58,-20.00
-10,23,645,-51,-450,3728,-0.55,1.02,29.40,-0.51,-4.50,37.28,-6.25,1.47,28.57,4.48,-1.72,-20.00
-24,8,691,-103,-352,3939,-0.64,0.97,30.67,-1.03,-3.52,39.39,-6.24,1.49,28.45,4.78,-1.41,-20.00
-17,5,692,-196,-310,3795,-0.68,0.90,31.83,-1.96,-3.10,37.95,-6.22,1.52,28.33,4.64,-1.35,-20.00
-13,5,692,-57,-488,3842,-0.69,0.84,32.86,-0.57,-4.88,38.42,-6.24,1.52,28.20,4.57,-1.34,-20.00
-19,-2,690,-66,-504,3987,-0.74,0.75,33.79,-0.66,-5.04,39.87,-6.25,1.53,28.06,4.71,-1.17,-20.00
-14,7,682,-174,-593,4031,-0.75,0.71,34.57,-1.74,-5.93,40.31,-6.27,1.56,27.93,4.63,-1.36,-20.00
-16,10,671,-81,-550,3869,-0.77,0.70,35.20,-0.81,-5.50,38.69,-6.28,1.57,27.79,4.68,-1.43,-20.00
-21,12,594,-88,-459,3831,-0.83,0.71,35.31,-0.88,-4.59,38.31,-6.30,1.58,27.65,4.81,-1.48,-15.17
10,48,569,-98,-415,3944,-0.68,0.93,35.25,-0.98,-4.15,39.44,-6.28,1.59,27.51,4.13,-2.28,-13.51
0,21,498,-199,-453,4115,-0.61,0.96,34.76,-1.99,-4.53,41.15,-6.28,1.63,27.37,4.31,-1.77,-9.06
-31,-8,493,-219,-503,3783,-0.74,0.82,34.29,-2.19,-5.03,37.83,-6.29,1.66,27.23,4.99,-1.16,-9.08
-8,6,490,-95,-416,3781,-0.72,0.77,33.85,-0.95,-4.16,37.81,-6.29,1.66,27.10,4.51,-1.43,-9.21
2,21,474,-183,-417,4044,-0.63,0.82,33.36,-1.83,-4.17,40.44,-6.28,1.70,26.97,4.28,-1.77,-8.50
-4,9,417,-50,-355,4024,-0.59,0.80,32.57,-0.50,-3.55,40.24,-6.27,1.70,26.84,4.38,-1.52,-5.24
-14,5,393,-44,-291,3782,-0.62,0.75,31.71,-0.44,-2.91,37.82,-6.25,1.71,26.71,4.58,-1.43,-4.27
2,23,321,-29,-329,3712,-0.55,0.81,30.49,-0.29,-3.29,37.12,-6.23,1.71,26.59,4.22,-1.82,-0.33
-3,30,317,-76,-405,3996,-0.51,0.91,29.38,-0.76,-4.05,39.96,-6.22,1.71,26.47,4.31,-1.99,-0.92
-3,15,343,13,-449,3996,-0.48,0.91,28.53,0.13,-4.49,39.96,-6.22,1.71,26.36,4.30,-1.68,-3.33
-5,9,343,-42,-547,3850,-0.46,0.88,27.77,-0.42,-5.47,38.50,-6.24,1.72,26.25,4.34,-1.56,-3.92
10,24,368,56,-454,3785,-0.35,0.94,27.24,0.56,-4.54,37.85,-6.24,1.72,26.14,4.01,-1.88,-6.02
-5,19,389,77,-581,3934,-0.35,0.96,26.89,0.77,-5.81,39.34,-6.25,1.72,26.04,4.32,-1.78,-7.71
-8,24,513,-40,-653,3985,-0.36,1.01,27.33,-0.40,-6.53,39.85,-6.26,1.73,25.93,4.40,-1.90,-15.76
-1,12,563,29,-566,3935,-0.33,0.98,28.03,0.29,-5.66,39.35,-6.27,1.73,25.82,4.25,-1.65,-18.59
-24,-1,661,-4,-570,3935,-0.44,0.88,29.26,-0.04,-5.70,39.35,-6.29,1.73,25.70,4.76,-1.36,-20.00
-25,13,681,-66,-574,3762,-0.55,0.87,30.49,-0.66,-5.74,37.62,-6.30,1.75,25.58,4.82,-1.65,-20.00
-22,28,792,-46,-633,3855,-0.63,0.95,32.27,-0.46,-6.33,38.55,-6.32,1.76,25.45,4.79,-1.99,-20.00
-15,22,805,-10,-662,4025,-0.66,0.99,33.95,-0.10,-6.62,40.25,-6.33,1.77,25.32,4.66,-1.88,-20.00
-17,17,850,16,-514,3988,-0.70,1.00,35.74,0.16,-5.14,39.88,-6.34,1.77,25.18,4.72,-1.79,-20.00
-5,31,856,-9,-569,3804,-0.66,1.09,37.39,-0.09,-5.69,38.04,-6.35,1.78,25.03,4.47,-2.10,-20.00
18,42,891,-65,-426,3849,-0.48,1.23,39.09,-0.65,-4.26,38.49,-6.35,1.78,24.88,3.96,-2.37,-20.00
-2,39,900,-85,-527,4003,-0.45,1.35,40.67,-0.85,-5.27,40.03,-6.36,1.80,24.71,4.36,-2.35,-20.00
-12,15,919,-20,-407,3982,-0.48,1.30,42.21,-0.20,-4.07,39.82,-6.35,1.81,24.55,4.57,-1.85,-20.00
-20,22,911,-68,-463,3789,-0.55,1.31,43.54,-0.68,-4.63,37.89,-6.36,1.82,24.37,4.75,-2.00,-20.00
-1,18,888,-43,-364,3938,-0.50,1.29,44.61,-0.43,-3.64,39.38,-6.34,1.83,24.20,4.34,-1.92,-20.00
-16,7,876,-33,-327,3883,-0.55,1.20,45.49,-0.33,-3.27,38.83,-6.33,1.84,24.02,4.65,-1.68,-20.00
19,31,792,-85,-252,3978,-0.38,1.27,45.77,-0.85,-2.52,39.78,-6.30,1.86,23.83,3.88,-2.21,-20.00
-27,7,758,-140,-305,3811,-0.50,1.19,45.82,-1.40,-3.05,38.11,-6.28,1.89,23.65,4.83,-1.71,-17.72
-20,12,568,-89,-108,3803,-0.58,1.14,44.70,-0.89,-1.08,38.03,-6.26,1.91,23.47,4.70,-1.82,-5.69
8,20,491,-115,-60,3915,-0.47,1.15,43.23,-1.15,-0.60,39.15,-6.24,1.93,23.30,4.08,-2.00,-1.61
-9,-2,225,-44,-273,3892,-0.48,1.02,40.28,-0.44,-2.73,38.92,-6.22,1.95,23.14,4.42,-1.52,14.13
-3,-11,161,-43,-295,3940,-0.45,0.85,37.23,-0.43,-2.95,39.40,-6.20,1.96,22.99,4.28,-1.30,16.10
0,-4,80,-40,-477,3918,-0.40,0.74,34.00,-0.40,-4.77,39.18,-6.21,1.96,22.86,4.21,-1.41,19.07
-3,3,92,1,-460,3937,-0.38,0.69,31.16,0.01,-4.60,39.37,-6.21,1.96,22.74,4.26,-1.54,16.06
-1,12,72,-60,-322,3926,-0.35,0.69,28.48,-0.60,-3.22,39.26,-6.19,1.96,22.62,4.20,-1.73,15.33
5,18,62,-65,-344,3928,-0.28,0.73,26.01,-0.65,-3.44,39.28,-6.18,1.96,22.52,4.05,-1.86,14.09
4,11,78,-56,-475,3866,-0.23,0.73,23.89,-0.56,-4.75,38.66,-6.18,1.96,22.42,4.06,-1.72,11.35
1,8,76,-47,-529,3865,-0.20,0.70,21.96,-0.47,-5.29,38.65,-6.20,1.96,22.34,4.12,-1.65,9.99
-5,-7,61,-8,-538,3886,-0.21,0.59,20.14,-0.08,-5.38,38.86,-6.21,1.96,22.26,4.26,-1.31,9.59
-8,-8,60,-3,-522,3882,-0.24,0.48,18.49,-0.03,-5.22,38.82,-6.22,1.95,22.18,4.33,-1.26,8.38
3,-3,48,32,-467,3924,-0.20,0.41,16.93,0.32,-4.67,39.24,-6.22,1.95,22.12,4.10,-1.34,7.98
5,-4,45,58,-503,3900,-0.15,0.35,15.51,0.58,-5.03,39.00,-6.22,1.94,22.06,4.05,-1.29,7.08
-2,-1,88,8,-529,3947,-0.14,0.31,14.50,0.08,-5.29,39.47,-6.23,1.93,22.00,4.19,-1.34,3.38
6,-2,118,17,-561,3864,-0.09,0.27,13.77,0.17,-5.61,38.64,-6.24,1.92,21.95,4.02,-1.30,0.78
0,5,212,-20,-638,3844,-0.08,0.27,13.69,-0.20,-6.38,38.44,-6.26,1.92,21.89,4.15,-1.44,-5.65
0,7,242,-14,-623,3892,-0.08,0.28,13.79,-0.14,-6.23,38.92,-6.27,1.92,21.84,4.16,-1.49,-7.59
0,17,362,-91,-563,3841,-0.07,0.36,14.62,-0.91,-5.63,38.41,-6.29,1.92,21.78,4.17,-1.71,-15.07
-4,11,383,-91,-549,4007,-0.09,0.39,15.50,-0.91,-5.49,40.07,-6.30,1.92,21.72,4.27,-1.60,-15.81
-17,-2,432,-25,-451,4127,-0.18,0.34,16.58,-0.25,-4.51,41.27,-6.30,1.91,21.65,4.55,-1.31,-18.28
-20,-16,448,4,-489,3863,-0.28,0.21,17.66,0.04,-4.89,38.63,-6.31,1.91,21.58,4.65,-0.99,-18.52
-7,10,503,-2,-423,3861,-0.30,0.25,18.96,-0.02,-4.23,38.61,-6.31,1.90,21.51,4.39,-1.52,-20.00
-9,21,518,17,-442,3838,-0.32,0.35,20.22,0.17,-4.42,38.38,-6.31,1.89,21.43,4.43,-1.77,-20.00
8,28,517,-14,-453,3848,-0.24,0.49,21.35,-0.14,-4.53,38.48,-6.31,1.88,21.34,4.07,-1.94,-20.00
-16,17,503,-34,-443,3869,-0.32,0.54,22.29,-0.34,-4.43,38.69,-6.31,1.88,21.25,4.58,-1.73,-18.60
3,11,437,-21,-338,3980,-0.27,0.56,22.72,-0.21,-3.38,39.80,-6.30,1.87,21.16,4.17,-1.61,-13.77
-13,-16,408,20,-245,3986,-0.32,0.40,22.94,0.20,-2.45,39.86,-6.28,1.87,21.07,4.50,-1.02,-11.63
-8,0,288,-34,-366,3840,-0.34,0.36,22.40,-0.34,-3.66,38.40,-6.27,1.87,20.98,4.39,-1.33,-3.91
9,16,262,-35,-366,3874,-0.25,0.42,21.76,-0.35,-3.66,38.74,-6.26,1.87,20.90,4.01,-1.67,-2.64
-3,-7,237,36,-393,3977,-0.24,0.34,21.03,0.36,-3.93,39.77,-6.25,1.86,20.81,4.25,-1.18,-1.51
-5,-6,240,39,-397,3845,-0.25,0.27,20.39,0.39,-3.97,38.45,-6.25,1.85,20.73,4.29,-1.17,-2.20
4,10,242,-30,-355,4040,-0.20,0.30,19.83,-0.30,-3.55,40.40,-6.23,1.85,20.65,4.09,-1.50,-2.77
0,-11,236,-26,-341,3911,-0.18,0.20,19.29,-0.26,-3.41,39.11,-6.22,1.84,20.58,4.15,-1.05,-2.78
-5,-1,190,-33,-422,3821,-0.19,0.18,18.52,-0.33,-4.22,38.21,-6.22,1.83,20.50,4.26,-1.24,-0.26
-1,10,200,-45,-431,3978,-0.18,0.22,17.88,-0.45,-4.31,39.78,-6.22,1.82,20.43,4.17,-1.47,-1.42
-4,20,270,-3,-506,3904,-0.18,0.32,17.74,-0.03,-5.06,39.04,-6.23,1.82,20.36,4.24,-1.69,-6.27
-7,6,279,32,-426,3962,-0.21,0.33,17.67,0.32,-4.26,39.62,-6.22,1.81,20.29,4.31,-1.40,-6.93
-8,10,271,7,-378,3891,-0.24,0.35,17.56,0.07,-3.78,38.91,-6.22,1.80,20.22,4.33,-1.49,-6.47
10,15,259,-35,-368,3830,-0.15,0.41,17.38,-0.35,-3.68,38.30,-6.21,1.79,20.15,3.93,-1.60,-5.79
-5,-1,201,40,-425,3852,-0.17,0.36,16.87,0.40,-4.25,38.52,-6.21,1.78,20.08,4.24,-1.26,-2.25
-1,-4,182,46,-406,3904,-0.16,0.30,16.29,0.46,-4.06,39.04,-6.20,1.77,20.02,4.16,-1.17,-1.41
6,3,140,-37,-459,3862,-0.10,0.29,15.52,-0.37,-4.59,38.62,-6.21,1.76,19.96,4.00,-1.30,0.84
1,5,133,7,-456,3901,-0.09,0.29,14.78,0.07,-4.56,39.01,-6.21,1.75,19.90,4.10,-1.34,0.74
3,11,133,24,-454,3910,-0.06,0.33,14.11,0.24,-4.54,39.10,-6.21,1.74,19.84,4.06,-1.46,0.22
1,10,178,-48,-543,3879,-0.05,0.36,13.78,-0.48,-5.43,38.79,-6.23,1.74,19.79,4.10,-1.45,-3.08
-7,-6,126,20,-471,3911,-0.09,0.29,13.18,0.20,-4.71,39.11,-6.23,1.73,19.74,4.28,-1.10,-0.03
-12,-12,121,-28,-482,3884,-0.15,0.18,12.60,-0.28,-4.82,38.84,-6.24,1.72,19.69,4.40,-0.94,-0.13
-15,-7,118,-24,-307,3980,-0.23,0.12,12.06,-0.24,-3.07,39.80,-6.23,1.72,19.64,4.48,-1.02,-0.35
-7,3,136,-36,-327,3950,-0.25,0.13,11.68,-0.36,-3.27,39.50,-6.21,1.71,19.59,4.31,-1.22,-1.86
-9,21,186,-127,-550,3944,-0.28,0.24,11.65,-1.27,-5.50,39.44,-6.23,1.72,19.55,4.37,-1.63,-5.27
-10,11,186,-103,-466,3875,-0.31,0.29,11.62,-1.03,-4.66,38.75,-6.25,1.72,19.50,4.41,-1.44,-5.29
-4,-3,144,3,-486,3899,-0.30,0.24,11.33,0.03,-4.86,38.99,-6.25,1.71,19.46,4.29,-1.13,-2.66
-4,-4,132,45,-448,3932,-0.30,0.19,11.01,0.45,-4.48,39.32,-6.26,1.69,19.41,4.29,-1.09,-2.10
14,17,138,-58,-458,3860,-0.18,0.28,10.75,-0.58,-4.58,38.60,-6.26,1.69,19.37,3.90,-1.53,-2.70
1,9,122,-97,-608,3899,-0.16,0.30,10.42,-0.97,-6.08,38.99,-6.28,1.69,19.33,4.17,-1.38,-1.87
-7,-24,67,-27,-521,3888,-0.19,0.13,9.78,-0.27,-5.21,38.88,-6.30,1.68,19.29,4.35,-0.66,1.36
-8,-27,61,-31,-462,3904,-0.22,-0.05,9.18,-0.31,-4.62,39.04,-6.30,1.67,19.26,4.38,-0.54,1.30
-9,-3,83,4,-480,3893,-0.25,-0.06,8.77,0.04,-4.80,38.93,-6.31,1.65,19.22,4.41,-1.01,-0.51
-5,5,98,-1,-456,3922,-0.25,-0.03,8.49,-0.01,-4.56,39.22,-6.31,1.64,19.19,4.34,-1.18,-1.74
-6,23,217,-50,-583,3866,-0.27,0.12,8.96,-0.50,-5.83,38.66,-6.33,1.64,19.15,4.37,-1.58,-9.43
-2,20,241,-43,-556,3924,-0.25,0.23,9.54,-0.43,-5.56,39.24,-6.34,1.63,19.11,4.30,-1.55,-10.61
-3,11,275,1,-504,3888,-0.24,0.27,10.26,0.01,-5.04,38.88,-6.35,1.62,19.07,4.32,-1.37,-12.34
-5,11,282,14,-457,3888,-0.25,0.31,10.95,0.14,-4.57,38.88,-6.36,1.61,19.03,4.37,-1.37,-12.27
-5,8,288,23,-497,3942,-0.26,0.33,11.62,0.23,-4.97,39.42,-6.36,1.60,18.98,4.37,-1.31,-12.16
-7,5,272,45,-505,3843,-0.27,0.33,12.11,0.45,-5.05,38.43,-6.37,1.59,18.94,4.42,-1.24,-10.68
2,-3,274,57,-526,3890,-0.23,0.28,12.57,0.57,-5.26,38.90,-6.38,1.58,18.89,4.23,-1.06,-10.45
-13,-3,298,27,-597,3906,-0.29,0.23,13.13,0.27,-5.97,39.06,-6.39,1.58,18.84,4.56,-1.04,-11.63
-15,-3,358,25,-593,3935,-0.35,0.19,14.00,0.25,-5.93,39.35,-6.41,1.57,18.78,4.63,-1.03,-15.02
-3,-1,390,39,-636,3886,-0.34,0.16,14.98,0.39,-6.36,38.86,-6.42,1.57,18.72,4.39,-1.06,-16.42
-14,10,530,80,-493,3908,-0.39,0.21,16.72,0.80,-4.93,39.08,-6.43,1.56,18.66,4.63,-1.29,-20.00
1,22,551,67,-540,3901,-0.34,0.32,18.41,0.67,-5.40,39.01,-6.44,1.55,18.58,4.32,-1.56,-20.00
-3,16,572,-151,-427,3917,-0.33,0.39,20.06,-1.51,-4.27,39.17,-6.43,1.58,18.50,4.39,-1.47,-20.00
1,7,565,-96,-415,3990,-0.29,0.39,21.50,-0.96,-4.15,39.90,-6.41,1.58,18.42,4.29,-1.29,-20.00
0,-2,461,37,-455,3916,-0.26,0.34,22.16,0.37,-4.55,39.16,-6.41,1.58,18.33,4.30,-1.09,-15.59
0,8,430,-56,-477,3869,-0.23,0.35,22.57,-0.56,-4.77,38.69,-6.42,1.57,18.24,4.30,-1.30,-13.16
-20,-9,395,61,-493,3830,-0.33,0.26,22.72,0.61,-4.93,38.30,-6.43,1.57,18.15,4.74,-0.92,-10.66
11,11,385,35,-465,3997,-0.23,0.30,22.80,0.35,-4.65,39.97,-6.43,1.56,18.06,4.08,-1.34,-9.91
0,5,358,76,-347,4023,-0.21,0.30,22.70,0.76,-3.47,40.23,-6.42,1.56,17.97,4.29,-1.21,-8.15
-20,-1,352,-16,-359,3877,-0.31,0.27,22.58,-0.16,-3.59,38.77,-6.40,1.55,17.88,4.72,-1.08,-7.83
-8,6,304,-118,-418,3875,-0.33,0.28,22.17,-1.18,-4.18,38.75,-6.39,1.58,17.79,4.47,-1.24,-4.89
-8,2,299,-126,-433,3847,-0.34,0.26,21.78,-1.26,-4.33,38.47,-6.39,1.61,17.70,4.47,-1.17,-4.85
3,3,269,-3,-485,3878,-0.29,0.25,21.24,-0.03,-4.85,38.78,-6.40,1.60,17.62,4.24,-1.19,-3.22
-6,-1,270,33,-557,3939,-0.30,0.22,20.77,0.33,-5.57,39.39,-6.41,1.60,17.54,4.43,-1.09,-3.66
-10,3,235,-41,-502,3834,-0.33,0.22,20.12,-0.41,-5.02,38.34,-6.42,1.59,17.46,4.53,-1.17,-1.78
-4,3,236,-99,-485,3914,-0.32,0.22,19.55,-0.99,-4.85,39.14,-6.43,1.60,17.38,4.42,-1.17,-2.29
-5,-1,241,-56,-445,3875,-0.32,0.19,19.07,-0.56,-4.45,38.75,-6.44,1.59,17.31,4.44,-1.08,-3.00
-2,3,243,-64,-437,3933,-0.30,0.19,18.64,-0.64,-4.37,39.33,-6.43,1.58,17.23,4.37,-1.15,-3.46
-2,-2,286,-35,-556,3971,-0.28,0.16,18.52,-0.35,-5.56,39.71,-6.45,1.58,17.16,4.37,-1.04,-6.46
-8,0,304,18,-536,3834,-0.30,0.14,18.52,0.18,-5.36,38.34,-6.46,1.57,17.08,4.51,-1.08,-7.67
-3,-3,328,102,-542,3938,-0.29,0.11,18.67,1.02,-5.42,39.38,-6.46,1.57,17.01,4.41,-1.00,-9.18
-6,2,342,130,-510,3877,-0.30,0.11,18.89,1.30,-5.10,38.77,-6.47,1.56,16.94,4.47,-1.10,-9.95
-2,3,412,3,-538,4017,-0.28,0.12,19.52,0.03,-5.38,40.17,-6.48,1.55,16.86,4.39,-1.12,-14.20
-1,4,438,38,-511,3792,-0.26,0.13,20.24,0.38,-5.11,37.92,-6.49,1.54,16.78,4.37,-1.14,-15.39
-21,-2,531,42,-491,3847,-0.36,0.10,21.45,0.42,-4.91,38.47,-6.49,1.54,16.69,4.81,-1.00,-20.00
7,16,559,55,-481,4079,-0.28,0.19,22.72,0.55,-4.81,40.79,-6.49,1.53,16.60,4.22,-1.39,-20.00
-16,2,591,21,-468,4041,-0.35,0.18,24.05,0.21,-4.68,40.41,-6.49,1.52,16.51,4.71,-1.10,-20.00
-13,4,596,13,-472,3724,-0.40,0.19,25.28,0.13,-4.72,37.24,-6.50,1.52,16.41,4.66,-1.14,-20.00
-7,8,613,-31,-436,3756,-0.40,0.22,26.49,-0.31,-4.36,37.56,-6.50,1.51,16.30,4.54,-1.22,-20.00
0,20,612,-37,-402,3916,-0.36,0.32,27.58,-0.37,-4.02,39.16,-6.49,1.51,16.19,4.38,-1.49,-20.00
-5,10,549,-64,-329,4012,-0.35,0.35,28.17,-0.64,-3.29,40.12,-6.47,1.52,16.08,4.47,-1.30,-16.66
-7,-10,520,-40,-226,3993,-0.36,0.25,28.52,-0.40,-2.26,39.93,-6.45,1.53,15.97,4.50,-0.88,-14.40
-17,-12,390,9,-234,3918,-0.43,0.15,28.05,0.09,-2.34,39.18,-6.43,1.53,15.85,4.71,-0.81,-5.95
1,13,348,44,-218,3838,-0.38,0.22,27.37,0.44,-2.18,38.38,-6.42,1.54,15.75,4.32,-1.34,-3.63
3,13,214,-7,-375,3870,-0.32,0.28,25.94,-0.07,-3.75,38.70,-6.41,1.53,15.64,4.25,-1.35,4.35
-3,2,159,-23,-366,3902,-0.31,0.26,24.31,-0.23,-3.66,39.02,-6.39,1.53,15.55,4.36,-1.12,6.81
-1,-4,84,53,-357,3899,-0.28,0.21,22.39,0.53,-3.57,38.99,-6.38,1.53,15.46,4.31,-0.98,10.41
-1,-1,84,12,-364,3924,-0.26,0.18,20.67,0.12,-3.64,39.24,-6.37,1.52,15.37,4.30,-1.03,9.07
-3,9,122,-8,-396,3870,-0.25,0.22,19.34,-0.08,-3.96,38.70,-6.36,1.51,15.30,4.33,-1.24,5.46
-3,3,122,-8,-432,3854,-0.25,0.22,18.15,-0.08,-4.32,38.54,-6.36,1.50,15.22,4.33,-1.11,4.54
-8,-12,118,38,-418,3883,-0.27,0.12,17.06,0.38,-4.18,38.83,-6.36,1.49,15.16,4.43,-0.77,3.96
-11,-16,118,39,-433,3904,-0.31,0.01,16.07,0.39,-4.33,39.04,-6.36,1.48,15.09,4.51,-0.66,3.20
13,4,134,-15,-477,3765,-0.20,0.03,15.28,-0.15,-4.77,37.65,-6.37,1.47,15.03,3.99,-1.06,1.50
10,-2,135,32,-557,3937,-0.12,0.02,14.58,0.32,-5.57,39.37,-6.38,1.47,14.97,4.04,-0.93,0.89
-13,-23,111,78,-469,3913,-0.19,-0.12,13.80,0.78,-4.69,39.13,-6.38,1.45,14.92,4.53,-0.46,1.91
-19,-12,107,78,-325,4044,-0.28,-0.18,13.07,0.78,-3.25,40.44,-6.37,1.44,14.87,4.67,-0.66,1.62
2,21,122,-81,-411,3873,-0.24,-0.04,12.51,-0.81,-4.11,38.73,-6.36,1.44,14.82,4.22,-1.37,0.17
6,25,121,-99,-490,3893,-0.18,0.12,11.99,-0.99,-4.90,38.93,-6.38,1.44,14.77,4.14,-1.49,-0.16
-11,-21,80,25,-426,3926,-0.23,-0.02,11.28,0.25,-4.26,39.26,-6.37,1.43,14.73,4.49,-0.51,2.07
-6,-23,70,36,-462,3864,-0.24,-0.16,10.58,0.36,-4.62,38.64,-6.38,1.42,14.68,4.40,-0.42,2.20
-7,-4,55,41,-364,3929,-0.26,-0.17,9.86,0.41,-3.64,39.29,-6.37,1.41,14.64,4.42,-0.80,2.66
-3,7,53,29,-450,3893,-0.26,-0.11,9.20,0.29,-4.50,38.93,-6.37,1.39,14.61,4.34,-1.03,2.28
1,8,59,-5,-563,3912,-0.22,-0.05,8.64,-0.05,-5.63,39.12,-6.39,1.38,14.57,4.26,-1.06,1.44
-1,-1,51,17,-544,3875,-0.21,-0.05,8.08,0.17,-5.44,38.75,-6.40,1.37,14.54,4.30,-0.87,1.55
3,-6,28,-17,-464,3922,-0.17,-0.08,7.45,-0.17,-4.64,39.22,-6.41,1.36,14.51,4.21,-0.75,2.61
6,4,32,14,-519,3902,-0.11,-0.05,6.90,0.14,-5.19,39.02,-6.42,1.35,14.48,4.14,-0.96,1.91
1,1,33,-24,-584,3875,-0.10,-0.04,6.41,-0.24,-5.84,38.75,-6.43,1.34,14.46,4.25,-0.90,1.47
0,-2,36,6,-564,3887,-0.09,-0.05,5.99,0.06,-5.64,38.87,-6.45,1.33,14.44,4.28,-0.83,0.94
-1,2,22,-20,-491,3908,-0.08,-0.03,5.52,-0.20,-4.91,39.08,-6.46,1.32,14.41,4.30,-0.90,1.53
-1,3,19,-20,-493,3919,-0.08,-0.01,5.09,-0.20,-4.93,39.19,-6.47,1.31,14.39,4.31,-0.92,1.39
-3,2,5,-9,-493,3904,-0.09,0.00,4.61,-0.09,-4.93,39.04,-6.48,1.29,14.38,4.36,-0.90,1.97
-2,3,1,-9,-473,3917,-0.10,0.02,4.15,-0.09,-4.73,39.17,-6.48,1.28,14.36,4.35,-0.91,1.88
-3,6,-3,1,-458,3899,-0.10,0.06,3.72,0.01,-4.58,38.99,-6.49,1.26,14.35,4.37,-0.97,1.82
-2,2,-5,-13,-465,3910,-0.11,0.06,3.32,-0.13,-4.65,39.10,-6.49,1.25,14.33,4.35,-0.88,1.64
-3,0,-7,-2,-460,3896,-0.11,0.06,2.94,-0.02,-4.60,38.96,-6.49,1.23,14.32,4.38,-0.83,1.48
-2,1,-7,16,-477,3876,-0.11,0.06,2.61,0.16,-4.77,38.76,-6.50,1.21,14.31,4.36,-0.84,1.22
5,0,-2,-9,-495,3937,-0.07,0.05,2.33,-0.09,-4.95,39.37,-6.51,1.20,14.30,4.22,-0.81,0.67
0,-7,4,36,-449,3896,-0.07,0.00,2.12,0.36,-4.49,38.96,-6.51,1.18,14.29,4.32,-0.64,0.10
1,-1,0,19,-479,3895,-0.05,-0.00,1.91,0.19,-4.79,38.95,-6.52,1.17,14.29,4.30,-0.75,0.21
2,2,1,19,-470,3903,-0.04,0.01,1.73,0.19,-4.70,39.03,-6.52,1.15,14.28,4.27,-0.80,-0.00
1,-1,2,-5,-450,3907,-0.03,0.00,1.57,-0.05,-4.50,39.07,-6.52,1.13,14.27,4.29,-0.73,-0.20
1,-2,4,-1,-458,3902,-0.02,-0.01,1.43,-0.01,-4.58,39.02,-6.53,1.11,14.27,4.29,-0.69,-0.43
-1,-2,3,27,-509,3904,-0.02,-0.02,1.31,0.27,-5.09,39.04,-6.53,1.10,14.26,4.34,-0.68,-0.46
-2,-2,3,-4,-484,3895,-0.03,-0.03,1.20,-0.04,-4.84,38.95,-6.54,1.08,14.26,4.37,-0.67,-0.55
3,4,6,22,-475,3905,-0.01,-0.00,1.11,0.22,-4.75,39.05,-6.55,1.07,14.25,4.26,-0.78,-0.82
5,5,6,8,-469,3899,0.02,0.03,1.04,0.08,-4.69,38.99,-6.55,1.05,14.25,4.22,-0.80,-0.88
0,3,9,-57,-450,3917,0.02,0.04,0.99,-0.57,-4.50,39.17,-6.55,1.03,14.24,4.32,-0.75,-1.12
1,4,7,-31,-452,3902,0.02,0.06,0.93,-0.31,-4.52,39.02,-6.55,1.01,14.24,4.30,-0.77,-1.03
0,0,3,17,-464,3889,0.02,0.06,0.86,0.17,-4.64,38.89,-6.56,1.00,14.24,4.32,-0.67,-0.81
0,-2,1,17,-473,3890,0.02,0.04,0.78,0.17,-4.73,38.90,-6.56,0.98,14.23,4.33,-0.62,-0.74
-1,-3,-2,11,-465,3891,0.01,0.02,0.69,0.11,-4.65,38.91,-6.57,0.96,14.23,4.35,-0.58,-0.61
-1,-3,0,5,-469,3889,0.00,-0.00,0.62,0.05,-4.69,38.89,-6.57,0.94,14.23,4.36,-0.56,-0.80
-1,-5,-1,14,-464,3897,-0.00,-0.03,0.55,0.14,-4.64,38.97,-6.58,0.93,14.23,4.36,-0.50,-0.78
-2,-5,-1,12,-466,3888,-0.01,-0.06,0.49,0.12,-4.66,38.88,-6.58,0.91,14.23,4.39,-0.48,-0.83
2,4,-2,28,-499,3902,-0.00,-0.03,0.43,0.28,-4.99,39.02,-6.59,0.89,14.22,4.31,-0.66,-0.81
2,5,-1,27,-491,3912,0.01,0.00,0.38,0.27,-4.91,39.12,-6.60,0.88,14.22,4.31,-0.68,-0.92
-4,-4,25,14,-586,3840,-0.01,-0.02,0.49,0.14,-5.86,38.40,-6.61,0.87,14.22,4.45,-0.49,-2.59
1,3,23,56,-519,3906,-0.01,-0.00,0.59,0.56,-5.19,39.06,-6.62,0.85,14.22,4.35,-0.62,-2.38
-4,8,72,32,-550,3891,-0.03,0.05,0.97,0.32,-5.50,38.91,-6.63,0.84,14.22,4.47,-0.73,-5.40
-22,4,87,-112,-457,3816,-0.16,0.07,1.40,-1.12,-4.57,38.16,-6.64,0.86,14.21,4.87,-0.67,-6.08
3,7,15,24,-360,3906,-0.13,0.10,1.35,0.24,-3.60,39.06,-6.63,0.85,14.20,4.35,-0.73,-1.24
3,2,17,11,-426,3885,-0.10,0.11,1.32,0.11,-4.26,38.85,-6.62,0.83,14.20,4.33,-0.62,-1.40
-2,2,1,1,-490,3896,-0.10,0.11,1.19,0.01,-4.90,38.96,-6.63,0.82,14.19,4.44,-0.61,-0.41
3,0,3,-17,-483,3883,-0.07,0.10,1.09,-0.17,-4.83,38.83,-6.64,0.80,14.19,4.34,-0.56,-0.63
0,-2,4,24,-464,3901,-0.06,0.07,1.01,0.24,-4.64,39.01,-6.64,0.79,14.19,4.40,-0.50,-0.76
0,-5,6,-6,-460,3911,-0.06,0.04,0.94,-0.06,-4.60,39.11,-6.65,0.77,14.18,4.40,-0.42,-0.95
0,-3,6,0,-449,3898,-0.05,0.01,0.89,0.00,-4.49,38.98,-6.64,0.75,14.18,4.40,-0.44,-0.99
2,-1,5,8,-450,3903,-0.03,0.01,0.83,0.08,-4.50,39.03,-6.64,0.73,14.18,4.35,-0.47,-0.97
2,1,7,11,-457,3886,-0.02,0.01,0.79,0.11,-4.57,38.86,-6.64,0.72,14.17,4.35,-0.50,-1.13
3,2,7,12,-471,3894,0.00,0.02,0.75,0.12,-4.71,38.94,-6.65,0.70,14.17,4.33,-0.51,-1.16
5,3,7,-9,-481,3890,0.03,0.04,0.72,-0.09,-4.81,38.90,-6.66,0.68,14.17,4.28,-0.52,-1.19
-1,1,9,-14,-465,3885,0.02,0.04,0.70,-0.14,-4.65,38.85,-6.67,0.67,14.16,4.41,-0.47,-1.34
-7,-12,9,0,-502,3900,-0.02,-0.04,0.69,0.00,-5.02,39.00,-6.68,0.65,14.16,4.56,-0.18,-1.35
-9,-14,10,-4,-467,3899,-0.07,-0.12,0.68,-0.04,-4.67,38.99,-6.68,0.64,14.16,4.61,-0.10,-1.42
-6,-16,4,25,-458,3889,-0.10,-0.20,0.64,0.25,-4.58,38.89,-6.68,0.62,14.16,4.56,-0.03,-1.05
-3,-15,-1,34,-473,3889,-0.11,-0.27,0.57,0.34,-4.73,38.89,-6.69,0.60,14.15,4.51,-0.02,-0.76
-4,-12,-2,-16,-473,3914,-0.13,-0.32,0.50,-0.16,-4.73,39.14,-6.70,0.58,14.15,4.54,-0.05,-0.75
-4,-14,-1,-22,-473,3908,-0.14,-0.37,0.44,-0.22,-4.73,39.08,-6.71,0.57,14.15,4.55,0.01,-0.86
-6,-19,3,-36,-481,3896,-0.16,-0.45,0.42,-0.36,-4.81,38.96,-6.73,0.56,14.15,4.61,0.14,-1.15
-7,-17,2,-38,-440,3909,-0.19,-0.51,0.39,-0.38,-4.40,39.09,-6.71,0.56,14.15,4.62,0.12,-1.11
-1,-10,2,31,-471,3913,-0.17,-0.52,0.36,0.31,-4.71,39.13,-6.71,0.54,14.15,4.50,-0.01,-1.13
0,-10,4,12,-469,3910,-0.16,-0.53,0.35,0.12,-4.69,39.10,-6.72,0.52,14.14,4.48,0.00,-1.27
-13,-11,11,67,-421,3984,-0.22,-0.54,0.38,0.67,-4.21,39.84,-6.71,0.50,14.14,4.75,0.04,-1.72
-8,-13,2,89,-441,3854,-0.25,-0.57,0.35,0.89,-4.41,38.54,-6.71,0.48,14.14,4.66,0.10,-1.13
0,-7,0,8,-495,3850,-0.22,-0.55,0.32,0.08,-4.95,38.50,-6.72,0.47,14.14,4.50,-0.01,-1.02
2,-12,23,-83,-501,3898,-0.19,-0.57,0.43,-0.83,-5.01,38.98,-6.74,0.48,14.14,4.46,0.08,-2.50
-7,-13,28,-21,-441,3911,-0.21,-0.59,0.56,-0.21,-4.41,39.11,-6.72,0.47,14.13,4.64,0.12,-2.74
3,-10,24,-10,-437,3910,-0.17,-0.60,0.65,-0.10,-4.37,39.10,-6.71,0.45,14.13,4.41,0.07,-2.39
0,-11,18,7,-479,3873,-0.16,-0.60,0.69,0.07,-4.79,38.73,-6.72,0.44,14.13,4.48,0.10,-1.95
-1,-12,16,27,-481,3879,-0.15,-0.62,0.72,0.27,-4.81,38.79,-6.73,0.42,14.13,4.50,0.14,-1.79
-3,-8,17,51,-504,3882,-0.15,-0.60,0.75,0.51,-5.04,38.82,-6.74,0.40,14.12,4.55,0.06,-1.84
-2,-6,18,62,-504,3874,-0.15,-0.58,0.79,0.62,-5.04,38.74,-6.75,0.38,14.12,4.53,0.03,-1.88
-4,-2,20,1,-484,3886,-0.16,-0.53,0.83,0.01,-4.84,38.86,-6.76,0.36,14.12,4.58,-0.05,-1.98
-2,-3,22,-15,-460,3909,-0.15,-0.50,0.88,-0.15,-4.60,39.09,-6.75,0.35,14.11,4.54,-0.03,-2.07
1,-3,28,60,-507,3888,-0.13,-0.47,0.96,0.60,-5.07,38.88,-6.76,0.33,14.11,4.48,-0.03,-2.41
-3,-3,44,79,-509,3895,-0.14,-0.44,1.14,0.79,-5.09,38.95,-6.77,0.31,14.10,4.57,-0.02,-3.36
-3,-5,27,18,-424,3879,-0.14,-0.43,1.19,0.18,-4.24,38.79,-6.76,0.30,14.10,4.56,0.02,-2.17
-2,-2,24,5,-441,3889,-0.14,-0.40,1.21,0.05,-4.41,38.89,-6.75,0.28,14.09,4.53,-0.04,-1.95
-3,-4,15,-19,-457,3913,-0.14,-0.38,1.18,-0.19,-4.57,39.13,-6.73,0.28,14.09,4.54,0.00,-1.36
-4,-6,16,7,-429,3916,-0.15,-0.38,1.16,0.07,-4.29,39.16,-6.72,0.27,14.08,4.56,0.05,-1.44
0,5,23,19,-486,3869,-0.14,-0.31,1.19,0.19,-4.86,38.69,-6.73,0.25,14.08,4.48,-0.18,-1.90
1,1,15,-18,-504,3874,-0.12,-0.27,1.16,-0.18,-5.04,38.74,-6.75,0.25,14.07,4.47,-0.11,-1.38
2,-12,-12,75,-496,3898,-0.09,-0.32,0.97,0.75,-4.96,38.98,-6.75,0.23,14.07,4.44,0.18,0.31
4,-11,-12,81,-518,3928,-0.06,-0.35,0.80,0.81,-5.18,39.28,-6.76,0.22,14.07,4.40,0.18,0.17
-2,-5,15,6,-464,3905,-0.07,-0.35,0.81,0.06,-4.64,39.05,-6.76,0.20,14.06,4.52,0.07,-1.65
-1,-3,13,29,-408,3906,-0.07,-0.33,0.81,0.29,-4.08,39.06,-6.75,0.18,14.06,4.49,0.03,-1.51
1,5,5,-47,-433,3896,-0.05,-0.27,0.76,-0.47,-4.33,38.96,-6.74,0.20,14.06,4.44,-0.16,-1.01
2,4,4,-39,-439,3894,-0.04,-0.22,0.71,-0.39,-4.39,38.94,-6.73,0.21,14.05,4.41,-0.16,-0.98
2,2,9,-41,-449,3885,-0.02,-0.18,0.69,-0.41,-4.49,38.85,-6.72,0.23,14.05,4.40,-0.14,-1.33
0,0,19,-44,-471,3881,-0.02,-0.17,0.74,-0.44,-4.71,38.81,-6.73,0.25,14.05,4.45,-0.12,-1.97
-3,-6,41,-9,-473,3886,-0.03,-0.19,0.92,-0.09,-4.73,38.86,-6.75,0.24,14.04,4.52,0.02,-3.33
-2,-6,41,-4,-466,3907,-0.04,-0.20,1.07,-0.04,-4.66,39.07,-6.75,0.22,14.04,4.51,0.03,-3.20
0,-4,14,32,-459,3909,-0.04,-0.21,1.05,0.32,-4.59,39.09,-6.75,0.20,14.03,4.47,0.01,-1.39
0,-4,5,24,-456,3907,-0.04,-0.21,0.98,0.24,-4.56,39.07,-6.75,0.18,14.03,4.46,0.02,-0.84
4,-2,-23,-59,-496,3878,-0.01,-0.20,0.74,-0.59,-4.96,38.78,-6.76,0.20,14.03,4.38,-0.03,0.87
5,0,-22,-30,-519,3909,0.02,-0.18,0.53,-0.30,-5.19,39.09,-6.78,0.20,14.03,4.36,-0.08,0.64
4,22,-13,70,-426,3913,0.05,-0.03,0.40,0.70,-4.26,39.13,-6.77,0.18,14.02,4.37,-0.56,-0.07
3,21,-16,51,-476,3899,0.06,0.10,0.26,0.51,-4.76,38.99,-6.77,0.17,14.02,4.39,-0.56,0.03
7,25,-25,42,-452,3859,0.10,0.24,0.08,0.42,-4.52,38.59,-6.77,0.15,14.02,4.30,-0.67,0.50
7,24,-32,60,-429,3903,0.13,0.37,-0.12,0.60,-4.29,39.03,-6.76,0.13,14.02,4.28,-0.68,0.81
9,21,-100,57,-295,3918,0.17,0.46,-0.72,0.57,-2.95,39.18,-6.74,0.13,14.03,4.22,-0.64,4.95
11,17,-130,6,-336,3897,0.22,0.52,-1.44,0.06,-3.36,38.97,-6.72,0.13,14.03,4.15,-0.57,6.42
10,10,-215,3,-298,3833,0.26,0.52,-2.61,0.03,-2.98,38.33,-6.70,0.13,14.04,4.15,-0.43,11.27
8,6,-244,18,-293,3918,0.28,0.51,-3.84,0.18,-2.93,39.18,-6.69,0.12,14.06,4.17,-0.34,12.28
10,-5,-369,-18,-267,3932,0.32,0.43,-5.70,-0.18,-2.67,39.32,-6.67,0.12,14.08,4.11,-0.10,19.29
5,-4,-424,-21,-186,3875,0.31,0.36,-7.72,-0.21,-1.86,38.75,-6.65,0.12,14.11,4.20,-0.10,20.00
20,1,-587,-199,-201,3833,0.41,0.33,-10.53,-1.99,-2.01,38.33,-6.63,0.13,14.15,3.86,-0.20,20.00
1,-16,-632,-256,-288,3969,0.37,0.20,-13.33,-2.56,-2.88,39.69,-6.62,0.14,14.21,4.25,0.18,20.00
11,-34,-847,74,-326,3977,0.40,-0.03,-17.16,0.74,-3.26,39.77,-6.60,0.12,14.28,4.02,0.62,20.00
23,-42,-896,138,-375,3966,0.50,-0.28,-20.91,1.38,-3.75,39.66,-6.59,0.10,14.36,3.75,0.87,20.00
2,-26,-1032,71,-417,3863,0.46,-0.41,-25.12,0.71,-4.17,38.63,-6.58,0.07,14.46,4.18,0.60,20.00
15,-8,-1053,32,-481,3848,0.51,-0.42,-29.03,0.32,-4.81,38.48,-6.59,0.04,14.57,3.91,0.25,20.00
15,-3,-1094,25,-538,3854,0.55,-0.40,-32.80,0.25,-5.38,38.54,-6.61,0.02,14.70,3.91,0.16,20.00
1,-27,-1105,-26,-574,3878,0.50,-0.52,-36.26,-0.26,-5.74,38.78,-6.63,0.00,14.85,4.22,0.69,20.00
6,-33,-1031,-42,-626,3829,0.49,-0.67,-38.92,-0.42,-6.26,38.29,-6.64,-0.02,15.00,4.13,0.86,20.00
-2,-28,-962,-8,-734,3953,0.43,-0.77,-40.90,-0.08,-7.34,39.53,-6.66,-0.04,15.16,4.32,0.80,20.00
-3,-25,-782,-167,-781,3912,0.36,-0.85,-41.58,-1.67,-7.81,39.12,-6.67,-0.05,15.33,4.36,0.77,19.14
13,-30,-730,-100,-679,3790,0.41,-0.95,-41.87,-1.00,-6.79,37.90,-6.69,-0.07,15.49,4.04,0.91,15.37
21,-23,-538,-28,-701,3921,0.50,-0.99,-40.97,-0.28,-7.01,39.21,-6.70,-0.09,15.66,3.86,0.80,3.05
6,-22,-486,23,-709,3874,0.48,-1.03,-39.84,0.23,-7.09,38.74,-6.72,-0.11,15.81,4.18,0.80,0.40
2,-20,-311,141,-691,3829,0.45,-1.05,-37.75,1.41,-6.91,38.29,-6.73,-0.14,15.96,4.28,0.79,-9.84
2,8,-263,-15,-758,3814,0.41,-0.89,-35.58,-0.15,-7.58,38.14,-6.75,-0.16,16.10,4.30,0.19,-11.42
2,-2,-165,42,-529,3923,0.38,-0.82,-33.03,0.42,-5.29,39.23,-6.76,-0.19,16.24,4.32,0.39,-16.08
4,-2,-150,41,-558,3874,0.37,-0.75,-30.64,0.41,-5.58,38.74,-6.78,-0.21,16.36,4.29,0.38,-15.24
1,-10,-137,24,-515,3856,0.34,-0.73,-28.41,0.24,-5.15,38.56,-6.79,-0.23,16.47,4.37,0.55,-14.39
5,-18,-147,9,-490,3855,0.34,-0.77,-26.47,0.09,-4.90,38.55,-6.81,-0.24,16.57,4.30,0.74,-12.20
4,-20,-139,59,-438,3900,0.33,-0.81,-24.67,0.59,-4.38,39.00,-6.80,-0.27,16.67,4.32,0.81,-11.35
4,-16,-127,24,-467,3915,0.32,-0.83,-22.98,0.24,-4.67,39.15,-6.80,-0.30,16.76,4.32,0.75,-10.85
-4,-4,-40,17,-482,3888,0.26,-0.77,-20.92,0.17,-4.82,38.88,-6.81,-0.31,16.84,4.51,0.50,-15.15
-2,0,-23,19,-456,3885,0.22,-0.69,-18.97,0.19,-4.56,38.85,-6.80,-0.32,16.92,4.46,0.40,-14.78
0,1,0,6,-468,3889,0.20,-0.62,-17.07,0.06,-4.68,38.89,-6.80,-0.31,16.99,4.43,0.36,-14.87
2,1,1,5,-469,3882,0.19,-0.55,-15.36,0.05,-4.69,38.82,-6.80,-0.31,17.05,4.40,0.33,-13.60
3,5,5,14,-475,3892,0.19,-0.47,-13.79,0.14,-4.75,38.92,-6.82,-0.30,17.10,4.39,0.23,-12.65
3,4,6,10,-478,3884,0.19,-0.39,-12.38,0.10,-4.78,38.84,-6.83,-0.30,17.15,4.40,0.22,-11.62
-1,-4,2,5,-471,3894,0.17,-0.38,-11.13,0.05,-4.71,38.94,-6.84,-0.29,17.20,4.49,0.38,-10.38
0,-6,3,3,-464,3899,0.15,-0.38,-10.00,0.03,-4.64,38.99,-6.83,-0.28,17.23,4.47,0.41,-9.56
0,-5,5,2,-480,3887,0.13,-0.37,-8.97,0.02,-4.80,38.87,-6.84,-0.27,17.27,4.48,0.38,-8.90
0,-4,3,5,-471,3903,0.12,-0.36,-8.05,0.05,-4.71,39.03,-6.85,-0.26,17.30,4.49,0.35,-8.05
0,-3,4,13,-471,3907,0.11,-0.34,-7.22,0.13,-4.71,39.07,-6.85,-0.24,17.33,4.49,0.32,-7.47
1,-3,5,2,-471,3912,0.10,-0.32,-6.47,0.02,-4.71,39.12,-6.85,-0.23,17.36,4.47,0.30,-6.95
-1,-3,3,-11,-467,3893,0.09,-0.31,-5.80,-0.11,-4.67,38.93,-6.85,-0.22,17.38,4.52,0.29,-6.30
1,-1,3,7,-470,3901,0.09,-0.29,-5.21,0.07,-4.70,39.01,-6.85,-0.20,17.40,4.48,0.23,-5.84
2,2,5,5,-476,3901,0.09,-0.24,-4.65,0.05,-4.76,39.01,-6.87,-0.19,17.42,4.47,0.15,-5.54
1,0,4,4,-472,3897,0.09,-0.22,-4.16,0.04,-4.72,38.97,-6.87,-0.18,17.43,4.49,0.18,-5.09
3,-1,0,6,-453,3912,0.10,-0.20,-3.75,0.06,-4.53,39.12,-6.85,-0.17,17.45,4.44,0.19,-4.50
-8,-12,-17,129,-343,3943,0.04,-0.26,-3.48,1.29,-3.43,39.43,-6.84,-0.19,17.46,4.67,0.44,-3.14
-3,5,-176,203,-330,3820,0.02,-0.20,-4.20,2.03,-3.30,38.20,-6.83,-0.21,17.48,4.56,0.09,7.07
0,3,-232,154,-327,3984,0.01,-0.16,-5.20,1.54,-3.27,39.84,-6.82,-0.22,17.50,4.49,0.13,10.09
13,-15,-460,-21,-258,3854,0.09,-0.24,-7.48,-0.21,-2.58,38.54,-6.80,-0.22,17.53,4.20,0.52,20.00
22,7,-516,-104,-188,3770,0.22,-0.17,-9.88,-1.04,-1.88,37.70,-6.78,-0.22,17.57,3.97,0.05,20.00
23,-15,-684,-198,-221,3811,0.34,-0.25,-13.07,-1.98,-2.21,38.11,-6.76,-0.21,17.62,3.91,0.51,20.00
12,-29,-726,-199,-198,4034,0.38,-0.40,-16.19,-1.99,-1.98,40.34,-6.75,-0.21,17.69,4.11,0.84,20.00
13,-29,-883,-96,-264,3995,0.42,-0.54,-19.96,-0.96,-2.64,39.95,-6.73,-0.22,17.76,4.06,0.88,20.00
36,-38,-924,-57,-231,3915,0.59,-0.71,-23.60,-0.57,-2.31,39.15,-6.71,-0.22,17.86,3.53,1.12,20.00
25,-8,-1030,-100,-374,3820,0.69,-0.69,-27.52,-1.00,-3.74,38.20,-6.70,-0.22,17.97,3.72,0.50,20.00
16,-5,-1070,-146,-441,3980,0.72,-0.65,-31.30,-1.46,-4.41,39.80,-6.69,-0.22,18.09,3.89,0.43,20.00
18,-30,-1103,-78,-342,3971,0.75,-0.77,-34.89,-0.78,-3.42,39.71,-6.67,-0.23,18.23,3.83,0.97,20.00
4,2,-1114,-133,-304,3778,0.70,-0.68,-38.20,-1.33,-3.04,37.78,-6.66,-0.24,18.38,4.12,0.30,20.00
17,-24,-1184,-185,-309,4011,0.74,-0.76,-41.60,-1.85,-3.09,40.11,-6.64,-0.25,18.55,3.84,0.86,20.00
37,-16,-1232,-230,-271,3742,0.89,-0.78,-44.96,-2.30,-2.71,37.42,-6.63,-0.26,18.72,3.38,0.71,20.00
23,-16,-1360,-77,-442,3804,0.94,-0.80,-48.76,-0.77,-4.42,38.04,-6.62,-0.26,18.92,3.65,0.72,20.00
36,-16,-1387,-96,-527,3934,1.07,-0.82,-52.34,-0.96,-5.27,39.34,-6.63,-0.27,19.12,3.35,0.73,20.00
29,-33,-1340,95,-789,3922,1.14,-0.94,-55.28,0.95,-7.89,39.22,-6.64,-0.31,19.34,3.48,1.13,20.00
-2,-41,-1298,125,-773,3941,1.01,-1.09,-57.67,1.25,-7.73,39.41,-6.65,-0.34,19.57,4.15,1.36,20.00
