gyroADC_X,gyroADC_Y,gyroADC_Z,accADC_X,accADC_Y,accADC_Z,GyroX,GyroY,GyroZ,AccX,AccY,AccZ,roll_IMU,pitch_IMU,yaw_IMU,roll_PID,pitch_PID,yaw_PID
1,1,-1,-57,-379,3943,-0.00,0.03,-0.08,-0.57,-3.79,39.43,-5.51,0.83,-8.73,0.70,-0.17,0.40
5,-1,-1,-67,-379,3906,0.03,0.03,-0.08,-0.67,-3.79,39.06,-5.51,0.85,-8.73,0.64,-0.14,0.40
3,0,0,-62,-386,3945,0.04,0.02,-0.07,-0.62,-3.86,39.45,-5.53,0.86,-8.73,0.68,-0.16,0.37
-1,1,-2,-49,-379,3958,0.03,0.03,-0.07,-0.49,-3.79,39.58,-5.52,0.84,-8.73,0.74,-0.18,0.43
-3,1,0,-73,-376,3937,0.01,0.03,-0.07,-0.73,-3.76,39.37,-5.52,0.86,-8.73,0.77,-0.18,0.37
-2,2,-1,-77,-409,3929,-0.00,0.04,-0.07,-0.77,-4.09,39.29,-5.53,0.87,-8.73,0.76,-0.20,0.40
-3,1,-1,-70,-397,3921,-0.02,0.04,-0.07,-0.70,-3.97,39.21,-5.55,0.88,-8.72,0.78,-0.18,0.40
-1,1,0,-61,-382,3908,-0.02,0.04,-0.06,-0.61,-3.82,39.08,-5.57,0.88,-8.72,0.74,-0.18,0.37
3,-1,-1,-36,-374,3928,-0.00,0.03,-0.06,-0.36,-3.74,39.28,-5.56,0.87,-8.72,0.68,-0.14,0.40
4,-2,-2,-48,-378,3930,0.02,0.02,-0.07,-0.48,-3.78,39.30,-5.55,0.85,-8.72,0.66,-0.13,0.44
4,-2,-1,-49,-362,3955,0.04,0.00,-0.06,-0.49,-3.62,39.55,-5.54,0.84,-8.72,0.66,-0.13,0.40
3,-2,-1,-46,-351,3947,0.06,-0.01,-0.06,-0.46,-3.51,39.47,-5.52,0.84,-8.72,0.68,-0.13,0.40
3,0,-1,-67,-378,3925,0.07,-0.01,-0.06,-0.67,-3.78,39.25,-5.52,0.85,-8.72,0.68,-0.16,0.40
2,0,0,-68,-388,3941,0.08,-0.01,-0.06,-0.68,-3.88,39.41,-5.53,0.87,-8.72,0.70,-0.16,0.37
1,1,0,-50,-399,3940,0.07,-0.00,-0.05,-0.50,-3.99,39.40,-5.54,0.86,-8.72,0.71,-0.18,0.37
-1,1,-1,-52,-394,3948,0.06,0.01,-0.05,-0.52,-3.94,39.48,-5.56,0.85,-8.72,0.75,-0.18,0.41
-1,1,-1,-57,-386,3930,0.05,0.01,-0.05,-0.57,-3.86,39.30,-5.57,0.84,-8.72,0.75,-0.18,0.41
-2,1,-2,-62,-389,3930,0.03,0.02,-0.06,-0.62,-3.89,39.30,-5.59,0.85,-8.72,0.77,-0.18,0.44
0,0,-2,-61,-380,3939,0.03,0.01,-0.07,-0.61,-3.80,39.39,-5.57,0.86,-8.72,0.73,-0.16,0.44
0,1,-2,-48,-371,3941,0.03,0.02,-0.07,-0.48,-3.71,39.41,-5.56,0.85,-8.72,0.73,-0.18,0.43
0,0,-1,-48,-370,3932,0.02,0.02,-0.07,-0.48,-3.70,39.32,-5.54,0.84,-8.72,0.73,-0.16,0.40
1,1,-1,-55,-369,3936,0.03,0.02,-0.07,-0.55,-3.69,39.36,-5.53,0.83,-8.72,0.71,-0.18,0.40
1,0,0,-55,-384,3941,0.03,0.02,-0.06,-0.55,-3.84,39.41,-5.54,0.82,-8.72,0.71,-0.16,0.37
1,1,-1,-58,-389,3940,0.03,0.02,-0.06,-0.58,-3.89,39.40,-5.56,0.82,-8.72,0.71,-0.17,0.40
1,0,-1,-67,-384,3936,0.04,0.02,-0.06,-0.67,-3.84,39.36,-5.56,0.84,-8.72,0.71,-0.16,0.40
1,0,-1,-70,-388,3927,0.04,0.02,-0.06,-0.70,-3.88,39.27,-5.57,0.86,-8.72,0.71,-0.16,0.40
1,1,-1,-65,-384,3946,0.04,0.02,-0.06,-0.65,-3.84,39.46,-5.56,0.88,-8.72,0.71,-0.18,0.40
0,0,-2,-61,-373,3943,0.04,0.02,-0.07,-0.61,-3.73,39.43,-5.55,0.88,-8.72,0.73,-0.16,0.43
1,0,-1,-51,-376,3935,0.04,0.02,-0.07,-0.51,-3.76,39.35,-5.54,0.86,-8.72,0.71,-0.16,0.40
1,0,-1,-42,-372,3934,0.04,0.02,-0.07,-0.42,-3.72,39.34,-5.53,0.85,-8.72,0.71,-0.16,0.40
2,0,-1,-41,-379,3948,0.05,0.02,-0.07,-0.41,-3.79,39.48,-5.52,0.83,-8.72,0.69,-0.16,0.40
2,0,-1,-51,-377,3938,0.06,0.01,-0.07,-0.51,-3.77,39.38,-5.51,0.81,-8.72,0.69,-0.16,0.40
2,0,0,-52,-380,3939,0.06,0.01,-0.06,-0.52,-3.80,39.39,-5.51,0.79,-8.72,0.69,-0.15,0.37
1,0,0,-53,-378,3948,0.06,0.01,-0.05,-0.53,-3.78,39.48,-5.50,0.78,-8.72,0.71,-0.15,0.37
1,0,-1,-66,-378,3947,0.06,0.01,-0.05,-0.66,-3.78,39.47,-5.49,0.80,-8.72,0.71,-0.16,0.41
0,-1,-1,-55,-379,3949,0.06,0.00,-0.05,-0.55,-3.79,39.49,-5.48,0.79,-8.72,0.72,-0.14,0.41
1,0,-1,-55,-383,3938,0.06,0.00,-0.06,-0.55,-3.83,39.38,-5.50,0.79,-8.72,0.71,-0.15,0.41
1,0,-1,-51,-382,3937,0.06,0.00,-0.06,-0.51,-3.82,39.37,-5.51,0.78,-8.72,0.71,-0.15,0.40
0,0,-1,-52,-390,3921,0.05,0.00,-0.06,-0.52,-3.90,39.21,-5.53,0.78,-8.72,0.73,-0.15,0.40
1,0,-1,-51,-391,3929,0.05,0.00,-0.06,-0.51,-3.91,39.29,-5.54,0.77,-8.72,0.71,-0.15,0.40
1,-1,-1,-55,-379,3939,0.05,-0.00,-0.06,-0.55,-3.79,39.39,-5.53,0.78,-8.72,0.71,-0.14,0.40
0,0,-1,-57,-378,3946,0.05,-0.00,-0.06,-0.57,-3.78,39.46,-5.51,0.79,-8.72,0.73,-0.16,0.40
0,1,-1,-59,-379,3945,0.04,0.00,-0.06,-0.59,-3.79,39.45,-5.51,0.81,-8.72,0.72,-0.17,0.40
0,0,-1,-51,-378,3954,0.04,0.00,-0.06,-0.51,-3.78,39.54,-5.50,0.79,-8.72,0.72,-0.16,0.40
0,0,0,-59,-389,3936,0.04,0.00,-0.05,-0.59,-3.89,39.36,-5.51,0.80,-8.72,0.72,-0.16,0.37
0,0,-1,-62,-386,3935,0.03,0.00,-0.05,-0.62,-3.86,39.35,-5.52,0.81,-8.72,0.73,-0.16,0.41
0,0,-1,-63,-380,3945,0.03,0.00,-0.05,-0.63,-3.80,39.45,-5.52,0.83,-8.72,0.72,-0.16,0.41
1,0,-1,-62,-384,3949,0.03,0.00,-0.05,-0.62,-3.84,39.49,-5.53,0.85,-8.71,0.71,-0.16,0.41
0,0,-2,-55,-378,3946,0.03,0.00,-0.06,-0.55,-3.78,39.46,-5.52,0.84,-8.71,0.72,-0.16,0.44
0,0,-1,-57,-378,3943,0.03,0.00,-0.06,-0.57,-3.78,39.43,-5.50,0.83,-8.71,0.72,-0.16,0.40
0,0,-1,-58,-380,3934,0.02,0.00,-0.06,-0.58,-3.80,39.34,-5.51,0.84,-8.71,0.72,-0.16,0.40
0,0,-1,-58,-379,3940,0.02,0.00,-0.06,-0.58,-3.79,39.40,-5.50,0.84,-8.71,0.72,-0.16,0.40
0,0,-1,-57,-377,3936,0.02,0.00,-0.06,-0.57,-3.77,39.36,-5.48,0.83,-8.71,0.72,-0.16,0.40
-1,0,-2,-59,-383,3929,0.01,0.00,-0.07,-0.59,-3.83,39.29,-5.50,0.84,-8.71,0.74,-0.16,0.43
0,0,0,-56,-392,3922,0.01,0.00,-0.06,-0.56,-3.92,39.22,-5.51,0.83,-8.71,0.72,-0.16,0.37
0,0,-1,-55,-386,3931,0.01,0.00,-0.06,-0.55,-3.86,39.31,-5.53,0.83,-8.71,0.72,-0.16,0.40
-1,0,-1,-65,-384,3923,0.00,0.00,-0.06,-0.65,-3.84,39.23,-5.54,0.84,-8.71,0.74,-0.16,0.40
0,0,-1,-60,-381,3944,0.00,0.00,-0.06,-0.60,-3.81,39.44,-5.53,0.86,-8.71,0.72,-0.16,0.40
0,0,-1,-55,-380,3938,0.00,0.00,-0.06,-0.55,-3.80,39.38,-5.52,0.84,-8.71,0.72,-0.16,0.40
0,0,-1,-56,-380,3924,0.00,0.00,-0.06,-0.56,-3.80,39.24,-5.53,0.82,-8.71,0.72,-0.16,0.40
0,0,-1,-53,-379,3938,0.00,0.00,-0.06,-0.53,-3.79,39.38,-5.52,0.81,-8.71,0.72,-0.16,0.40
0,0,-1,-51,-374,3932,0.00,0.00,-0.06,-0.51,-3.74,39.32,-5.51,0.79,-8.71,0.72,-0.16,0.40
1,1,-1,-53,-385,3939,0.01,0.01,-0.06,-0.53,-3.85,39.39,-5.52,0.79,-8.71,0.71,-0.17,0.40
1,0,-1,-59,-380,3940,0.01,0.01,-0.06,-0.59,-3.80,39.40,-5.52,0.81,-8.71,0.71,-0.16,0.40
0,0,0,-53,-390,3954,0.01,0.01,-0.05,-0.53,-3.90,39.54,-5.54,0.80,-8.71,0.73,-0.16,0.37
1,0,-1,-62,-386,3951,0.02,0.00,-0.06,-0.62,-3.86,39.51,-5.54,0.82,-8.71,0.71,-0.16,0.40
1,-1,-1,-55,-378,3940,0.02,-0.00,-0.06,-0.55,-3.78,39.40,-5.53,0.81,-8.71,0.71,-0.14,0.40
1,-1,-2,-58,-383,3931,0.02,-0.01,-0.06,-0.58,-3.83,39.31,-5.54,0.82,-8.71,0.71,-0.14,0.44
1,0,-1,-60,-382,3929,0.03,-0.01,-0.06,-0.60,-3.82,39.29,-5.54,0.84,-8.71,0.71,-0.16,0.40
0,-1,-1,-53,-380,3940,0.03,-0.01,-0.06,-0.53,-3.80,39.40,-5.54,0.82,-8.71,0.73,-0.14,0.40
1,0,0,-52,-381,3949,0.03,-0.01,-0.06,-0.52,-3.81,39.49,-5.53,0.81,-8.71,0.71,-0.16,0.37
1,0,-1,-59,-385,3928,0.03,-0.01,-0.06,-0.59,-3.85,39.28,-5.54,0.82,-8.71,0.71,-0.16,0.40
1,0,-1,-58,-385,3942,0.04,-0.01,-0.06,-0.58,-3.85,39.42,-5.56,0.83,-8.71,0.71,-0.16,0.40
0,0,-1,-62,-386,3937,0.03,-0.01,-0.06,-0.62,-3.86,39.37,-5.57,0.84,-8.71,0.73,-0.16,0.40
0,1,-1,-59,-379,3926,0.03,-0.00,-0.06,-0.59,-3.79,39.26,-5.55,0.85,-8.71,0.73,-0.18,0.40
1,1,-1,-61,-375,3936,0.03,0.00,-0.06,-0.61,-3.75,39.36,-5.53,0.85,-8.71,0.71,-0.18,0.40
2,0,-1,-57,-383,3940,0.04,0.00,-0.06,-0.57,-3.83,39.40,-5.54,0.84,-8.71,0.69,-0.16,0.40
1,1,0,-53,-377,3940,0.04,0.01,-0.05,-0.53,-3.77,39.40,-5.53,0.83,-8.71,0.71,-0.18,0.37
1,0,-1,-59,-381,3948,0.04,0.01,-0.05,-0.59,-3.81,39.48,-5.52,0.84,-8.71,0.71,-0.16,0.41
1,0,-1,-56,-379,3944,0.05,0.01,-0.05,-0.56,-3.79,39.44,-5.51,0.83,-8.71,0.71,-0.16,0.41
1,0,-1,-59,-382,3944,0.05,0.01,-0.05,-0.59,-3.82,39.44,-5.52,0.84,-8.71,0.71,-0.16,0.40
1,-1,-1,-63,-379,3946,0.05,0.00,-0.06,-0.63,-3.79,39.46,-5.51,0.86,-8.71,0.71,-0.15,0.40
1,0,-1,-57,-389,3929,0.05,0.00,-0.06,-0.57,-3.89,39.29,-5.53,0.85,-8.71,0.71,-0.16,0.40
1,0,-1,-59,-390,3930,0.05,0.00,-0.06,-0.59,-3.90,39.30,-5.55,0.85,-8.71,0.71,-0.16,0.40
1,0,0,-54,-383,3932,0.05,0.00,-0.05,-0.54,-3.83,39.32,-5.55,0.84,-8.71,0.71,-0.16,0.37
0,0,0,-69,-393,3929,0.05,0.00,-0.05,-0.69,-3.93,39.29,-5.56,0.85,-8.71,0.73,-0.16,0.37
1,0,0,-56,-381,3940,0.05,0.00,-0.04,-0.56,-3.81,39.40,-5.55,0.84,-8.71,0.71,-0.16,0.38
1,-1,-1,-52,-389,3946,0.05,-0.01,-0.04,-0.52,-3.89,39.46,-5.56,0.82,-8.71,0.71,-0.14,0.41
1,0,-1,-55,-388,3941,0.05,-0.01,-0.04,-0.55,-3.88,39.41,-5.58,0.82,-8.70,0.72,-0.16,0.41
1,1,-1,-63,-387,3921,0.05,0.00,-0.05,-0.63,-3.87,39.21,-5.59,0.83,-8.70,0.72,-0.18,0.41
1,-1,-1,-56,-383,3928,0.05,-0.00,-0.05,-0.56,-3.83,39.28,-5.57,0.82,-8.70,0.72,-0.14,0.41
2,-1,-1,-59,-385,3936,0.06,-0.01,-0.05,-0.59,-3.85,39.36,-5.58,0.84,-8.70,0.70,-0.14,0.41
1,0,-1,-55,-377,3937,0.06,-0.01,-0.05,-0.55,-3.77,39.37,-5.56,0.83,-8.70,0.72,-0.16,0.41
1,0,-1,-55,-374,3938,0.06,-0.01,-0.05,-0.55,-3.74,39.38,-5.54,0.83,-8.70,0.71,-0.16,0.41
1,0,0,-56,-380,3953,0.06,-0.01,-0.05,-0.56,-3.80,39.53,-5.53,0.82,-8.70,0.71,-0.16,0.37
1,0,-1,-55,-380,3943,0.06,-0.01,-0.05,-0.55,-3.80,39.43,-5.51,0.81,-8.70,0.71,-0.16,0.41
0,-1,-1,-56,-381,3936,0.05,-0.01,-0.05,-0.56,-3.81,39.36,-5.53,0.81,-8.70,0.73,-0.14,0.41
1,-1,-1,-56,-391,3937,0.05,-0.02,-0.05,-0.56,-3.91,39.37,-5.55,0.81,-8.70,0.71,-0.14,0.41
0,0,0,-60,-376,3934,0.05,-0.02,-0.05,-0.60,-3.76,39.34,-5.53,0.82,-8.70,0.73,-0.16,0.37
1,0,0,-61,-378,3949,0.05,-0.01,-0.04,-0.61,-3.78,39.49,-5.52,0.83,-8.70,0.71,-0.16,0.38
0,0,0,-54,-387,3947,0.05,-0.01,-0.04,-0.54,-3.87,39.47,-5.54,0.82,-8.70,0.73,-0.16,0.38
1,1,0,-52,-386,3946,0.05,-0.01,-0.03,-0.52,-3.86,39.46,-5.55,0.81,-8.70,0.71,-0.17,0.38
1,0,-2,-50,-378,3934,0.05,-0.00,-0.04,-0.50,-3.78,39.34,-5.54,0.79,-8.70,0.71,-0.16,0.44
0,-1,-2,-61,-387,3934,0.04,-0.01,-0.05,-0.61,-3.87,39.34,-5.55,0.81,-8.70,0.73,-0.14,0.44
0,0,-1,-45,-384,3939,0.04,-0.01,-0.05,-0.45,-3.84,39.39,-5.55,0.79,-8.70,0.73,-0.16,0.41
0,-1,0,-53,-377,3949,0.04,-0.01,-0.05,-0.53,-3.77,39.49,-5.53,0.78,-8.70,0.73,-0.14,0.37
1,0,-1,-61,-386,3940,0.04,-0.01,-0.05,-0.61,-3.86,39.40,-5.54,0.80,-8.70,0.71,-0.16,0.41
1,0,-1,-57,-385,3939,0.04,-0.01,-0.05,-0.57,-3.85,39.39,-5.56,0.81,-8.70,0.71,-0.16,0.41
0,0,-1,-52,-380,3935,0.04,-0.01,-0.05,-0.52,-3.80,39.35,-5.55,0.79,-8.70,0.73,-0.16,0.41
0,0,0,-54,-385,3938,0.03,-0.01,-0.05,-0.54,-3.85,39.38,-5.56,0.79,-8.70,0.73,-0.16,0.37
0,-1,-1,-46,-382,3938,0.03,-0.01,-0.05,-0.46,-3.82,39.38,-5.56,0.77,-8.70,0.73,-0.14,0.41
0,0,-1,-51,-379,3934,0.03,-0.01,-0.05,-0.51,-3.79,39.34,-5.54,0.76,-8.70,0.73,-0.15,0.41
0,-1,-1,-65,-379,3928,0.02,-0.02,-0.05,-0.65,-3.79,39.28,-5.54,0.78,-8.70,0.73,-0.14,0.41
0,0,-1,-62,-382,3928,0.02,-0.02,-0.05,-0.62,-3.82,39.28,-5.54,0.80,-8.70,0.73,-0.16,0.41
0,0,-1,-61,-381,3938,0.02,-0.01,-0.05,-0.61,-3.81,39.38,-5.54,0.82,-8.70,0.73,-0.16,0.41
0,1,0,-61,-381,3937,0.02,-0.01,-0.05,-0.61,-3.81,39.37,-5.54,0.83,-8.70,0.73,-0.18,0.37
0,0,-1,-56,-382,3936,0.02,-0.01,-0.05,-0.56,-3.82,39.36,-5.54,0.82,-8.70,0.73,-0.16,0.41
0,0,-1,-55,-383,3943,0.01,-0.01,-0.05,-0.55,-3.83,39.43,-5.55,0.80,-8.70,0.73,-0.16,0.41
0,1,-1,-62,-383,3944,0.01,0.00,-0.05,-0.62,-3.83,39.44,-5.55,0.82,-8.70,0.73,-0.17,0.41
0,0,-1,-53,-378,3943,0.01,0.00,-0.05,-0.53,-3.78,39.43,-5.53,0.81,-8.70,0.72,-0.16,0.41
1,1,-1,-58,-377,3946,0.02,0.01,-0.05,-0.58,-3.77,39.46,-5.52,0.81,-8.70,0.71,-0.17,0.41
0,1,0,-56,-383,3938,0.01,0.01,-0.05,-0.56,-3.83,39.38,-5.53,0.81,-8.70,0.73,-0.17,0.37
0,1,-1,-49,-382,3942,0.01,0.02,-0.05,-0.49,-3.82,39.42,-5.53,0.79,-8.70,0.73,-0.17,0.41
0,1,-1,-52,-377,3942,0.01,0.02,-0.05,-0.52,-3.77,39.42,-5.52,0.78,-8.70,0.72,-0.17,0.41
1,1,-1,-55,-379,3937,0.02,0.03,-0.05,-0.55,-3.79,39.37,-5.50,0.79,-8.70,0.70,-0.17,0.41
0,1,0,-54,-378,3929,0.02,0.03,-0.05,-0.54,-3.78,39.29,-5.49,0.78,-8.70,0.72,-0.17,0.37
0,1,0,-50,-378,3935,0.01,0.03,-0.04,-0.50,-3.78,39.35,-5.49,0.76,-8.70,0.72,-0.17,0.38
-1,0,0,-55,-377,3935,0.01,0.03,-0.04,-0.55,-3.77,39.35,-5.48,0.78,-8.70,0.74,-0.15,0.38
0,1,0,-59,-375,3942,0.01,0.03,-0.03,-0.59,-3.75,39.42,-5.47,0.79,-8.70,0.72,-0.17,0.38
0,0,0,-60,-378,3928,0.00,0.03,-0.03,-0.60,-3.78,39.28,-5.48,0.81,-8.70,0.72,-0.16,0.38
-1,1,-1,-51,-382,3931,-0.00,0.03,-0.03,-0.51,-3.82,39.31,-5.49,0.80,-8.70,0.74,-0.17,0.41
-1,1,-1,-52,-385,3933,-0.01,0.04,-0.04,-0.52,-3.85,39.33,-5.51,0.79,-8.70,0.74,-0.17,0.41
-1,0,-1,-49,-381,3935,-0.01,0.03,-0.04,-0.49,-3.81,39.35,-5.51,0.77,-8.70,0.74,-0.15,0.41
-1,0,-1,-52,-384,3934,-0.02,0.03,-0.04,-0.52,-3.84,39.34,-5.53,0.77,-8.70,0.74,-0.15,0.41
-1,0,-2,-54,-377,3925,-0.02,0.03,-0.05,-0.54,-3.77,39.25,-5.51,0.77,-8.70,0.74,-0.15,0.44
0,0,-1,-51,-378,3931,-0.02,0.02,-0.05,-0.51,-3.78,39.31,-5.50,0.76,-8.70,0.72,-0.15,0.41
0,0,-1,-52,-375,3930,-0.02,0.02,-0.05,-0.52,-3.75,39.30,-5.49,0.76,-8.70,0.72,-0.15,0.41
0,1,0,-50,-375,3928,-0.02,0.02,-0.05,-0.50,-3.75,39.28,-5.47,0.74,-8.70,0.72,-0.16,0.37
0,0,0,-52,-387,3942,-0.01,0.02,-0.04,-0.52,-3.87,39.42,-5.49,0.75,-8.70,0.72,-0.15,0.38
0,0,-1,-54,-387,3943,-0.01,0.02,-0.04,-0.54,-3.87,39.43,-5.51,0.75,-8.70,0.72,-0.15,0.41
0,-1,-1,-55,-385,3948,-0.01,0.01,-0.05,-0.55,-3.85,39.48,-5.52,0.76,-8.70,0.72,-0.13,0.41
0,0,0,-61,-383,3948,-0.01,0.01,-0.04,-0.61,-3.83,39.48,-5.53,0.78,-8.70,0.72,-0.15,0.38
1,0,0,-60,-384,3920,-0.00,0.01,-0.04,-0.60,-3.84,39.20,-5.54,0.79,-8.70,0.71,-0.15,0.38
1,1,-1,-62,-387,3938,0.00,0.01,-0.04,-0.62,-3.87,39.38,-5.55,0.81,-8.70,0.71,-0.17,0.41
0,-1,0,-51,-380,3927,0.00,0.01,-0.04,-0.51,-3.80,39.27,-5.54,0.79,-8.70,0.73,-0.14,0.38
0,1,0,-52,-383,3929,0.00,0.01,-0.03,-0.52,-3.83,39.29,-5.55,0.78,-8.69,0.73,-0.17,0.38
0,1,0,-48,-372,3941,0.00,0.02,-0.03,-0.48,-3.72,39.41,-5.54,0.77,-8.69,0.72,-0.17,0.38
0,1,-1,-53,-369,3922,0.00,0.02,-0.03,-0.53,-3.69,39.22,-5.52,0.77,-8.70,0.72,-0.17,0.41
0,0,-1,-60,-381,3938,0.00,0.02,-0.03,-0.60,-3.81,39.38,-5.52,0.79,-8.69,0.72,-0.15,0.41
0,0,-1,-55,-377,3947,0.00,0.02,-0.04,-0.55,-3.77,39.47,-5.50,0.79,-8.70,0.72,-0.15,0.41
0,0,-1,-54,-386,3937,0.00,0.02,-0.04,-0.54,-3.86,39.37,-5.52,0.79,-8.69,0.72,-0.15,0.41
1,0,-1,-54,-395,3933,0.01,0.01,-0.04,-0.54,-3.95,39.33,-5.54,0.79,-8.69,0.71,-0.15,0.41
0,0,-1,-54,-385,3935,0.01,0.01,-0.04,-0.54,-3.85,39.35,-5.56,0.79,-8.69,0.73,-0.15,0.41
1,0,-1,-49,-378,3947,0.01,0.01,-0.05,-0.49,-3.78,39.47,-5.54,0.77,-8.69,0.71,-0.15,0.41
1,-1,0,-61,-388,3927,0.02,0.00,-0.04,-0.61,-3.88,39.27,-5.55,0.79,-8.69,0.71,-0.14,0.38
1,0,-1,-59,-371,3923,0.02,0.00,-0.04,-0.59,-3.71,39.23,-5.54,0.79,-8.69,0.71,-0.16,0.41
0,0,-1,-56,-378,3928,0.02,0.00,-0.04,-0.56,-3.78,39.28,-5.52,0.80,-8.69,0.72,-0.16,0.41
0,0,-1,-55,-372,3928,0.02,0.00,-0.05,-0.55,-3.72,39.28,-5.50,0.80,-8.69,0.72,-0.16,0.41
0,-1,-1,-52,-373,3941,0.02,-0.00,-0.05,-0.52,-3.73,39.41,-5.49,0.79,-8.69,0.72,-0.14,0.41
1,0,-1,-52,-380,3934,0.02,-0.00,-0.05,-0.52,-3.80,39.34,-5.50,0.78,-8.69,0.70,-0.15,0.41
0,1,0,-56,-382,3936,0.02,0.00,-0.04,-0.56,-3.82,39.36,-5.51,0.79,-8.69,0.72,-0.17,0.37
-1,1,-2,-60,-377,3944,0.01,0.01,-0.05,-0.60,-3.77,39.44,-5.50,0.80,-8.69,0.74,-0.17,0.44
0,0,0,-54,-381,3935,0.01,0.01,-0.05,-0.54,-3.81,39.35,-5.52,0.79,-8.69,0.72,-0.15,0.37
-1,0,0,-51,-379,3933,0.00,0.01,-0.04,-0.51,-3.79,39.33,-5.51,0.78,-8.69,0.74,-0.15,0.37
0,1,-1,-52,-385,3943,0.00,0.01,-0.04,-0.52,-3.85,39.43,-5.53,0.77,-8.69,0.72,-0.17,0.41
0,1,-1,-57,-389,3942,0.00,0.02,-0.05,-0.57,-3.89,39.42,-5.55,0.78,-8.69,0.73,-0.17,0.41
-1,1,-1,-59,-377,3920,-0.00,0.02,-0.05,-0.59,-3.77,39.20,-5.54,0.79,-8.69,0.74,-0.17,0.41
-1,1,-1,-60,-379,3934,-0.01,0.03,-0.05,-0.60,-3.79,39.34,-5.53,0.81,-8.69,0.74,-0.17,0.41
-1,0,-1,-70,-377,3933,-0.02,0.02,-0.05,-0.70,-3.77,39.33,-5.52,0.83,-8.69,0.74,-0.16,0.41
-1,1,-1,-65,-381,3929,-0.02,0.03,-0.05,-0.65,-3.81,39.29,-5.53,0.85,-8.69,0.74,-0.18,0.41
0,1,-1,-61,-381,3937,-0.02,0.03,-0.05,-0.61,-3.81,39.37,-5.53,0.86,-8.69,0.72,-0.18,0.41
0,0,-1,-59,-387,3943,-0.02,0.03,-0.05,-0.59,-3.87,39.43,-5.55,0.86,-8.69,0.72,-0.16,0.40
0,1,-1,-52,-384,3940,-0.01,0.03,-0.05,-0.52,-3.84,39.40,-5.55,0.84,-8.69,0.72,-0.18,0.40
-1,0,0,-60,-390,3945,-0.02,0.03,-0.05,-0.60,-3.90,39.45,-5.57,0.85,-8.69,0.74,-0.16,0.37
-1,1,0,-52,-383,3926,-0.02,0.03,-0.04,-0.52,-3.83,39.26,-5.57,0.83,-8.69,0.74,-0.17,0.37
-1,0,-1,-54,-381,3928,-0.03,0.03,-0.05,-0.54,-3.81,39.28,-5.56,0.81,-8.69,0.74,-0.16,0.41
-2,1,0,-43,-376,3934,-0.04,0.03,-0.04,-0.43,-3.76,39.34,-5.55,0.80,-8.69,0.76,-0.17,0.38
-2,1,0,-49,-381,3933,-0.05,0.03,-0.04,-0.49,-3.81,39.33,-5.55,0.78,-8.69,0.76,-0.17,0.38
-1,1,-1,-53,-381,3927,-0.05,0.04,-0.04,-0.53,-3.81,39.27,-5.54,0.76,-8.69,0.74,-0.17,0.41
-2,1,0,-56,-380,3942,-0.05,0.04,-0.04,-0.56,-3.80,39.42,-5.53,0.78,-8.69,0.75,-0.17,0.38
-2,1,0,-66,-380,3953,-0.06,0.04,-0.03,-0.66,-3.80,39.53,-5.52,0.80,-8.69,0.75,-0.17,0.38
-4,2,-4,-66,-444,3941,-0.08,0.05,-0.05,-0.66,-4.44,39.41,-5.54,0.80,-8.69,0.79,-0.19,0.51
-5,3,-7,-137,-375,3953,-0.10,0.06,-0.09,-1.37,-3.75,39.53,-5.54,0.82,-8.69,0.80,-0.20,0.60
7,5,-11,-54,-360,3930,-0.05,0.09,-0.15,-0.54,-3.60,39.30,-5.52,0.82,-8.69,0.60,-0.24,0.71
1,1,-9,-34,-388,3923,-0.04,0.08,-0.19,-0.34,-3.88,39.23,-5.53,0.80,-8.69,0.70,-0.17,0.63
0,2,0,-56,-373,3943,-0.03,0.09,-0.17,-0.56,-3.73,39.43,-5.51,0.80,-8.69,0.72,-0.18,0.33
6,-6,-45,-134,-396,3922,0.01,0.04,-0.43,-1.34,-3.96,39.22,-5.52,0.82,-8.68,0.62,-0.05,1.76
4,4,-49,-116,-379,3875,0.03,0.06,-0.68,-1.16,-3.79,38.75,-5.52,0.84,-8.68,0.66,-0.22,1.81
-4,-1,-32,68,-302,3954,0.00,0.05,-0.81,0.68,-3.02,39.54,-5.51,0.82,-8.68,0.79,-0.14,1.19
-2,-3,-16,22,-310,3933,-0.01,0.03,-0.83,0.22,-3.10,39.33,-5.50,0.81,-8.68,0.75,-0.10,0.64
-2,0,-2,-38,-391,3923,-0.02,0.02,-0.76,-0.38,-3.91,39.23,-5.51,0.79,-8.67,0.75,-0.15,0.19
-5,0,-4,-64,-397,3938,-0.05,0.02,-0.71,-0.64,-3.97,39.38,-5.52,0.80,-8.67,0.80,-0.15,0.28
-4,0,-2,-52,-364,3932,-0.07,0.02,-0.65,-0.52,-3.64,39.32,-5.51,0.80,-8.67,0.78,-0.15,0.23
1,0,-3,-46,-370,3933,-0.06,0.02,-0.60,-0.46,-3.70,39.33,-5.49,0.79,-8.66,0.70,-0.15,0.28
-17,4,-46,74,-616,3947,-0.15,0.04,-0.82,0.74,-6.16,39.47,-5.51,0.78,-8.66,1.00,-0.22,1.66
-16,-15,-70,45,-487,4150,-0.24,-0.06,-1.17,0.45,-4.87,41.50,-5.52,0.76,-8.66,0.98,0.10,2.35
-4,8,-146,-107,-733,3985,-0.24,-0.00,-1.94,-1.07,-7.33,39.85,-5.54,0.76,-8.65,0.77,-0.29,4.65
10,-13,-196,-262,-825,3981,-0.15,-0.08,-2.94,-2.62,-8.25,39.81,-5.56,0.77,-8.64,0.55,0.06,5.99
6,-3,-298,-91,-1008,3964,-0.10,-0.09,-4.47,-0.91,-10.08,39.64,-5.58,0.77,-8.62,0.62,-0.11,8.91
13,-4,-353,-41,-1064,3984,-0.01,-0.11,-6.17,-0.41,-10.64,39.84,-5.60,0.77,-8.59,0.51,-0.09,10.17
12,4,-485,-99,-906,3886,0.06,-0.07,-8.51,-0.99,-9.06,38.86,-5.62,0.76,-8.56,0.54,-0.22,13.82
-1,3,-473,-101,-872,3836,0.05,-0.05,-10.55,-1.01,-8.72,38.36,-5.63,0.76,-8.52,0.76,-0.21,12.70
0,-15,-281,53,-520,3842,0.05,-0.13,-11.21,0.53,-5.20,38.42,-5.65,0.75,-8.47,0.74,0.09,5.96
1,3,-276,-68,-233,3847,0.05,-0.10,-11.77,-0.68,-2.33,38.47,-5.63,0.74,-8.43,0.72,-0.21,5.59
-12,-23,-39,75,270,3812,-0.03,-0.23,-10.83,0.75,2.70,38.12,-5.61,0.73,-8.38,0.93,0.22,-2.12
8,-10,-10,45,267,4046,0.02,-0.27,-9.81,0.45,2.67,40.46,-5.60,0.73,-8.34,0.60,0.00,-2.74
0,5,-61,-370,-94,3932,0.02,-0.21,-9.20,-3.70,-0.94,39.32,-5.58,0.74,-8.31,0.73,-0.25,-0.80
2,9,-111,-336,-40,3947,0.03,-0.14,-8.96,-3.36,-0.40,39.47,-5.57,0.74,-8.27,0.70,-0.31,0.98
-2,34,-203,-35,-108,3915,0.01,0.09,-9.30,-0.35,-1.08,39.15,-5.55,0.74,-8.24,0.76,-0.72,3.98
5,24,-181,72,-240,3961,0.04,0.22,-9.47,0.72,-2.40,39.61,-5.54,0.72,-8.20,0.64,-0.54,3.17
4,6,-176,-139,-340,3905,0.06,0.24,-9.60,-1.39,-3.40,39.05,-5.53,0.74,-8.16,0.66,-0.23,2.95
-2,8,-189,-167,-363,3953,0.04,0.26,-9.79,-1.67,-3.63,39.53,-5.53,0.75,-8.12,0.76,-0.27,3.32
-1,6,-211,-257,-415,3933,0.03,0.27,-10.10,-2.57,-4.15,39.33,-5.53,0.77,-8.08,0.74,-0.23,3.96
-6,12,-222,-279,-379,3907,-0.01,0.32,-10.44,-2.79,-3.79,39.07,-5.53,0.78,-8.04,0.83,-0.33,4.21
21,112,-243,-159,-255,3938,0.12,0.97,-10.88,-1.59,-2.55,39.38,-5.52,0.80,-8.00,0.38,-1.98,4.76
-4,40,-224,-177,-174,4024,0.09,1.12,-11.16,-1.77,-1.74,40.24,-5.50,0.81,-7.95,0.79,-0.75,4.02
17,32,-238,-215,0,4028,0.18,1.20,-11.50,-2.15,0.00,40.28,-5.49,0.81,-7.90,0.44,-0.61,4.38
68,64,-274,-258,45,3846,0.58,1.47,-12.02,-2.58,0.45,38.46,-5.47,0.82,-7.86,-0.39,-1.13,5.41
44,27,-363,-474,-33,3913,0.79,1.49,-13.03,-4.74,-0.33,39.13,-5.45,0.84,-7.80,0.03,-0.51,8.07
48,32,-436,-456,-50,3833,1.00,1.53,-14.39,-4.56,-0.50,38.33,-5.44,0.85,-7.75,-0.02,-0.59,10.06
14,3,-830,-232,119,3935,0.99,1.40,-18.01,-2.32,1.19,39.35,-5.42,0.86,-7.67,0.55,-0.11,22.13
39,14,-960,-196,98,3974,1.13,1.35,-22.07,-1.96,0.98,39.74,-5.40,0.86,-7.59,0.13,-0.30,25.11
51,33,-1262,-83,-42,3990,1.33,1.41,-27.56,-0.83,-0.42,39.90,-5.38,0.86,-7.48,-0.06,-0.61,33.40
29,12,-1342,2,-58,3996,1.37,1.34,-32.99,0.02,-0.58,39.96,-5.36,0.85,-7.35,0.32,-0.26,34.20
27,42,-1560,-20,-27,4043,1.40,1.47,-39.21,-0.20,-0.27,40.43,-5.33,0.83,-7.19,0.35,-0.76,39.39
11,85,-1602,-86,-99,3887,1.32,1.84,-45.06,-0.86,-0.99,38.87,-5.31,0.83,-7.01,0.61,-1.46,38.74
13,129,-1621,-73,-296,3966,1.27,2.44,-50.44,-0.73,-2.96,39.66,-5.29,0.82,-6.81,0.57,-2.16,37.48
18,112,-1594,-195,-310,3855,1.25,2.88,-55.12,-1.95,-3.10,38.55,-5.29,0.83,-6.59,0.48,-1.84,34.91
11,34,-1529,-314,-355,3755,1.20,2.80,-58.93,-3.14,-3.55,37.55,-5.29,0.84,-6.35,0.60,-0.52,31.36
1,13,-1514,-290,-347,3823,1.08,2.60,-62.28,-2.90,-3.47,38.23,-5.28,0.84,-6.10,0.76,-0.18,29.66
10,7,-1449,18,-402,3883,1.04,2.38,-64.89,0.18,-4.02,38.83,-5.29,0.81,-5.84,0.60,-0.10,26.53
-5,-3,-1428,23,-424,3994,0.90,2.13,-67.11,0.23,-4.24,39.94,-5.30,0.78,-5.57,0.85,0.06,25.02
-5,-38,-1316,-363,-316,3752,0.78,1.68,-68.43,-3.63,-3.16,37.52,-5.30,0.78,-5.30,0.84,0.62,20.76
-2,-37,-1298,-371,-405,3918,0.69,1.29,-69.50,-3.71,-4.05,39.18,-5.31,0.78,-5.02,0.78,0.57,19.76
-11,-32,-1338,-78,-446,4011,0.55,0.96,-70.71,-0.78,-4.46,40.11,-5.32,0.76,-4.74,0.93,0.46,20.67
-2,-14,-1355,-76,-349,3948,0.49,0.78,-71.91,-0.76,-3.49,39.48,-5.31,0.75,-4.45,0.77,0.15,20.82
3,5,-1324,38,-380,3957,0.46,0.73,-72.79,0.38,-3.80,39.57,-5.32,0.71,-4.16,0.68,-0.17,19.44
9,-7,-1309,38,-386,3972,0.47,0.62,-73.50,0.38,-3.86,39.72,-5.32,0.67,-3.87,0.58,0.03,18.68
13,13,-1264,86,-530,3937,0.50,0.64,-73.86,0.86,-5.30,39.37,-5.34,0.63,-3.58,0.52,-0.31,17.01
-1,29,-1247,39,-543,3899,0.44,0.75,-74.08,0.39,-5.43,38.99,-5.36,0.60,-3.28,0.75,-0.57,16.35
-7,41,-1162,-53,-576,3958,0.36,0.92,-73.76,-0.53,-5.76,39.58,-5.38,0.58,-2.99,0.85,-0.75,13.57
-2,43,-1142,-17,-618,3947,0.31,1.09,-73.35,-0.17,-6.18,39.47,-5.40,0.55,-2.69,0.76,-0.77,13.02
-4,38,-1073,9,-596,3924,0.25,1.22,-72.56,0.09,-5.96,39.24,-5.42,0.53,-2.40,0.80,-0.67,10.95
-8,38,-1049,16,-571,3854,0.18,1.33,-71.70,0.16,-5.71,38.54,-5.44,0.50,-2.12,0.86,-0.66,10.43
3,-15,-955,47,-528,3827,0.18,1.10,-70.36,0.47,-5.28,38.27,-5.45,0.47,-1.84,0.68,0.22,7.71
6,-47,-896,12,-466,3928,0.20,0.71,-68.79,0.12,-4.66,39.28,-5.47,0.44,-1.56,0.63,0.74,6.25
17,-90,-780,10,-402,3931,0.28,0.09,-66.67,0.10,-4.02,39.31,-5.48,0.40,-1.30,0.45,1.42,3.06
14,-108,-750,33,-372,3867,0.34,-0.58,-64.58,0.33,-3.72,38.67,-5.48,0.35,-1.04,0.51,1.68,2.77
5,-69,-694,48,-364,4013,0.34,-0.94,-62.35,0.48,-3.64,40.13,-5.48,0.31,-0.79,0.66,1.00,1.64
-15,-70,-689,20,-334,3880,0.21,-1.28,-60.32,0.20,-3.34,38.80,-5.47,0.26,-0.55,0.99,1.00,2.18
4,-76,-693,-152,-350,3958,0.21,-1.61,-58.51,-1.52,-3.50,39.58,-5.46,0.25,-0.32,0.66,1.08,2.94
4,-71,-684,-171,-383,3953,0.22,-1.88,-56.84,-1.71,-3.83,39.53,-5.46,0.24,-0.10,0.66,0.97,3.22
16,-47,-711,-140,-334,4038,0.29,-1.98,-55.49,-1.40,-3.34,40.38,-5.46,0.23,0.12,0.47,0.56,4.60
3,-43,-722,-132,-368,4004,0.28,-2.05,-54.34,-1.32,-3.68,40.04,-5.45,0.22,0.34,0.68,0.49,5.37
16,-15,-795,-157,-401,3953,0.35,-1.93,-53.76,-1.57,-4.01,39.53,-5.46,0.21,0.55,0.47,0.02,8.04
-2,-9,-840,-242,-438,3858,0.30,-1.80,-53.51,-2.42,-4.38,38.58,-5.46,0.20,0.77,0.77,-0.07,9.65
9,-38,-904,-181,-449,3893,0.33,-1.85,-53.67,-1.81,-4.49,38.93,-5.47,0.19,0.98,0.59,0.42,11.75
15,-38,-917,-111,-420,3920,0.39,-1.89,-53.90,-1.11,-4.20,39.20,-5.47,0.18,1.19,0.49,0.42,12.10
14,-33,-920,-49,-458,4000,0.43,-1.91,-54.12,-0.49,-4.58,40.00,-5.49,0.16,1.41,0.51,0.34,12.12
-12,-20,-907,-105,-430,3926,0.32,-1.84,-54.24,-1.05,-4.30,39.26,-5.50,0.15,1.62,0.95,0.12,11.63
8,29,-840,-201,-484,3965,0.33,-1.48,-53.94,-2.01,-4.84,39.65,-5.51,0.13,1.84,0.61,-0.68,9.46
10,46,-836,-205,-493,4008,0.36,-1.05,-53.65,-2.05,-4.93,40.08,-5.51,0.13,2.05,0.58,-0.93,9.42
12,88,-794,-261,-391,3968,0.40,-0.41,-53.12,-2.61,-3.91,39.68,-5.51,0.12,2.26,0.55,-1.60,8.17
6,77,-771,-324,-332,3862,0.40,0.10,-52.52,-3.24,-3.32,38.62,-5.51,0.12,2.47,0.65,-1.37,7.59
0,70,-815,-319,-189,3786,0.36,0.52,-52.24,-3.19,-1.89,37.86,-5.50,0.12,2.68,0.75,-1.22,9.18
-2,53,-853,-278,-208,3963,0.31,0.79,-52.22,-2.78,-2.08,39.63,-5.49,0.12,2.89,0.78,-0.91,10.46
7,26,-951,-100,-341,3977,0.32,0.87,-52.79,-1.00,-3.41,39.77,-5.48,0.12,3.10,0.62,-0.45,13.57
-13,27,-977,-259,-298,3865,0.21,0.95,-53.48,-2.59,-2.98,38.65,-5.47,0.12,3.31,0.95,-0.46,14.21
5,39,-1057,-87,-380,4035,0.22,1.09,-54.58,-0.87,-3.80,40.35,-5.47,0.12,3.53,0.65,-0.65,16.52
-5,45,-1090,-84,-444,4077,0.17,1.26,-55.77,-0.84,-4.44,40.77,-5.48,0.12,3.75,0.82,-0.74,17.21
-12,62,-1221,-296,-332,3952,0.08,1.51,-57.64,-2.96,-3.32,39.52,-5.48,0.12,3.98,0.93,-1.01,20.98
-31,69,-1230,-296,-299,3867,-0.12,1.78,-59.38,-2.96,-2.99,38.67,-5.48,0.12,4.22,1.23,-1.11,20.67
-16,85,-1247,32,-340,3907,-0.21,2.12,-61.05,0.32,-3.40,39.07,-5.47,0.09,4.46,0.97,-1.35,20.65
-8,84,-1258,-93,-346,3997,-0.23,2.42,-62.62,-0.93,-3.46,39.97,-5.46,0.10,4.71,0.83,-1.31,20.46
0,42,-1269,-183,-245,3907,-0.21,2.43,-64.09,-1.83,-2.45,39.07,-5.45,0.10,4.97,0.70,-0.60,20.30
-18,52,-1270,-66,-254,4006,-0.30,2.51,-65.43,-0.66,-2.54,40.06,-5.44,0.09,5.23,0.99,-0.76,19.85
1,31,-1245,-217,-210,3924,-0.26,2.45,-66.48,-2.17,-2.10,39.24,-5.43,0.09,5.50,0.67,-0.41,18.62
-3,18,-1238,-160,-236,3808,-0.26,2.31,-67.39,-1.60,-2.36,38.08,-5.42,0.09,5.76,0.74,-0.20,18.06
-102,-51,-1245,-227,-296,3965,-0.85,1.77,-68.24,-2.27,-2.96,39.65,-5.41,0.09,6.04,2.37,0.93,17.98
-147,-66,-1242,-295,-269,3939,-1.66,1.19,-68.99,-2.95,-2.69,39.39,-5.41,0.08,6.31,3.07,1.14,17.61
-182,-113,-1216,74,-423,4058,-2.61,0.38,-69.51,0.74,-4.23,40.58,-5.43,0.04,6.59,3.60,1.88,16.53
-115,-37,-1195,204,-422,4003,-3.05,0.12,-69.85,2.04,-4.22,40.03,-5.45,-0.00,6.87,2.43,0.58,15.69
-165,-56,-1071,-171,-441,4064,-3.75,-0.24,-69.40,-1.71,-4.41,40.64,-5.47,-0.01,7.14,3.23,0.87,11.64
-237,-99,-1018,-184,-466,4164,-4.82,-0.82,-68.67,-1.84,-4.66,41.64,-5.50,-0.03,7.42,4.37,1.56,10.09
-395,-160,-841,47,-593,3949,-6.75,-1.71,-66.93,0.47,-5.93,39.49,-5.54,-0.06,7.68,6.91,2.53,4.69
-236,-66,-750,27,-602,3726,-7.51,-1.94,-64.81,0.27,-6.02,37.26,-5.59,-0.10,7.94,4.16,0.92,2.34
5,92,-565,-114,-522,3901,-6.73,-1.19,-61.78,-1.14,-5.22,39.01,-5.63,-0.11,8.19,0.14,-1.69,-2.87
-20,62,-535,-41,-529,4041,-6.18,-0.69,-58.86,-0.41,-5.29,40.41,-5.67,-0.13,8.42,0.61,-1.15,-2.87
-59,51,-512,21,-385,4011,-5.92,-0.31,-56.10,0.21,-3.85,40.11,-5.68,-0.17,8.64,1.29,-0.93,-2.68
-76,47,-517,5,-366,3961,-5.79,0.01,-53.64,0.05,-3.66,39.61,-5.68,-0.19,8.86,1.59,-0.83,-1.65
-129,27,-553,-37,-325,3939,-6.00,0.17,-51.65,-0.37,-3.25,39.39,-5.69,-0.19,9.06,2.47,-0.48,0.26
-105,32,-564,-90,-311,3877,-6.04,0.35,-49.93,-0.90,-3.11,38.77,-5.70,-0.20,9.26,2.07,-0.55,1.23
0,83,-616,-212,-267,3819,-5.44,0.82,-48.69,-2.12,-2.67,38.19,-5.72,-0.20,9.46,0.33,-1.38,3.42
12,97,-629,-255,-265,3904,-4.82,1.33,-47.66,-2.55,-2.65,39.04,-5.73,-0.20,9.65,0.18,-1.58,4.22
14,76,-704,-164,-334,3889,-4.25,1.66,-47.19,-1.64,-3.34,38.89,-5.74,-0.19,9.83,0.19,-1.20,6.92
52,77,-758,-134,-361,3871,-3.51,1.96,-47.09,-1.34,-3.61,38.71,-5.75,-0.18,10.02,-0.40,-1.19,8.78
61,92,-823,-70,-475,3947,-2.79,2.33,-47.41,-0.70,-4.75,39.47,-5.77,-0.18,10.21,-0.49,-1.42,10.86
46,93,-829,-56,-473,4030,-2.23,2.66,-47.72,-0.56,-4.73,40.30,-5.79,-0.17,10.40,-0.19,-1.41,10.95
-23,66,-801,-98,-471,4014,-2.15,2.80,-47.84,-0.98,-4.71,40.14,-5.81,-0.17,10.59,0.98,-0.95,9.95
-33,62,-788,-95,-493,4008,-2.13,2.90,-47.86,-0.95,-4.93,40.08,-5.83,-0.16,10.79,1.16,-0.87,9.49
-27,88,-760,-139,-555,4049,-2.08,3.15,-47.71,-1.39,-5.55,40.49,-5.85,-0.15,10.98,1.06,-1.29,8.59
-25,95,-743,-219,-459,4002,-2.03,3.41,-47.47,-2.19,-4.59,40.02,-5.86,-0.14,11.17,1.03,-1.39,8.09
-121,58,-684,-341,-461,3855,-2.56,3.42,-46.90,-3.41,-4.61,38.55,-5.87,-0.13,11.36,2.62,-0.77,6.29
-106,75,-693,-261,-464,3879,-2.95,3.54,-46.43,-2.61,-4.64,38.79,-5.89,-0.12,11.54,2.34,-1.05,6.75
-40,119,-753,-222,-423,3982,-2.90,3.91,-46.38,-2.22,-4.23,39.82,-5.90,-0.10,11.73,1.23,-1.77,8.79
-90,101,-778,-194,-420,4090,-3.16,4.14,-46.49,-1.94,-4.20,40.90,-5.91,-0.09,11.91,2.06,-1.45,9.59
-231,38,-800,-58,-451,4032,-4.25,3.95,-46.72,-0.58,-4.51,40.32,-5.94,-0.07,12.10,4.36,-0.40,10.25
-267,32,-803,-96,-427,4081,-5.46,3.75,-46.95,-0.96,-4.27,40.81,-5.96,-0.06,12.29,4.89,-0.31,10.26
-301,31,-813,-44,-532,3975,-6.75,3.57,-47.21,-0.44,-5.32,39.75,-6.01,-0.06,12.48,5.37,-0.31,10.50
-301,25,-807,-44,-491,3935,-7.91,3.36,-47.41,-0.44,-4.91,39.35,-6.05,-0.05,12.67,5.29,-0.22,10.22
-350,-5,-753,-205,-401,3781,-9.25,3.00,-47.27,-2.05,-4.01,37.81,-6.09,-0.04,12.86,6.02,0.26,8.44
-331,-5,-721,-304,-408,3934,-10.35,2.67,-46.94,-3.04,-4.08,39.34,-6.13,-0.04,13.05,5.62,0.23,7.46
-165,-8,-625,-262,-463,3714,-10.32,2.35,-46.06,-2.62,-4.63,37.14,-6.18,-0.03,13.23,2.81,0.26,4.51
-98,17,-611,-206,-460,3533,-9.88,2.22,-45.18,-2.06,-4.60,35.33,-6.22,-0.02,13.41,1.72,-0.18,4.34
203,175,-563,-5,-557,3873,-7.66,3.06,-44.09,-0.05,-5.57,38.73,-6.27,-0.03,13.59,-3.21,-2.79,3.09
179,154,-549,-43,-506,4102,-5.80,3.70,-43.03,-0.43,-5.06,41.02,-6.31,-0.02,13.76,-2.66,-2.39,2.98
11,156,-520,-62,-498,4030,-5.15,4.28,-41.90,-0.62,-4.98,40.30,-6.34,-0.01,13.93,0.24,-2.38,2.39
-22,183,-524,-25,-517,4004,-4.77,4.97,-40.91,-0.25,-5.17,40.04,-6.38,-0.00,14.09,0.84,-2.78,2.87
-161,170,-526,-189,-574,4068,-5.28,5.51,-40.03,-1.89,-5.74,40.68,-6.41,0.02,14.26,3.16,-2.53,3.24
-147,157,-529,-214,-472,3898,-5.65,5.92,-39.25,-2.14,-4.72,38.98,-6.43,0.04,14.41,2.89,-2.28,3.61
-196,118,-549,-370,-367,4047,-6.28,6.04,-38.67,-3.70,-3.67,40.47,-6.45,0.07,14.57,3.68,-1.61,4.48
-231,96,-545,-363,-360,4070,-7.06,6.02,-38.13,-3.63,-3.60,40.70,-6.48,0.09,14.72,4.22,-1.24,4.53
-231,51,-614,-168,-374,3801,-7.76,5.73,-38.06,-1.68,-3.74,38.01,-6.50,0.12,14.88,4.17,-0.50,6.89
-263,24,-646,-154,-400,3871,-8.59,5.31,-38.20,-1.54,-4.00,38.71,-6.53,0.14,15.03,4.65,-0.08,7.92
-365,-58,-723,-212,-581,3936,-9.96,4.42,-38.79,-2.12,-5.81,39.36,-6.58,0.15,15.19,6.28,1.24,10.32
-404,-91,-748,-108,-676,3992,-11.43,3.42,-39.47,-1.08,-6.76,39.92,-6.64,0.15,15.35,6.84,1.72,10.92
-426,-128,-747,-177,-652,3809,-12.88,2.30,-40.08,-1.77,-6.52,38.09,-6.71,0.16,15.51,7.11,2.26,10.66
-411,-134,-735,-165,-662,3751,-14.10,1.25,-40.56,-1.65,-6.62,37.51,-6.78,0.15,15.67,6.77,2.29,10.08
-296,-140,-651,-218,-774,3672,-14.50,0.27,-40.47,-2.18,-7.74,36.72,-6.86,0.14,15.83,4.80,2.32,7.26
-248,-136,-610,-268,-752,3618,-14.56,-0.58,-40.15,-2.68,-7.52,36.18,-6.93,0.13,15.99,3.99,2.18,5.98
-66,-129,-456,-324,-775,3754,-13.51,-1.31,-38.91,-3.24,-7.75,37.54,-7.00,0.12,16.14,0.99,2.01,1.19
-45,-126,-411,-340,-746,3650,-12.43,-1.95,-37.53,-3.40,-7.46,36.50,-7.06,0.11,16.29,0.73,1.91,0.14
4,-172,-293,-223,-787,3816,-11.16,-2.80,-35.56,-2.23,-7.87,38.16,-7.12,0.09,16.43,0.00,2.63,-3.17
14,-188,-278,-220,-791,3830,-9.96,-3.67,-33.70,-2.20,-7.91,38.30,-7.17,0.07,16.56,-0.07,2.84,-3.03
92,-164,-252,-309,-770,3791,-8.40,-4.30,-31.87,-3.09,-7.70,37.91,-7.22,0.05,16.69,-1.27,2.39,-3.27
104,-148,-254,-259,-812,3887,-6.93,-4.78,-30.23,-2.59,-8.12,38.87,-7.26,0.03,16.81,-1.36,2.08,-2.63
180,-152,-206,-246,-824,3918,-5.14,-5.23,-28.47,-2.46,-8.24,39.18,-7.30,0.01,16.92,-2.50,2.12,-3.64
167,-159,-197,-196,-896,3928,-3.61,-5.67,-26.82,-1.96,-8.96,39.28,-7.33,-0.02,17.02,-2.16,2.21,-3.36
99,-131,-93,-187,-820,4098,-2.64,-5.90,-24.71,-1.87,-8.20,40.98,-7.35,-0.05,17.11,-0.94,1.72,-6.15
87,-133,-80,-178,-775,4072,-1.85,-6.13,-22.72,-1.78,-7.75,40.72,-7.38,-0.07,17.20,-0.67,1.74,-5.89
81,-54,-13,-242,-614,3945,-1.17,-5.84,-20.53,-2.42,-6.14,39.45,-7.39,-0.09,17.28,-0.51,0.43,-7.39
96,-27,4,-211,-615,3940,-0.47,-5.42,-18.45,-2.11,-6.15,39.40,-7.40,-0.11,17.35,-0.71,0.00,-7.24
222,95,37,-89,-629,4060,0.94,-4.30,-16.38,-0.89,-6.29,40.60,-7.41,-0.12,17.41,-2.74,-1.98,-7.63
280,165,32,-80,-635,3984,2.55,-2.86,-14.55,-0.80,-6.35,39.84,-7.41,-0.13,17.47,-3.60,-3.06,-6.82
167,162,21,-111,-642,4095,3.31,-1.59,-12.97,-1.11,-6.42,40.95,-7.41,-0.13,17.52,-1.63,-2.91,-5.89
140,152,50,-147,-624,3886,3.84,-0.50,-11.36,-1.47,-6.24,38.86,-7.40,-0.12,17.56,-1.13,-2.66,-6.31
167,187,84,-197,-389,4046,4.47,0.69,-9.72,-1.97,-3.89,40.46,-7.38,-0.11,17.60,-1.55,-3.16,-6.89
211,217,96,-178,-300,3933,5.31,1.94,-8.16,-1.78,-3.00,39.33,-7.34,-0.09,17.64,-2.23,-3.58,-6.75
131,151,232,-294,-340,4045,5.58,2.67,-5.93,-2.94,-3.40,40.45,-7.31,-0.07,17.66,-0.86,-2.41,-10.57
70,113,257,-343,-376,4012,5.45,3.09,-3.77,-3.43,-3.76,40.12,-7.28,-0.04,17.68,0.16,-1.73,-10.66
-74,15,229,-154,-572,3955,4.45,2.87,-1.99,-1.54,-5.72,39.55,-7.27,-0.01,17.69,2.52,-0.09,-9.08
-83,20,204,-173,-470,4017,3.50,2.71,-0.55,-1.73,-4.70,40.17,-7.25,0.02,17.69,2.60,-0.19,-7.73
-85,50,136,-164,-357,3908,2.63,2.74,0.34,-1.64,-3.57,39.08,-7.23,0.04,17.69,2.57,-0.70,-5.11
-87,44,115,-137,-355,3946,1.84,2.74,1.00,-1.37,-3.55,39.46,-7.21,0.06,17.69,2.54,-0.60,-4.17
-98,41,35,-146,-375,3900,1.06,2.71,1.12,-1.46,-3.75,39.00,-7.19,0.09,17.69,2.66,-0.56,-1.41
-95,33,6,-120,-382,3942,0.37,2.64,1.04,-1.20,-3.82,39.42,-7.18,0.11,17.68,2.56,-0.43,-0.46
-110,25,-43,10,-419,3978,-0.34,2.53,0.67,0.10,-4.19,39.78,-7.16,0.12,17.68,2.76,-0.30,1.07
-108,25,-47,-6,-427,4013,-0.96,2.43,0.32,-0.06,-4.27,40.13,-7.15,0.13,17.68,2.67,-0.31,1.08
-100,45,-46,-28,-493,3962,-1.48,2.46,0.01,-0.28,-4.93,39.62,-7.15,0.16,17.68,2.50,-0.65,0.94
-97,56,-41,-67,-503,3959,-1.92,2.56,-0.24,-0.67,-5.03,39.59,-7.16,0.19,17.68,2.42,-0.84,0.68
-97,65,3,-234,-406,3920,-2.32,2.70,-0.20,-2.34,-4.06,39.20,-7.16,0.21,17.69,2.39,-0.98,-0.80
-105,47,18,-266,-410,3836,-2.73,2.72,-0.07,-2.66,-4.10,38.36,-7.17,0.24,17.69,2.49,-0.68,-1.26
-93,4,37,-246,-448,3821,-3.02,2.47,0.16,-2.46,-4.48,38.21,-7.18,0.27,17.69,2.27,0.03,-1.82
-57,14,34,-245,-461,3831,-3.07,2.31,0.35,-2.45,-4.61,38.31,-7.19,0.30,17.69,1.66,-0.16,-1.65
26,47,20,-172,-523,3915,-2.60,2.36,0.44,-1.72,-5.23,39.15,-7.20,0.32,17.69,0.29,-0.72,-1.15
31,48,22,-131,-545,3958,-2.15,2.42,0.53,-1.31,-5.45,39.58,-7.22,0.35,17.69,0.24,-0.73,-1.18
9,57,1,-88,-694,4007,-1.88,2.53,0.48,-0.88,-6.94,40.07,-7.24,0.37,17.69,0.63,-0.88,-0.49
7,58,-3,-57,-703,3910,-1.65,2.63,0.42,-0.57,-7.03,39.10,-7.27,0.38,17.69,0.69,-0.89,-0.38
-2,49,131,-146,-874,3932,-1.50,2.66,1.17,-1.46,-8.74,39.32,-7.29,0.40,17.68,0.86,-0.74,-4.65
2,58,198,-160,-911,3892,-1.34,2.75,2.26,-1.60,-9.11,38.92,-7.31,0.42,17.68,0.80,-0.88,-6.54
63,76,161,-472,-539,3859,-0.82,2.94,3.02,-4.72,-5.39,38.59,-7.32,0.45,17.67,-0.19,-1.18,-5.02
79,84,207,-498,-432,3763,-0.26,3.16,3.98,-4.98,-4.32,37.63,-7.32,0.48,17.65,-0.42,-1.30,-6.24
208,68,358,-325,-619,3622,1.04,3.26,5.77,-3.25,-6.19,36.22,-7.32,0.51,17.63,-2.51,-1.03,-10.73
262,71,382,-278,-665,3615,2.53,3.36,7.52,-2.78,-6.65,36.15,-7.32,0.54,17.60,-3.31,-1.07,-10.92
470,93,415,-83,-691,3614,5.15,3.59,9.30,-0.83,-6.91,36.14,-7.32,0.57,17.57,-6.64,-1.43,-11.41
546,82,405,-9,-593,3664,7.96,3.74,10.84,-0.09,-5.93,36.64,-7.30,0.58,17.53,-7.71,-1.24,-10.53
691,185,533,196,-666,3955,11.38,4.49,13.01,1.96,-6.66,39.55,-7.27,0.59,17.48,-9.91,-2.93,-14.10
679,212,586,189,-767,3988,14.39,5.33,15.28,1.89,-7.67,39.88,-7.22,0.61,17.42,-9.49,-3.32,-15.10
774,300,829,167,-976,4127,17.67,6.63,18.81,1.67,-9.76,41.27,-7.17,0.64,17.35,-10.86,-4.72,-22.09
793,267,901,86,-632,4132,20.74,7.60,22.43,0.86,-6.32,41.32,-7.10,0.66,17.26,-10.96,-4.09,-23.25
694,256,1165,-400,-673,3891,22.90,8.40,27.29,-4.00,-6.73,38.91,-7.01,0.73,17.16,-9.13,-3.85,-30.48
674,229,1291,-687,-700,4004,24.72,8.96,32.44,-6.87,-7.00,40.04,-6.92,0.80,17.03,-8.66,-3.36,-32.94
371,-87,1691,-915,-408,3805,24.51,7.53,39.51,-9.15,-4.08,38.05,-6.82,0.86,16.88,-3.56,1.88,-44.00
224,-108,1812,-831,-523,3805,23.43,6.12,46.61,-8.31,-5.23,38.05,-6.72,0.93,16.70,-1.16,2.12,-45.59
125,-291,2014,-596,-428,3875,21.85,3.73,54.23,-5.96,-4.28,38.75,-6.63,0.99,16.48,0.39,5.04,-49.75
77,-331,2069,-462,-444,3633,20.13,1.34,61.43,-4.62,-4.44,36.33,-6.55,1.04,16.24,1.06,5.53,-49.07
54,-330,2174,-254,-316,3947,18.45,-0.81,68.55,-2.54,-3.16,39.47,-6.46,1.08,15.97,1.31,5.34,-50.11
55,-291,2181,-225,-425,4137,16.94,-2.50,75.00,-2.25,-4.25,41.37,-6.38,1.12,15.67,1.17,4.55,-48.07
67,-155,2160,-459,-302,4210,15.65,-3.20,80.67,-4.59,-3.02,42.10,-6.30,1.16,15.35,0.86,2.18,-45.35
60,-114,2156,-608,-272,4141,14.45,-3.57,85.76,-6.08,-2.72,41.41,-6.23,1.20,15.00,0.88,1.46,-43.41
59,-12,2113,-805,-131,3907,13.37,-3.29,90.07,-8.05,-1.31,39.07,-6.16,1.24,14.64,0.80,-0.25,-40.43
84,-11,2086,-754,-7,4001,12.54,-3.03,93.79,-7.54,-0.07,40.01,-6.09,1.29,14.27,0.31,-0.26,-38.19
65,-42,1950,-417,62,3713,11.69,-2.98,96.31,-4.17,0.62,37.13,-6.02,1.33,13.88,0.56,0.27,-32.69
34,-70,1879,-469,9,3727,10.72,-3.11,98.14,-4.69,0.09,37.27,-5.96,1.37,13.49,1.00,0.73,-29.63
30,-170,1593,-262,32,3873,9.84,-3.84,98.04,-2.62,0.32,38.73,-5.89,1.40,13.10,0.99,2.36,-19.96
23,-167,1475,-189,79,3950,8.99,-4.47,97.23,-1.89,0.79,39.50,-5.83,1.43,12.71,1.04,2.26,-16.23
10,-151,1243,-29,143,4048,8.15,-4.94,95.09,-0.29,1.43,40.48,-5.77,1.44,12.33,1.19,1.95,-9.11
18,-164,1186,106,134,4095,7.45,-5.45,92.82,1.06,1.34,40.95,-5.71,1.45,11.96,0.99,2.13,-7.97
16,-105,992,54,-64,4004,6.80,-5.55,89.59,0.54,-0.64,40.04,-5.66,1.46,11.60,0.97,1.13,-2.53
2,-103,939,101,-97,3996,6.13,-5.62,86.36,1.01,-0.97,39.96,-5.61,1.46,11.25,1.15,1.09,-1.86
9,-67,808,-209,-311,4001,5.57,-5.47,82.65,-2.09,-3.11,40.01,-5.57,1.48,10.92,0.99,0.48,1.28
14,-53,778,-330,-342,4047,5.10,-5.24,79.13,-3.30,-3.42,40.47,-5.54,1.51,10.60,0.86,0.26,1.07
21,-39,735,-326,-419,3879,4.72,-4.96,75.70,-3.26,-4.19,38.79,-5.51,1.54,10.30,0.71,0.04,1.33
15,-51,738,-300,-389,3801,4.34,-4.77,72.63,-3.00,-3.89,38.01,-5.49,1.56,10.01,0.78,0.26,0.15
4,-32,804,-193,-249,3978,3.93,-4.49,70.27,-1.93,-2.49,39.78,-5.45,1.58,9.73,0.93,-0.05,-2.91
18,-6,877,-91,-450,4048,3.65,-4.08,68.60,-0.91,-4.50,40.48,-5.45,1.59,9.45,0.67,-0.46,-5.97
29,63,987,63,-623,4055,3.46,-3.29,67.76,0.63,-6.23,40.55,-5.44,1.59,9.18,0.47,-1.56,-9.98
24,96,1029,68,-673,4067,3.26,-2.37,67.26,0.68,-6.73,40.67,-5.43,1.60,8.91,0.54,-2.06,-11.57
28,175,1217,114,-805,4083,3.10,-1.07,67.96,1.14,-8.05,40.83,-5.43,1.61,8.64,0.46,-3.30,-17.69
32,198,1285,67,-801,4134,2.99,0.25,69.00,0.67,-8.01,41.34,-5.43,1.63,8.37,0.38,-3.59,-19.62
64,299,1567,-175,-855,4008,3.08,2.05,71.66,-1.75,-8.55,40.08,-5.42,1.66,8.08,-0.15,-5.17,-28.22
67,310,1656,-242,-815,3948,3.18,3.73,74.59,-2.42,-8.15,39.48,-5.42,1.71,7.79,-0.20,-5.23,-30.20
76,300,1979,-355,-718,3921,3.33,5.19,79.21,-3.55,-7.18,39.21,-5.41,1.77,7.48,-0.34,-4.96,-39.50
80,294,2061,-348,-687,3860,3.48,6.46,83.86,-3.48,-6.87,38.60,-5.40,1.84,7.14,-0.39,-4.77,-40.63
98,268,2289,-394,-706,3836,3.73,7.45,89.43,-3.94,-7.06,38.36,-5.39,1.92,6.79,-0.68,-4.26,-46.38
118,256,2371,-422,-616,3938,4.08,8.27,94.95,-4.22,-6.16,39.38,-5.37,2.00,6.42,-1.00,-4.01,-47.20
125,230,2480,-394,-617,3976,4.43,8.85,100.59,-3.94,-6.17,39.76,-5.35,2.09,6.02,-1.09,-3.54,-48.90
131,230,2495,-374,-639,3884,4.79,9.36,105.75,-3.74,-6.39,38.84,-5.33,2.17,5.60,-1.17,-3.51,-47.57
136,223,2503,-420,-647,3951,5.14,9.79,110.44,-4.20,-6.47,39.51,-5.31,2.27,5.17,-1.23,-3.37,-46.17
140,231,2493,-489,-698,3889,5.48,10.22,114.60,-4.89,-6.98,38.89,-5.28,2.36,4.71,-1.27,-3.48,-44.35
133,190,2411,-488,-590,3924,5.74,10.36,117.85,-4.88,-5.90,39.24,-5.25,2.46,4.25,-1.14,-2.79,-40.41
127,176,2394,-642,-442,3794,5.94,10.39,120.67,-6.42,-4.42,37.94,-5.21,2.56,3.77,-1.03,-2.56,-38.82
161,43,2290,-1288,-255,3489,6.33,9.62,122.57,-12.88,-2.55,34.89,-5.16,2.67,3.29,-1.58,-0.38,-34.61
120,-26,2270,-1268,-157,3422,6.43,8.50,124.16,-12.68,-1.57,34.22,-5.11,2.76,2.79,-0.89,0.69,-33.35
126,-253,2277,-466,196,3585,6.56,6.10,125.63,-4.66,1.96,35.85,-5.04,2.84,2.29,-0.99,4.35,-33.05
113,-391,2247,-365,304,3624,6.59,3.11,126.78,-3.65,3.04,36.24,-4.97,2.90,1.79,-0.77,6.45,-31.61
77,-474,2060,-311,871,3937,6.40,-0.09,126.67,-3.11,8.71,39.37,-4.90,2.95,1.28,-0.18,7.61,-25.30
28,-457,1956,-327,949,4067,5.93,-2.87,125.93,-3.27,9.49,40.67,-4.84,2.98,0.78,0.60,7.11,-22.01
12,-282,1244,24,314,4290,5.41,-4.31,120.93,0.24,3.14,42.90,-4.77,3.00,0.29,0.83,4.03,0.37
22,-234,982,14,431,4324,5.00,-5.30,114.82,0.14,4.31,43.24,-4.71,3.01,-0.17,0.62,3.14,7.12
12,-88,161,-96,189,4066,4.58,-5.31,104.32,-0.96,1.89,40.66,-4.65,3.02,-0.59,0.75,0.67,31.26
-17,-68,-44,-73,133,4019,4.02,-5.19,93.62,-0.73,1.33,40.19,-4.60,3.02,-0.96,1.19,0.34,34.45
-13,-16,-657,-297,10,4093,3.53,-4.77,80.25,-2.97,0.10,40.93,-4.55,3.03,-1.29,1.08,-0.51,50.53
-16,3,-798,-327,-41,4110,3.08,-4.28,67.36,-3.27,-0.41,41.10,-4.51,3.04,-1.56,1.09,-0.80,50.77
-21,96,-1155,-260,-159,4013,2.65,-3.26,53.58,-2.60,-1.59,40.13,-4.47,3.05,-1.78,1.14,-2.30,58.03
-25,121,-1228,-229,-279,4070,2.23,-2.20,40.73,-2.29,-2.79,40.70,-4.43,3.06,-1.94,1.17,-2.64,55.98
-23,172,-1134,-337,-566,4021,1.87,-0.93,29.74,-3.37,-5.66,40.21,-4.43,3.07,-2.06,1.11,-3.41,48.93
-6,198,-1086,-270,-678,3860,1.64,0.37,20.14,-2.70,-6.78,38.60,-4.44,3.09,-2.14,0.81,-3.76,43.92
-17,54,-828,-200,-745,3626,1.38,0.66,13.08,-2.00,-7.45,36.26,-4.45,3.09,-2.19,0.97,-1.30,32.69
-26,17,-715,-270,-717,3722,1.08,0.70,7.41,-2.70,-7.17,37.22,-4.46,3.10,-2.22,1.11,-0.67,26.87
-25,-125,31,-484,-438,3708,0.82,-0.13,6.86,-4.84,-4.38,37.08,-4.47,3.12,-2.24,1.07,1.67,1.39
-25,-173,112,-275,-658,3744,0.58,-1.17,6.85,-2.75,-6.58,37.44,-4.48,3.12,-2.27,1.05,2.41,-1.35
6,-232,561,-149,-716,3755,0.56,-2.47,9.59,-1.49,-7.16,37.55,-4.49,3.11,-2.31,0.53,3.31,-15.60
-1,-260,714,-118,-817,3753,0.50,-3.81,12.99,-1.18,-8.17,37.53,-4.51,3.10,-2.36,0.64,3.69,-19.59
12,-315,1246,-125,-828,3909,0.52,-5.35,19.29,-1.25,-8.28,39.09,-4.52,3.08,-2.44,0.43,4.50,-35.39
9,-334,1509,-137,-741,3867,0.53,-6.85,26.56,-1.37,-7.41,38.67,-4.53,3.05,-2.55,0.48,4.71,-41.74
5,-374,1996,-171,-612,3874,0.50,-8.45,36.08,-1.71,-6.12,38.74,-4.54,3.03,-2.69,0.55,5.27,-54.88
31,-376,2107,-214,-649,3848,0.64,-9.90,45.33,-2.14,-6.49,38.48,-4.54,3.01,-2.87,0.12,5.20,-55.38
20,-403,2395,-250,-449,3905,0.70,-11.37,55.40,-2.50,-4.49,39.05,-4.55,2.98,-3.10,0.31,5.55,-61.59
6,-407,2454,-193,-492,3873,0.67,-12.71,64.83,-1.93,-4.92,38.73,-4.55,2.95,-3.36,0.54,5.52,-60.25
26,-374,2548,11,-500,4249,0.76,-13.72,73.89,0.11,-5.00,42.49,-4.54,2.91,-3.66,0.21,4.89,-60.24
-64,-223,2540,123,-462,4265,0.29,-13.71,82.00,1.23,-4.62,42.65,-4.53,2.86,-3.99,1.70,2.34,-57.10
-53,-177,2432,-25,-390,4022,-0.06,-13.42,88.63,-0.25,-3.90,40.22,-4.52,2.82,-4.35,1.48,1.59,-51.09
-31,-158,2370,-194,-353,3988,-0.24,-13.04,94.23,-1.94,-3.53,39.88,-4.52,2.79,-4.73,1.10,1.30,-47.00
-36,-91,2153,-223,-67,3989,-0.44,-12.29,97.94,-2.23,-0.67,39.89,-4.48,2.78,-5.12,1.16,0.22,-38.32
-59,-68,1992,-196,-125,4152,-0.75,-11.48,100.29,-1.96,-1.25,41.52,-4.45,2.76,-5.53,1.53,-0.10,-32.02
-35,-14,1580,-240,-305,4031,-0.89,-10.42,99.90,-2.40,-3.05,40.31,-4.43,2.77,-5.93,1.11,-0.94,-18.18
-11,25,1455,-214,-323,3825,-0.87,-9.22,98.79,-2.14,-3.23,38.25,-4.43,2.78,-6.33,0.70,-1.51,-14.32
-31,16,1050,-165,-189,3883,-0.97,-8.20,95.31,-1.65,-1.89,38.83,-4.39,2.77,-6.71,1.03,-1.28,-1.81
21,18,949,-207,-169,3977,-0.75,-7.27,91.57,-2.07,-1.69,39.77,-4.36,2.77,-7.08,0.16,-1.24,0.31
-9,16,625,-88,-209,3966,-0.73,-6.45,86.23,-0.88,-2.09,39.66,-4.34,2.76,-7.43,0.67,-1.14,9.42
-1,20,556,-55,-214,4005,-0.66,-5.68,81.00,-0.55,-2.14,40.05,-4.31,2.74,-7.75,0.53,-1.15,9.93
7,22,327,-65,-175,3925,-0.55,-4.98,74.89,-0.65,-1.75,39.25,-4.29,2.73,-8.05,0.40,-1.13,15.55
4,25,279,-75,-259,3899,-0.47,-4.33,69.10,-0.75,-2.59,38.99,-4.27,2.72,-8.33,0.46,-1.13,15.15
4,11,196,-62,-289,3908,-0.40,-3.83,63.39,-0.62,-2.89,39.08,-4.26,2.70,-8.59,0.46,-0.85,15.96
-9,19,179,-49,-351,3939,-0.42,-3.33,58.14,-0.49,-3.51,39.39,-4.26,2.69,-8.82,0.68,-0.95,14.70
-4,29,146,-12,-376,4029,-0.40,-2.82,53.22,-0.12,-3.76,40.29,-4.26,2.68,-9.03,0.60,-1.08,14.09
-1,40,140,-47,-398,3916,-0.36,-2.29,48.75,-0.47,-3.98,39.16,-4.26,2.67,-9.23,0.55,-1.23,12.72
-3,86,106,-29,-288,4033,-0.35,-1.54,44.52,-0.29,-2.88,40.33,-4.25,2.66,-9.40,0.59,-1.95,12.39
-4,112,99,-44,-333,3943,-0.34,-0.70,40.67,-0.44,-3.33,39.43,-4.25,2.65,-9.57,0.60,-2.32,11.28
6,124,103,-90,-385,3877,-0.27,0.12,37.23,-0.90,-3.85,38.77,-4.26,2.65,-9.71,0.44,-2.46,9.94
6,96,94,-115,-394,3879,-0.20,0.70,34.08,-1.15,-3.94,38.79,-4.27,2.65,-9.85,0.45,-1.95,9.14
1,23,100,-164,-413,3816,-0.18,0.77,31.29,-1.64,-4.13,38.16,-4.28,2.66,-9.97,0.53,-0.70,7.96
-4,14,109,-160,-437,3849,-0.18,0.78,28.82,-1.60,-4.37,38.49,-4.29,2.67,-10.09,0.62,-0.55,6.79
-9,-7,131,-37,-385,3898,-0.22,0.66,26.74,-0.37,-3.85,38.98,-4.30,2.67,-10.19,0.70,-0.21,5.31
-9,-8,138,-85,-376,3943,-0.25,0.54,24.91,-0.85,-3.76,39.43,-4.31,2.66,-10.29,0.70,-0.20,4.43
-5,-3,138,-142,-420,3943,-0.26,0.47,23.26,-1.42,-4.20,39.43,-4.32,2.67,-10.38,0.64,-0.29,3.86
-5,0,145,-139,-463,3968,-0.26,0.42,21.82,-1.39,-4.63,39.68,-4.34,2.67,-10.47,0.64,-0.34,3.12
-4,6,185,-118,-611,3917,-0.26,0.42,20.76,-1.18,-6.11,39.17,-4.35,2.67,-10.55,0.62,-0.44,1.39
-11,5,207,-135,-620,3985,-0.30,0.41,19.95,-1.35,-6.20,39.85,-4.37,2.68,-10.63,0.74,-0.43,0.36
-9,9,286,-175,-674,3931,-0.33,0.42,19.70,-1.75,-6.74,39.31,-4.38,2.69,-10.71,0.71,-0.50,-2.40
2,8,317,-129,-675,3923,-0.28,0.43,19.66,-1.29,-6.75,39.23,-4.40,2.69,-10.79,0.52,-0.48,-3.46
-9,12,433,-187,-591,3883,-0.31,0.46,20.34,-1.87,-5.91,38.83,-4.42,2.70,-10.87,0.71,-0.55,-7.15
-4,10,475,-157,-571,3896,-0.30,0.47,21.20,-1.57,-5.71,38.96,-4.43,2.70,-10.95,0.63,-0.51,-8.27
-18,3,656,-147,-593,3964,-0.38,0.44,23.08,-1.47,-5.93,39.64,-4.45,2.71,-11.04,0.86,-0.40,-13.73
-22,-7,764,-194,-655,3891,-0.48,0.36,25.44,-1.94,-6.55,38.91,-4.46,2.72,-11.14,0.92,-0.24,-16.56
-123,-111,944,-124,-867,3868,-1.18,-0.36,28.65,-1.24,-8.67,38.68,-4.48,2.73,-11.26,2.58,1.47,-21.52
-168,-158,971,-89,-825,3913,-2.09,-1.28,31.71,-0.89,-8.25,39.13,-4.50,2.73,-11.38,3.28,2.20,-21.36
-241,-217,1081,-73,-651,3908,-3.35,-2.48,35.13,-0.73,-6.51,39.08,-4.52,2.72,-11.52,4.43,3.11,-23.87
-235,-208,1120,-104,-535,3934,-4.45,-3.50,38.45,-1.04,-5.35,39.34,-4.55,2.71,-11.68,4.24,2.88,-24.02
-36,-20,1239,-69,-387,3986,-4.22,-3.27,42.16,-0.69,-3.87,39.86,-4.57,2.70,-11.84,0.89,-0.29,-26.74
-29,-18,1262,3,-378,4016,-3.98,-3.05,45.65,0.03,-3.78,40.16,-4.58,2.68,-12.03,0.79,-0.30,-26.28
-32,8,1304,-44,-350,3809,-3.77,-2.70,49.04,-0.44,-3.50,38.09,-4.59,2.67,-12.22,0.86,-0.72,-26.51
-3,24,1318,-330,-368,3979,-3.42,-2.28,52.17,-3.30,-3.68,39.79,-4.60,2.70,-12.43,0.40,-0.96,-25.87
100,-25,1331,-108,-585,3435,-2.46,-2.21,55.07,-1.08,-5.85,34.35,-4.62,2.70,-12.65,-1.27,-0.12,-25.28
428,-104,1219,954,-206,2981,0.39,-2.62,57.00,9.54,-2.06,29.81,-4.61,2.69,-12.88,-6.61,1.19,-20.79
413,-391,1097,1158,-179,4119,2.87,-4.74,57.99,11.58,-1.79,41.19,-4.58,2.67,-13.11,-6.18,5.89,-16.30
396,-408,1054,1150,-165,4349,5.00,-6.76,58.62,11.50,-1.65,43.49,-4.55,2.65,-13.35,-5.73,6.03,-14.61
495,-510,887,397,-18,3854,7.52,-9.19,58.17,3.97,-0.18,38.54,-4.50,2.61,-13.59,-7.22,7.58,-9.10
513,-541,847,161,81,3925,9.90,-11.57,57.52,1.61,0.81,39.25,-4.44,2.57,-13.82,-7.36,7.93,-7.97
155,-201,772,-928,-599,3446,9.85,-11.64,56.48,-9.28,-5.99,34.46,-4.39,2.56,-14.05,-1.30,2.16,-5.79
55,-95,777,-552,-182,3298,9.20,-11.06,55.57,-5.52,-1.82,32.98,-4.34,2.55,-14.27,0.34,0.41,-6.27
-22,-17,636,163,151,4129,8.15,-10.06,53.89,1.63,1.51,41.29,-4.29,2.52,-14.49,1.56,-0.83,-2.07
27,-48,585,298,61,4062,7.50,-9.34,52.07,2.98,0.61,40.62,-4.24,2.48,-14.70,0.67,-0.24,-0.97
114,-149,426,-550,-433,4047,7.44,-9.32,49.46,-5.50,-4.33,40.47,-4.20,2.47,-14.90,-0.81,1.47,3.50
30,-82,441,-417,-422,3638,6.88,-8.89,47.21,-4.17,-4.22,36.38,-4.18,2.47,-15.09,0.57,0.37,2.21
145,-196,427,-50,-283,4067,7.08,-9.19,45.09,-0.50,-2.83,40.67,-4.14,2.43,-15.28,-1.37,2.28,1.94
147,-171,461,-117,-522,3876,7.27,-9.32,43.39,-1.17,-5.22,38.76,-4.12,2.40,-15.45,-1.39,1.85,0.20
166,-204,581,276,-265,4168,7.55,-9.63,42.60,2.76,-2.65,41.68,-4.08,2.35,-15.63,-1.70,2.39,-4.14
150,-176,602,261,-286,4039,7.71,-9.74,42.01,2.61,-2.86,40.39,-4.04,2.31,-15.80,-1.42,1.92,-5.05
8,-49,687,-47,-254,4017,6.99,-9.07,42.00,-0.47,-2.54,40.17,-4.01,2.27,-15.97,0.93,-0.18,-7.93
4,-35,679,-27,-125,3997,6.32,-8.37,41.94,-0.27,-1.25,39.97,-3.96,2.23,-16.14,0.94,-0.36,-7.67
24,-58,537,22,-30,3895,5.83,-7.89,41.02,0.22,-0.30,38.95,-3.91,2.20,-16.30,0.56,0.07,-3.18
25,-51,507,126,-54,3804,5.40,-7.41,40.01,1.26,-0.54,38.04,-3.88,2.17,-16.47,0.50,-0.01,-2.51
-118,84,426,246,-108,3960,4.14,-6.16,38.61,2.46,-1.08,39.60,-3.85,2.14,-16.62,2.83,-2.19,-0.25
-143,110,430,174,-205,3894,2.85,-4.87,37.37,1.74,-2.05,38.94,-3.83,2.11,-16.77,3.15,-2.53,-0.82
-201,189,616,64,-596,3917,1.34,-3.23,37.39,0.64,-5.96,39.17,-3.83,2.10,-16.92,4.02,-3.75,-7.11
-187,159,671,213,-461,4159,0.07,-1.94,37.75,2.13,-4.61,41.59,-3.83,2.08,-17.07,3.69,-3.14,-8.84
-148,149,841,56,-527,3839,-0.84,-0.84,39.10,0.56,-5.27,38.39,-3.85,2.08,-17.23,2.96,-2.89,-14.12
-178,155,913,172,-395,4003,-1.84,0.19,40.76,1.72,-3.95,40.03,-3.85,2.07,-17.39,3.39,-2.91,-15.97
-203,187,1047,195,-374,3696,-2.90,1.32,43.07,1.95,-3.74,36.96,-3.87,2.07,-17.56,3.74,-3.37,-19.69
-232,196,1044,90,-304,4031,-4.02,2.38,45.13,0.90,-3.04,40.31,-3.88,2.08,-17.74,4.14,-3.44,-18.86
-295,259,1012,43,-311,4035,-5.42,3.72,46.79,0.43,-3.11,40.35,-3.90,2.09,-17.93,5.11,-4.41,-17.18
-266,278,1011,12,-320,3872,-6.50,5.04,48.28,0.12,-3.20,38.72,-3.92,2.10,-18.12,4.54,-4.63,-16.61
-286,266,928,28,-555,3868,-7.60,6.16,49.11,0.28,-5.55,38.68,-3.96,2.13,-18.31,4.80,-4.35,-13.50
-290,273,923,85,-686,3930,-8.60,7.21,49.83,0.85,-6.86,39.30,-4.00,2.17,-18.51,4.80,-4.39,-13.07
-277,268,999,55,-875,3952,-9.43,8.13,50.94,0.55,-8.75,39.52,-4.05,2.21,-18.71,4.52,-4.24,-15.25
-270,267,1031,38,-886,3903,-10.14,8.94,52.14,0.38,-8.86,39.03,-4.10,2.25,-18.91,4.35,-4.17,-15.90
-170,177,1178,34,-940,3864,-10.16,9.13,54.11,0.34,-9.40,38.64,-4.15,2.30,-19.13,2.66,-2.63,-20.18
-160,150,1215,28,-911,3954,-10.12,9.13,56.11,0.28,-9.11,39.54,-4.20,2.35,-19.35,2.50,-2.18,-20.72
-55,141,1413,100,-738,4004,-9.44,9.08,59.12,1.00,-7.38,40.04,-4.24,2.39,-19.58,0.78,-2.04,-26.36
-97,155,1463,216,-654,4013,-9.09,9.11,62.13,2.16,-6.54,40.13,-4.28,2.43,-19.83,1.53,-2.28,-26.99
10,249,1608,41,-629,3987,-8.12,9.72,65.73,0.41,-6.29,39.87,-4.32,2.48,-20.08,-0.21,-3.83,-30.63
-48,261,1645,6,-648,4013,-7.60,10.34,69.19,0.06,-6.48,40.13,-4.35,2.53,-20.36,0.82,-4.00,-30.65
-19,239,1673,-140,-626,3830,-6.96,10.77,72.48,-1.40,-6.26,38.30,-4.39,2.60,-20.64,0.38,-3.60,-30.43
-46,208,1639,-124,-577,3877,-6.54,10.96,75.23,-1.24,-5.77,38.77,-4.42,2.66,-20.94,0.87,-3.07,-28.30
-6,135,1567,-29,-556,3882,-5.92,10.69,77.26,-0.29,-5.56,38.82,-4.44,2.72,-21.24,0.24,-1.86,-25.13
-3,143,1551,24,-568,3874,-5.35,10.49,79.00,0.24,-5.68,38.74,-4.46,2.77,-21.55,0.24,-2.02,-23.96
-7,173,1533,77,-466,4096,-4.86,10.50,80.45,0.77,-4.66,40.96,-4.48,2.82,-21.87,0.35,-2.53,-22.83
-18,152,1528,19,-511,4092,-4.48,10.37,81.72,0.19,-5.11,40.92,-4.49,2.88,-22.19,0.56,-2.19,-22.20
18,187,1536,-112,-510,3886,-3.92,10.48,82.92,-1.12,-5.10,38.86,-4.51,2.94,-22.52,-0.00,-2.78,-22.03
16,173,1534,-113,-493,4029,-3.43,10.48,83.99,-1.13,-4.93,40.29,-4.52,3.00,-22.85,0.07,-2.55,-21.58
88,254,1485,-3,-401,3897,-2.55,10.99,84.65,-0.03,-4.01,38.97,-4.52,3.05,-23.19,-1.08,-3.90,-19.67
46,308,1488,-39,-399,4251,-2.02,11.77,85.26,-0.39,-3.99,42.51,-4.51,3.11,-23.52,-0.33,-4.76,-19.55
-40,345,1453,-49,-250,4249,-2.06,12.69,85.60,-0.49,-2.50,42.49,-4.50,3.17,-23.86,1.12,-5.32,-18.23
-288,204,1430,-219,-353,4086,-3.61,12.67,85.76,-2.19,-3.53,40.86,-4.51,3.24,-24.20,5.21,-2.94,-17.38
-259,209,1334,-261,-598,3335,-4.83,12.68,85.32,-2.61,-5.98,33.35,-4.53,3.32,-24.53,4.63,-3.04,-14.27
-148,234,1315,-331,-672,3534,-5.25,12.84,84.81,-3.31,-6.72,35.34,-4.55,3.41,-24.87,2.72,-3.46,-13.79
-60,125,1273,-235,-609,3798,-5.09,12.32,84.09,-2.35,-6.09,37.98,-4.57,3.48,-25.20,1.24,-1.66,-12.61
-100,117,1283,-200,-619,3705,-5.19,11.80,83.51,-2.00,-6.19,37.05,-4.58,3.55,-25.53,1.91,-1.57,-13.14
-152,52,1354,-175,-521,4070,-5.60,10.93,83.42,-1.75,-5.21,40.70,-4.60,3.62,-25.86,2.76,-0.55,-15.56
-178,31,1376,-149,-541,3920,-6.13,10.03,83.47,-1.49,-5.41,39.20,-4.62,3.68,-26.19,3.17,-0.27,-16.28
-212,59,1449,-89,-479,3904,-6.81,9.39,83.96,-0.89,-4.79,39.04,-4.64,3.73,-26.52,3.69,-0.80,-18.56
-179,93,1470,-156,-469,4073,-7.22,9.02,84.53,-1.56,-4.69,40.73,-4.66,3.78,-26.85,3.11,-1.41,-19.06
-213,65,1517,-259,-643,3814,-7.79,8.51,85.33,-2.59,-6.43,38.14,-4.69,3.84,-27.19,3.64,-0.98,-20.36
-166,67,1527,-328,-694,3697,-8.03,8.07,86.12,-3.28,-6.94,36.97,-4.72,3.91,-27.53,2.83,-1.05,-20.41
96,134,1574,-287,-716,3793,-6.64,8.08,87.11,-2.87,-7.16,37.93,-4.74,3.97,-27.87,-1.50,-2.19,-21.64
144,133,1582,-239,-698,3870,-5.10,8.08,88.04,-2.39,-6.98,38.70,-4.75,4.03,-28.22,-2.20,-2.18,-21.57
183,94,1675,-224,-467,4119,-3.47,7.85,89.46,-2.24,-4.67,41.19,-4.76,4.08,-28.57,-2.73,-1.55,-24.21
174,73,1700,-226,-423,4126,-2.06,7.51,90.88,-2.26,-4.23,41.26,-4.75,4.13,-28.93,-2.47,-1.22,-24.54
233,4,1739,-268,-383,4094,-0.44,6.78,92.40,-2.68,-3.83,40.94,-4.74,4.18,-29.30,-3.35,-0.11,-25.31
296,-5,1739,-291,-384,4027,1.41,6.07,93.77,-2.91,-3.84,40.27,-4.73,4.23,-29.67,-4.28,-0.02,-24.82
635,-3,1775,-435,-276,4054,5.15,5.45,95.22,-4.35,-2.76,40.54,-4.67,4.30,-30.05,-9.75,-0.11,-25.51
674,-24,1791,-443,-270,4048,8.74,4.76,96.62,-4.43,-2.70,40.48,-4.60,4.37,-30.44,-10.15,0.18,-25.54
657,-105,1789,-343,-264,4003,11.88,3.64,97.87,-3.43,-2.64,40.03,-4.51,4.42,-30.83,-9.63,1.46,-25.02
655,-99,1756,-312,-241,3965,14.68,2.67,98.80,-3.12,-2.41,39.65,-4.40,4.46,-31.22,-9.40,1.28,-23.56
619,-53,1631,-297,-227,3963,16.99,2.08,98.87,-2.97,-2.27,39.63,-4.28,4.50,-31.62,-8.63,0.46,-19.29
592,-43,1588,-281,-230,3954,18.90,1.61,98.67,-2.81,-2.30,39.54,-4.16,4.53,-32.02,-8.04,0.25,-17.88
570,43,1448,-287,-194,3972,20.49,1.71,97.63,-2.87,-1.94,39.72,-4.03,4.56,-32.41,-7.57,-1.21,-13.49
521,46,1414,-351,-198,3991,21.62,1.82,96.50,-3.51,-1.98,39.91,-3.90,4.60,-32.79,-6.67,-1.25,-12.72
201,-56,1276,-321,-217,4013,20.68,1.30,94.63,-3.21,-2.17,40.13,-3.76,4.63,-33.17,-1.33,0.43,-8.69
111,-81,1227,-276,-217,4001,19.29,0.67,92.65,-2.76,-2.17,40.01,-3.65,4.64,-33.55,0.07,0.81,-7.71
-146,-125,1007,-212,-218,3950,16.47,-0.16,89.53,-2.12,-2.18,39.50,-3.54,4.64,-33.90,4.20,1.49,-1.34
-172,-101,935,-167,-209,3956,13.78,-0.76,86.28,-1.67,-2.09,39.56,-3.46,4.64,-34.25,4.43,1.04,-0.03
-206,-4,673,-171,-221,4031,11.14,-0.71,81.76,-1.71,-2.21,40.31,-3.38,4.64,-34.58,4.79,-0.60,7.27
-242,6,560,-158,-205,4128,8.55,-0.60,77.00,-1.58,-2.05,41.28,-3.32,4.64,-34.89,5.20,-0.76,9.43
-375,-67,424,-243,-183,4225,5.41,-0.95,71.88,-2.43,-1.83,42.25,-3.27,4.64,-35.18,7.21,0.45,12.25
-408,-97,405,-246,-213,4208,2.38,-1.44,67.17,-2.46,-2.13,42.08,-3.23,4.63,-35.45,7.53,0.92,11.24
-354,-126,382,-258,-261,4128,-0.02,-2.07,62.78,-2.58,-2.61,41.28,-3.22,4.62,-35.70,6.44,1.36,10.48
-342,-139,383,-299,-292,4102,-2.10,-2.71,58.84,-2.99,-2.92,41.02,-3.22,4.61,-35.93,6.08,1.54,9.07
-349,-175,376,-263,-430,3879,-4.02,-3.51,55.25,-2.63,-4.30,38.79,-3.24,4.61,-36.15,6.05,2.09,8.05
-296,-145,376,-250,-451,3838,-5.42,-4.04,52.02,-2.50,-4.51,38.38,-3.26,4.60,-36.36,5.05,1.54,6.92
-160,-12,443,-240,-401,3940,-5.86,-3.71,49.52,-2.40,-4.01,39.40,-3.28,4.59,-36.56,2.72,-0.69,3.78
-198,-3,475,-205,-393,3972,-6.48,-3.36,47.46,-2.05,-3.93,39.72,-3.31,4.57,-36.75,3.32,-0.81,1.98
-336,-11,561,-170,-434,3942,-7.88,-3.09,46.14,-1.70,-4.34,39.42,-3.34,4.56,-36.93,5.55,-0.65,-1.40
-282,4,571,-190,-481,3838,-8.81,-2.75,45.01,-1.90,-4.81,38.38,-3.38,4.55,-37.11,4.57,-0.88,-2.13
-56,35,575,-209,-485,3811,-8.27,-2.27,44.01,-2.09,-4.85,38.11,-3.42,4.55,-37.29,0.79,-1.37,-2.61
-34,32,582,-222,-475,3822,-7.65,-1.84,43.16,-2.22,-4.75,38.22,-3.45,4.55,-37.46,0.47,-1.29,-3.14
-49,15,602,-189,-477,3762,-7.19,-1.57,42.52,-1.89,-4.77,37.62,-3.48,4.54,-37.63,0.76,-0.98,-4.03
-25,42,601,-163,-469,3745,-6.62,-1.16,41.93,-1.63,-4.69,37.45,-3.51,4.54,-37.80,0.40,-1.40,-4.20
-44,105,575,-205,-445,3772,-6.23,-0.40,41.25,-2.05,-4.45,37.72,-3.54,4.54,-37.96,0.76,-2.41,-3.55
-71,114,565,-218,-439,3766,-6.04,0.34,40.57,-2.18,-4.39,37.66,-3.57,4.54,-38.12,1.23,-2.51,-3.45
-62,171,527,-275,-420,3753,-5.81,1.35,39.73,-2.75,-4.20,37.53,-3.60,4.56,-38.28,1.10,-3.40,-2.45
-34,192,514,-296,-403,3767,-5.44,2.38,38.89,-2.96,-4.03,37.67,-3.63,4.58,-38.43,0.66,-3.68,-2.30
3,223,473,-263,-365,3877,-4.88,3.50,37.89,-2.63,-3.65,38.77,-3.65,4.59,-38.58,0.08,-4.12,-1.26
-43,208,455,-290,-353,3913,-4.65,4.42,36.87,-2.90,-3.53,39.13,-3.67,4.62,-38.73,0.88,-3.80,-1.00
-169,150,407,-298,-395,3818,-5.22,4.90,35.67,-2.98,-3.95,38.18,-3.70,4.64,-38.87,2.97,-2.79,0.21
-153,158,380,-301,-413,3757,-5.63,5.37,34.42,-3.01,-4.13,37.57,-3.73,4.67,-39.00,2.67,-2.89,0.69
-25,213,307,-296,-449,3758,-5.22,6.13,32.85,-2.96,-4.49,37.58,-3.76,4.70,-39.13,0.54,-3.77,2.61
-4,224,291,-289,-454,3770,-4.72,6.89,31.34,-2.89,-4.54,37.70,-3.79,4.74,-39.25,0.22,-3.90,2.63
2,235,269,-284,-453,3845,-4.24,7.63,29.85,-2.84,-4.53,38.45,-3.81,4.77,-39.37,0.16,-4.04,2.85
-14,232,275,-260,-459,3866,-3.90,8.28,28.54,-2.60,-4.59,38.66,-3.84,4.81,-39.48,0.46,-3.94,2.19
-53,234,319,-285,-442,3927,-3.83,8.88,27.63,-2.85,-4.42,39.27,-3.86,4.85,-39.59,1.13,-3.93,0.39
-48,230,324,-301,-453,3917,-3.74,9.40,26.85,-3.01,-4.53,39.17,-3.88,4.89,-39.69,1.06,-3.83,-0.06
74,221,293,-308,-446,3919,-2.92,9.80,25.95,-3.08,-4.46,39.19,-3.91,4.93,-39.79,-0.95,-3.65,0.68
128,202,256,-301,-438,3920,-1.84,10.06,24.91,-3.01,-4.38,39.20,-3.92,4.97,-39.89,-1.78,-3.32,1.58
213,188,164,-260,-372,3948,-0.36,10.20,23.42,-2.60,-3.72,39.48,-3.93,5.01,-39.98,-3.10,-3.07,4.17
239,200,138,-260,-347,3969,1.13,10.40,21.92,-2.60,-3.47,39.69,-3.93,5.04,-40.06,-3.43,-3.27,4.53
183,203,60,-328,-323,4047,2.14,10.60,20.10,-3.28,-3.23,40.47,-3.93,5.08,-40.14,-2.41,-3.31,6.53
128,194,45,-299,-358,4022,2.70,10.72,18.36,-2.99,-3.58,40.22,-3.93,5.12,-40.20,-1.43,-3.15,6.43
104,257,48,-251,-540,3909,3.07,11.22,16.82,-2.51,-5.40,39.09,-3.93,5.16,-40.27,-1.00,-4.18,5.79
153,287,68,-269,-597,3877,3.69,11.85,15.55,-2.69,-5.97,38.77,-3.92,5.21,-40.33,-1.78,-4.65,4.67
294,297,223,-327,-812,3805,5.12,12.47,15.36,-3.27,-8.12,38.05,-3.92,5.26,-40.38,-4.06,-4.78,-0.65
317,279,286,-307,-871,3780,6.54,12.93,15.57,-3.07,-8.71,37.80,-3.90,5.32,-40.44,-4.35,-4.45,-2.71
426,274,543,-135,-923,3782,8.48,13.31,17.32,-1.35,-9.23,37.82,-3.88,5.37,-40.50,-6.05,-4.34,-10.80
409,273,684,-98,-861,3871,10.13,13.64,19.76,-0.98,-8.61,38.71,-3.85,5.42,-40.58,-5.64,-4.30,-14.72
328,251,937,-122,-712,3912,11.12,13.81,23.50,-1.22,-7.12,39.12,-3.81,5.47,-40.67,-4.20,-3.92,-21.97
359,249,975,-138,-685,3913,12.20,13.95,27.10,-1.38,-6.85,39.13,-3.77,5.53,-40.77,-4.65,-3.89,-21.99
538,177,995,-111,-540,4022,14.26,13.63,30.46,-1.11,-5.40,40.22,-3.71,5.57,-40.89,-7.53,-2.70,-21.48
551,134,974,-106,-479,4060,16.19,13.09,33.35,-1.06,-4.79,40.60,-3.65,5.62,-41.02,-7.61,-2.01,-19.74
469,-47,849,-205,-250,4125,17.44,11.49,35.20,-2.05,-2.50,41.25,-3.56,5.66,-41.15,-6.14,0.93,-14.85
514,-37,809,-216,-177,3981,18.83,10.12,36.61,-2.16,-1.77,39.81,-3.47,5.69,-41.30,-6.81,0.65,-12.99
419,-134,652,-395,-105,3970,19.50,8.29,36.93,-3.95,-1.05,39.70,-3.36,5.73,-41.45,-5.16,2.15,-7.55
351,-171,603,-397,-107,3893,19.69,6.41,36.91,-3.97,-1.07,38.93,-3.24,5.77,-41.60,-4.01,2.63,-5.89
64,-266,422,-486,-39,3794,18.11,4.15,35.80,-4.86,-0.39,37.94,-3.14,5.80,-41.74,0.72,4.07,-0.15
-66,-289,326,-536,-29,3738,15.90,1.97,34.21,-5.36,-0.29,37.38,-3.05,5.83,-41.88,2.74,4.29,2.55
-142,-194,130,-443,-43,3660,13.44,0.59,31.58,-4.43,-0.43,36.60,-2.97,5.84,-42.01,3.83,2.57,8.27
-135,-139,75,-438,-31,3686,11.28,-0.32,28.88,-4.38,-0.31,36.86,-2.89,5.86,-42.12,3.54,1.57,9.19
-260,-19,-105,-365,24,3846,8.56,-0.40,25.35,-3.65,0.24,38.46,-2.83,5.86,-42.23,5.45,-0.47,14.05
-284,17,-159,-325,18,3883,5.97,-0.26,21.84,-3.25,0.18,38.83,-2.78,5.85,-42.32,5.65,-1.07,14.65
-255,120,-320,-262,-74,4073,3.82,0.50,17.71,-2.62,-0.74,40.73,-2.75,5.85,-42.39,4.99,-2.76,18.65
-241,118,-361,-241,-84,4121,1.97,1.17,13.74,-2.41,-0.84,41.21,-2.72,5.84,-42.45,4.61,-2.67,18.64
-157,36,-516,-291,-139,4192,0.81,1.27,9.21,-2.91,-1.39,41.92,-2.71,5.83,-42.48,3.10,-1.27,22.31
-127,0,-540,-310,-198,4176,-0.04,1.15,5.00,-3.10,-1.98,41.76,-2.71,5.81,-42.50,2.53,-0.67,21.64
-26,-103,-606,-291,-237,4068,-0.20,0.40,0.80,-2.91,-2.37,40.68,-2.71,5.80,-42.51,0.80,1.02,22.39
-6,-141,-630,-324,-280,4016,-0.21,-0.50,-3.12,-3.24,-2.80,40.16,-2.73,5.78,-42.49,0.47,1.60,21.83
-31,-181,-657,-290,-323,3936,-0.38,-1.55,-6.82,-2.90,-3.23,39.36,-2.75,5.77,-42.46,0.88,2.20,21.44
-34,-170,-659,-259,-318,3928,-0.55,-2.43,-10.15,-2.59,-3.18,39.28,-2.77,5.74,-42.42,0.92,1.95,20.33
-84,-103,-669,-248,-266,3927,-1.01,-2.82,-13.22,-2.48,-2.66,39.27,-2.78,5.71,-42.37,1.73,0.79,19.59
-116,-94,-677,-246,-258,3920,-1.61,-3.11,-16.03,-2.46,-2.58,39.20,-2.80,5.68,-42.30,2.23,0.62,18.87
-115,-36,-737,-245,-211,3888,-2.15,-3.02,-18.92,-2.45,-2.11,38.88,-2.82,5.64,-42.23,2.18,-0.36,19.88
-127,-30,-765,-254,-175,3949,-2.71,-2.90,-21.70,-2.54,-1.75,39.49,-2.84,5.61,-42.14,2.34,-0.44,19.85
-181,-22,-897,-275,-30,3965,-3.55,-2.74,-25.00,-2.75,-0.30,39.65,-2.85,5.58,-42.04,3.19,-0.57,23.16
-180,-5,-941,-287,-8,3979,-4.29,-2.50,-28.24,-2.87,-0.08,39.79,-2.86,5.56,-41.93,3.12,-0.83,23.51
-104,52,-1132,-365,-36,3912,-4.50,-1.93,-32.32,-3.65,-0.36,39.12,-2.87,5.54,-41.81,1.82,-1.75,28.54
37,99,-1233,-329,-96,3890,-3.82,-1.14,-36.61,-3.29,-0.96,38.90,-2.89,5.52,-41.66,-0.52,-2.49,30.45
245,113,-1490,-397,-105,3962,-1.94,-0.33,-42.04,-3.97,-1.05,39.62,-2.89,5.52,-41.49,-3.90,-2.66,37.24
231,89,-1543,-341,-200,3986,-0.34,0.24,-47.25,-3.41,-2.00,39.86,-2.91,5.49,-41.30,-3.54,-2.21,37.19
18,5,-1598,-343,-262,4002,-0.20,0.25,-52.27,-3.43,-2.62,40.02,-2.95,5.47,-41.09,0.09,-0.78,37.28
-7,15,-1606,-386,-242,3962,-0.22,0.32,-56.84,-3.86,-2.42,39.62,-2.99,5.46,-40.86,0.51,-0.95,35.94
110,148,-1604,-405,-228,3908,0.47,1.19,-60.94,-4.05,-2.28,39.08,-3.02,5.47,-40.62,-1.41,-3.13,34.42
153,188,-1597,-411,-232,3932,1.36,2.22,-64.59,-4.11,-2.32,39.32,-3.05,5.48,-40.36,-2.07,-3.74,32.89
209,247,-1552,-371,-215,4042,2.50,3.50,-67.60,-3.71,-2.15,40.42,-3.07,5.46,-40.08,-2.93,-4.64,30.30
229,262,-1533,-349,-207,4047,3.65,4.75,-70.19,-3.49,-2.07,40.47,-3.07,5.45,-39.80,-3.18,-4.79,28.74
333,281,-1478,-383,-150,4147,5.31,5.99,-72.18,-3.83,-1.50,41.47,-3.06,5.45,-39.51,-4.82,-5.02,26.16
425,270,-1460,-440,-110,4158,7.37,7.04,-73.87,-4.40,-1.10,41.58,-3.04,5.47,-39.22,-6.22,-4.76,24.95
551,126,-1458,-587,-78,4154,10.00,7.10,-75.38,-5.87,-0.78,41.54,-3.02,5.50,-38.91,-8.16,-2.32,24.34
523,58,-1463,-602,-131,4110,12.19,6.74,-76.76,-6.02,-1.31,41.10,-2.99,5.52,-38.60,-7.53,-1.19,24.01
417,-47,-1458,-472,-339,3780,13.51,5.78,-77.98,-4.72,-3.39,37.80,-2.99,5.54,-38.29,-5.63,0.51,23.41
453,3,-1436,-470,-352,3708,14.92,5.22,-78.94,-4.70,-3.52,37.08,-2.97,5.56,-37.97,-6.14,-0.38,22.32
622,370,-1170,-313,-309,3946,17.23,6.96,-78.19,-3.13,-3.09,39.46,-2.95,5.56,-37.65,-8.83,-6.47,13.56
528,452,-1020,-263,-230,4117,18.72,9.02,-76.59,-2.63,-2.30,41.17,-2.91,5.56,-37.34,-7.13,-7.70,9.03
-55,437,-804,-165,5,4371,16.52,10.78,-73.83,-1.65,0.05,43.71,-2.86,5.58,-37.05,2.58,-7.32,2.67
-50,484,-778,-141,-29,4231,14.56,12.66,-71.20,-1.41,-0.29,42.31,-2.82,5.60,-36.76,2.34,-7.97,2.71
43,344,-744,-550,-12,4330,13.37,13.49,-68.62,-5.50,-0.12,43.30,-2.77,5.65,-36.48,0.67,-5.54,2.46
6,140,-783,-650,-13,4207,12.07,13.00,-66.53,-6.50,-0.13,42.07,-2.74,5.70,-36.21,1.19,-2.13,4.51
-125,-205,-999,-674,86,3936,10.10,10.45,-65.97,-6.74,0.86,39.36,-2.71,5.74,-35.95,3.26,3.52,12.02
-200,-259,-1060,-673,90,3959,7.87,7.82,-65.84,-6.73,0.90,39.59,-2.70,5.77,-35.68,4.36,4.23,14.13
-492,-250,-1255,-657,-14,3708,4.08,5.51,-66.91,-6.57,-0.14,37.08,-2.70,5.80,-35.41,9.02,3.90,20.35
-583,-226,-1309,-644,-66,3698,0.12,3.58,-68.21,-6.44,-0.66,36.98,-2.72,5.82,-35.14,10.26,3.34,21.72
-762,-55,-1449,-622,-243,3578,-4.54,2.89,-70.22,-6.22,-2.43,35.78,-2.77,5.83,-34.86,12.95,0.39,25.75
-738,5,-1464,-602,-312,3588,-8.59,2.63,-72.13,-6.02,-3.12,35.88,-2.84,5.85,-34.57,12.24,-0.65,25.57
-622,121,-1439,-556,-479,3788,-11.53,3.11,-73.70,-5.56,-4.79,37.88,-2.94,5.85,-34.27,10.07,-2.58,24.17
-649,96,-1422,-537,-491,3858,-14.33,3.38,-75.00,-5.37,-4.91,38.58,-3.04,5.86,-33.96,10.33,-2.13,23.12
-758,-16,-1347,-401,-521,3928,-17.52,2.95,-75.72,-4.01,-5.21,39.28,-3.16,5.85,-33.66,11.95,-0.27,20.31
-764,-39,-1314,-425,-494,3942,-20.43,2.41,-76.16,-4.25,-4.94,39.42,-3.29,5.85,-33.35,11.84,0.08,19.03
-668,-55,-1261,-488,-393,3916,-22.46,1.84,-76.24,-4.88,-3.93,39.16,-3.43,5.84,-33.04,10.08,0.31,17.19
-628,-60,-1253,-501,-375,3925,-24.05,1.29,-76.26,-5.01,-3.75,39.25,-3.57,5.84,-32.73,9.30,0.35,16.90
-422,-69,-1243,-542,-338,3906,-24.22,0.74,-76.21,-5.42,-3.38,39.06,-3.71,5.84,-32.43,5.82,0.46,16.57
-325,-60,-1239,-555,-328,3915,-23.78,0.30,-76.15,-5.55,-3.28,39.15,-3.84,5.84,-32.12,4.22,0.28,16.44
37,-63,-1238,-627,-317,3938,-21.17,-0.12,-76.09,-6.27,-3.17,39.38,-3.96,5.83,-31.81,-1.70,0.30,16.42
128,-75,-1250,-596,-327,3929,-18.28,-0.56,-76.10,-5.96,-3.27,39.29,-4.07,5.83,-31.51,-3.01,0.47,16.81
278,-156,-1335,-561,-348,3916,-14.75,-1.46,-76.64,-5.61,-3.48,39.16,-4.17,5.82,-31.20,-5.27,1.77,19.49
255,-184,-1360,-553,-353,3886,-11.72,-2.43,-77.27,-5.53,-3.53,38.86,-4.26,5.80,-30.89,-4.64,2.18,20.10
254,-132,-1428,-440,-395,3827,-9.00,-3.00,-78.25,-4.40,-3.95,38.27,-4.34,5.77,-30.58,-4.41,1.26,22.05
279,-66,-1439,-437,-383,3907,-6.40,-3.10,-79.21,-4.37,-3.83,39.07,-4.41,5.74,-30.26,-4.62,0.13,22.07
235,-52,-1405,-458,-341,4002,-4.33,-3.11,-79.86,-4.58,-3.41,40.02,-4.47,5.72,-29.94,-3.71,-0.10,20.68
239,-58,-1390,-456,-329,4019,-2.43,-3.15,-80.35,-4.56,-3.29,40.19,-4.52,5.70,-29.62,-3.63,-0.00,19.99
308,-78,-1365,-535,-205,3963,-0.31,-3.31,-80.64,-5.35,-2.05,39.63,-4.54,5.68,-29.30,-4.64,0.33,19.03
336,-86,-1364,-547,-170,3960,1.77,-3.50,-80.90,-5.47,-1.70,39.60,-4.55,5.65,-28.97,-4.95,0.45,18.89
470,-41,-1389,-481,-110,3891,4.46,-3.40,-81.28,-4.81,-1.10,38.91,-4.55,5.62,-28.65,-7.02,-0.30,19.59
457,-40,-1399,-511,-112,3873,6.80,-3.31,-81.69,-5.11,-1.12,38.73,-4.54,5.59,-28.33,-6.62,-0.30,19.77
210,-46,-1415,-493,-119,3920,7.40,-3.26,-82.15,-4.93,-1.19,39.20,-4.53,5.56,-28.00,-2.39,-0.19,20.14
129,-38,-1413,-488,-93,3888,7.45,-3.16,-82.55,-4.88,-0.93,38.88,-4.51,5.53,-27.67,-1.02,-0.32,19.92
-67,1,-1396,-455,-72,3922,6.29,-2.84,-82.81,-4.55,-0.72,39.22,-4.50,5.50,-27.34,2.21,-0.95,19.24
-80,21,-1402,-430,-48,3911,5.18,-2.43,-83.08,-4.30,-0.48,39.11,-4.49,5.47,-27.01,2.35,-1.26,19.33
-81,-30,-1470,-443,69,4061,4.17,-2.37,-83.74,-4.43,0.69,40.61,-4.49,5.43,-26.68,2.29,-0.38,21.39
-94,-72,-1506,-414,90,4058,3.18,-2.57,-84.56,-4.14,0.90,40.58,-4.49,5.40,-26.34,2.43,0.32,22.31
-141,-221,-1680,-373,100,4039,2.00,-3.66,-86.35,-3.73,1.00,40.39,-4.50,5.36,-26.00,3.14,2.76,27.56
-163,-259,-1732,-388,78,3991,0.80,-4.88,-88.28,-3.88,0.78,39.91,-4.51,5.31,-25.65,3.42,3.32,28.63
-197,-302,-1833,-408,-13,3802,-0.48,-6.23,-90.63,-4.08,-0.13,38.02,-4.53,5.26,-25.29,3.90,3.95,31.21
-183,-285,-1833,-410,-34,3751,-1.55,-7.35,-92.75,-4.10,-0.34,37.51,-4.55,5.21,-24.92,3.59,3.59,30.45
-159,-207,-1768,-304,-154,3681,-2.36,-7.87,-94.26,-3.04,-1.54,36.81,-4.57,5.14,-24.55,3.12,2.23,27.70
-137,-167,-1740,-272,-174,3691,-2.96,-8.11,-95.45,-2.72,-1.74,36.91,-4.60,5.07,-24.17,2.71,1.55,26.32
-129,-57,-1611,-270,-244,3735,-3.45,-7.64,-95.73,-2.70,-2.44,37.35,-4.64,4.99,-23.79,2.54,-0.27,21.84
-192,-44,-1554,-238,-293,3756,-4.28,-7.15,-95.64,-2.38,-2.93,37.56,-4.69,4.92,-23.41,3.55,-0.44,19.92
-410,-39,-1432,-188,-312,3688,-6.35,-6.67,-94.81,-1.88,-3.12,36.88,-4.74,4.84,-23.04,7.10,-0.48,16.07
-477,-36,-1406,-195,-328,3672,-8.63,-6.22,-93.90,-1.95,-3.28,36.72,-4.81,4.77,-22.66,8.07,-0.49,15.49
-710,14,-1337,-216,-342,3580,-12.09,-5.51,-92.67,-2.16,-3.42,35.80,-4.90,4.70,-22.29,11.76,-1.28,13.57
-762,53,-1314,-256,-329,3558,-15.53,-4.64,-91.42,-2.56,-3.29,35.58,-5.00,4.63,-21.93,12.39,-1.86,13.22
-764,276,-1214,-269,-329,3579,-18.64,-2.49,-89.68,-2.69,-3.29,35.79,-5.12,4.58,-21.57,12.21,-5.47,10.43
-816,290,-1194,-237,-332,3714,-21.75,-0.47,-88.00,-2.37,-3.32,37.14,-5.23,4.52,-21.22,12.87,-5.55,10.33
-973,324,-1161,-184,-361,3726,-25.51,1.55,-86.28,-1.84,-3.61,37.26,-5.36,4.48,-20.87,15.26,-5.97,9.81
-997,323,-1159,-198,-367,3792,-29.04,3.36,-84.72,-1.98,-3.67,37.92,-5.51,4.44,-20.53,15.41,-5.81,10.27
-1132,275,-1159,-324,-378,3749,-33.04,4.71,-83.32,-3.24,-3.78,37.49,-5.67,4.45,-20.20,17.42,-4.90,10.75
-1178,240,-1152,-375,-412,3710,-36.93,5.70,-82.01,-3.75,-4.12,37.10,-5.86,4.45,-19.87,17.93,-4.23,10.96
-1055,258,-1122,-376,-501,3600,-39.67,6.70,-80.66,-3.76,-5.01,36.00,-6.06,4.45,-19.54,15.66,-4.46,10.41
-962,296,-1112,-355,-522,3598,-41.57,7.84,-79.37,-3.55,-5.22,35.98,-6.26,4.46,-19.22,13.96,-5.02,10.51
-839,333,-1072,-293,-585,3775,-42.53,9.09,-77.98,-2.93,-5.85,37.75,-6.48,4.46,-18.90,11.83,-5.55,9.64
-885,310,-1064,-274,-604,3803,-43.68,10.07,-76.67,-2.74,-6.04,38.03,-6.69,4.46,-18.59,12.55,-5.09,9.82
-1097,255,-1045,-301,-650,3820,-46.00,10.62,-75.38,-3.01,-6.50,38.20,-6.92,4.47,-18.28,15.99,-4.11,9.62
-1122,260,-1040,-316,-665,3797,-48.24,11.14,-74.18,-3.16,-6.65,37.97,-7.15,4.48,-17.98,16.27,-4.16,9.86
-1068,311,-1018,-456,-692,3783,-49.94,11.92,-72.97,-4.56,-6.92,37.83,-7.39,4.50,-17.68,15.26,-4.97,9.52
-1032,314,-1015,-499,-721,3775,-51.24,12.65,-71.87,-4.99,-7.21,37.75,-7.63,4.52,-17.39,14.58,-4.97,9.80
-709,356,-1009,-432,-815,3844,-50.44,13.55,-70.84,-4.32,-8.15,38.44,-7.87,4.55,-17.10,9.20,-5.61,9.95
-598,337,-1001,-573,-802,3929,-49.04,14.25,-69.86,-5.73,-8.02,39.29,-8.11,4.58,-16.81,7.45,-5.24,10.01
-524,187,-1000,-550,-802,4001,-47.33,13.97,-68.97,-5.50,-8.02,40.01,-8.33,4.61,-16.53,6.35,-2.72,10.28
-479,157,-1003,-564,-801,3974,-45.52,13.53,-68.19,-5.64,-8.01,39.74,-8.55,4.63,-16.25,5.75,-2.25,10.65
-181,107,-1017,-504,-836,3996,-42.07,12.83,-67.58,-5.04,-8.36,39.96,-8.75,4.65,-15.97,0.99,-1.46,11.33
-96,109,-1016,-505,-828,4031,-38.45,12.21,-67.02,-5.05,-8.28,40.31,-8.94,4.67,-15.70,-0.15,-1.54,11.48
5,26,-996,-466,-858,4085,-34.58,11.15,-66.39,-4.66,-8.58,40.85,-9.12,4.68,-15.43,-1.55,-0.22,11.01
40,19,-992,-442,-870,4087,-30.88,10.15,-65.80,-4.42,-8.70,40.87,-9.28,4.69,-15.16,-1.84,-0.18,11.07
172,-15,-950,-541,-820,4061,-26.74,9.04,-65.02,-5.41,-8.20,40.61,-9.42,4.70,-14.90,-3.75,0.32,9.92
182,-50,-938,-558,-812,4050,-22.95,7.83,-64.24,-5.58,-8.12,40.50,-9.54,4.70,-14.64,-3.62,0.82,9.78
248,-145,-930,-555,-779,3943,-19.15,6.17,-63.49,-5.55,-7.79,39.43,-9.65,4.70,-14.38,-4.44,2.30,9.76
289,-166,-947,-583,-762,3891,-15.47,4.54,-62.92,-5.83,-7.62,38.91,-9.74,4.69,-14.13,-4.84,2.53,10.53
331,-169,-967,-659,-714,3804,-11.90,3.05,-62.52,-6.59,-7.14,38.04,-9.81,4.68,-13.88,-5.27,2.47,11.33
336,-155,-971,-646,-722,3793,-8.66,1.80,-62.19,-6.46,-7.22,37.93,-9.87,4.66,-13.63,-5.11,2.14,11.58
340,-54,-999,-584,-740,3875,-5.72,1.29,-62.07,-5.84,-7.40,38.75,-9.91,4.64,-13.38,-4.95,0.40,12.56
292,-35,-1012,-555,-746,3935,-3.37,0.95,-62.03,-5.55,-7.46,39.35,-9.95,4.62,-13.14,-3.95,0.05,13.00
144,-24,-1053,-560,-768,3955,-2.15,0.71,-62.25,-5.60,-7.68,39.55,-9.99,4.60,-12.89,-1.34,-0.15,14.30
117,-35,-1063,-557,-779,3932,-1.22,0.42,-62.51,-5.57,-7.79,39.32,-10.02,4.57,-12.64,-0.81,0.02,14.54
20,-54,-1062,-496,-791,4012,-0.98,0.05,-62.74,-4.96,-7.91,40.12,-10.05,4.55,-12.39,0.85,0.31,14.42
-7,-54,-1048,-503,-755,3985,-0.92,-0.28,-62.86,-5.03,-7.55,39.85,-10.08,4.52,-12.15,1.32,0.29,13.89
-87,-57,-1012,-578,-691,3984,-1.36,-0.60,-62.75,-5.78,-6.91,39.84,-10.10,4.49,-11.90,2.64,0.32,12.70
-102,-54,-1020,-567,-650,3984,-1.85,-0.87,-62.69,-5.67,-6.50,39.84,-10.12,4.46,-11.65,2.86,0.25,12.98
-205,-80,-1114,-624,-547,3919,-2.91,-1.27,-63.22,-6.24,-5.47,39.19,-10.15,4.43,-11.40,4.53,0.67,15.98
-236,-100,-1152,-620,-574,3894,-4.06,-1.75,-63.92,-6.20,-5.74,38.94,-10.17,4.39,-11.15,4.97,0.97,17.01
-358,-129,-1256,-578,-590,3871,-5.84,-2.37,-65.19,-5.78,-5.90,38.71,-10.21,4.35,-10.90,6.91,1.42,20.07
-370,-126,-1269,-550,-629,3823,-7.51,-2.90,-66.42,-5.50,-6.29,38.23,-10.26,4.31,-10.64,6.99,1.34,20.07
-286,-29,-1259,-562,-792,3767,-8.51,-2.79,-67.45,-5.62,-7.92,37.67,-10.32,4.27,-10.37,5.50,-0.29,19.36
-180,86,-1212,-481,-819,3848,-8.75,-1.98,-68.10,-4.81,-8.19,38.48,-10.38,4.23,-10.10,3.69,-2.17,17.53
-234,76,-1184,-561,-781,3898,-9.31,-1.32,-68.51,-5.61,-7.81,38.98,-10.44,4.19,-9.83,4.57,-1.95,16.42
-485,-33,-1135,-624,-827,3823,-11.33,-1.39,-68.59,-6.24,-8.27,38.23,-10.51,4.15,-9.56,8.68,-0.10,14.73
-502,-37,-1130,-622,-794,3771,-13.26,-1.48,-68.62,-6.22,-7.94,37.71,-10.59,4.12,-9.30,8.83,-0.04,14.54
-324,63,-1131,-665,-731,3662,-13.91,-0.94,-68.66,-6.65,-7.31,36.62,-10.67,4.08,-9.02,5.78,-1.69,14.55
-263,106,-1139,-620,-718,3695,-14.13,-0.20,-68.74,-6.20,-7.18,36.95,-10.75,4.05,-8.75,4.74,-2.36,14.78
-261,181,-1152,-612,-750,3903,-14.31,0.92,-68.89,-6.12,-7.50,39.03,-10.82,4.02,-8.48,4.70,-3.54,15.15
-306,173,-1157,-599,-759,3923,-14.74,1.88,-69.06,-5.99,-7.59,39.23,-10.90,3.99,-8.21,5.44,-3.33,15.25
-339,180,-1136,-663,-798,3892,-15.34,2.79,-69.08,-6.63,-7.98,38.92,-10.98,3.97,-7.93,5.96,-3.37,14.52
-327,183,-1121,-700,-809,3901,-15.80,3.63,-69.01,-7.00,-8.09,39.01,-11.07,3.95,-7.66,5.73,-3.36,14.03
-251,215,-1076,-681,-950,3959,-15.75,4.58,-68.68,-6.81,-9.50,39.59,-11.16,3.93,-7.39,4.46,-3.83,12.61
-213,236,-1061,-671,-996,3989,-15.47,5.56,-68.28,-6.71,-9.96,39.89,-11.25,3.91,-7.11,3.85,-4.11,12.23
-206,208,-999,-728,-1129,4082,-15.18,6.27,-67.55,-7.28,-11.29,40.82,-11.34,3.90,-6.84,3.76,-3.58,10.38
-244,155,-977,-739,-1137,4048,-15.15,6.59,-66.75,-7.39,-11.37,40.48,-11.42,3.89,-6.57,4.42,-2.65,9.91
-136,20,-831,-755,-1053,3823,-14.47,6.05,-65.15,-7.55,-10.53,38.23,-11.51,3.87,-6.31,2.65,-0.41,5.51
-62,12,-789,-733,-1024,3795,-13.40,5.52,-63.44,-7.33,-10.24,37.95,-11.59,3.86,-6.06,1.49,-0.31,4.68
212,105,-646,-677,-891,3909,-10.76,5.61,-61.04,-6.77,-8.91,39.09,-11.65,3.85,-5.81,-2.95,-1.88,0.67
235,126,-614,-703,-872,3946,-8.25,5.82,-58.68,-7.03,-8.72,39.46,-11.70,3.85,-5.58,-3.14,-2.22,0.41
160,56,-570,-760,-828,3992,-6.45,5.58,-56.29,-7.60,-8.28,39.92,-11.74,3.84,-5.35,-1.73,-1.05,-0.25
157,14,-578,-773,-829,3945,-4.85,5.11,-54.19,-7.73,-8.29,39.45,-11.78,3.83,-5.13,-1.55,-0.37,0.75
357,-82,-665,-767,-867,3826,-2.19,4.09,-52.82,-7.67,-8.67,38.26,-11.80,3.83,-4.92,-4.74,1.18,4.17
428,-100,-693,-754,-870,3826,0.64,3.08,-51.77,-7.54,-8.70,38.26,-11.82,3.81,-4.72,-5.73,1.41,5.49
490,-162,-742,-696,-860,3813,3.57,1.78,-51.12,-6.96,-8.60,38.13,-11.82,3.80,-4.52,-6.55,2.36,7.37
459,-180,-742,-692,-868,3776,6.01,0.50,-50.53,-6.92,-8.68,37.76,-11.81,3.77,-4.32,-5.84,2.58,7.57
385,-205,-727,-692,-856,3732,7.76,-0.80,-49.91,-6.92,-8.56,37.32,-11.80,3.75,-4.12,-4.46,2.90,7.27
321,-155,-675,-727,-813,3560,8.94,-1.66,-49.04,-7.27,-8.13,35.60,-11.77,3.72,-3.93,-3.29,1.99,5.81
322,-147,-647,-725,-714,3692,10.01,-2.39,-48.08,-7.25,-7.14,36.92,-11.74,3.69,-3.74,-3.23,1.81,5.19
161,-187,-566,-710,-428,3854,9.99,-3.29,-46.73,-7.10,-4.28,38.54,-11.70,3.65,-3.56,-0.51,2.42,2.92
143,-192,-560,-706,-355,3928,9.86,-4.14,-45.47,-7.06,-3.55,39.28,-11.66,3.61,-3.39,-0.22,2.45,3.15
138,-173,-658,-697,-335,4052,9.72,-4.78,-44.94,-6.97,-3.35,40.52,-11.62,3.57,-3.22,-0.15,2.08,6.65
170,-167,-715,-713,-357,4021,9.78,-5.32,-44.81,-7.13,-3.57,40.21,-11.58,3.53,-3.05,-0.69,1.94,8.62
220,-235,-954,-795,-431,4031,10.15,-6.22,-46.14,-7.95,-4.31,40.31,-11.54,3.48,-2.87,-1.51,3.03,16.24
188,-292,-1003,-842,-432,3940,10.28,-7.38,-47.65,-8.42,-4.32,39.40,-11.50,3.43,-2.69,-0.97,3.92,17.37
255,-339,-1113,-726,-469,3711,10.81,-8.71,-49.67,-7.26,-4.69,37.11,-11.46,3.37,-2.50,-2.07,4.62,20.38
347,-238,-1132,-697,-505,3691,11.84,-9.29,-51.61,-6.97,-5.05,36.91,-11.42,3.31,-2.31,-3.55,2.87,20.33
178,-79,-1141,-597,-609,3894,11.75,-8.84,-53.41,-5.97,-6.09,38.94,-11.37,3.25,-2.11,-0.70,0.22,19.99
65,-48,-1143,-583,-659,3937,10.97,-8.25,-55.04,-5.83,-6.59,39.37,-11.33,3.19,-1.90,1.15,-0.25,19.48
-282,56,-1126,-603,-648,3951,8.15,-7.09,-56.41,-6.03,-6.48,39.51,-11.31,3.14,-1.68,6.81,-1.92,18.41
-343,64,-1109,-606,-651,3936,5.24,-5.99,-57.53,-6.06,-6.51,39.36,-11.29,3.08,-1.46,7.62,-1.97,17.43
-148,99,-1009,-773,-658,3760,3.82,-4.78,-57.93,-7.73,-6.58,37.60,-11.29,3.04,-1.24,4.21,-2.46,13.89
-32,106,-974,-815,-663,3713,3.24,-3.66,-58.08,-8.15,-6.63,37.13,-11.28,3.00,-1.01,2.20,-2.49,12.65
184,27,-909,-805,-751,3991,4.04,-3.13,-57.82,-8.05,-7.51,39.91,-11.28,2.96,-0.79,-1.40,-1.11,10.53
220,8,-906,-769,-730,3943,4.98,-2.77,-57.56,-7.69,-7.30,39.43,-11.27,2.92,-0.56,-1.94,-0.75,10.51
128,-123,-887,-677,-568,4035,5.26,-3.24,-57.22,-6.77,-5.68,40.35,-11.25,2.88,-0.34,-0.36,1.44,9.98
72,-171,-869,-641,-533,3893,5.17,-3.96,-56.80,-6.41,-5.33,38.93,-11.23,2.84,-0.12,0.58,2.20,9.51
145,-146,-787,-573,-533,3815,5.54,-4.45,-55.92,-5.73,-5.33,38.15,-11.21,2.79,0.09,-0.63,1.74,7.03
190,-109,-757,-579,-577,3807,6.14,-4.67,-54.94,-5.79,-5.77,38.07,-11.19,2.75,0.31,-1.35,1.11,6.35
179,-78,-642,-656,-758,3925,6.62,-4.68,-53.36,-6.56,-7.58,39.25,-11.17,2.70,0.51,-1.13,0.59,3.00
168,-83,-612,-748,-809,3879,6.98,-4.72,-51.76,-7.48,-8.09,38.79,-11.15,2.66,0.71,-0.92,0.67,2.54
203,-179,-524,-840,-752,3715,7.52,-5.34,-49.78,-8.40,-7.52,37.15,-11.13,2.62,0.90,-1.47,2.26,0.25
280,-176,-511,-810,-729,3660,8.48,-5.88,-47.92,-8.10,-7.29,36.60,-11.11,2.58,1.09,-2.71,2.17,0.46
546,-69,-494,-723,-597,3771,10.96,-5.71,-46.14,-7.23,-5.97,37.71,-11.07,2.54,1.26,-7.03,0.37,0.50
533,-57,-492,-659,-549,3804,13.12,-5.49,-44.53,-6.59,-5.49,38.04,-11.01,2.50,1.43,-6.66,0.19,0.99
320,-71,-491,-614,-507,3861,13.76,-5.37,-43.07,-6.14,-5.07,38.61,-10.96,2.47,1.60,-3.01,0.44,1.47
263,-37,-479,-600,-468,3841,13.99,-5.06,-41.69,-6.00,-4.68,38.41,-10.90,2.43,1.76,-2.03,-0.10,1.54
122,-35,-419,-569,-418,3938,13.33,-4.77,-40.07,-5.69,-4.18,39.38,-10.84,2.39,1.91,0.30,-0.11,0.07
96,-36,-402,-607,-434,3992,12.58,-4.51,-38.52,-6.07,-4.34,39.92,-10.79,2.36,2.06,0.68,-0.07,0.04
175,-25,-363,-680,-371,4079,12.39,-4.21,-36.88,-6.80,-3.71,40.79,-10.73,2.33,2.20,-0.68,-0.23,-0.71
151,-49,-362,-689,-331,4185,12.08,-4.09,-35.40,-6.89,-3.31,41.85,-10.68,2.30,2.34,-0.31,0.19,-0.23
41,-234,-389,-755,-190,4058,11.12,-5.11,-34.23,-7.55,-1.90,40.58,-10.62,2.27,2.47,1.48,3.25,1.09
35,-275,-414,-729,-166,4073,10.22,-6.28,-33.34,-7.29,-1.66,40.73,-10.57,2.24,2.59,1.51,3.86,2.25
147,-328,-566,-650,-134,3910,10.09,-7.65,-33.45,-6.50,-1.34,39.10,-10.53,2.19,2.72,-0.41,4.66,7.35
199,-310,-617,-660,-119,3951,10.30,-8.77,-33.87,-6.60,-1.19,39.51,-10.47,2.15,2.84,-1.28,4.28,8.93
148,-294,-738,-511,-85,4037,10.17,-9.69,-34.99,-5.11,-0.85,40.37,-10.42,2.09,2.98,-0.43,3.94,12.63
38,-291,-768,-488,-131,4066,9.39,-10.50,-36.17,-4.88,-1.31,40.66,-10.37,2.03,3.11,1.37,3.84,13.23
-39,-231,-766,-618,-257,3923,8.21,-10.86,-37.23,-6.18,-2.57,39.23,-10.33,1.98,3.25,2.58,2.80,12.78
-31,-230,-754,-645,-250,3918,7.20,-11.17,-38.11,-6.45,-2.50,39.18,-10.30,1.92,3.39,2.36,2.77,12.06
167,-245,-739,-614,-353,3819,7.50,-11.55,-38.80,-6.14,-3.53,38.19,-10.26,1.86,3.53,-0.97,3.00,11.30
264,-218,-755,-602,-375,3877,8.36,-11.73,-39.53,-6.02,-3.75,38.77,-10.22,1.80,3.68,-2.56,2.54,11.58
342,-209,-807,-575,-400,4022,9.61,-11.83,-40.50,-5.75,-4.00,40.22,-10.18,1.74,3.83,-3.79,2.38,13.00
290,-236,-817,-542,-413,4061,10.42,-12.08,-41.43,-5.42,-4.13,40.61,-10.13,1.68,3.99,-2.85,2.83,13.00
60,-336,-798,-592,-349,3875,9.74,-12.93,-42.16,-5.92,-3.49,38.75,-10.09,1.61,4.14,0.99,4.47,12.10
41,-352,-774,-554,-306,3814,9.02,-13.78,-42.66,-5.54,-3.06,38.14,-10.04,1.54,4.30,1.25,4.68,11.10
264,-226,-670,-339,-148,3722,9.73,-13.78,-42.48,-3.39,-1.48,37.22,-9.99,1.47,4.46,-2.48,2.56,7.63
255,-153,-617,-285,-140,3971,10.31,-13.34,-42.00,-2.85,-1.40,39.71,-9.94,1.39,4.61,-2.29,1.37,6.00
-54,-96,-555,-203,-83,3992,8.95,-12.59,-41.18,-2.03,-0.83,39.92,-9.89,1.32,4.77,2.83,0.47,4.18
-103,-54,-552,-246,-65,4061,7.43,-11.66,-40.43,-2.46,-0.65,40.61,-9.84,1.25,4.92,3.54,-0.17,4.34
-289,-41,-556,-417,40,4051,4.92,-10.74,-39.78,-4.17,0.40,40.51,-9.81,1.18,5.07,6.50,-0.31,4.70
-339,-51,-576,-408,58,4100,2.36,-9.98,-39.32,-4.08,0.58,41.00,-9.79,1.13,5.21,7.15,-0.07,5.53
-524,-104,-732,-572,30,4201,-1.07,-9.62,-39.85,-5.72,0.30,42.01,-9.78,1.07,5.37,10.03,0.86,10.62
-563,-108,-800,-593,36,4274,-4.40,-9.31,-40.75,-5.93,0.36,42.74,-9.78,1.02,5.52,10.44,0.96,12.61
-724,-168,-1156,-629,255,4415,-8.38,-9.41,-43.72,-6.29,2.55,44.15,-9.80,0.96,5.68,12.87,1.97,23.62
-766,-198,-1307,-626,293,4463,-12.21,-9.67,-47.32,-6.26,2.93,44.63,-9.84,0.90,5.86,13.29,2.47,27.46
-898,-435,-1540,-334,-143,4571,-16.47,-11.36,-51.98,-3.34,-1.43,45.71,-9.89,0.82,6.06,15.21,6.37,33.71
-903,-615,-1581,-187,-245,4405,-20.33,-13.98,-56.43,-1.87,-2.45,44.05,-9.96,0.73,6.27,15.01,9.23,33.52
-680,-899,-1284,76,-1000,3986,-22.44,-18.06,-58.62,0.76,-10.00,39.86,-10.07,0.61,6.49,11.09,13.75,22.68
-580,-920,-1156,148,-1065,3946,-23.74,-21.87,-59.81,1.48,-10.65,39.46,-10.18,0.48,6.71,9.31,13.83,17.91
-207,-775,-487,-62,-1015,3648,-22.63,-24.41,-56.80,-0.62,-10.15,36.48,-10.29,0.34,6.92,3.09,11.20,-3.71
-142,-713,-313,-136,-1110,3597,-21.23,-26.32,-53.03,-1.36,-11.10,35.97,-10.39,0.21,7.11,2.10,10.02,-8.28
-72,-509,-24,-139,-280,3415,-19.55,-26.79,-47.87,-1.39,-2.80,34.15,-10.46,0.07,7.28,1.05,6.55,-16.27
-83,-470,-18,-116,-79,3432,-18.10,-26.98,-43.19,-1.16,-0.79,34.32,-10.51,-0.06,7.43,1.36,5.89,-14.83
-157,-380,-250,-107,361,3548,-17.25,-26.60,-40.40,-1.07,3.61,35.48,-10.56,-0.19,7.57,2.68,4.41,-5.99
-166,-348,-399,-49,443,3556,-16.53,-26.06,-38.79,-0.49,4.43,35.56,-10.61,-0.32,7.70,2.89,3.92,-0.38
-50,-214,-778,98,408,3610,-15.19,-24.76,-39.66,0.98,4.08,36.10,-10.65,-0.45,7.84,1.03,1.77,12.16
51,-125,-916,137,199,3750,-13.36,-23.05,-41.28,1.37,1.99,37.50,-10.69,-0.58,7.98,-0.53,0.41,16.26
185,-31,-1044,72,-153,3953,-10.89,-20.93,-43.52,0.72,-1.53,39.53,-10.71,-0.69,8.14,-2.62,-1.01,19.80
219,-51,-1039,4,-226,3991,-8.47,-19.15,-45.51,0.04,-2.26,39.91,-10.72,-0.80,8.30,-3.01,-0.52,18.92
390,-257,-970,-160,-563,4048,-5.24,-18.80,-46.87,-1.60,-5.63,40.48,-10.73,-0.89,8.47,-5.66,3.00,16.10
450,-326,-945,-201,-616,4021,-1.97,-18.91,-47.95,-2.01,-6.16,40.21,-10.73,-0.99,8.65,-6.43,4.18,14.86
607,-540,-782,-55,-669,3850,1.93,-20.31,-47.93,-0.55,-6.69,38.50,-10.71,-1.09,8.82,-8.79,7.71,9.34
629,-571,-716,58,-592,3802,5.57,-21.77,-47.50,0.58,-5.92,38.02,-10.66,-1.21,8.99,-8.90,8.14,7.25
632,-553,-516,117,-178,3605,8.87,-22.96,-45.90,1.17,-1.78,36.05,-10.61,-1.33,9.16,-8.70,7.76,1.03
636,-524,-507,69,-93,3590,11.86,-23.86,-44.40,0.69,-0.93,35.90,-10.54,-1.46,9.32,-8.55,7.22,1.24
671,-355,-612,38,103,3578,14.77,-23.64,-43.69,0.38,1.03,35.78,-10.46,-1.58,9.47,-8.94,4.39,5.05
679,-256,-713,-18,91,3579,17.43,-22.84,-43.67,-0.18,0.91,35.79,-10.36,-1.70,9.63,-8.88,2.78,8.47
621,-37,-879,87,43,3696,19.48,-20.78,-44.67,0.87,0.43,36.96,-10.26,-1.81,9.79,-7.76,-0.76,13.74
597,5,-910,85,-4,3708,21.17,-18.67,-45.75,0.85,-0.04,37.08,-10.15,-1.92,9.96,-7.24,-1.29,14.40
518,62,-939,-11,-105,3785,22.22,-16.43,-46.91,-0.11,-1.05,37.85,-10.04,-2.01,10.13,-5.83,-2.08,14.97
503,52,-931,16,-132,3765,23.06,-14.47,-47.89,0.16,-1.32,37.65,-9.93,-2.10,10.31,-5.53,-1.75,14.34
482,54,-901,66,-379,3972,23.70,-12.69,-48.60,0.66,-3.79,39.72,-9.81,-2.18,10.49,-5.14,-1.64,13.07
467,73,-897,56,-422,4002,24.18,-10.98,-49.21,0.56,-4.22,40.02,-9.69,-2.25,10.68,-4.86,-1.82,12.71
336,80,-805,-61,-298,3932,23.81,-9.39,-49.20,-0.61,-2.98,39.32,-9.57,-2.31,10.87,-2.69,-1.81,9.59
286,51,-758,-93,-263,3877,23.17,-8.14,-48.91,-0.93,-2.63,38.77,-9.45,-2.36,11.06,-1.90,-1.22,8.10
180,-98,-597,-148,-166,3714,21.95,-7.92,-47.66,-1.48,-1.66,37.14,-9.34,-2.42,11.24,-0.21,1.33,3.07
52,-147,-561,-119,-170,3697,20.07,-8.03,-46.31,-1.19,-1.70,36.97,-9.24,-2.47,11.42,1.80,2.16,2.32
-229,32,-534,-170,-182,3697,16.67,-7.03,-44.94,-1.70,-1.82,36.97,-9.15,-2.51,11.59,6.29,-0.79,1.88
-260,109,-538,-193,-201,3576,13.42,-5.66,-43.73,-1.93,-2.01,35.76,-9.08,-2.55,11.76,6.56,-1.99,2.44
-416,304,-585,-321,-187,3739,9.54,-3.24,-42.92,-3.21,-1.87,37.39,-9.02,-2.58,11.93,8.91,-5.11,4.31
-472,337,-612,-330,-236,3766,5.70,-0.86,-42.36,-3.30,-2.36,37.66,-8.98,-2.59,12.10,9.56,-5.48,5.41
-651,509,-701,-143,-158,4009,1.16,2.33,-42.40,-1.43,-1.58,40.09,-8.95,-2.60,12.27,12.24,-8.16,8.41
-738,517,-700,-135,-88,4035,-3.46,5.25,-42.43,-1.35,-0.88,40.35,-8.94,-2.59,12.44,13.37,-8.07,8.36
-936,494,-676,-209,-140,4062,-8.82,7.74,-42.31,-2.09,-1.40,40.62,-8.95,-2.58,12.61,16.32,-7.49,7.58
-899,499,-680,-238,-193,3968,-13.42,10.01,-42.23,-2.38,-1.93,39.68,-8.99,-2.55,12.79,15.35,-7.41,7.74
-834,365,-741,-385,-310,3988,-17.17,11.23,-42.53,-3.85,-3.10,39.88,-9.04,-2.52,12.96,13.97,-5.05,9.69
-853,257,-735,-335,-280,3889,-20.65,11.68,-42.76,-3.35,-2.80,38.89,-9.10,-2.49,13.14,14.04,-3.19,9.40
-716,308,-725,-202,-394,3864,-22.96,12.39,-42.90,-2.02,-3.94,38.64,-9.18,-2.45,13.32,11.55,-4.01,9.01
-676,355,-722,-241,-403,3893,-24.78,13.32,-43.02,-2.41,-4.03,38.93,-9.26,-2.41,13.50,10.75,-4.74,8.86
-729,486,-737,-304,-552,4047,-26.75,14.95,-43.21,-3.04,-5.52,40.47,-9.36,-2.36,13.68,11.51,-6.84,9.29
-776,504,-749,-323,-562,4130,-28.81,16.53,-43.46,-3.23,-5.62,41.30,-9.46,-2.30,13.86,12.16,-7.03,9.60
-977,490,-734,-286,-516,4081,-31.89,17.86,-43.59,-2.86,-5.16,40.81,-9.57,-2.24,14.04,15.35,-6.70,9.04
-986,465,-715,-310,-521,4071,-34.71,18.91,-43.59,-3.10,-5.21,40.71,-9.70,-2.18,14.23,15.30,-6.21,8.39
-672,369,-590,-351,-519,3895,-35.34,19.27,-42.83,-3.51,-5.19,38.95,-9.83,-2.12,14.41,9.95,-4.56,4.41
-524,360,-555,-359,-484,3969,-35.00,19.54,-41.94,-3.59,-4.84,39.69,-9.96,-2.05,14.59,7.48,-4.40,3.54
-138,330,-491,-200,-517,4174,-32.35,19.60,-40.74,-2.00,-5.17,41.74,-10.07,-1.99,14.76,1.16,-3.89,1.78
-88,276,-504,-235,-460,4347,-29.65,19.32,-39.74,-2.35,-4.60,43.47,-10.17,-1.93,14.93,0.52,-3.01,2.57
-81,87,-566,-277,-543,4287,-27.18,17.92,-39.22,-2.77,-5.43,42.87,-10.27,-1.87,15.10,0.60,0.08,4.85
-29,62,-593,-296,-576,4296,-24.64,16.51,-38.91,-2.96,-5.76,42.96,-10.35,-1.81,15.27,-0.07,0.39,5.86
201,-22,-619,-343,-540,4112,-20.95,14.72,-38.80,-3.43,-5.40,41.12,-10.42,-1.77,15.43,-3.68,1.67,6.78
276,-40,-601,-332,-524,4098,-17.17,13.01,-38.58,-3.32,-5.24,40.98,-10.48,-1.73,15.59,-4.66,1.84,6.24
530,-48,-504,-309,-504,4053,-12.22,11.41,-37.80,-3.09,-5.04,40.53,-10.51,-1.69,15.75,-8.58,1.85,3.22
541,-62,-488,-280,-517,4102,-7.70,9.89,-37.00,-2.80,-5.17,41.02,-10.53,-1.67,15.90,-8.43,1.97,2.96
493,-57,-507,-131,-441,4182,-3.92,8.56,-36.39,-1.31,-4.41,41.82,-10.53,-1.65,16.05,-7.33,1.78,3.81
438,-64,-514,-123,-397,4217,-0.86,7.31,-35.89,-1.23,-3.97,42.17,-10.51,-1.64,16.20,-6.17,1.80,4.22
211,-160,-544,-210,-399,4116,0.52,5.60,-35.62,-2.10,-3.99,41.16,-10.49,-1.63,16.34,-2.22,3.30,5.32
329,-132,-557,-299,-403,3933,2.47,4.24,-35.45,-2.99,-4.03,39.33,-10.47,-1.62,16.49,-4.07,2.72,5.81
384,-224,-562,-361,-457,3984,4.57,2.45,-35.33,-3.61,-4.57,39.84,-10.44,-1.62,16.63,-4.85,4.14,6.02
360,-240,-577,-371,-438,4083,6.31,0.74,-35.32,-3.71,-4.38,40.83,-10.40,-1.63,16.77,-4.31,4.29,6.53
236,-272,-603,-371,-375,3911,7.12,-0.99,-35.47,-3.71,-3.75,39.11,-10.35,-1.64,16.91,-2.16,4.70,7.35
210,-285,-631,-345,-415,3962,7.68,-2.63,-35.77,-3.45,-4.15,39.62,-10.31,-1.67,17.05,-1.68,4.80,8.19
179,-219,-763,-273,-383,3999,8.01,-3.71,-36.85,-2.73,-3.83,39.99,-10.26,-1.69,17.19,-1.14,3.60,12.28
129,-220,-791,-197,-382,4061,7.99,-4.68,-37.99,-1.97,-3.82,40.61,-10.21,-1.73,17.34,-0.29,3.55,12.82
-35,-222,-860,-169,-451,4072,6.98,-5.56,-39.43,-1.69,-4.51,40.72,-10.17,-1.76,17.49,2.40,3.52,14.64
-73,-236,-859,-164,-414,4083,5.84,-6.45,-40.73,-1.64,-4.14,40.83,-10.12,-1.80,17.64,2.95,3.70,14.14
-53,-327,-818,-81,-497,3928,4.93,-7.80,-41.65,-0.81,-4.97,39.28,-10.09,-1.85,17.80,2.54,5.14,12.43
74,-351,-805,-146,-518,3931,4.89,-9.16,-42.39,-1.46,-5.18,39.31,-10.05,-1.90,17.96,0.38,5.45,11.72
247,-426,-758,-133,-595,3881,5.91,-10.84,-42.78,-1.33,-5.95,38.81,-10.02,-1.96,18.13,-2.48,6.60,9.98
282,-434,-748,-84,-597,3831,7.04,-12.40,-43.06,-0.84,-5.97,38.31,-9.98,-2.02,18.29,-2.99,6.63,9.54
399,-391,-655,-178,-536,3719,8.77,-13.55,-42.75,-1.78,-5.36,37.19,-9.93,-2.08,18.45,-4.85,5.82,6.49
406,-383,-616,-159,-549,3687,10.37,-14.53,-42.23,-1.59,-5.49,36.87,-9.88,-2.15,18.60,-4.85,5.62,5.34
346,-296,-534,-129,-566,3771,11.44,-14.88,-41.27,-1.29,-5.66,37.71,-9.82,-2.22,18.76,-3.76,4.13,2.90
303,-263,-520,-156,-528,3775,12.14,-15.00,-40.31,-1.56,-5.28,37.75,-9.76,-2.29,18.90,-2.98,3.57,2.75
108,-169,-503,-68,-505,3762,11.59,-14.53,-39.35,-0.68,-5.05,37.62,-9.70,-2.36,19.05,0.27,2.02,2.51
90,-132,-509,-59,-511,3751,10.98,-13.88,-38.52,-0.59,-5.11,37.51,-9.64,-2.43,19.19,0.52,1.45,3.00
56,-1,-470,-96,-323,3837,10.22,-12.50,-37.54,-0.96,-3.23,38.37,-9.58,-2.49,19.33,1.03,-0.66,2.02
-29,-10,-452,-20,-323,3884,9.02,-11.31,-36.54,-0.20,-3.23,38.84,-9.52,-2.55,19.47,2.38,-0.40,1.76
-111,-82,-463,2,-257,3912,7.44,-10.68,-35.71,0.02,-2.57,39.12,-9.47,-2.61,19.61,3.64,0.87,2.42
-98,-105,-467,1,-250,3910,6.10,-10.25,-34.99,0.01,-2.50,39.10,-9.42,-2.66,19.74,3.31,1.30,2.80
51,-154,-509,-39,-271,3912,5.80,-10.17,-34.59,-0.39,-2.71,39.12,-9.37,-2.72,19.87,0.76,2.14,4.36
83,-161,-536,-31,-310,3941,5.73,-10.13,-34.40,-0.31,-3.10,39.41,-9.33,-2.77,20.00,0.21,2.27,5.34
49,-178,-608,-179,-372,3960,5.45,-10.20,-34.67,-1.79,-3.72,39.60,-9.29,-2.82,20.13,0.76,2.56,7.68
6,-198,-615,-132,-444,3946,4.95,-10.39,-34.96,-1.32,-4.44,39.46,-9.26,-2.87,20.26,1.44,2.89,7.81
5,-143,-607,-13,-539,3880,4.48,-10.23,-35.16,-0.13,-5.39,38.80,-9.22,-2.91,20.39,1.42,1.98,7.46
1,-131,-580,-83,-538,3862,4.04,-10.00,-35.19,-0.83,-5.38,38.62,-9.20,-2.96,20.53,1.45,1.80,6.53
-87,-179,-443,-24,-494,3822,3.11,-10.09,-34.37,-0.24,-4.94,38.22,-9.17,-3.00,20.66,2.87,2.61,2.17
-79,-176,-400,57,-445,3800,2.31,-10.16,-33.37,0.57,-4.45,38.00,-9.14,-3.05,20.78,2.67,2.56,1.06
0,-98,-368,115,-416,3871,2.08,-9.74,-32.28,1.15,-4.16,38.71,-9.11,-3.10,20.91,1.31,1.28,0.35
21,-58,-359,80,-368,3873,2.00,-9.12,-31.24,0.80,-3.68,38.73,-9.08,-3.15,21.02,0.94,0.65,0.41
13,-6,-340,1,-435,4025,1.88,-8.24,-30.19,0.01,-4.35,40.25,-9.05,-3.19,21.14,1.07,-0.16,0.13
-4,7,-342,-61,-423,4091,1.67,-7.38,-29.26,-0.61,-4.23,40.91,-9.03,-3.22,21.25,1.34,-0.31,0.52
-176,-74,-318,-121,-362,4096,0.43,-7.09,-28.27,-1.21,-3.62,40.96,-9.01,-3.25,21.36,4.15,1.09,0.05
-188,-106,-315,-80,-368,4079,-0.76,-7.03,-27.37,-0.80,-3.68,40.79,-8.99,-3.28,21.46,4.27,1.64,0.27
-139,-217,-319,-19,-398,4051,-1.53,-7.65,-26.58,-0.19,-3.98,40.51,-8.98,-3.32,21.57,3.38,3.48,0.68
-109,-247,-321,-7,-439,4012,-2.05,-8.39,-25.88,-0.07,-4.39,40.12,-8.97,-3.35,21.66,2.83,3.94,0.99
31,-278,-275,66,-540,3854,-1.65,-9.25,-24.97,0.66,-5.40,38.54,-8.96,-3.39,21.76,0.49,4.40,-0.25
76,-248,-216,183,-592,3838,-1.02,-9.84,-23.79,1.83,-5.92,38.38,-8.96,-3.43,21.84,-0.23,3.85,-1.84
72,-118,-99,-53,-415,3834,-0.48,-9.57,-22.01,-0.53,-4.15,38.34,-8.95,-3.46,21.93,-0.12,1.68,-5.19
50,-111,-67,-136,-330,3801,-0.13,-9.29,-20.22,-1.36,-3.30,38.01,-8.93,-3.50,22.00,0.27,1.58,-5.64
44,-120,-97,-86,-269,3917,0.15,-9.09,-18.79,-0.86,-2.69,39.17,-8.91,-3.53,22.07,0.40,1.76,-4.12
58,-117,-122,-36,-236,3920,0.49,-8.90,-17.65,-0.36,-2.36,39.20,-8.89,-3.57,22.14,0.18,1.72,-2.88
77,-113,-155,199,-201,3951,0.91,-8.70,-16.83,1.99,-2.01,39.51,-8.87,-3.61,22.20,-0.11,1.68,-1.47
60,-106,-157,244,-214,3967,1.19,-8.48,-16.11,2.44,-2.14,39.67,-8.84,-3.65,22.26,0.19,1.58,-1.15
-25,-85,-164,214,-234,3996,0.92,-8.15,-15.50,2.14,-2.34,39.96,-8.81,-3.69,22.32,1.61,1.26,-0.70
-48,-86,-168,189,-224,3987,0.53,-7.86,-14.97,1.89,-2.24,39.87,-8.79,-3.73,22.37,1.97,1.30,-0.39
-76,-103,-147,220,-63,3963,0.01,-7.70,-14.37,2.20,-0.63,39.63,-8.77,-3.77,22.42,2.40,1.60,-0.89
-46,-120,-164,235,-33,3991,-0.27,-7.66,-13.94,2.35,-0.33,39.91,-8.75,-3.81,22.48,1.87,1.90,-0.16
82,-115,-276,241,-75,4007,0.26,-7.60,-14.23,2.41,-0.75,40.07,-8.73,-3.84,22.53,-0.26,1.83,3.53
108,-105,-309,220,-130,4020,0.89,-7.48,-14.69,2.20,-1.30,40.20,-8.70,-3.88,22.58,-0.66,1.67,4.48
87,-114,-349,111,-315,3869,1.33,-7.42,-15.35,1.11,-3.15,38.69,-8.68,-3.91,22.64,-0.27,1.83,5.61
77,-111,-335,118,-345,3842,1.67,-7.36,-15.86,1.18,-3.45,38.42,-8.65,-3.94,22.70,-0.08,1.79,4.95
-26,-120,-219,153,-214,3794,1.34,-7.36,-15.61,1.53,-2.14,37.94,-8.62,-3.97,22.76,1.64,1.95,1.10
-36,-120,-199,167,-188,3765,0.99,-7.35,-15.26,1.67,-1.88,37.65,-8.60,-4.01,22.82,1.78,1.95,0.55
38,-72,-225,76,-74,3754,1.12,-7.06,-15.11,0.76,-0.74,37.54,-8.57,-4.04,22.87,0.53,1.16,1.48
38,-71,-248,135,-64,3728,1.24,-6.78,-15.11,1.35,-0.64,37.28,-8.55,-4.07,22.93,0.54,1.17,2.26
70,-2,-295,293,-128,3614,1.55,-6.12,-15.40,2.93,-1.28,36.14,-8.52,-4.10,22.99,0.01,0.06,3.74
75,58,-298,252,-255,3654,1.85,-5.15,-15.68,2.52,-2.55,36.54,-8.49,-4.13,23.05,-0.05,-0.88,3.75
-26,183,-284,142,-303,3757,1.50,-3.52,-15.84,1.42,-3.03,37.57,-8.46,-4.15,23.11,1.63,-2.87,3.21
-81,202,-255,45,-174,3728,0.86,-1.94,-15.81,0.45,-1.74,37.28,-8.44,-4.16,23.17,2.51,-3.08,2.23
-115,183,-187,-105,-16,3527,0.07,-0.63,-15.37,-1.05,-0.16,35.27,-8.42,-4.16,23.24,3.02,-2.65,0.08
-32,217,-211,-104,-48,3536,-0.13,0.76,-15.12,-1.04,-0.48,35.36,-8.40,-4.15,23.30,1.60,-3.13,0.98
77,355,-324,63,-126,3806,0.35,2.85,-15.59,0.63,-1.26,38.06,-8.38,-4.14,23.36,-0.21,-5.31,4.65
25,391,-350,128,-159,3842,0.47,4.95,-16.16,1.28,-1.59,38.42,-8.35,-4.12,23.43,0.67,-5.76,5.32
-212,574,-418,270,-292,4169,-0.87,7.96,-17.10,2.70,-2.92,41.69,-8.33,-4.10,23.50,4.59,-8.64,7.29
-331,586,-420,246,-283,4238,-2.80,10.74,-17.95,2.46,-2.83,42.38,-8.32,-4.07,23.58,6.45,-8.63,7.06
-524,583,-348,54,-266,4167,-5.72,13.22,-18.28,0.54,-2.66,41.67,-8.32,-4.01,23.66,9.50,-8.40,4.50
-497,472,-267,-63,-160,4292,-8.18,14.78,-18.08,-0.63,-1.60,42.92,-8.34,-3.95,23.75,8.86,-6.41,1.82
-509,127,-165,12,-60,4451,-10.47,14.07,-17.28,0.12,-0.60,44.51,-8.36,-3.90,23.82,8.89,-0.62,-1.36
-473,67,-171,62,-48,4395,-12.30,13.07,-16.59,0.62,-0.48,43.95,-8.38,-3.85,23.90,8.15,0.31,-0.92
-273,-65,-255,208,45,4271,-12.74,11.37,-16.49,2.08,0.45,42.71,-8.41,-3.81,23.97,4.73,2.41,1.96
-201,-79,-278,226,41,4150,-12.69,9.75,-16.53,2.26,0.41,41.50,-8.44,-3.78,24.04,3.52,2.52,2.72
5,-78,-334,123,-107,4012,-11.39,8.30,-16.92,1.23,-1.07,40.12,-8.46,-3.76,24.12,0.13,2.39,4.48
17,-79,-337,85,-157,3964,-10.15,6.99,-17.28,0.85,-1.57,39.64,-8.48,-3.73,24.19,0.02,2.31,4.45
-33,-69,-294,-76,-160,3802,-9.34,5.87,-17.35,-0.76,-1.60,38.02,-8.50,-3.71,24.26,0.93,2.05,2.97
-43,-70,-271,-134,-153,3715,-8.66,4.85,-17.27,-1.34,-1.53,37.15,-8.52,-3.69,24.34,1.15,1.99,2.22
16,-29,-254,-189,-194,3569,-7.70,4.19,-17.09,-1.89,-1.94,35.69,-8.53,-3.67,24.41,0.23,1.24,1.70
94,50,-302,-165,-215,3499,-6.36,4.08,-17.22,-1.65,-2.15,34.99,-8.54,-3.65,24.48,-0.99,-0.11,3.28
193,291,-431,9,-199,3704,-4.54,5.45,-18.13,0.09,-1.99,37.04,-8.54,-3.63,24.55,-2.53,-4.09,7.33
158,360,-469,19,-215,3832,-3.13,7.10,-19.18,0.19,-2.15,38.32,-8.53,-3.60,24.64,-1.83,-5.14,8.24
-136,383,-557,-56,-364,4108,-3.64,8.72,-20.66,-0.56,-3.64,41.08,-8.53,-3.56,24.72,3.11,-5.41,10.70
-185,359,-581,-60,-405,4114,-4.41,10.04,-22.14,-0.60,-4.05,41.14,-8.53,-3.52,24.82,3.88,-4.91,10.99
3,330,-599,-180,-382,4015,-3.95,11.05,-23.58,-1.80,-3.82,40.15,-8.53,-3.47,24.92,0.73,-4.35,11.09
99,265,-587,-140,-378,4051,-2.95,11.56,-24.80,-1.40,-3.78,40.51,-8.53,-3.43,25.02,-0.82,-3.21,10.25
107,-75,-602,-287,-500,4277,-2.00,9.95,-25.99,-2.87,-5.00,42.77,-8.53,-3.39,25.13,-0.88,2.42,10.33
73,-165,-632,-316,-536,4323,-1.36,7.95,-27.25,-3.16,-5.36,43.23,-8.52,-3.35,25.25,-0.26,3.79,10.90
-1,-259,-724,-212,-616,4186,-1.23,5.57,-28.94,-2.12,-6.16,41.86,-8.52,-3.33,25.36,1.01,5.20,13.42
-4,-263,-743,-169,-661,4082,-1.13,3.41,-30.58,-1.69,-6.61,40.82,-8.52,-3.32,25.49,1.06,5.10,13.48
39,-176,-721,-183,-711,4073,-0.78,2.00,-31.92,-1.83,-7.11,40.73,-8.52,-3.31,25.62,0.36,3.52,12.26
-12,-188,-699,-142,-700,4103,-0.77,0.65,-32.99,-1.42,-7.00,41.03,-8.52,-3.31,25.75,1.23,3.62,11.13
-80,-186,-628,-44,-745,4064,-1.18,-0.55,-33.52,-0.44,-7.45,40.64,-8.52,-3.31,25.88,2.35,3.50,8.53
-71,-182,-615,-92,-738,4093,-1.50,-1.61,-33.92,-0.92,-7.38,40.93,-8.53,-3.32,26.01,2.17,3.35,7.94
-59,-241,-560,-54,-656,4057,-1.71,-2.91,-33.94,-0.54,-6.56,40.57,-8.53,-3.34,26.14,1.95,4.25,6.07
-45,-265,-550,-37,-664,4051,-1.81,-4.24,-33.91,-0.37,-6.64,40.51,-8.53,-3.36,26.28,1.71,4.56,5.74
104,-263,-529,45,-647,3913,-1.00,-5.42,-33.74,0.45,-6.47,39.13,-8.54,-3.38,26.41,-0.75,4.44,5.08
142,-255,-518,79,-666,3885,-0.03,-6.43,-33.53,0.79,-6.66,38.85,-8.54,-3.41,26.53,-1.32,4.23,4.78
117,-207,-447,-113,-608,3873,0.69,-7.05,-32.90,-1.13,-6.08,38.73,-8.53,-3.44,26.66,-0.85,3.38,2.59
18,-225,-412,-142,-629,3765,0.73,-7.72,-32.12,-1.42,-6.29,37.65,-8.52,-3.47,26.78,0.83,3.64,1.67
56,-132,-387,-103,-441,3604,1.00,-7.75,-31.27,-1.03,-4.41,36.04,-8.50,-3.50,26.90,0.21,2.06,1.12
80,-106,-389,-60,-411,3587,1.38,-7.62,-30.52,-0.60,-4.11,35.87,-8.48,-3.53,27.02,-0.17,1.64,1.45
95,-4,-466,-95,-448,3699,1.83,-6.89,-30.31,-0.95,-4.48,36.99,-8.46,-3.56,27.14,-0.40,-0.03,4.13
69,28,-499,-80,-467,3709,2.06,-6.03,-30.32,-0.80,-4.67,37.09,-8.44,-3.59,27.25,0.06,-0.51,5.23
-20,236,-595,-83,-701,3945,1.74,-3.98,-30.92,-0.83,-7.01,39.45,-8.44,-3.60,27.37,1.54,-3.87,8.27
-88,282,-609,-174,-796,4011,1.03,-1.87,-31.54,-1.74,-7.96,40.11,-8.43,-3.61,27.50,2.64,-4.49,8.52
-433,252,-565,-246,-888,4102,-1.72,-0.14,-31.83,-2.46,-8.88,41.02,-8.44,-3.61,27.62,8.28,-3.85,6.92
-475,219,-523,-155,-896,4044,-4.44,1.21,-31.84,-1.55,-8.96,40.44,-8.46,-3.61,27.75,8.79,-3.19,5.49
-207,190,-340,32,-813,4006,-5.26,2.25,-30.73,0.32,-8.13,40.06,-8.49,-3.61,27.87,4.19,-2.62,-0.32
-103,147,-257,73,-706,4175,-5.36,2.92,-29.23,0.73,-7.06,41.75,-8.51,-3.60,27.99,2.42,-1.84,-2.61
-102,-39,-195,41,-694,4105,-5.45,2.39,-27.49,0.41,-6.94,41.05,-8.53,-3.59,28.10,2.40,1.27,-4.10
-86,-82,-195,6,-676,4065,-5.43,1.65,-25.93,0.06,-6.76,40.65,-8.55,-3.58,28.20,2.13,1.94,-3.56
50,-206,-209,-109,-782,3831,-4.58,0.23,-24.61,-1.09,-7.82,38.31,-8.57,-3.58,28.30,-0.11,3.93,-2.62
122,-189,-204,-123,-748,3731,-3.38,-0.95,-23.40,-1.23,-7.48,37.31,-8.59,-3.58,28.39,-1.23,3.56,-2.37
144,-157,-110,-27,-595,3677,-2.16,-1.81,-21.73,-0.27,-5.95,36.77,-8.59,-3.58,28.47,-1.51,2.95,-4.97
121,-131,-86,-71,-570,3606,-1.21,-2.43,-20.08,-0.71,-5.70,36.06,-8.59,-3.58,28.55,-1.05,2.46,-5.20
-29,-36,-48,-106,-496,3613,-1.26,-2.41,-18.37,-1.06,-4.96,36.13,-8.59,-3.59,28.62,1.49,0.85,-5.89
-51,3,-67,-66,-521,3618,-1.45,-2.15,-16.94,-0.66,-5.21,36.18,-8.59,-3.59,28.69,1.85,0.21,-4.75
-98,126,-188,-15,-644,3779,-1.90,-1.16,-16.39,-0.15,-6.44,37.79,-8.60,-3.58,28.75,2.61,-1.80,-0.45
-135,155,-218,38,-711,3801,-2.54,-0.10,-16.08,0.38,-7.11,38.01,-8.62,-3.58,28.82,3.19,-2.21,0.67
-160,157,-118,37,-735,3834,-3.26,0.87,-15.19,0.37,-7.35,38.34,-8.64,-3.57,28.88,3.56,-2.17,-2.41
-149,150,-63,0,-726,3851,-3.84,1.69,-14.06,0.00,-7.26,38.51,-8.66,-3.55,28.93,3.33,-1.99,-3.88
-113,56,123,-79,-765,3885,-4.15,1.87,-11.90,-0.79,-7.65,38.85,-8.68,-3.54,28.98,2.70,-0.39,-9.42
-72,44,154,-101,-782,3893,-4.17,1.95,-9.77,-1.01,-7.82,38.93,-8.70,-3.52,29.02,2.01,-0.18,-9.72
24,-39,221,-136,-512,3938,-3.61,1.52,-7.45,-1.36,-5.12,39.38,-8.71,-3.50,29.05,0.43,1.19,-11.18
104,-45,237,-57,-448,3759,-2.61,1.09,-5.26,-0.57,-4.48,37.59,-8.71,-3.48,29.07,-0.85,1.26,-10.95
257,-123,213,116,-414,3931,-0.78,0.23,-3.43,1.16,-4.14,39.31,-8.70,-3.47,29.09,-3.31,2.52,-9.49
260,-127,176,159,-434,3876,0.88,-0.57,-2.01,1.59,-4.34,38.76,-8.68,-3.47,29.10,-3.24,2.52,-7.74
145,-95,62,294,-429,3942,1.68,-1.09,-1.44,2.94,-4.29,39.42,-8.65,-3.48,29.10,-1.23,1.94,-3.67
19,-86,59,320,-461,3869,1.63,-1.51,-0.93,3.20,-4.61,38.69,-8.63,-3.50,29.11,0.90,1.76,-3.39
-157,-38,152,128,-582,3855,0.51,-1.59,0.09,1.28,-5.82,38.55,-8.63,-3.48,29.10,3.79,0.94,-6.19
-155,-16,197,80,-617,3739,-0.49,-1.53,1.28,0.80,-6.17,37.39,-8.64,-3.47,29.10,3.69,0.57,-7.29
-136,36,346,-110,-741,3900,-1.27,-1.15,3.26,-1.10,-7.41,39.00,-8.65,-3.46,29.08,3.31,-0.28,-11.64
-161,40,379,-151,-762,3892,-2.13,-0.79,5.25,-1.51,-7.62,38.92,-8.67,-3.44,29.06,3.67,-0.33,-12.06
-265,26,490,-50,-663,3911,-3.53,-0.56,7.71,-0.50,-6.63,39.11,-8.69,-3.42,29.03,5.33,-0.07,-14.95
-270,14,522,-94,-653,3878,-4.82,-0.42,10.13,-0.94,-6.53,38.78,-8.71,-3.40,28.99,5.32,0.14,-15.19
-77,52,595,-120,-718,3784,-4.81,-0.06,12.74,-1.20,-7.18,37.84,-8.74,-3.37,28.94,2.05,-0.48,-16.74
-25,71,601,-99,-724,3850,-4.48,0.38,15.13,-0.99,-7.24,38.50,-8.77,-3.35,28.88,1.20,-0.77,-16.10
-32,168,615,-46,-841,3983,-4.23,1.37,17.37,-0.46,-8.41,39.83,-8.80,-3.32,28.81,1.34,-2.35,-15.78
-162,216,647,-106,-829,4149,-4.79,2.55,19.58,-1.06,-8.29,41.49,-8.83,-3.28,28.73,3.50,-3.08,-16.09
-567,163,768,-270,-817,4130,-7.77,3.29,22.31,-2.70,-8.17,41.30,-8.88,-3.23,28.65,10.14,-2.13,-19.22
-615,141,808,-317,-788,4133,-10.75,3.82,25.01,-3.17,-7.88,41.33,-8.93,-3.18,28.55,10.74,-1.72,-19.63
-541,77,914,-299,-644,4092,-12.97,3.91,28.08,-2.99,-6.44,40.92,-8.99,-3.13,28.44,9.32,-0.63,-22.13
-484,60,931,-334,-588,4162,-14.63,3.88,30.95,-3.34,-5.88,41.62,-9.05,-3.08,28.32,8.24,-0.35,-21.70
-222,14,924,-302,-552,4171,-14.52,3.58,33.49,-3.02,-5.52,41.71,-9.11,-3.03,28.19,3.81,0.40,-20.56
-177,-10,900,-313,-563,4253,-14.15,3.16,35.63,-3.13,-5.63,42.53,-9.17,-2.97,28.05,3.09,0.76,-18.99
-73,-125,784,-301,-681,4115,-13.18,2.08,36.85,-3.01,-6.81,41.15,-9.23,-2.92,27.91,1.41,2.62,-14.62
-34,-141,764,-262,-714,4135,-12.07,1.01,37.83,-2.62,-7.14,41.35,-9.29,-2.88,27.76,0.84,2.81,-13.60
51,-157,786,-159,-683,4055,-10.55,-0.04,38.84,-1.59,-6.83,40.55,-9.34,-2.83,27.61,-0.48,3.00,-13.98
-18,-183,847,-96,-607,4101,-9.60,-1.16,40.12,-0.96,-6.07,41.01,-9.38,-2.80,27.45,0.76,3.35,-15.60
-210,-225,987,-12,-568,3882,-9.93,-2.41,42.13,-0.12,-5.68,38.82,-9.42,-2.76,27.28,4.00,3.96,-19.63
-211,-217,1008,-10,-549,3867,-10.22,-3.50,44.07,-0.10,-5.49,38.67,-9.47,-2.73,27.10,4.00,3.74,-19.65
-82,-194,1011,-114,-706,3673,-9.70,-4.33,45.83,-1.14,-7.06,36.73,-9.52,-2.70,26.92,1.86,3.28,-19.13
-3,-178,996,-199,-794,3686,-8.75,-4.98,47.32,-1.99,-7.94,36.86,-9.57,-2.67,26.73,0.60,2.96,-18.09
221,-125,1014,-231,-842,3683,-6.52,-5.25,48.77,-2.31,-8.42,36.83,-9.61,-2.64,26.53,-3.03,2.04,-18.18
208,-128,1052,-219,-815,3752,-4.60,-5.50,50.31,-2.19,-8.15,37.52,-9.65,-2.61,26.33,-2.66,2.07,-18.92
-20,-73,1242,-160,-787,3764,-4.26,-5.40,52.86,-1.60,-7.87,37.64,-9.68,-2.58,26.12,1.24,1.14,-24.46
-48,-15,1291,-182,-757,3793,-4.13,-4.95,55.45,-1.82,-7.57,37.93,-9.72,-2.55,25.90,1.73,0.19,-25.20
-143,161,1391,-260,-685,3936,-4.59,-3.47,58.39,-2.60,-6.85,39.36,-9.74,-2.50,25.66,3.30,-2.69,-27.55
-189,214,1396,-69,-630,4035,-5.28,-1.82,61.06,-0.69,-6.30,40.35,-9.77,-2.45,25.42,4.03,-3.47,-26.77
-86,223,1336,-79,-628,3926,-5.28,-0.28,63.11,-0.79,-6.28,39.26,-9.80,-2.39,25.17,2.29,-3.51,-24.01
32,209,1317,-72,-731,3909,-4.56,1.03,64.83,-0.72,-7.31,39.09,-9.83,-2.32,24.92,0.35,-3.18,-22.75
344,141,1262,54,-860,4006,-2.00,1.78,66.05,0.54,-8.60,40.06,-9.87,-2.26,24.66,-4.74,-1.98,-20.46
360,100,1261,38,-896,4024,0.39,2.21,67.13,0.38,-8.96,40.24,-9.89,-2.20,24.39,-4.82,-1.26,-20.03
256,-14,1359,264,-791,3960,1.92,1.91,68.71,2.64,-7.91,39.60,-9.91,-2.16,24.12,-2.94,0.64,-22.79
213,-18,1409,314,-764,3930,3.02,1.61,70.43,3.14,-7.64,39.30,-9.91,-2.12,23.85,-2.13,0.68,-23.87
69,46,1668,64,-661,3828,3.14,1.73,73.57,0.64,-6.61,38.28,-9.91,-2.04,23.56,0.32,-0.40,-31.54
16,64,1705,-37,-550,3815,2.93,1.94,76.61,-0.37,-5.50,38.15,-9.90,-1.97,23.26,1.20,-0.70,-31.71
88,227,1670,-106,-607,3828,3.17,3.13,79.14,-1.06,-6.07,38.28,-9.89,-1.88,22.95,-0.00,-3.38,-29.63
66,261,1628,-127,-626,4030,3.26,4.41,81.15,-1.27,-6.26,40.30,-9.88,-1.79,22.63,0.37,-3.87,-27.48
-12,266,1585,169,-442,3954,2.86,5.59,82.71,1.69,-4.42,39.54,-9.86,-1.72,22.31,1.66,-3.88,-25.47
-13,257,1589,240,-414,4028,2.49,6.60,84.13,2.40,-4.14,40.28,-9.84,-1.64,21.98,1.65,-3.66,-25.10
-23,161,1657,143,-244,3940,2.10,6.92,85.82,1.43,-2.44,39.40,-9.83,-1.55,21.65,1.79,-2.02,-26.80
-17,122,1676,142,-240,3980,1.79,6.98,87.46,1.42,-2.40,39.80,-9.81,-1.47,21.31,1.66,-1.36,-26.85
51,20,1608,37,-427,3940,1.92,6.40,88.53,0.37,-4.27,39.40,-9.79,-1.38,20.96,0.52,0.31,-24.16
94,23,1555,25,-446,3958,2.30,5.90,89.16,0.25,-4.46,39.58,-9.78,-1.29,20.62,-0.19,0.21,-22.13
135,55,1367,152,-505,4005,2.90,5.65,88.58,1.52,-5.05,40.05,-9.76,-1.21,20.27,-0.84,-0.36,-15.95
111,77,1332,208,-548,4032,3.28,5.55,87.85,2.08,-5.48,40.32,-9.74,-1.14,19.93,-0.40,-0.75,-15.01
2,190,1286,434,-924,4047,2.97,6.16,86.91,4.34,-9.24,40.47,-9.74,-1.08,19.59,1.42,-2.63,-13.77
15,313,1393,364,-1178,4051,2.76,7.45,86.72,3.64,-11.78,40.51,-9.75,-1.00,19.25,1.19,-4.62,-17.45
-48,477,1552,275,-1538,4076,2.19,9.61,87.51,2.75,-15.38,40.76,-9.76,-0.90,18.92,2.21,-7.25,-22.55
-54,514,1631,256,-1645,4087,1.64,11.79,88.71,2.56,-16.45,40.87,-9.78,-0.80,18.57,2.27,-7.72,-24.79
-171,566,2072,65,-1404,4056,0.44,14.06,92.48,0.65,-14.04,40.56,-9.80,-0.68,18.22,4.17,-8.45,-38.39
-245,540,2303,82,-1249,4104,-1.10,15.95,97.28,0.82,-12.49,41.04,-9.83,-0.55,17.85,5.31,-7.88,-44.52
-280,615,3043,-299,-1200,3900,-2.70,18.11,106.11,-2.99,-12.00,39.00,-9.86,-0.40,17.44,5.78,-9.00,-66.47
-279,575,3178,-400,-1119,3873,-4.13,19.80,114.89,-4.00,-11.19,38.73,-9.89,-0.23,17.00,5.66,-8.22,-67.93
-501,288,3577,-937,-811,3967,-6.77,19.58,125.22,-9.37,-8.11,39.67,-9.92,-0.05,16.52,9.23,-3.40,-77.80
-576,177,3630,-952,-718,3882,-9.61,18.70,134.84,-9.52,-7.18,38.82,-9.96,0.14,16.00,10.29,-1.60,-76.19
-732,-175,3608,-880,-269,3893,-13.11,15.76,143.36,-8.80,-2.69,38.93,-10.00,0.31,15.45,12.67,4.11,-72.42
-732,-261,3510,-943,-384,3820,-16.27,12.60,150.44,-9.43,-3.84,38.20,-10.06,0.49,14.86,12.44,5.31,-66.58
-355,-251,2750,-711,-265,3679,-16.81,9.80,152.17,-7.11,-2.65,36.79,-10.11,0.65,14.27,6.01,4.91,-40.19
-143,-211,2690,-622,-270,3566,-16.00,7.54,153.36,-6.22,-2.70,35.66,-10.16,0.80,13.67,2.49,4.04,-37.72
-3,-285,2041,-234,-48,4059,-14.42,5.04,150.48,-2.34,-0.48,40.59,-10.19,0.93,13.08,0.24,5.09,-16.72
-39,-271,1839,-324,128,3978,-13.21,2.89,146.65,-3.24,1.28,39.78,-10.21,1.05,12.51,0.95,4.68,-11.20
-23,-187,1213,-127,231,3857,-12.03,1.46,139.38,-1.27,2.31,38.57,-10.23,1.16,11.96,0.77,3.13,7.48
28,-208,1075,-122,211,3656,-10.66,0.04,132.00,-1.22,2.11,36.56,-10.25,1.25,11.44,0.01,3.37,9.57
498,-174,626,-37,-40,3458,-6.55,-1.02,122.62,-0.37,-0.40,34.58,-10.24,1.33,10.96,-7.65,2.70,21.50
586,-193,510,-23,-136,3575,-2.32,-2.10,113.47,-0.23,-1.36,35.75,-10.22,1.40,10.51,-8.82,2.93,22.23
783,-129,194,140,-430,3558,2.68,-2.67,103.30,1.40,-4.30,35.58,-10.19,1.45,10.10,-11.78,1.80,29.37
775,-83,127,174,-557,3575,7.14,-2.91,93.75,1.74,-5.57,35.75,-10.15,1.49,9.73,-11.31,1.00,28.29
788,81,195,337,-1017,3628,11.24,-2.13,85.56,3.37,-10.17,36.28,-10.11,1.53,9.39,-11.23,-1.73,23.12
763,118,278,350,-1135,3714,14.77,-1.20,78.70,3.50,-11.35,37.14,-10.05,1.57,9.08,-10.54,-2.29,17.90
464,193,409,297,-834,3838,16.12,0.10,73.33,2.97,-8.34,38.38,-9.99,1.60,8.79,-5.38,-3.46,11.58
364,215,454,287,-808,3862,16.73,1.40,68.76,2.87,-8.08,38.62,-9.92,1.64,8.52,-3.65,-3.74,8.45
505,394,795,335,-751,3746,18.14,3.67,66.74,3.35,-7.51,37.46,-9.84,1.68,8.26,-5.94,-6.61,-3.81
493,392,913,289,-734,3932,19.33,5.69,65.63,2.89,-7.34,39.32,-9.76,1.73,8.00,-5.66,-6.43,-8.18
269,153,1269,79,-733,3967,19.04,6.05,66.81,0.79,-7.33,39.67,-9.68,1.78,7.75,-1.90,-2.36,-19.82
239,101,1327,69,-758,3921,18.59,6.07,68.22,0.69,-7.58,39.21,-9.60,1.83,7.48,-1.43,-1.48,-21.28
179,-104,1383,89,-702,3963,17.82,4.82,69.84,0.89,-7.02,39.63,-9.53,1.88,7.21,-0.48,1.89,-22.60
246,-110,1357,125,-673,3882,17.54,3.67,71.13,1.25,-6.73,38.82,-9.45,1.92,6.93,-1.65,1.90,-21.25
510,-33,1318,163,-593,3820,18.90,3.10,72.06,1.63,-5.93,38.20,-9.36,1.96,6.65,-6.03,0.55,-19.59
588,6,1322,179,-572,3831,20.60,2.83,72.92,1.79,-5.72,38.31,-9.26,2.00,6.36,-7.24,-0.14,-19.42
590,1,1422,115,-529,3945,22.14,2.55,74.30,1.15,-5.29,39.45,-9.16,2.04,6.07,-7.17,-0.08,-22.31
562,-22,1474,43,-481,3905,23.35,2.16,75.86,0.43,-4.81,39.05,-9.04,2.09,5.77,-6.62,0.28,-23.51
595,-63,1641,44,-234,3860,24.64,1.56,78.28,0.44,-2.34,38.60,-8.92,2.13,5.46,-7.09,0.92,-28.30
657,-33,1655,30,-182,3859,26.19,1.20,80.55,0.30,-1.82,38.59,-8.78,2.18,5.14,-8.04,0.38,-27.97
798,82,1576,53,-105,4067,28.44,1.58,82.11,0.53,-1.05,40.67,-8.64,2.23,4.82,-10.28,-1.55,-24.73
782,102,1529,71,-45,4120,30.36,2.05,83.23,0.71,-0.45,41.20,-8.49,2.28,4.49,-9.88,-1.86,-22.73
577,104,1387,8,1,4169,30.85,2.48,83.36,0.08,0.01,41.69,-8.33,2.34,4.16,-6.39,-1.87,-17.86
515,98,1330,-32,-79,4096,30.90,2.83,83.14,-0.32,-0.79,40.96,-8.18,2.39,3.83,-5.36,-1.75,-15.99
630,52,1276,-140,-221,4045,31.66,2.86,82.61,-1.40,-2.21,40.45,-8.02,2.45,3.50,-7.27,-0.97,-14.33
618,16,1286,-117,-246,3975,32.26,2.67,82.19,-1.17,-2.46,39.75,-7.86,2.50,3.18,-7.04,-0.38,-14.81
571,-41,1388,-51,-269,3913,32.52,2.16,82.44,-0.51,-2.69,39.13,-7.70,2.54,2.85,-6.24,0.54,-18.17
568,-34,1433,-81,-278,3890,32.73,1.73,82.94,-0.81,-2.78,38.90,-7.54,2.59,2.52,-6.20,0.38,-19.50
625,66,1593,-60,-247,3764,33.27,1.96,84.36,-0.60,-2.47,37.64,-7.37,2.63,2.19,-7.14,-1.30,-24.41
624,104,1638,-59,-235,3809,33.75,2.40,85.92,-0.59,-2.35,38.09,-7.20,2.68,1.85,-7.11,-1.92,-25.37
480,284,1787,-84,-246,3944,33.30,3.89,88.23,-0.84,-2.46,39.44,-7.04,2.73,1.50,-4.73,-4.86,-29.60
386,330,1829,-106,-238,4011,32.33,5.52,90.56,-1.06,-2.38,40.11,-6.87,2.79,1.14,-3.23,-5.52,-30.19
49,506,2000,-202,-195,3996,29.39,8.05,93.70,-2.02,-1.95,39.96,-6.72,2.87,0.77,2.24,-8.32,-34.86
-58,578,2086,-284,-184,3966,26.10,10.77,97.06,-2.84,-1.84,39.66,-6.58,2.96,0.39,3.79,-9.35,-36.58
-74,669,2189,-402,-236,3845,23.04,13.78,100.71,-4.02,-2.36,38.45,-6.45,3.07,-0.01,3.81,-10.68,-38.77
-8,690,2200,-435,-244,3762,20.69,16.61,104.06,-4.35,-2.44,37.62,-6.34,3.20,-0.41,2.50,-10.83,-37.95
206,428,2219,-648,-52,3380,19.87,17.56,107.19,-6.48,-0.52,33.80,-6.22,3.33,-0.83,-1.20,-6.34,-37.47
266,308,2211,-574,-23,3316,19.51,17.68,109.95,-5.74,-0.23,33.16,-6.11,3.46,-1.26,-2.26,-4.31,-36.21
578,73,2104,-510,20,3280,21.08,16.36,111.79,-5.10,0.20,32.80,-5.98,3.59,-1.70,-7.45,-0.45,-31.92
672,86,2066,-482,27,3298,23.07,15.25,113.22,-4.82,0.27,32.98,-5.85,3.71,-2.15,-8.90,-0.77,-30.11
689,235,1886,-432,97,3592,24.97,15.16,113.40,-4.32,0.97,35.92,-5.70,3.82,-2.60,-9.07,-3.31,-23.93
593,287,1843,-421,19,3636,26.09,15.39,113.30,-4.21,0.19,36.36,-5.55,3.93,-3.04,-7.37,-4.19,-22.49
181,550,1873,-494,-279,3857,24.59,17.21,113.40,-4.94,-2.79,38.57,-5.41,4.06,-3.49,-0.53,-8.52,-23.46
-95,630,1923,-559,-215,3946,21.55,19.33,113.79,-5.59,-2.15,39.46,-5.28,4.20,-3.94,3.91,-9.74,-25.00
-480,674,2109,-611,-1,3996,16.46,21.51,115.27,-6.11,-0.01,39.96,-5.17,4.34,-4.39,10.03,-10.33,-30.76
-427,739,2176,-604,65,3943,12.21,23.86,117.02,-6.04,0.65,39.43,-5.07,4.49,-4.85,8.80,-11.28,-32.40
-268,663,2452,-736,510,4043,9.36,25.52,120.28,-7.36,5.10,40.43,-4.98,4.64,-5.33,5.88,-9.88,-40.58
-297,587,2447,-842,826,4010,6.61,26.55,123.17,-8.42,8.26,40.10,-4.90,4.79,-5.81,6.15,-8.54,-39.38
-375,391,2232,-740,679,4034,3.66,26.28,124.47,-7.40,6.79,40.34,-4.82,4.95,-6.30,7.24,-5.26,-31.61
-361,388,2145,-874,665,4072,1.09,26.02,125.11,-8.74,6.65,40.72,-4.76,5.10,-6.79,6.80,-5.24,-28.42
-304,438,1652,-812,646,4177,-0.87,26.09,122.68,-8.12,6.46,41.77,-4.70,5.25,-7.28,5.68,-6.11,-12.55
-327,440,1450,-809,616,4230,-2.78,26.16,119.25,-8.09,6.16,42.30,-4.65,5.40,-7.75,5.92,-6.15,-6.90
-531,281,1022,-719,318,4216,-5.74,25.26,113.56,-7.19,3.18,42.16,-4.62,5.55,-8.20,9.14,-3.55,5.62
-498,254,896,-710,136,4134,-8.20,24.29,107.67,-7.10,1.36,41.34,-4.59,5.69,-8.62,8.40,-3.18,7.83
-304,186,845,-674,-261,4046,-9.24,22.99,102.06,-6.74,-2.61,40.46,-4.59,5.83,-9.02,5.03,-2.14,7.60
-203,168,887,-666,-376,4055,-9.55,21.72,97.26,-6.66,-3.76,40.55,-4.59,5.97,-9.41,3.30,-1.95,4.50
-8,61,1286,-610,-895,4008,-8.65,19.92,95.38,-6.10,-8.95,40.08,-4.60,6.08,-9.78,0.06,-0.29,-9.67
73,65,1441,-643,-385,3950,-7.34,18.32,94.63,-6.43,-3.85,39.50,-4.60,6.20,-10.15,-1.21,-0.50,-15.17
228,136,1719,-737,-476,4159,-5.21,17.32,95.66,-7.37,-4.76,41.59,-4.58,6.32,-10.53,-3.68,-1.79,-24.22
213,119,1792,-729,-541,4151,-3.39,16.31,97.02,-7.29,-5.41,41.51,-4.57,6.43,-10.91,-3.29,-1.59,-26.20
118,42,2028,-794,-574,4123,-2.33,14.94,99.69,-7.94,-5.74,41.23,-4.54,6.54,-11.31,-1.60,-0.40,-33.24
88,-23,2071,-789,-552,4063,-1.56,13.30,102.35,-7.89,-5.52,40.63,-4.51,6.64,-11.71,-1.04,0.56,-33.74
365,-48,2165,-858,-388,3788,0.82,11.68,105.33,-8.58,-3.88,37.88,-4.46,6.73,-12.13,-5.56,0.85,-35.87
627,-20,2211,-877,-262,3841,4.56,10.39,108.28,-8.77,-2.62,38.41,-4.39,6.83,-12.56,-9.72,0.26,-36.37
986,34,2247,-967,60,4021,10.12,9.56,111.16,-9.67,0.60,40.21,-4.29,6.91,-13.01,-15.39,-0.72,-36.56
1005,18,2192,-968,242,4021,15.24,8.71,113.41,-9.68,2.42,40.21,-4.16,6.99,-13.46,-15.34,-0.53,-33.88
1032,-129,2077,-853,8,3802,20.01,7.05,114.74,-8.53,0.08,38.02,-4.01,7.07,-13.92,-15.46,1.83,-29.50
1077,-165,2032,-897,49,3791,24.58,5.34,115.66,-8.97,0.49,37.91,-3.85,7.14,-14.39,-15.90,2.30,-27.63
1318,-221,1786,-889,101,3760,30.16,3.46,114.99,-8.89,1.01,37.60,-3.66,7.19,-14.85,-19.58,3.10,-19.51
1374,-197,1728,-863,108,3831,35.53,1.91,114.03,-8.63,1.08,38.31,-3.44,7.24,-15.31,-20.15,2.57,-17.87
1526,-45,1627,-853,129,4050,41.28,1.45,112.55,-8.53,1.29,40.50,-3.21,7.29,-15.77,-22.32,-0.05,-14.95
1508,-48,1624,-861,132,4097,46.35,1.01,111.21,-8.61,1.32,40.97,-2.95,7.33,-16.22,-21.66,-0.04,-15.30
1179,-301,1666,-887,168,4088,48.91,-0.93,110.25,-8.87,1.68,40.88,-2.69,7.36,-16.66,-15.93,4.10,-17.05
1062,-429,1696,-886,171,3982,50.50,-3.45,109.57,-8.86,1.71,39.82,-2.41,7.38,-17.11,-13.86,6.08,-18.29
1510,-383,1763,-913,293,3647,54.66,-5.44,109.37,-9.13,2.93,36.47,-2.13,7.39,-17.55,-21.17,5.14,-20.61
1513,-415,1773,-892,330,3958,58.42,-7.43,109.24,-8.92,3.30,39.58,-1.82,7.38,-17.99,-20.98,5.54,-20.98
1479,-453,1723,-895,362,3760,61.60,-9.45,108.83,-8.95,3.62,37.60,-1.50,7.37,-18.43,-20.20,6.03,-19.41
1497,-425,1695,-882,424,3870,64.57,-11.10,108.29,-8.82,4.24,38.70,-1.17,7.35,-18.87,-20.32,5.43,-18.64
1250,-508,1573,-847,580,3870,65.74,-13.09,107.05,-8.47,5.80,38.70,-0.84,7.31,-19.31,-16.09,6.69,-14.92
1132,-539,1534,-840,619,3905,66.07,-15.07,105.71,-8.40,6.19,39.05,-0.50,7.26,-19.74,-14.11,7.07,-14.06
751,-553,1385,-860,767,3804,64.05,-16.93,103.58,-8.60,7.67,38.04,-0.18,7.20,-20.16,-7.85,7.18,-9.74
719,-534,1342,-864,795,3893,62.03,-18.50,101.41,-8.64,7.95,38.93,0.14,7.14,-20.57,-7.50,6.75,-9.03
449,-465,1120,-813,849,4298,58.56,-19.48,98.10,-8.13,8.49,42.98,0.44,7.06,-20.97,-3.23,5.51,-2.66
337,-462,988,-798,894,4342,54.76,-20.35,94.32,-7.98,8.94,43.42,0.72,6.98,-21.35,-1.65,5.40,0.50
278,-613,721,-723,882,4374,50.98,-22.06,89.29,-7.23,8.82,43.74,0.99,6.89,-21.71,-0.97,7.85,7.79
293,-684,651,-682,821,4329,47.67,-24.02,84.33,-6.82,8.21,43.29,1.24,6.80,-22.05,-1.51,8.91,8.43
410,-1071,486,-517,655,3848,45.41,-28.15,78.86,-5.17,6.55,38.48,1.47,6.68,-22.37,-3.69,15.17,12.10
449,-1191,480,-476,619,3671,43.60,-32.60,73.90,-4.76,6.19,36.71,1.70,6.54,-22.66,-4.52,16.89,10.57
630,-1368,603,-353,522,3200,43.09,-37.69,70.19,-3.53,5.22,32.00,1.92,6.38,-22.94,-7.66,19.52,5.11
719,-1289,664,-342,518,3110,43.16,-41.78,67.22,-3.42,5.18,31.10,2.14,6.20,-23.21,-9.19,17.89,2.00
783,-786,873,-252,568,3336,43.62,-42.40,65.82,-2.52,5.68,33.36,2.36,6.02,-23.47,-10.26,9.35,-5.56
480,-791,911,-216,586,3653,42.19,-42.98,64.80,-2.16,5.86,36.53,2.57,5.83,-23.72,-5.27,9.41,-7.20
-125,-397,944,-252,566,3640,37.21,-41.11,64.08,-2.52,5.66,36.40,2.76,5.65,-23.97,4.58,2.90,-8.56
-275,-293,943,-282,629,3761,31.81,-38.78,63.42,-2.82,6.29,37.61,2.93,5.48,-24.22,6.69,1.34,-8.75
-257,-267,966,-319,750,3783,27.06,-36.53,62.97,-3.19,7.50,37.83,3.08,5.32,-24.47,6.01,1.09,-9.68
-225,-328,974,-328,814,3851,22.98,-34.88,62.62,-3.28,8.14,38.51,3.22,5.16,-24.71,5.14,2.27,-10.06
175,-435,964,-412,1035,3577,21.75,-34.05,62.24,-4.12,10.35,35.77,3.34,5.01,-24.96,-1.74,4.16,-9.85
306,-438,939,-432,1167,3584,21.44,-33.31,61.74,-4.32,11.67,35.84,3.47,4.87,-25.20,-4.00,4.29,-9.17
477,-434,791,-437,1128,3494,22.21,-32.63,60.39,-4.37,11.28,34.94,3.59,4.73,-25.43,-6.86,4.29,-4.62
423,-424,738,-438,1111,3483,22.57,-31.95,58.85,-4.38,11.11,34.83,3.72,4.59,-25.66,-5.93,4.19,-3.36
93,-246,554,-442,898,3470,20.88,-30.26,56.35,-4.42,8.98,34.70,3.84,4.45,-25.88,-0.48,1.32,2.01
0,-190,522,-432,847,3510,18.79,-28.39,53.90,-4.32,8.47,35.10,3.95,4.33,-26.09,0.92,0.53,2.23
-291,-83,491,-415,650,3483,15.14,-26.06,51.50,-4.15,6.50,34.83,4.04,4.22,-26.29,5.56,-1.10,2.45
-317,-46,519,-416,580,3538,11.69,-23.73,49.52,-4.16,5.80,35.38,4.12,4.12,-26.48,5.73,-1.53,0.81
-217,-18,632,-418,579,3689,9.20,-21.47,48.42,-4.18,5.79,36.89,4.18,4.03,-26.67,3.84,-1.82,-3.40
-227,-50,665,-430,601,3783,6.89,-19.63,47.64,-4.30,6.01,37.83,4.24,3.94,-26.86,3.83,-1.13,-4.79
-347,-205,747,-436,623,3833,4.09,-18.92,47.43,-4.36,6.23,38.33,4.29,3.86,-27.04,5.64,1.56,-7.63
-359,-231,753,-439,628,3880,1.49,-18.43,47.28,-4.39,6.28,38.80,4.32,3.78,-27.23,5.64,2.05,-7.88
-195,-261,736,-431,679,3691,0.15,-18.18,47.04,-4.31,6.79,36.91,4.35,3.70,-27.41,2.76,2.58,-7.38
-198,-291,725,-423,668,3734,-1.07,-18.14,46.76,-4.23,6.68,37.34,4.37,3.62,-27.59,2.71,3.11,-7.10
-155,-303,656,-416,600,3570,-1.91,-18.17,46.09,-4.16,6.00,35.70,4.39,3.55,-27.77,1.92,3.32,-4.99
-102,-259,637,-424,570,3590,-2.34,-17.94,45.36,-4.24,5.70,35.90,4.41,3.47,-27.95,0.99,2.60,-4.60
-26,-135,603,-355,439,3694,-2.27,-16.97,44.50,-3.55,4.39,36.94,4.42,3.40,-28.12,-0.30,0.58,-3.74
-95,-127,614,-333,382,3825,-2.62,-16.04,43.80,-3.33,3.82,38.25,4.44,3.34,-28.29,0.84,0.52,-4.35
-260,-174,681,-326,278,3806,-3.94,-15.50,43.57,-3.26,2.78,38.06,4.43,3.28,-28.46,3.54,1.37,-6.70
-275,-199,707,-324,243,3799,-5.23,-15.16,43.53,-3.24,2.43,37.99,4.41,3.22,-28.63,3.70,1.82,-7.59
-95,-215,821,-305,220,3712,-5.28,-14.96,44.18,-3.05,2.20,37.12,4.39,3.17,-28.80,0.65,2.12,-11.21
-20,-210,866,-308,233,3728,-4.88,-14.74,45.05,-3.08,2.33,37.28,4.37,3.11,-28.98,-0.59,2.06,-12.43
34,-265,1042,-311,291,3766,-4.18,-14.89,46.90,-3.11,2.91,37.66,4.36,3.05,-29.16,-1.45,2.98,-17.73
56,-248,1099,-324,325,3791,-3.42,-14.91,48.91,-3.24,3.25,37.91,4.36,3.00,-29.35,-1.77,2.70,-18.95
91,-188,1203,-319,452,3824,-2.53,-14.57,51.36,-3.19,4.52,38.24,4.38,2.93,-29.55,-2.29,1.72,-21.60
63,-203,1217,-366,520,3841,-1.89,-14.35,53.65,-3.66,5.20,38.41,4.39,2.87,-29.76,-1.77,2.00,-21.26
127,-151,1213,-427,704,3814,-0.92,-13.83,55.68,-4.27,7.04,38.14,4.42,2.81,-29.98,-2.79,1.16,-20.40
198,-141,1156,-440,765,3797,0.38,-13.31,57.17,-4.40,7.65,37.97,4.45,2.75,-30.21,-3.89,1.04,-17.94
417,-145,959,-433,861,3707,2.88,-12.86,57.30,-4.33,8.61,37.07,4.49,2.68,-30.43,-7.42,1.15,-11.21
492,-133,906,-443,891,3655,5.59,-12.39,57.10,-4.43,8.91,36.55,4.53,2.62,-30.66,-8.49,0.99,-9.47
518,-116,764,-496,909,3539,8.20,-11.86,56.05,-4.96,9.09,35.39,4.59,2.57,-30.88,-8.74,0.75,-5.02
504,-71,717,-493,879,3466,10.45,-11.11,54.82,-4.93,8.79,34.66,4.66,2.51,-31.09,-8.34,0.05,-3.85
532,171,598,-517,863,3375,12.65,-8.95,52.98,-5.17,8.63,33.75,4.74,2.47,-31.30,-8.66,-3.88,-0.46
531,253,567,-491,844,3432,14.62,-6.51,51.14,-4.91,8.44,34.32,4.82,2.44,-31.51,-8.51,-5.08,-0.05
505,533,467,-474,773,3524,16.24,-2.61,48.88,-4.74,7.73,35.24,4.91,2.42,-31.70,-7.95,-9.53,2.55
518,616,435,-502,756,3542,17.78,1.41,46.64,-5.02,7.56,35.42,5.00,2.42,-31.89,-8.07,-10.63,2.85
593,711,379,-600,713,3668,19.62,5.60,44.29,-6.00,7.13,36.68,5.10,2.44,-32.07,-9.21,-11.92,3.93
622,702,373,-605,711,3774,21.45,9.33,42.14,-6.05,7.11,37.74,5.20,2.48,-32.24,-9.58,-11.49,3.38
664,625,407,-669,783,3942,23.36,12.21,40.41,-6.69,7.83,39.42,5.32,2.53,-32.41,-10.16,-9.98,1.63
658,574,422,-699,835,3987,25.03,14.49,38.94,-6.99,8.35,39.87,5.44,2.58,-32.57,-9.95,-8.95,0.61
668,372,441,-719,932,4019,26.60,15.31,37.74,-7.19,9.32,40.19,5.56,2.64,-32.72,-10.01,-5.47,-0.45
681,289,423,-718,965,4033,28.10,15.54,36.54,-7.18,9.65,40.33,5.69,2.70,-32.88,-10.14,-4.05,-0.26
732,85,332,-748,1072,3972,29.75,14.50,34.91,-7.48,10.72,39.72,5.83,2.76,-33.02,-10.89,-0.68,2.26
766,31,295,-749,1094,3961,31.45,13.24,33.22,-7.49,10.94,39.61,5.98,2.81,-33.16,-11.36,0.13,2.92
1005,-5,188,-698,1101,3875,34.44,11.89,31.05,-6.98,11.01,38.75,6.14,2.85,-33.29,-15.20,0.63,5.79
965,-45,161,-698,1078,3930,36.88,10.42,28.92,-6.98,10.78,39.30,6.31,2.89,-33.41,-14.36,1.19,5.96
803,-90,74,-696,1074,3805,38.09,8.83,26.48,-6.96,10.74,38.05,6.48,2.93,-33.52,-11.54,1.83,8.05
681,-97,52,-706,1071,3790,38.43,7.36,24.15,-7.06,10.71,37.90,6.65,2.96,-33.62,-9.47,1.83,7.98
342,-110,47,-701,1064,3726,36.68,5.95,22.02,-7.01,10.64,37.26,6.82,2.98,-33.71,-3.88,1.94,7.40
253,-108,49,-684,1059,3720,34.55,4.70,20.12,-6.84,10.59,37.20,6.98,3.00,-33.79,-2.55,1.81,6.67
21,-74,53,-672,1100,3701,31.23,3.78,18.43,-6.72,11.00,37.01,7.12,3.02,-33.87,1.11,1.16,5.94
-9,-66,48,-678,1100,3692,28.05,3.00,16.88,-6.78,11.00,36.92,7.25,3.03,-33.94,1.37,0.97,5.57
52,-25,-26,-642,1066,3671,25.56,2.54,15.03,-6.42,10.66,36.71,7.37,3.05,-34.00,0.13,0.24,7.43
109,2,-52,-649,1095,3716,23.67,2.30,13.21,-6.49,10.95,37.16,7.48,3.06,-34.06,-0.99,-0.24,7.67
160,-13,-120,-730,1190,3741,22.28,1.99,11.16,-7.30,11.90,37.41,7.59,3.07,-34.10,-1.98,-0.01,9.25
139,-36,-149,-726,1188,3743,20.90,1.57,9.14,-7.26,11.88,37.43,7.69,3.08,-34.14,-1.74,0.34,9.52
155,-23,-302,-715,1218,3706,19.75,1.28,6.38,-7.15,12.18,37.06,7.78,3.10,-34.17,-2.11,0.10,13.74
70,-84,-355,-716,1266,3699,18.21,0.64,3.58,-7.16,12.66,36.99,7.87,3.11,-34.18,-0.79,1.08,14.55
137,-66,-452,-693,1173,3612,17.22,0.17,0.46,-6.93,11.73,36.12,7.96,3.12,-34.19,-2.01,0.74,16.74
