gyroADC_X,gyroADC_Y,gyroADC_Z,accADC_X,accADC_Y,accADC_Z,GyroX,GyroY,GyroZ,AccX,AccY,AccZ,roll_IMU,pitch_IMU,yaw_IMU,roll_PID,pitch_PID,yaw_PID
-1,1,-6,-55,-368,3947,-0.03,0.05,-0.34,-0.55,-3.68,39.47,-5.36,0.81,53.08,1.51,-0.30,-4.65
2,1,-4,-69,-371,3910,-0.01,0.05,-0.33,-0.69,-3.71,39.10,-5.36,0.83,53.08,0.81,-0.30,-4.81
1,3,-3,-48,-369,3921,-0.00,0.07,-0.31,-0.48,-3.69,39.21,-5.37,0.81,53.08,1.09,-0.75,-4.88
-1,2,-5,-14,-353,3962,-0.01,0.07,-0.31,-0.14,-3.53,39.62,-5.36,0.79,53.08,1.57,-0.47,-4.71
-2,3,-5,-74,-367,3940,-0.02,0.08,-0.31,-0.74,-3.67,39.40,-5.36,0.81,53.08,1.78,-0.69,-4.71
-3,5,-5,-71,-364,3962,-0.04,0.11,-0.31,-0.71,-3.64,39.62,-5.35,0.83,53.09,1.98,-1.12,-4.71
-3,3,-4,-85,-373,3948,-0.05,0.11,-0.30,-0.85,-3.73,39.48,-5.35,0.84,53.09,1.92,-0.59,-4.79
-3,4,-5,-71,-375,3942,-0.07,0.13,-0.30,-0.71,-3.75,39.42,-5.36,0.86,53.09,1.87,-0.80,-4.70
-2,4,-5,-68,-368,3955,-0.07,0.14,-0.30,-0.68,-3.68,39.55,-5.35,0.88,53.09,1.60,-0.76,-4.70
0,2,-4,-49,-366,3935,-0.06,0.14,-0.30,-0.49,-3.66,39.35,-5.35,0.86,53.09,1.11,-0.25,-4.78
2,1,-5,-31,-384,3921,-0.05,0.13,-0.30,-0.31,-3.84,39.21,-5.36,0.85,53.09,0.68,-0.02,-4.70
4,-1,-5,-19,-382,3940,-0.02,0.11,-0.30,-0.19,-3.82,39.40,-5.36,0.83,53.09,0.28,0.42,-4.70
2,-2,-6,-36,-370,3931,-0.00,0.09,-0.31,-0.36,-3.70,39.31,-5.37,0.81,53.09,0.84,0.59,-4.62
3,-1,-5,-55,-357,3941,0.02,0.07,-0.31,-0.55,-3.57,39.41,-5.35,0.81,53.10,0.65,0.28,-4.71
5,0,-5,-57,-353,3926,0.05,0.06,-0.31,-0.57,-3.53,39.26,-5.33,0.81,53.10,0.25,-0.00,-4.71
4,0,-5,-59,-359,3955,0.06,0.06,-0.31,-0.59,-3.59,39.55,-5.31,0.82,53.10,0.57,-0.03,-4.71
0,1,-4,-60,-365,3961,0.06,0.06,-0.30,-0.60,-3.65,39.61,-5.30,0.83,53.10,1.56,-0.28,-4.78
-2,2,-5,-84,-380,3950,0.04,0.07,-0.30,-0.84,-3.80,39.50,-5.31,0.85,53.10,2.00,-0.52,-4.70
-2,3,-5,-87,-389,3957,0.02,0.08,-0.30,-0.87,-3.89,39.57,-5.32,0.86,53.10,1.95,-0.73,-4.70
-3,3,-5,-58,-384,3943,0.00,0.09,-0.30,-0.58,-3.84,39.43,-5.34,0.86,53.10,2.13,-0.69,-4.70
-4,3,-5,-46,-374,3929,-0.02,0.10,-0.30,-0.46,-3.74,39.29,-5.34,0.84,53.10,2.29,-0.65,-4.70
-2,1,-5,-46,-370,3931,-0.03,0.09,-0.30,-0.46,-3.70,39.31,-5.35,0.83,53.11,1.74,-0.15,-4.70
-2,1,-5,-52,-362,3935,-0.04,0.09,-0.30,-0.52,-3.62,39.35,-5.33,0.81,53.11,1.71,-0.16,-4.70
-1,0,-4,-48,-360,3942,-0.04,0.08,-0.30,-0.48,-3.60,39.42,-5.32,0.80,53.11,1.44,0.06,-4.78
0,0,-5,-39,-366,3932,-0.04,0.07,-0.30,-0.39,-3.66,39.32,-5.32,0.78,53.11,1.20,0.04,-4.70
1,0,-4,-49,-376,3924,-0.03,0.07,-0.29,-0.49,-3.76,39.24,-5.34,0.78,53.11,0.99,0.01,-4.78
2,0,-5,-58,-378,3929,-0.01,0.06,-0.29,-0.58,-3.78,39.29,-5.35,0.78,53.11,0.80,-0.02,-4.70
2,-1,-5,-69,-391,3940,0.00,0.05,-0.29,-0.69,-3.91,39.40,-5.37,0.79,53.11,0.85,0.19,-4.70
0,0,-5,-71,-389,3940,0.00,0.04,-0.30,-0.71,-3.89,39.40,-5.38,0.81,53.11,1.36,-0.08,-4.70
-1,-1,-5,-57,-377,3935,-0.01,0.03,-0.30,-0.57,-3.77,39.35,-5.40,0.81,53.12,1.60,0.13,-4.70
0,0,-5,-55,-368,3934,-0.01,0.03,-0.30,-0.55,-3.68,39.34,-5.38,0.81,53.12,1.34,-0.14,-4.70
0,0,-6,-43,-360,3934,-0.00,0.03,-0.30,-0.43,-3.60,39.34,-5.37,0.79,53.12,1.34,-0.14,-4.62
0,0,-6,-41,-364,3933,-0.00,0.02,-0.31,-0.41,-3.64,39.33,-5.36,0.78,53.12,1.34,-0.15,-4.63
0,0,-4,-41,-365,3936,-0.00,0.02,-0.30,-0.41,-3.65,39.36,-5.36,0.76,53.12,1.34,-0.15,-4.79
1,0,-4,-40,-368,3936,0.00,0.02,-0.30,-0.40,-3.68,39.36,-5.36,0.74,53.12,1.11,-0.16,-4.78
1,1,-5,-51,-374,3920,0.01,0.02,-0.30,-0.51,-3.74,39.20,-5.37,0.74,53.12,1.14,-0.40,-4.70
1,1,-5,-59,-371,3926,0.01,0.03,-0.30,-0.59,-3.71,39.26,-5.38,0.76,53.12,1.16,-0.39,-4.70
1,0,-5,-61,-372,3937,0.02,0.02,-0.30,-0.61,-3.72,39.37,-5.38,0.78,53.13,1.18,-0.15,-4.70
1,0,-5,-62,-375,3941,0.02,0.02,-0.30,-0.62,-3.75,39.41,-5.39,0.79,53.13,1.19,-0.16,-4.70
1,-1,-6,-52,-372,3935,0.03,0.01,-0.31,-0.52,-3.72,39.35,-5.39,0.78,53.13,1.21,0.07,-4.62
1,0,-5,-52,-367,3939,0.03,0.01,-0.31,-0.52,-3.67,39.39,-5.38,0.77,53.13,1.22,-0.19,-4.71
0,1,-4,-54,-369,3937,0.03,0.02,-0.30,-0.54,-3.69,39.37,-5.36,0.78,53.13,1.46,-0.43,-4.79
0,0,-5,-54,-365,3939,0.02,0.02,-0.30,-0.54,-3.65,39.39,-5.34,0.78,53.13,1.44,-0.18,-4.70
-1,0,-5,-58,-353,3948,0.02,0.01,-0.30,-0.58,-3.53,39.48,-5.32,0.78,53.13,1.66,-0.19,-4.70
0,0,-5,-59,-361,3936,0.01,0.01,-0.30,-0.59,-3.61,39.36,-5.31,0.80,53.13,1.40,-0.20,-4.70
-1,2,-5,-54,-370,3932,0.01,0.02,-0.30,-0.54,-3.70,39.32,-5.33,0.79,53.13,1.63,-0.66,-4.70
-2,1,-5,-51,-372,3927,-0.01,0.03,-0.30,-0.51,-3.72,39.27,-5.34,0.78,53.14,1.84,-0.39,-4.71
-2,1,-5,-63,-367,3929,-0.02,0.03,-0.30,-0.63,-3.67,39.29,-5.34,0.80,53.14,1.79,-0.38,-4.71
-2,1,-4,-53,-362,3940,-0.03,0.03,-0.30,-0.53,-3.62,39.40,-5.33,0.79,53.14,1.75,-0.37,-4.79
-1,2,-4,-57,-365,3948,-0.03,0.04,-0.29,-0.57,-3.65,39.48,-5.31,0.81,53.14,1.48,-0.59,-4.78
-2,2,-4,-64,-366,3946,-0.04,0.05,-0.29,-0.64,-3.66,39.46,-5.31,0.82,53.14,1.70,-0.57,-4.78
-3,3,-4,-50,-364,3932,-0.05,0.06,-0.28,-0.50,-3.64,39.32,-5.31,0.81,53.14,1.90,-0.77,-4.77
-3,4,-5,-44,-361,3931,-0.07,0.08,-0.28,-0.44,-3.61,39.31,-5.30,0.79,53.14,1.85,-0.95,-4.69
-2,2,-5,-45,-368,3930,-0.07,0.09,-0.29,-0.45,-3.68,39.30,-5.31,0.77,53.14,1.58,-0.42,-4.69
-2,2,-5,-43,-371,3942,-0.08,0.09,-0.29,-0.43,-3.71,39.42,-5.31,0.76,53.14,1.56,-0.40,-4.69
-1,2,-5,-57,-373,3941,-0.08,0.09,-0.29,-0.57,-3.73,39.41,-5.33,0.77,53.15,1.32,-0.40,-4.70
-1,1,-4,-54,-374,3938,-0.07,0.09,-0.29,-0.54,-3.74,39.38,-5.35,0.77,53.15,1.33,-0.15,-4.78
-1,1,-4,-62,-381,3920,-0.07,0.09,-0.28,-0.62,-3.81,39.20,-5.36,0.78,53.15,1.34,-0.17,-4.77
-1,1,-4,-55,-377,3928,-0.07,0.08,-0.28,-0.55,-3.77,39.28,-5.38,0.78,53.15,1.34,-0.18,-4.77
0,0,-5,-58,-375,3931,-0.06,0.08,-0.28,-0.58,-3.75,39.31,-5.40,0.80,53.15,1.12,0.04,-4.69
0,-1,-5,-62,-377,3938,-0.06,0.06,-0.28,-0.62,-3.77,39.38,-5.41,0.81,53.15,1.15,0.24,-4.69
-1,0,-4,-51,-366,3941,-0.06,0.06,-0.28,-0.51,-3.66,39.41,-5.39,0.80,53.15,1.40,-0.03,-4.77
0,0,-5,-44,-366,3943,-0.05,0.05,-0.28,-0.44,-3.66,39.43,-5.38,0.78,53.15,1.16,-0.05,-4.69
1,0,-5,-56,-373,3950,-0.04,0.05,-0.28,-0.56,-3.73,39.50,-5.39,0.80,53.16,0.95,-0.07,-4.69
0,0,-6,-53,-377,3932,-0.04,0.04,-0.29,-0.53,-3.77,39.32,-5.41,0.79,53.16,1.23,-0.09,-4.61
1,1,-5,-57,-372,3942,-0.03,0.04,-0.29,-0.57,-3.72,39.42,-5.40,0.81,53.16,1.01,-0.34,-4.70
1,0,-4,-52,-374,3935,-0.02,0.04,-0.29,-0.52,-3.74,39.35,-5.41,0.79,53.16,1.04,-0.10,-4.78
0,0,-5,-51,-374,3943,-0.02,0.03,-0.29,-0.51,-3.74,39.43,-5.41,0.78,53.16,1.31,-0.11,-4.70
0,0,-4,-48,-376,3930,-0.02,0.03,-0.29,-0.48,-3.76,39.30,-5.42,0.76,53.16,1.31,-0.12,-4.78
0,1,-5,-51,-374,3929,-0.01,0.03,-0.29,-0.51,-3.74,39.29,-5.43,0.75,53.16,1.32,-0.36,-4.69
1,-1,-5,-57,-367,3944,-0.01,0.02,-0.29,-0.57,-3.67,39.44,-5.42,0.76,53.16,1.09,0.11,-4.70
0,1,-5,-60,-364,3927,-0.01,0.03,-0.29,-0.60,-3.64,39.27,-5.40,0.77,53.17,1.35,-0.38,-4.70
0,1,-5,-57,-368,3931,-0.00,0.03,-0.29,-0.57,-3.68,39.31,-5.39,0.78,53.17,1.35,-0.38,-4.70
1,-1,-5,-56,-377,3939,0.00,0.02,-0.29,-0.56,-3.77,39.39,-5.41,0.79,53.17,1.12,0.10,-4.70
0,0,-6,-61,-378,3941,0.00,0.02,-0.30,-0.61,-3.78,39.41,-5.42,0.80,53.17,1.38,-0.17,-4.62
0,0,-3,-51,-377,3935,0.00,0.02,-0.29,-0.51,-3.77,39.35,-5.43,0.79,53.17,1.38,-0.17,-4.87
0,-1,-4,-57,-369,3937,0.00,0.01,-0.28,-0.57,-3.69,39.37,-5.41,0.80,53.17,1.37,0.05,-4.78
0,0,-5,-61,-368,3934,0.00,0.01,-0.29,-0.61,-3.68,39.34,-5.40,0.81,53.17,1.37,-0.21,-4.69
1,0,-4,-49,-367,3940,0.01,0.01,-0.28,-0.49,-3.67,39.40,-5.39,0.80,53.17,1.14,-0.21,-4.78
1,0,-6,-53,-372,3936,0.01,0.01,-0.29,-0.53,-3.72,39.36,-5.40,0.78,53.17,1.16,-0.21,-4.61
1,0,-5,-54,-369,3937,0.02,0.01,-0.29,-0.54,-3.69,39.37,-5.38,0.78,53.18,1.17,-0.21,-4.70
0,-1,-5,-57,-371,3944,0.02,-0.00,-0.29,-0.57,-3.71,39.44,-5.38,0.80,53.18,1.42,0.01,-4.70
1,0,-5,-52,-368,3935,0.02,-0.00,-0.29,-0.52,-3.68,39.35,-5.37,0.78,53.18,1.18,-0.24,-4.70
1,0,-5,-57,-377,3935,0.02,-0.00,-0.30,-0.57,-3.77,39.35,-5.38,0.79,53.18,1.20,-0.24,-4.70
0,1,-5,-61,-372,3933,0.02,0.01,-0.30,-0.61,-3.72,39.33,-5.39,0.81,53.18,1.44,-0.48,-4.70
1,0,-4,-52,-371,3946,0.03,0.01,-0.29,-0.52,-3.71,39.46,-5.38,0.79,53.18,1.20,-0.22,-4.78
0,0,-4,-59,-373,3944,0.02,0.00,-0.29,-0.59,-3.73,39.44,-5.39,0.81,53.18,1.45,-0.23,-4.78
2,0,-5,-51,-376,3940,0.03,0.00,-0.29,-0.51,-3.76,39.40,-5.40,0.79,53.18,0.98,-0.23,-4.70
1,0,-5,-55,-375,3936,0.04,0.00,-0.29,-0.55,-3.75,39.36,-5.42,0.80,53.19,1.25,-0.23,-4.70
1,0,-5,-50,-377,3947,0.04,0.00,-0.29,-0.50,-3.77,39.47,-5.43,0.78,53.19,1.26,-0.23,-4.70
1,0,-5,-52,-376,3931,0.04,0.00,-0.29,-0.52,-3.76,39.31,-5.44,0.77,53.19,1.27,-0.22,-4.70
0,1,-5,-55,-375,3926,0.04,0.01,-0.29,-0.55,-3.75,39.26,-5.45,0.79,53.19,1.52,-0.46,-4.70
0,0,-5,-53,-372,3944,0.03,0.01,-0.30,-0.53,-3.72,39.44,-5.43,0.78,53.19,1.50,-0.21,-4.70
1,0,-5,-57,-367,3938,0.04,0.01,-0.30,-0.57,-3.67,39.38,-5.41,0.79,53.19,1.25,-0.21,-4.70
1,0,-4,-51,-368,3938,0.04,0.01,-0.29,-0.51,-3.68,39.38,-5.40,0.78,53.19,1.26,-0.21,-4.78
4,8,-6,-47,-368,3943,0.06,0.05,-0.30,-0.47,-3.68,39.43,-5.39,0.76,53.19,0.57,-2.06,-4.62
2,7,-5,-63,-381,3954,0.07,0.09,-0.30,-0.63,-3.81,39.54,-5.40,0.78,53.19,1.10,-1.67,-4.71
5,2,-59,-103,-552,3858,0.09,0.09,-0.63,-1.03,-5.52,38.58,-5.42,0.78,53.20,0.43,-0.39,-0.43
-2,-1,-99,-139,-555,3994,0.07,0.08,-1.17,-1.39,-5.55,39.94,-5.43,0.79,53.20,2.14,0.31,2.47
4,-4,-164,-154,-383,3995,0.09,0.05,-2.05,-1.54,-3.83,39.95,-5.43,0.81,53.21,0.68,0.95,7.17
5,-6,-155,-149,-345,3935,0.11,0.01,-2.79,-1.49,-3.45,39.35,-5.43,0.82,53.22,0.51,1.30,5.73
2,7,-120,23,-262,3948,0.11,0.05,-3.25,0.23,-2.62,39.48,-5.41,0.81,53.23,1.27,-1.85,2.36
2,1,-107,45,-294,3926,0.11,0.05,-3.57,0.45,-2.94,39.26,-5.40,0.80,53.25,1.27,-0.31,0.96
2,-5,-32,46,-278,3925,0.11,0.01,-3.41,0.46,-2.78,39.25,-5.39,0.78,53.26,1.27,1.08,-5.25
2,-7,-21,-19,-336,3924,0.11,-0.03,-3.20,-0.19,-3.36,39.24,-5.38,0.77,53.27,1.28,1.43,-5.99
0,0,-7,-68,-380,3938,0.10,-0.03,-2.92,-0.68,-3.80,39.38,-5.38,0.78,53.29,1.74,-0.34,-6.93
1,3,-9,-35,-363,3941,0.10,-0.01,-2.68,-0.35,-3.63,39.41,-5.38,0.76,53.30,1.47,-1.02,-6.54
3,2,-7,-45,-365,3939,0.11,0.01,-2.46,-0.45,-3.65,39.39,-5.37,0.75,53.31,0.99,-0.72,-6.51
1,2,-9,-57,-387,3935,0.10,0.02,-2.27,-0.57,-3.87,39.35,-5.38,0.75,53.32,1.49,-0.67,-6.17
0,1,-8,-54,-371,3934,0.09,0.02,-2.09,-0.54,-3.71,39.34,-5.39,0.77,53.32,1.71,-0.41,-6.09
-1,1,-7,-56,-363,3932,0.08,0.03,-1.92,-0.56,-3.63,39.32,-5.37,0.78,53.33,1.90,-0.39,-6.02
-1,1,-6,-64,-366,3941,0.06,0.03,-1.77,-0.64,-3.66,39.41,-5.36,0.79,53.34,1.85,-0.39,-5.97
0,0,-6,-61,-373,3925,0.06,0.03,-1.63,-0.61,-3.73,39.25,-5.37,0.81,53.35,1.57,-0.15,-5.84
1,4,-9,-62,-377,3919,0.06,0.05,-1.52,-0.62,-3.77,39.19,-5.39,0.82,53.35,1.32,-1.08,-5.49
3,3,-12,-73,-392,3903,0.07,0.06,-1.44,-0.73,-3.92,39.03,-5.40,0.83,53.36,0.86,-0.78,-5.17
2,2,-39,-111,-429,3916,0.07,0.07,-1.53,-1.11,-4.29,39.16,-5.41,0.84,53.36,1.14,-0.51,-2.96
-1,2,-45,-109,-403,3957,0.06,0.07,-1.66,-1.09,-4.03,39.57,-5.42,0.86,53.37,1.85,-0.49,-2.57
2,-1,-68,-82,-383,3930,0.07,0.06,-1.91,-0.82,-3.83,39.30,-5.43,0.87,53.38,1.12,0.22,-0.84
2,-3,-69,-64,-381,3927,0.07,0.04,-2.14,-0.64,-3.81,39.27,-5.45,0.88,53.39,1.14,0.63,-0.97
1,0,-48,14,-305,3921,0.07,0.03,-2.21,0.14,-3.05,39.21,-5.43,0.87,53.40,1.39,-0.14,-2.82
0,0,-38,1,-294,3921,0.06,0.03,-2.23,0.01,-2.94,39.21,-5.42,0.85,53.40,1.61,-0.15,-3.68
1,-1,-15,-44,-346,3934,0.06,0.02,-2.09,-0.44,-3.46,39.34,-5.40,0.84,53.41,1.35,0.07,-5.51
1,0,-12,-51,-351,3944,0.06,0.02,-1.96,-0.51,-3.51,39.44,-5.38,0.84,53.42,1.35,-0.19,-5.64
0,-1,-7,-53,-353,3923,0.06,0.01,-1.80,-0.53,-3.53,39.23,-5.37,0.83,53.43,1.57,0.04,-5.93
0,0,-7,-51,-361,3934,0.05,0.01,-1.67,-0.51,-3.61,39.34,-5.35,0.82,53.43,1.55,-0.22,-5.80
1,0,-6,-58,-379,3936,0.05,0.01,-1.54,-0.58,-3.79,39.36,-5.37,0.82,53.44,1.30,-0.22,-5.77
1,1,-6,-55,-373,3932,0.05,0.01,-1.42,-0.55,-3.73,39.32,-5.39,0.81,53.45,1.31,-0.45,-5.66
2,0,-5,-52,-374,3939,0.06,0.01,-1.31,-0.52,-3.74,39.39,-5.40,0.80,53.45,1.08,-0.20,-5.65
1,0,-4,-65,-381,3934,0.06,0.01,-1.20,-0.65,-3.81,39.34,-5.41,0.81,53.46,1.34,-0.21,-5.64
0,0,-6,-66,-376,3918,0.05,0.01,-1.12,-0.66,-3.76,39.18,-5.42,0.83,53.46,1.57,-0.21,-5.39
1,1,-5,-59,-358,3933,0.05,0.01,-1.04,-0.59,-3.58,39.33,-5.40,0.83,53.46,1.32,-0.45,-5.40
0,-1,-5,-50,-373,3950,0.05,0.01,-0.96,-0.50,-3.73,39.50,-5.40,0.81,53.47,1.55,0.03,-5.34
0,0,-4,-50,-371,3937,0.04,0.01,-0.89,-0.50,-3.71,39.37,-5.39,0.79,53.47,1.53,-0.22,-5.36
0,-2,-5,-65,-370,3931,0.04,-0.01,-0.83,-0.65,-3.70,39.31,-5.39,0.81,53.47,1.51,0.24,-5.22
0,-1,-6,-50,-369,3915,0.04,-0.01,-0.79,-0.50,-3.69,39.15,-5.39,0.79,53.48,1.50,-0.03,-5.09
1,0,-5,-65,-360,3934,0.04,-0.01,-0.74,-0.65,-3.60,39.34,-5.38,0.80,53.48,1.25,-0.29,-5.13
0,0,-6,-64,-366,3935,0.03,-0.01,-0.70,-0.64,-3.66,39.35,-5.37,0.82,53.48,1.49,-0.29,-5.01
1,0,-6,-53,-378,3927,0.04,-0.01,-0.67,-0.53,-3.78,39.27,-5.39,0.81,53.49,1.25,-0.28,-4.98
1,0,-6,-53,-376,3929,0.04,-0.01,-0.64,-0.53,-3.76,39.29,-5.40,0.80,53.49,1.26,-0.28,-4.96
1,0,-5,-50,-370,3934,0.04,-0.01,-0.60,-0.50,-3.70,39.34,-5.39,0.79,53.49,1.27,-0.27,-5.01
1,-1,-4,-60,-372,3949,0.04,-0.01,-0.57,-0.60,-3.72,39.49,-5.39,0.80,53.49,1.27,-0.04,-5.06
0,0,-5,-65,-376,3942,0.04,-0.01,-0.54,-0.65,-3.76,39.42,-5.40,0.82,53.50,1.51,-0.29,-4.96
0,1,-5,-54,-381,3933,0.04,-0.00,-0.52,-0.54,-3.81,39.33,-5.42,0.82,53.50,1.50,-0.52,-4.93
0,-1,-5,-62,-365,3933,0.03,-0.01,-0.50,-0.62,-3.65,39.33,-5.40,0.83,53.50,1.49,-0.03,-4.91
1,0,-4,-57,-371,3940,0.03,-0.01,-0.47,-0.57,-3.71,39.40,-5.38,0.83,53.50,1.24,-0.28,-4.98
0,0,-5,-60,-370,3934,0.03,-0.01,-0.45,-0.60,-3.70,39.34,-5.38,0.84,53.50,1.48,-0.29,-4.88
0,0,-5,-58,-371,3925,0.03,-0.01,-0.44,-0.58,-3.71,39.25,-5.40,0.84,53.51,1.47,-0.28,-4.86
-2,6,-4,-70,-374,3939,0.01,0.03,-0.42,-0.70,-3.74,39.39,-5.40,0.86,53.51,1.92,-1.67,-4.93
5,6,-4,-77,-404,3860,0.04,0.06,-0.40,-0.77,-4.04,38.60,-5.42,0.87,53.51,0.26,-1.55,-4.91
-3,80,-31,-86,-443,4057,0.02,0.55,-0.55,-0.86,-4.43,40.57,-5.43,0.88,53.51,2.21,-18.55,-2.76
4,63,-24,-120,-438,4053,0.04,0.88,-0.64,-1.20,-4.38,40.53,-5.45,0.89,53.51,0.52,-12.99,-3.44
1,1,-28,47,-249,3947,0.04,0.79,-0.75,0.47,-2.49,39.47,-5.43,0.89,53.52,1.29,2.47,-3.20
-1,-16,-20,112,-242,3953,0.03,0.62,-0.80,1.12,-2.42,39.53,-5.42,0.87,53.52,1.75,6.12,-3.92
0,-13,-2,-60,-371,3945,0.03,0.48,-0.73,-0.60,-3.71,39.45,-5.40,0.87,53.52,1.48,4.83,-5.38
-2,-11,-3,-68,-386,3953,0.02,0.36,-0.67,-0.68,-3.86,39.53,-5.42,0.88,53.53,1.93,3.89,-5.25
-2,-1,-5,-64,-370,3956,0.00,0.32,-0.64,-0.64,-3.70,39.56,-5.40,0.89,53.53,1.88,1.19,-5.04
1,6,-2,-56,-388,3963,0.01,0.32,-0.59,-0.56,-3.88,39.63,-5.42,0.89,53.53,1.14,-0.57,-5.25
2,4,-5,-55,-379,3937,0.02,0.32,-0.56,-0.55,-3.79,39.37,-5.43,0.87,53.53,0.94,-0.09,-4.97
1,1,-6,-47,-353,3942,0.02,0.29,-0.54,-0.47,-3.53,39.42,-5.41,0.87,53.54,1.20,0.58,-4.87
2,4,-5,-73,-367,3955,0.03,0.29,-0.52,-0.73,-3.67,39.55,-5.40,0.88,53.54,0.98,-0.21,-4.93
3,3,-8,-83,-360,3947,0.05,0.28,-0.51,-0.83,-3.60,39.47,-5.40,0.90,53.54,0.78,0.00,-4.68
5,5,-7,-59,-370,3931,0.07,0.28,-0.50,-0.59,-3.70,39.31,-5.39,0.88,53.54,0.37,-0.49,-4.76
5,7,-6,-73,-376,3931,0.10,0.29,-0.49,-0.73,-3.76,39.31,-5.39,0.90,53.54,0.46,-0.95,-4.83
6,6,-6,-70,-362,3933,0.12,0.30,-0.48,-0.70,-3.62,39.33,-5.38,0.91,53.55,0.30,-0.67,-4.82
6,6,-7,-73,-367,3936,0.15,0.31,-0.47,-0.73,-3.67,39.36,-5.37,0.93,53.55,0.39,-0.65,-4.73
7,6,-12,-42,-376,3925,0.18,0.31,-0.50,-0.42,-3.76,39.25,-5.38,0.91,53.55,0.24,-0.62,-4.33
5,6,-11,-52,-361,3940,0.19,0.32,-0.52,-0.52,-3.61,39.40,-5.37,0.90,53.55,0.80,-0.60,-4.43
3,4,-6,-64,-378,3940,0.19,0.31,-0.50,-0.64,-3.78,39.40,-5.38,0.91,53.55,1.31,-0.12,-4.84
3,3,-6,-67,-377,3944,0.19,0.30,-0.49,-0.67,-3.77,39.44,-5.40,0.92,53.56,1.31,0.08,-4.83
-1,5,-7,-85,-381,3941,0.16,0.30,-0.48,-0.85,-3.81,39.41,-5.40,0.94,53.56,2.23,-0.43,-4.74
-1,6,-7,-76,-386,3935,0.14,0.31,-0.48,-0.76,-3.86,39.35,-5.42,0.95,53.56,2.15,-0.66,-4.73
0,4,-10,-137,-425,3945,0.13,0.30,-0.49,-1.37,-4.25,39.45,-5.43,0.97,53.56,1.85,-0.18,-4.49
-4,3,-16,-192,-471,3957,0.09,0.29,-0.54,-1.92,-4.71,39.57,-5.44,0.98,53.57,2.73,0.03,-4.03
10,28,-25,-357,-562,3843,0.14,0.43,-0.64,-3.57,-5.62,38.43,-5.45,1.00,53.57,-0.63,-5.79,-3.35
39,41,-16,-499,-621,3832,0.37,0.64,-0.67,-4.99,-6.21,38.32,-5.45,1.02,53.57,-7.16,-8.32,-4.15
76,77,25,-389,-338,3991,0.79,1.04,-0.45,-3.89,-3.38,39.91,-5.45,1.04,53.57,-14.96,-15.95,-7.42
63,54,4,-543,-365,3824,1.10,1.27,-0.38,-5.43,-3.65,38.24,-5.44,1.06,53.58,-10.51,-9.26,-5.58
12,15,-87,-389,-291,3883,1.06,1.23,-0.87,-3.89,-2.91,38.83,-5.44,1.08,53.58,2.32,0.51,1.68
-1,12,-103,-367,-254,3948,0.95,1.18,-1.41,-3.67,-2.54,39.48,-5.43,1.11,53.59,5.20,1.08,2.55
5,-12,-130,-310,-253,3928,0.88,0.99,-2.07,-3.10,-2.53,39.28,-5.41,1.12,53.59,3.43,6.45,4.24
-6,-4,-135,-123,-150,3954,0.76,0.87,-2.68,-1.23,-1.50,39.54,-5.39,1.13,53.61,5.75,3.95,4.11
0,-6,-162,-29,-268,3985,0.68,0.74,-3.40,-0.29,-2.68,39.85,-5.37,1.12,53.62,3.93,4.00,5.74
6,0,-160,7,-305,4002,0.65,0.67,-4.04,0.07,-3.05,40.02,-5.36,1.11,53.63,2.28,2.20,4.99
-14,-11,-185,208,-315,3795,0.50,0.54,-4.76,2.08,-3.15,37.95,-5.36,1.09,53.65,6.80,4.49,6.45
3,-4,-216,277,-275,3954,0.47,0.46,-5.60,2.77,-2.75,39.54,-5.35,1.08,53.68,2.36,2.43,8.31
22,1,-311,317,-248,3905,0.56,0.42,-6.94,3.17,-2.48,39.05,-5.34,1.06,53.70,-2.15,1.01,15.14
12,-7,-353,270,-332,3931,0.57,0.33,-8.40,2.70,-3.32,39.31,-5.34,1.04,53.74,0.46,2.73,17.38
5,2,-355,99,-371,3951,0.55,0.31,-9.73,0.99,-3.71,39.51,-5.34,1.02,53.78,2.14,0.37,16.34
-1,-2,-338,72,-359,3915,0.49,0.27,-10.82,0.72,-3.59,39.15,-5.34,1.00,53.82,3.43,1.23,13.91
-2,-9,-284,6,-360,4047,0.43,0.19,-11.47,0.06,-3.60,40.47,-5.33,0.97,53.87,3.46,2.70,8.74
0,-1,-261,-36,-423,3873,0.38,0.16,-11.91,-0.36,-4.23,38.73,-5.35,0.96,53.91,2.79,0.58,6.38
3,-18,-270,-60,-345,3865,0.36,0.04,-12.37,-0.60,-3.45,38.65,-5.33,0.95,53.96,1.95,4.43,6.72
14,-29,-260,3,-308,3898,0.41,-0.14,-12.72,0.03,-3.08,38.98,-5.32,0.93,54.01,-0.66,6.55,5.56
6,-52,-258,-91,-389,4000,0.41,-0.45,-13.02,-0.91,-3.89,40.00,-5.32,0.94,54.06,1.36,11.25,5.11
12,-38,-284,-163,-400,4052,0.44,-0.63,-13.45,-1.63,-4.00,40.52,-5.33,0.95,54.12,-0.05,6.99,6.91
4,-10,-333,-303,-366,3968,0.42,-0.63,-14.14,-3.03,-3.66,39.68,-5.33,0.96,54.17,1.91,-0.12,10.44
-10,-19,-364,-244,-258,3988,0.32,-0.68,-14.94,-2.44,-2.58,39.88,-5.32,0.97,54.23,5.08,1.97,12.33
-30,-45,-470,-135,-242,3930,0.10,-0.89,-16.32,-1.35,-2.42,39.30,-5.30,0.97,54.30,9.35,7.80,20.06
-16,-33,-498,-67,-256,3904,-0.01,-1.00,-17.72,-0.67,-2.56,39.04,-5.28,0.96,54.37,5.38,4.33,21.15
-4,-15,-628,92,-357,3986,-0.03,-0.99,-19.78,0.92,-3.57,39.86,-5.28,0.93,54.45,2.25,-0.21,30.29
6,-5,-666,-25,-421,3839,0.01,-0.93,-21.86,-0.25,-4.21,38.39,-5.30,0.91,54.53,-0.14,-2.48,31.61
19,-7,-850,6,-594,3878,0.13,-0.88,-24.86,0.06,-5.94,38.78,-5.32,0.89,54.63,-3.01,-1.78,44.47
2,-4,-911,-141,-581,3819,0.12,-0.81,-27.93,-1.41,-5.81,38.19,-5.34,0.88,54.74,1.31,-2.31,46.84
43,3,-1002,-180,-335,3802,0.37,-0.71,-31.25,-1.80,-3.35,38.02,-5.34,0.89,54.87,-8.17,-3.71,51.53
-5,-24,-1036,102,-512,4030,0.31,-0.79,-34.45,1.02,-5.12,40.30,-5.35,0.86,55.00,3.78,2.88,51.50
18,-12,-1159,-16,-335,3975,0.39,-0.78,-38.07,-0.16,-3.35,39.75,-5.34,0.83,55.16,-1.77,-0.15,58.62
17,-15,-1149,14,-357,3908,0.45,-0.80,-41.27,0.14,-3.57,39.08,-5.34,0.79,55.32,-1.27,0.57,54.85
31,-2,-1114,-169,-262,3902,0.59,-0.73,-43.94,-1.69,-2.62,39.02,-5.32,0.78,55.49,-4.29,-2.47,49.45
-28,-35,-1109,-22,-467,4022,0.36,-0.87,-46.31,-0.22,-4.67,40.22,-5.34,0.76,55.68,9.84,5.39,46.86
1,-10,-1221,-110,-442,3913,0.33,-0.84,-49.13,-1.10,-4.42,39.13,-5.36,0.75,55.87,2.36,-0.86,53.78
1,-14,-1248,-98,-476,3867,0.31,-0.84,-51.83,-0.98,-4.76,38.67,-5.38,0.73,56.08,2.26,0.15,53.60
27,0,-1327,-44,-401,3985,0.44,-0.76,-54.74,-0.44,-4.01,39.85,-5.39,0.70,56.30,-3.84,-3.08,57.63
16,-14,-1342,-46,-440,3870,0.49,-0.77,-57.45,-0.46,-4.40,38.70,-5.41,0.68,56.53,-0.84,0.45,56.42
25,-18,-1420,-1,-391,3927,0.60,-0.80,-60.37,-0.01,-3.91,39.27,-5.42,0.63,56.77,-2.73,1.35,60.37
26,-19,-1452,-35,-315,3966,0.70,-0.84,-63.19,-0.35,-3.15,39.66,-5.40,0.60,57.02,-2.62,1.48,60.50
19,-32,-1592,-50,-370,3996,0.74,-0.95,-66.58,-0.50,-3.70,39.96,-5.39,0.59,57.28,-0.67,4.37,69.26
10,-26,-1654,22,-358,3936,0.73,-1.01,-70.01,0.22,-3.58,39.36,-5.39,0.54,57.56,1.57,2.61,71.38
7,-19,-1782,-17,-277,3939,0.70,-1.03,-73.88,-0.17,-2.77,39.39,-5.37,0.50,57.86,2.21,0.79,78.69
37,-21,-1802,18,-297,3929,0.85,-1.05,-77.49,0.18,-2.97,39.29,-5.35,0.46,58.16,-4.83,1.21,77.09
22,-22,-1812,93,-314,3872,0.90,-1.08,-80.79,0.93,-3.14,38.72,-5.34,0.41,58.48,-0.84,1.37,74.91
17,-24,-1792,43,-352,3945,0.92,-1.12,-83.64,0.43,-3.52,39.45,-5.34,0.35,58.82,0.48,1.75,70.60
12,-29,-1724,2,-417,3897,0.90,-1.18,-85.80,0.02,-4.17,38.97,-5.35,0.31,59.16,1.69,2.78,62.86
13,-33,-1695,-47,-405,4007,0.89,-1.27,-87.56,-0.47,-4.05,40.07,-5.37,0.28,59.51,1.39,3.49,58.78
34,-15,-1635,-64,-377,3944,1.01,-1.23,-88.77,-0.64,-3.77,39.44,-5.37,0.26,59.86,-3.50,-0.94,52.56
19,-11,-1618,-114,-405,3881,1.02,-1.18,-89.77,-1.14,-4.05,38.81,-5.37,0.24,60.22,0.37,-1.74,50.19
17,-7,-1508,-7,-374,3969,1.02,-1.10,-89.99,-0.07,-3.74,39.69,-5.37,0.19,60.57,0.89,-2.46,40.64
22,-17,-1435,27,-273,3936,1.06,-1.09,-89.74,0.27,-2.73,39.36,-5.35,0.14,60.93,-0.27,0.11,34.65
22,-12,-1249,167,-376,3908,1.08,-1.06,-88.39,1.67,-3.76,39.08,-5.35,0.09,61.28,-0.16,-1.01,20.09
6,-14,-1188,29,-396,4023,1.01,-1.04,-86.80,0.29,-3.96,40.23,-5.35,0.03,61.63,3.64,-0.41,16.34
1,-12,-1025,-52,-260,3975,0.92,-1.01,-84.37,-0.52,-2.60,39.75,-5.33,0.01,61.96,4.55,-0.80,4.71
22,-26,-991,-73,-271,3966,0.96,-1.07,-81.98,-0.73,-2.71,39.66,-5.31,-0.02,62.29,-0.64,2.55,3.97
13,-8,-879,-199,-203,4021,0.94,-1.01,-79.14,-1.99,-2.03,40.21,-5.30,-0.04,62.61,1.58,-1.80,-2.97
29,-32,-832,-58,-107,3903,1.03,-1.10,-76.30,-0.58,-1.07,39.03,-5.27,-0.07,62.91,-2.18,3.95,-4.40
12,-16,-750,-231,-175,3902,1.00,-1.09,-73.25,-2.31,-1.75,39.02,-5.26,-0.08,63.20,2.03,-0.07,-8.60
-2,-23,-732,-277,-185,3917,0.88,-1.12,-70.39,-2.77,-1.85,39.17,-5.25,-0.10,63.48,5.16,1.60,-7.55
30,-8,-749,-85,-210,4020,0.98,-1.06,-67.92,-0.85,-2.10,40.20,-5.23,-0.12,63.75,-2.62,-1.97,-3.90
18,-15,-777,-99,-251,3954,0.99,-1.04,-65.87,-0.99,-2.51,39.54,-5.21,-0.13,64.01,0.47,-0.14,0.32
20,-13,-802,-156,-337,3959,1.01,-1.02,-64.17,-1.56,-3.37,39.59,-5.20,-0.14,64.27,0.05,-0.55,3.95
11,-9,-807,-185,-420,3939,0.98,-0.97,-62.68,-1.85,-4.20,39.39,-5.20,-0.15,64.52,2.21,-1.39,5.71
2,-10,-772,-92,-448,3948,0.89,-0.94,-61.12,-0.92,-4.48,39.48,-5.21,-0.16,64.76,4.17,-0.99,4.14
12,-3,-756,-72,-473,3959,0.88,-0.86,-59.62,-0.72,-4.73,39.59,-5.22,-0.18,65.00,1.57,-2.49,4.13
8,3,-646,-75,-523,3914,0.84,-0.76,-57.60,-0.75,-5.23,39.14,-5.23,-0.19,65.23,2.45,-3.61,-3.38
1,-20,-628,-133,-402,3931,0.76,-0.80,-55.67,-1.33,-4.02,39.31,-5.23,-0.20,65.45,3.93,2.06,-3.17
3,-8,-559,-104,-488,3920,0.70,-0.77,-53.51,-1.04,-4.88,39.20,-5.24,-0.21,65.66,3.21,-0.87,-7.08
-10,-12,-536,-147,-479,3881,0.57,-0.77,-51.43,-1.47,-4.79,38.81,-5.25,-0.22,65.87,6.02,0.16,-7.16
9,-7,-479,-47,-439,3967,0.57,-0.73,-49.21,-0.47,-4.39,39.67,-5.26,-0.23,66.06,1.19,-0.98,-9.99
1,-8,-438,-40,-390,3910,0.52,-0.71,-46.96,-0.40,-3.90,39.10,-5.27,-0.23,66.25,3.03,-0.63,-11.44
3,-1,-373,14,-410,3909,0.49,-0.64,-44.54,0.14,-4.10,39.09,-5.28,-0.25,66.42,2.40,-2.16,-14.76
3,4,-364,-43,-438,3964,0.45,-0.55,-42.31,-0.43,-4.38,39.64,-5.29,-0.25,66.59,2.29,-3.10,-13.51
3,0,-356,-72,-425,3933,0.43,-0.50,-40.25,-0.72,-4.25,39.33,-5.30,-0.26,66.75,2.19,-1.87,-12.34
5,-6,-362,-113,-371,3918,0.42,-0.49,-38.43,-1.13,-3.71,39.18,-5.30,-0.25,66.91,1.63,-0.30,-10.20
5,-8,-410,-143,-363,3925,0.40,-0.49,-37.09,-1.43,-3.63,39.25,-5.30,-0.25,67.05,1.59,0.21,-4.92
3,-16,-439,-179,-341,3934,0.38,-0.54,-36.06,-1.79,-3.41,39.34,-5.29,-0.25,67.20,2.02,2.06,-1.54
18,-9,-532,-246,-237,3994,0.45,-0.54,-35.70,-2.46,-2.37,39.94,-5.28,-0.25,67.34,-1.53,0.27,6.65
9,-10,-549,-219,-273,3888,0.46,-0.54,-35.48,-2.19,-2.73,38.88,-5.27,-0.24,67.48,0.79,0.50,8.28
16,-18,-618,-32,-318,3859,0.51,-0.60,-35.70,-0.32,-3.18,38.59,-5.26,-0.25,67.62,-0.80,2.33,13.91
4,5,-669,-17,-268,4070,0.49,-0.51,-36.21,-0.17,-2.68,40.70,-5.24,-0.26,67.77,2.15,-3.18,17.75
7,-4,-846,29,-368,3942,0.48,-0.48,-37.75,0.29,-3.68,39.42,-5.25,-0.29,67.92,1.36,-0.78,31.34
6,3,-881,-6,-348,3889,0.47,-0.42,-39.35,-0.06,-3.48,38.89,-5.24,-0.29,68.07,1.57,-2.31,32.84
17,4,-955,43,-152,3872,0.53,-0.35,-41.24,0.43,-1.52,38.72,-5.22,-0.30,68.24,-1.02,-2.31,37.38
13,-8,-966,107,-169,3894,0.55,-0.36,-43.01,1.07,-1.69,38.94,-5.20,-0.33,68.41,0.10,0.69,36.69
23,7,-921,102,-283,3944,0.64,-0.28,-44.32,1.02,-2.83,39.44,-5.18,-0.36,68.58,-2.13,-2.82,31.66
7,-13,-897,109,-351,3939,0.62,-0.34,-45.36,1.09,-3.51,39.39,-5.18,-0.40,68.77,1.86,2.08,28.67
25,-9,-801,163,-392,3997,0.71,-0.36,-45.71,1.63,-3.92,39.97,-5.18,-0.43,68.95,-2.38,0.99,20.20
7,6,-769,101,-440,3956,0.68,-0.28,-45.83,1.01,-4.40,39.56,-5.19,-0.46,69.13,2.09,-2.54,17.37
0,-11,-598,116,-359,3949,0.61,-0.32,-44.90,1.16,-3.59,39.49,-5.18,-0.50,69.31,3.62,1.65,3.71
12,-5,-499,114,-326,3933,0.62,-0.32,-43.45,1.14,-3.26,39.33,-5.17,-0.53,69.48,0.61,0.14,-3.38
7,-2,-280,38,-309,3966,0.60,-0.30,-40.81,0.38,-3.09,39.66,-5.15,-0.55,69.64,1.80,-0.55,-19.55
3,-2,-230,4,-343,3947,0.56,-0.28,-38.14,0.04,-3.43,39.47,-5.14,-0.54,69.80,2.66,-0.48,-21.37
0,-7,-89,-152,-230,3955,0.51,-0.30,-34.87,-1.52,-2.30,39.55,-5.13,-0.54,69.94,3.20,0.74,-30.36
-2,-7,-65,-119,-251,3947,0.44,-0.31,-31.78,-1.19,-2.51,39.47,-5.11,-0.54,70.06,3.47,0.69,-29.60
-2,-2,-20,-63,-316,3937,0.39,-0.29,-28.72,-0.63,-3.16,39.37,-5.10,-0.53,70.18,3.26,-0.51,-30.65
-2,-2,-16,-53,-330,3940,0.34,-0.27,-25.95,-0.53,-3.30,39.40,-5.10,-0.53,70.28,3.06,-0.45,-28.48
-3,-4,-19,-27,-366,3942,0.28,-0.27,-23.47,-0.27,-3.66,39.42,-5.10,-0.52,70.37,3.12,0.07,-25.99
-5,-4,-26,-48,-371,3939,0.22,-0.27,-21.28,-0.48,-3.71,39.39,-5.10,-0.51,70.46,3.41,0.07,-23.42
-4,0,-41,-61,-393,3923,0.18,-0.24,-19.40,-0.61,-3.93,39.23,-5.11,-0.50,70.53,2.98,-0.84,-20.45
-1,2,-51,-65,-380,3936,0.15,-0.21,-17.77,-0.65,-3.80,39.36,-5.11,-0.49,70.61,2.13,-1.22,-18.13
0,4,-68,-24,-365,3945,0.14,-0.16,-16.41,-0.24,-3.65,39.45,-5.11,-0.48,70.67,1.82,-1.56,-15.46
2,5,-68,-19,-372,3934,0.14,-0.11,-15.18,-0.19,-3.72,39.34,-5.12,-0.47,70.73,1.31,-1.64,-14.35
-1,5,-66,-32,-349,3943,0.12,-0.07,-14.07,-0.32,-3.49,39.43,-5.12,-0.45,70.79,1.99,-1.49,-13.52
-2,5,-67,-38,-360,3921,0.09,-0.03,-13.07,-0.38,-3.60,39.21,-5.12,-0.44,70.84,2.16,-1.35,-12.53
2,2,-70,-34,-337,3931,0.10,-0.02,-12.19,-0.34,-3.37,39.31,-5.11,-0.43,70.89,1.15,-0.53,-11.48
2,1,-72,-56,-333,3941,0.10,-0.01,-11.41,-0.56,-3.33,39.41,-5.11,-0.41,70.93,1.16,-0.25,-10.61
2,4,-69,-55,-276,3936,0.10,0.01,-10.69,-0.55,-2.76,39.36,-5.10,-0.40,70.98,1.17,-0.92,-10.21
3,3,-59,-38,-246,3936,0.11,0.03,-9.98,-0.38,-2.46,39.36,-5.08,-0.40,71.02,0.94,-0.60,-10.42
3,2,-33,-27,-226,3939,0.12,0.04,-9.18,-0.27,-2.26,39.39,-5.06,-0.39,71.05,0.96,-0.31,-11.91
5,4,-21,-38,-257,3943,0.14,0.06,-8.39,-0.38,-2.57,39.43,-5.05,-0.39,71.09,0.52,-0.75,-12.21
3,0,-12,-39,-316,3941,0.14,0.05,-7.63,-0.39,-3.16,39.41,-5.04,-0.37,71.12,1.04,0.24,-12.28
2,-1,-10,-45,-324,3931,0.14,0.04,-6.93,-0.45,-3.24,39.31,-5.03,-0.36,71.14,1.29,0.45,-11.81
-2,0,-19,12,-319,3900,0.11,0.04,-6.35,0.12,-3.19,39.00,-5.02,-0.35,71.17,2.20,0.18,-10.53
-2,0,-24,26,-301,3912,0.09,0.03,-5.86,0.26,-3.01,39.12,-5.00,-0.35,71.19,2.11,0.16,-9.67
1,-6,-57,37,-287,3916,0.09,-0.01,-5.62,0.37,-2.87,39.16,-4.98,-0.36,71.22,1.33,1.54,-6.66
2,-9,-68,40,-304,3927,0.09,-0.06,-5.47,0.40,-3.04,39.27,-4.96,-0.37,71.24,1.09,2.10,-5.59
2,-3,-139,75,-173,3905,0.09,-0.07,-5.78,0.75,-1.73,39.05,-4.94,-0.38,71.26,1.10,0.53,0.15
6,-3,-168,20,-241,3952,0.12,-0.08,-6.22,0.20,-2.41,39.52,-4.92,-0.38,71.29,0.18,0.49,2.20
3,-7,-198,-16,-282,3958,0.13,-0.12,-6.81,-0.16,-2.82,39.58,-4.91,-0.37,71.31,0.96,1.37,4.20
6,-8,-214,-7,-258,3986,0.15,-0.15,-7.43,-0.07,-2.58,39.86,-4.89,-0.37,71.34,0.28,1.49,4.99
6,-2,-238,-26,-324,3948,0.17,-0.15,-8.14,-0.26,-3.24,39.48,-4.88,-0.35,71.37,0.36,-0.03,6.38
0,-3,-229,-53,-330,3932,0.15,-0.15,-8.72,-0.53,-3.30,39.32,-4.88,-0.34,71.41,1.82,0.21,5.08
0,-3,-191,-144,-297,3967,0.14,-0.16,-9.02,-1.44,-2.97,39.67,-4.88,-0.32,71.45,1.76,0.20,1.59
5,-6,-199,-142,-297,3945,0.16,-0.18,-9.33,-1.42,-2.97,39.45,-4.87,-0.31,71.48,0.56,0.88,1.98
-1,-4,-178,-36,-381,3909,0.13,-0.18,-9.48,-0.36,-3.81,39.09,-4.88,-0.30,71.52,2.00,0.34,0.06
1,-8,-155,-74,-382,3962,0.13,-0.22,-9.48,-0.74,-3.82,39.62,-4.89,-0.29,71.56,1.47,1.24,-1.89
2,-9,-105,-149,-401,3913,0.13,-0.25,-9.17,-1.49,-4.01,39.13,-4.90,-0.27,71.59,1.21,1.37,-5.85
1,-10,-99,-124,-356,3941,0.12,-0.28,-8.86,-1.24,-3.56,39.41,-4.90,-0.26,71.63,1.44,1.48,-6.07
1,-11,-97,-148,-356,3922,0.11,-0.32,-8.56,-1.48,-3.56,39.22,-4.90,-0.24,71.66,1.42,1.59,-5.98
-1,-8,-91,-138,-382,3948,0.10,-0.34,-8.26,-1.38,-3.82,39.48,-4.90,-0.23,71.70,1.86,0.76,-6.22
1,-5,-114,-86,-298,3943,0.09,-0.34,-8.13,-0.86,-2.98,39.43,-4.90,-0.22,71.73,1.34,0.01,-4.15
-3,-9,-111,-47,-324,3930,0.07,-0.36,-8.00,-0.47,-3.24,39.30,-4.89,-0.20,71.76,2.25,0.94,-4.29
4,-11,-142,-112,-221,3922,0.08,-0.39,-8.06,-1.12,-2.21,39.22,-4.88,-0.20,71.79,0.54,1.33,-1.73
-1,-5,-162,-128,-252,3902,0.07,-0.38,-8.24,-1.28,-2.52,39.02,-4.87,-0.18,71.83,1.75,-0.17,-0.20
8,4,-188,-50,-328,3906,0.11,-0.32,-8.57,-0.50,-3.28,39.06,-4.87,-0.17,71.86,-0.38,-2.23,1.71
4,-8,-188,-8,-296,3925,0.12,-0.34,-8.86,-0.08,-2.96,39.25,-4.85,-0.17,71.89,0.68,0.76,1.44
1,-6,-204,-6,-287,3952,0.12,-0.34,-9.22,-0.06,-2.87,39.52,-4.83,-0.16,71.93,1.42,0.24,2.47
2,-9,-224,-10,-372,3955,0.12,-0.36,-9.66,-0.10,-3.72,39.55,-4.85,-0.16,71.97,1.17,0.92,3.75
4,-8,-258,5,-350,3937,0.13,-0.37,-10.27,0.05,-3.50,39.37,-4.87,-0.16,72.01,0.71,0.62,6.08
2,-12,-290,29,-308,3915,0.13,-0.41,-11.01,0.29,-3.08,39.15,-4.85,-0.17,72.05,1.21,1.50,8.11
4,-1,-350,3,-336,3921,0.14,-0.37,-12.04,0.03,-3.36,39.21,-4.86,-0.16,72.10,0.75,-1.16,12.25
5,-8,-367,25,-364,3917,0.16,-0.38,-13.08,0.25,-3.64,39.17,-4.87,-0.18,72.15,0.56,0.58,12.75
14,-7,-369,41,-320,3949,0.23,-0.39,-14.02,0.41,-3.20,39.49,-4.86,-0.20,72.21,-1.47,0.31,12.06
4,-12,-392,31,-310,3963,0.23,-0.42,-15.01,0.31,-3.10,39.63,-4.84,-0.21,72.27,1.08,1.46,13.11
8,-23,-563,11,-301,3963,0.25,-0.52,-16.94,0.11,-3.01,39.63,-4.83,-0.22,72.34,0.15,3.88,25.83
0,-5,-621,-53,-322,3917,0.23,-0.50,-19.04,-0.53,-3.22,39.17,-4.82,-0.21,72.41,2.09,-0.61,28.84
21,-16,-824,-116,-376,3889,0.33,-0.55,-22.16,-1.16,-3.76,38.89,-4.83,-0.20,72.50,-2.85,2.00,43.20
20,-9,-884,-100,-314,3954,0.42,-0.55,-25.34,-1.00,-3.14,39.54,-4.82,-0.20,72.60,-2.26,0.22,45.39
27,0,-1028,-80,-380,3929,0.55,-0.49,-29.07,-0.80,-3.80,39.29,-4.83,-0.19,72.72,-3.58,-1.86,54.19
21,-15,-1055,-15,-440,3968,0.62,-0.53,-32.60,-0.15,-4.40,39.68,-4.84,-0.20,72.85,-1.78,1.80,53.27
9,-13,-1072,-67,-399,3919,0.61,-0.56,-35.88,-0.67,-3.99,39.19,-4.85,-0.20,72.99,1.25,1.19,51.72
13,-10,-1073,-27,-422,3933,0.63,-0.57,-38.84,-0.27,-4.22,39.33,-4.86,-0.21,73.14,0.30,0.41,49.11
12,-26,-1098,-107,-346,3932,0.64,-0.67,-41.65,-1.07,-3.46,39.32,-4.86,-0.21,73.31,0.60,4.09,48.66
17,-9,-1097,-105,-252,3968,0.68,-0.66,-44.18,-1.05,-2.52,39.68,-4.85,-0.21,73.49,-0.53,-0.18,46.27
13,-16,-1117,-103,-272,3892,0.69,-0.69,-46.57,-1.03,-2.72,38.92,-4.84,-0.21,73.67,0.53,1.48,45.77
14,-17,-1143,-105,-220,3987,0.71,-0.72,-48.89,-1.05,-2.20,39.87,-4.82,-0.22,73.87,0.33,1.60,45.86
18,-15,-1231,3,-210,3936,0.75,-0.74,-51.51,0.03,-2.10,39.36,-4.80,-0.24,74.07,-0.54,1.03,50.92
9,-13,-1234,-12,-333,3935,0.73,-0.75,-53.89,-0.12,-3.33,39.35,-4.80,-0.24,74.29,1.67,0.50,48.99
25,-23,-1226,-18,-195,3925,0.81,-0.81,-55.98,-0.18,-1.95,39.25,-4.77,-0.26,74.51,-2.10,2.80,46.40
1,-11,-1214,2,-296,3892,0.73,-0.80,-57.78,0.02,-2.96,38.92,-4.75,-0.27,74.74,3.71,-0.20,43.72
2,-16,-1153,-46,-396,3851,0.67,-0.82,-59.04,-0.46,-3.96,38.51,-4.76,-0.28,74.97,3.23,1.01,37.39
7,-12,-1132,-76,-413,3938,0.65,-0.81,-60.04,-0.76,-4.13,39.38,-4.77,-0.29,75.21,1.87,0.03,34.68
23,-28,-1052,-87,-402,3951,0.72,-0.90,-60.45,-0.87,-4.02,39.51,-4.78,-0.30,75.45,-1.91,3.76,27.51
16,-29,-1023,-8,-410,3918,0.75,-0.98,-60.65,-0.08,-4.10,39.18,-4.79,-0.32,75.69,-0.03,3.69,24.85
5,-33,-866,-114,-355,3871,0.70,-1.09,-59.87,-1.14,-3.55,38.71,-4.79,-0.32,75.93,2.60,4.32,12.24
2,-38,-830,-123,-341,3896,0.65,-1.21,-58.94,-1.23,-3.41,38.96,-4.79,-0.33,76.17,3.14,5.13,10.01
16,-27,-839,-99,-308,3927,0.68,-1.25,-58.17,-0.99,-3.08,39.27,-4.78,-0.34,76.40,-0.30,2.17,11.45
16,-23,-868,-91,-312,3923,0.71,-1.27,-57.64,-0.91,-3.12,39.23,-4.78,-0.34,76.63,-0.19,1.10,14.36
17,-13,-1006,-81,-324,3941,0.74,-1.22,-58.02,-0.81,-3.24,39.41,-4.77,-0.35,76.86,-0.32,-1.26,25.70
15,-5,-1064,-18,-397,3939,0.76,-1.13,-58.71,-0.18,-3.97,39.39,-4.78,-0.36,77.09,0.26,-2.95,29.97
30,-10,-1148,81,-368,3989,0.87,-1.08,-59.84,0.81,-3.68,39.89,-4.79,-0.40,77.33,-3.15,-1.47,36.03
22,-16,-1159,80,-383,3905,0.91,-1.07,-60.92,0.80,-3.83,39.05,-4.79,-0.44,77.57,-0.93,0.10,35.96
25,7,-1157,101,-378,3987,0.97,-0.92,-61.89,1.01,-3.78,39.87,-4.80,-0.48,77.82,-1.47,-5.17,34.89
36,8,-1138,14,-288,3956,1.10,-0.78,-62.64,0.14,-2.88,39.56,-4.77,-0.50,78.07,-3.81,-4.89,32.57
38,-14,-1034,178,-380,4101,1.22,-0.79,-62.69,1.78,-3.80,41.01,-4.77,-0.54,78.32,-3.86,0.68,23.70
13,8,-979,27,-358,3937,1.18,-0.66,-62.39,0.27,-3.58,39.37,-4.78,-0.55,78.57,2.34,-4.43,19.29
18,3,-850,-40,-464,3992,1.17,-0.57,-61.33,-0.40,-4.64,39.92,-4.79,-0.57,78.81,1.04,-2.84,9.29
14,13,-801,-94,-462,3944,1.14,-0.44,-60.09,-0.94,-4.62,39.44,-4.80,-0.58,79.05,1.94,-4.86,6.25
6,9,-593,-2,-408,3951,1.06,-0.34,-57.70,-0.02,-4.08,39.51,-4.81,-0.59,79.28,3.69,-3.47,-9.22
10,-4,-513,-17,-400,3933,1.01,-0.33,-55.06,-0.17,-4.00,39.33,-4.81,-0.60,79.50,2.50,-0.13,-13.62
7,3,-432,11,-337,3902,0.96,-0.28,-52.19,0.11,-3.37,39.02,-4.81,-0.60,79.71,3.04,-1.72,-17.90
12,-6,-427,67,-350,3965,0.93,-0.29,-49.57,0.67,-3.50,39.65,-4.82,-0.63,79.90,1.69,0.55,-15.97
2,-7,-421,93,-330,3906,0.85,-0.30,-47.18,0.93,-3.30,39.06,-4.81,-0.67,80.09,3.92,0.76,-14.33
6,-7,-417,72,-296,3914,0.80,-0.31,-45.01,0.72,-2.96,39.14,-4.79,-0.69,80.27,2.72,0.72,-12.71
-1,-9,-437,79,-321,3935,0.72,-0.34,-43.17,0.79,-3.21,39.35,-4.78,-0.73,80.44,4.17,1.14,-9.36
6,-5,-442,26,-337,3945,0.68,-0.33,-41.55,0.26,-3.37,39.45,-4.78,-0.73,80.61,2.26,0.14,-7.48
10,6,-471,-24,-246,3970,0.67,-0.26,-40.27,-0.24,-2.46,39.70,-4.76,-0.73,80.77,1.21,-2.39,-3.88
-4,-4,-461,-6,-235,3894,0.58,-0.26,-39.05,-0.06,-2.35,38.94,-4.74,-0.73,80.93,4.42,0.16,-3.64
8,-9,-474,34,-292,3962,0.57,-0.29,-38.04,0.34,-2.92,39.62,-4.72,-0.74,81.08,1.33,1.32,-1.63
8,-9,-464,-14,-183,3927,0.57,-0.32,-37.07,-0.14,-1.83,39.27,-4.70,-0.74,81.23,1.29,1.23,-1.61
8,3,-466,-37,-329,3933,0.56,-0.27,-36.20,-0.37,-3.29,39.33,-4.70,-0.74,81.37,1.26,-1.64,-0.67
20,2,-473,-97,-320,3956,0.62,-0.23,-35.47,-0.97,-3.20,39.56,-4.69,-0.73,81.51,-1.54,-1.24,0.58
8,-6,-459,6,-412,3927,0.61,-0.24,-34.72,0.06,-4.12,39.27,-4.71,-0.74,81.65,1.46,0.74,0.06
15,-2,-451,6,-427,3958,0.64,-0.23,-34.00,0.06,-4.27,39.58,-4.72,-0.74,81.78,-0.20,-0.23,0.03
4,-3,-428,5,-338,3962,0.60,-0.22,-33.21,0.05,-3.38,39.62,-4.72,-0.74,81.92,2.45,0.04,-1.22
6,4,-433,28,-369,3932,0.58,-0.18,-32.53,0.28,-3.69,39.32,-4.73,-0.74,82.05,1.85,-1.56,-0.19
7,8,-478,-37,-287,3901,0.56,-0.11,-32.19,-0.37,-2.87,39.01,-4.72,-0.73,82.17,1.54,-2.33,3.92
11,-10,-483,9,-253,3985,0.57,-0.16,-31.92,0.09,-2.53,39.85,-4.70,-0.73,82.30,0.56,2.06,4.58
7,-7,-497,7,-143,3949,0.56,-0.19,-31.76,0.07,-1.43,39.49,-4.68,-0.74,82.43,1.52,1.20,5.90
13,0,-518,49,-187,3946,0.58,-0.17,-31.74,0.49,-1.87,39.46,-4.66,-0.75,82.56,0.07,-0.51,7.68
11,-5,-623,13,-391,3951,0.59,-0.18,-32.37,0.13,-3.91,39.51,-4.67,-0.75,82.68,0.62,0.71,16.00
6,2,-665,7,-344,3992,0.57,-0.15,-33.19,0.07,-3.44,39.92,-4.67,-0.75,82.82,1.80,-0.95,18.80
10,-5,-694,46,-293,3904,0.57,-0.17,-34.10,0.46,-2.93,39.04,-4.65,-0.76,82.95,0.80,0.77,20.41
15,-1,-688,41,-373,3960,0.61,-0.16,-34.89,0.41,-3.73,39.60,-4.66,-0.77,83.09,-0.34,-0.20,19.18
14,-7,-646,-72,-297,3902,0.63,-0.18,-35.34,-0.72,-2.97,39.02,-4.66,-0.76,83.23,0.01,1.22,15.20
18,0,-625,-164,-344,3968,0.68,-0.17,-35.62,-1.64,-3.44,39.68,-4.65,-0.75,83.37,-0.84,-0.49,13.15
14,-4,-570,-325,-280,3929,0.70,-0.17,-35.54,-3.25,-2.80,39.29,-4.65,-0.75,83.52,0.24,0.49,8.56
11,1,-570,-324,-293,3927,0.69,-0.15,-35.46,-3.24,-2.93,39.27,-4.64,-0.74,83.66,1.00,-0.69,8.62
25,6,-595,-294,-341,3981,0.78,-0.10,-35.54,-2.94,-3.41,39.81,-4.64,-0.73,83.80,-2.25,-1.77,10.64
22,9,-612,-248,-421,3946,0.83,-0.03,-35.72,-2.48,-4.21,39.46,-4.64,-0.73,83.94,-1.27,-2.29,11.91
28,6,-569,-155,-437,4010,0.92,0.01,-35.62,-1.55,-4.37,40.10,-4.64,-0.72,84.08,-2.47,-1.38,8.35
10,20,-561,-89,-399,3954,0.89,0.13,-35.48,-0.89,-3.99,39.54,-4.64,-0.72,84.22,1.99,-4.48,7.78
21,18,-571,12,-343,3879,0.93,0.22,-35.42,0.12,-3.43,38.79,-4.65,-0.72,84.37,-0.66,-3.61,8.68
6,11,-579,-10,-261,3939,0.87,0.27,-35.41,-0.10,-2.61,39.39,-4.63,-0.71,84.51,2.94,-1.66,9.35
6,13,-663,-16,-230,3933,0.82,0.32,-35.91,-0.16,-2.30,39.33,-4.61,-0.71,84.65,2.74,-1.97,16.00
17,3,-691,-19,-173,3931,0.84,0.31,-36.53,-0.19,-1.73,39.31,-4.59,-0.71,84.80,0.02,0.52,17.79
28,3,-752,104,-239,3929,0.93,0.30,-37.47,1.04,-2.39,39.29,-4.57,-0.74,84.95,-2.45,0.48,22.10
5,14,-752,52,-231,3835,0.87,0.35,-38.31,0.52,-2.31,38.35,-4.55,-0.75,85.10,3.15,-2.11,21.32
-1,-6,-689,179,-321,3957,0.77,0.28,-38.68,1.79,-3.21,39.57,-4.54,-0.78,85.25,4.33,2.71,15.63
7,8,-669,160,-307,3916,0.74,0.30,-38.89,1.60,-3.07,39.16,-4.54,-0.81,85.41,2.16,-0.76,13.73
6,-1,-599,162,-284,3953,0.70,0.26,-38.66,1.62,-2.84,39.53,-4.53,-0.84,85.56,2.27,1.40,8.00
6,0,-563,195,-262,3893,0.67,0.24,-38.23,1.95,-2.62,38.93,-4.51,-0.86,85.72,2.14,1.05,5.33
13,-1,-459,198,-292,3902,0.68,0.21,-37.20,1.98,-2.92,39.02,-4.51,-0.89,85.86,0.41,1.20,-2.57
1,-4,-423,145,-365,3948,0.62,0.16,-36.06,1.45,-3.65,39.48,-4.51,-0.92,86.01,3.23,1.80,-4.60
1,-11,-291,78,-291,3919,0.56,0.08,-34.23,0.78,-2.91,39.19,-4.49,-0.94,86.14,3.01,3.27,-14.13
-4,-9,-256,134,-274,3919,0.48,0.02,-32.37,1.34,-2.74,39.19,-4.48,-0.97,86.27,3.98,2.53,-15.42
-3,-16,-162,104,-223,3924,0.42,-0.08,-30.12,1.04,-2.23,39.24,-4.46,-0.98,86.39,3.47,3.94,-21.36
-8,-21,-155,79,-226,3907,0.33,-0.20,-28.05,0.79,-2.26,39.07,-4.44,-1.00,86.51,4.39,4.77,-20.08
8,-12,-191,142,-368,4015,0.34,-0.26,-26.41,1.42,-3.68,40.15,-4.45,-1.02,86.61,0.39,2.28,-15.55
6,0,-197,212,-349,3932,0.34,-0.23,-24.97,2.12,-3.49,39.32,-4.45,-1.05,86.71,0.91,-0.66,-13.75
3,4,-235,137,-357,3939,0.33,-0.18,-23.91,1.37,-3.57,39.39,-4.46,-1.07,86.81,1.61,-1.50,-9.57
-2,3,-240,123,-382,3913,0.28,-0.15,-22.98,1.23,-3.82,39.13,-4.47,-1.09,86.90,2.72,-1.10,-8.32
-1,-2,-261,131,-376,4015,0.25,-0.14,-22.28,1.31,-3.76,40.15,-4.48,-1.11,86.99,2.34,0.18,-5.90
2,-3,-277,134,-308,3900,0.24,-0.15,-21.74,1.34,-3.08,39.00,-4.48,-1.13,87.07,1.53,0.43,-4.07
2,1,-314,34,-300,3880,0.22,-0.13,-21.48,0.34,-3.00,38.80,-4.48,-1.12,87.16,1.48,-0.51,-0.71
-3,7,-317,57,-260,3907,0.18,-0.07,-21.27,0.57,-2.60,39.07,-4.46,-1.12,87.24,2.59,-1.83,-0.26
7,-6,-267,-32,-271,3938,0.21,-0.10,-20.77,-0.32,-2.71,39.38,-4.45,-1.11,87.33,0.14,1.36,-4.06
-1,-13,-264,-36,-315,3973,0.18,-0.17,-20.30,-0.36,-3.15,39.73,-4.45,-1.10,87.41,2.07,2.88,-3.89
-4,-5,-203,-33,-329,3969,0.14,-0.18,-19.51,-0.33,-3.29,39.69,-4.45,-1.09,87.49,2.68,0.79,-8.35
1,-1,-184,-100,-324,3956,0.13,-0.17,-18.68,-1.00,-3.24,39.56,-4.45,-1.08,87.56,1.38,-0.18,-9.22
1,-4,-122,-140,-323,3909,0.12,-0.18,-17.56,-1.40,-3.23,39.09,-4.45,-1.06,87.63,1.35,0.55,-13.45
4,2,-100,-119,-361,3957,0.14,-0.15,-16.41,-1.19,-3.61,39.57,-4.45,-1.05,87.69,0.63,-0.86,-14.28
0,1,-44,-154,-353,3954,0.12,-0.13,-15.04,-1.54,-3.53,39.54,-4.45,-1.04,87.75,1.60,-0.53,-17.79
3,3,-38,-112,-363,3941,0.13,-0.10,-13.77,-1.12,-3.63,39.41,-4.46,-1.03,87.81,0.86,-0.93,-17.15
-3,-3,-12,-139,-278,3928,0.10,-0.11,-12.46,-1.39,-2.78,39.28,-4.45,-1.01,87.86,2.27,0.56,-18.17
-3,-1,-7,-88,-280,3935,0.07,-0.10,-11.26,-0.88,-2.80,39.35,-4.45,-1.00,87.90,2.16,0.07,-17.51
-5,-4,-12,-11,-313,3909,0.03,-0.12,-10.21,-0.11,-3.13,39.09,-4.45,-0.98,87.94,2.53,0.77,-16.13
-4,-7,-12,-10,-308,3921,0.00,-0.15,-9.26,-0.10,-3.08,39.21,-4.45,-0.97,87.98,2.17,1.41,-15.28
0,-6,-38,-44,-320,3953,0.00,-0.17,-8.57,-0.44,-3.20,39.53,-4.45,-0.95,88.02,1.15,1.07,-12.45
3,0,-56,-47,-284,3902,0.02,-0.15,-8.05,-0.47,-2.84,39.02,-4.45,-0.94,88.05,0.46,-0.39,-10.46
3,-8,-112,-89,-210,3959,0.04,-0.19,-7.93,-0.89,-2.10,39.59,-4.44,-0.93,88.08,0.51,1.51,-5.61
7,-7,-134,-123,-229,3958,0.08,-0.21,-7.95,-1.23,-2.29,39.58,-4.43,-0.91,88.11,-0.36,1.16,-3.77
2,1,-218,-68,-270,3980,0.08,-0.18,-8.49,-0.68,-2.70,39.80,-4.42,-0.90,88.15,0.93,-0.77,2.86
1,4,-226,-42,-302,3925,0.08,-0.14,-9.02,-0.42,-3.02,39.25,-4.42,-0.88,88.18,1.18,-1.38,3.05
-4,2,-174,-50,-349,3924,0.05,-0.11,-9.18,-0.50,-3.49,39.24,-4.43,-0.87,88.22,2.33,-0.77,-1.50
2,2,-164,-13,-382,3967,0.05,-0.09,-9.26,-0.13,-3.82,39.67,-4.44,-0.86,88.25,0.83,-0.69,-2.43
2,2,-112,-60,-373,3933,0.06,-0.07,-9.02,-0.60,-3.73,39.33,-4.45,-0.85,88.29,0.86,-0.61,-6.62
-1,-1,-102,-47,-326,3913,0.05,-0.07,-8.74,-0.47,-3.26,39.13,-4.45,-0.83,88.32,1.58,0.15,-7.21
-3,1,-61,-23,-332,3959,0.03,-0.06,-8.24,-0.23,-3.32,39.59,-4.46,-0.82,88.36,2.00,-0.31,-10.23
3,7,-41,10,-377,3904,0.04,-0.01,-7.66,0.10,-3.77,39.04,-4.47,-0.81,88.39,0.54,-1.66,-11.41
-9,0,8,19,-331,3915,-0.02,-0.01,-6.85,0.19,-3.31,39.15,-4.48,-0.80,88.42,3.37,0.12,-14.83
-8,0,23,50,-334,3934,-0.06,-0.01,-6.02,0.50,-3.34,39.34,-4.50,-0.80,88.44,2.94,0.12,-15.35
-5,7,101,40,-435,3936,-0.09,0.04,-4.80,0.40,-4.35,39.36,-4.52,-0.80,88.46,2.09,-1.49,-20.86
-3,2,132,53,-420,3968,-0.10,0.05,-3.52,0.53,-4.20,39.68,-4.54,-0.80,88.47,1.55,-0.19,-22.32
-4,10,223,-28,-461,3972,-0.11,0.10,-1.81,-0.28,-4.61,39.72,-4.55,-0.79,88.48,1.76,-2.01,-28.48
-2,9,257,-26,-445,3942,-0.11,0.15,-0.06,-0.26,-4.45,39.42,-4.57,-0.78,88.48,1.25,-1.60,-29.77
-3,13,464,135,-368,3922,-0.12,0.21,2.78,1.35,-3.68,39.22,-4.58,-0.79,88.47,1.48,-2.37,-44.73
-10,3,519,123,-279,3955,-0.17,0.21,5.67,1.23,-2.79,39.55,-4.57,-0.80,88.45,3.07,0.17,-46.77
-13,1,642,-53,-107,3891,-0.23,0.19,9.02,-0.53,-1.07,38.91,-4.56,-0.79,88.41,3.60,0.62,-54.15
-14,3,572,-41,-198,3867,-0.29,0.19,11.60,-0.41,-1.98,38.67,-4.54,-0.77,88.36,3.61,0.10,-45.87
-7,-5,565,62,-209,3942,-0.31,0.14,13.89,0.62,-2.09,39.42,-4.53,-0.77,88.31,1.78,1.95,-43.20
-13,6,582,11,-286,3915,-0.36,0.17,16.05,0.11,-2.86,39.15,-4.52,-0.75,88.24,3.12,-0.77,-42.67
-24,6,647,31,-284,3921,-0.47,0.19,18.39,0.31,-2.84,39.21,-4.51,-0.73,88.17,5.50,-0.70,-46.05
2,-12,662,20,-274,3993,-0.41,0.09,20.59,0.20,-2.74,39.93,-4.50,-0.71,88.09,-0.89,3.53,-45.32
-17,4,719,-60,-354,3966,-0.47,0.11,22.92,-0.60,-3.54,39.66,-4.51,-0.69,88.00,3.70,-0.49,-48.03
-1,2,723,-12,-371,3953,-0.43,0.11,25.04,-0.12,-3.71,39.53,-4.52,-0.67,87.90,-0.21,0.02,-46.44
-8,4,786,-27,-273,3894,-0.44,0.12,27.33,-0.27,-2.73,38.94,-4.52,-0.64,87.79,1.55,-0.45,-49.69
-9,16,807,-8,-304,3946,-0.45,0.21,29.52,-0.08,-3.04,39.46,-4.52,-0.61,87.67,1.76,-3.18,-49.48
-13,11,893,13,-291,3868,-0.48,0.25,32.01,0.13,-2.91,38.68,-4.51,-0.59,87.54,2.65,-1.74,-54.49
-25,7,916,20,-256,3982,-0.59,0.27,34.40,0.20,-2.56,39.82,-4.50,-0.57,87.41,5.30,-0.67,-54.26
-3,18,901,52,-426,3945,-0.55,0.35,36.46,0.52,-4.26,39.45,-4.52,-0.56,87.26,-0.14,-3.15,-51.11
-6,11,892,27,-335,3973,-0.53,0.39,38.25,0.27,-3.35,39.73,-4.54,-0.54,87.11,0.70,-1.26,-48.71
-17,2,822,-24,-449,3826,-0.58,0.36,39.44,-0.24,-4.49,38.26,-4.56,-0.51,86.95,3.31,0.92,-41.69
-12,6,826,-51,-512,3937,-0.59,0.36,40.53,-0.51,-5.12,39.37,-4.58,-0.49,86.79,1.99,-0.10,-41.02
-17,2,779,-39,-470,3952,-0.64,0.34,41.23,-0.39,-4.70,39.52,-4.60,-0.47,86.63,3.09,0.82,-36.39
-21,11,774,-35,-459,3893,-0.70,0.37,41.83,-0.35,-4.59,38.93,-4.62,-0.45,86.46,3.87,-1.34,-35.42
-20,-14,813,-43,-287,4160,-0.75,0.25,42.61,-0.43,-2.87,41.60,-4.62,-0.42,86.29,3.42,4.54,-38.00
-17,0,813,-71,-405,3824,-0.78,0.22,43.31,-0.71,-4.05,38.24,-4.64,-0.39,86.12,2.56,0.88,-37.36
-11,-4,813,-80,-364,3886,-0.77,0.18,43.93,-0.80,-3.64,38.86,-4.65,-0.36,85.94,1.08,1.72,-36.77
-2,0,810,-51,-376,3907,-0.71,0.16,44.48,-0.51,-3.76,39.07,-4.66,-0.33,85.76,-0.96,0.63,-36.01
-14,4,768,-44,-387,3874,-0.72,0.17,44.72,-0.44,-3.87,38.74,-4.68,-0.30,85.59,2.04,-0.36,-32.22
-15,17,756,-40,-344,3931,-0.74,0.25,44.86,-0.40,-3.44,39.31,-4.69,-0.27,85.41,2.22,-3.35,-31.06
-3,6,731,-71,-317,3948,-0.68,0.27,44.83,-0.71,-3.17,39.48,-4.69,-0.23,85.23,-0.62,-0.52,-28.96
-3,3,730,-73,-326,3933,-0.63,0.26,44.80,-0.73,-3.26,39.33,-4.70,-0.20,85.05,-0.43,0.21,-28.89
-13,-1,747,-19,-285,3913,-0.65,0.23,44.88,-0.19,-2.85,39.13,-4.69,-0.17,84.87,2.05,1.10,-30.24
-17,5,747,-23,-304,3991,-0.69,0.23,44.95,-0.23,-3.04,39.91,-4.68,-0.14,84.69,2.92,-0.41,-30.17
-15,5,740,-126,-297,3934,-0.71,0.24,44.97,-1.26,-2.97,39.34,-4.68,-0.11,84.51,2.33,-0.39,-29.54
-4,7,749,-158,-276,3914,-0.66,0.26,45.04,-1.58,-2.76,39.14,-4.68,-0.07,84.33,-0.29,-0.83,-30.23
-4,17,769,-161,-253,3944,-0.62,0.34,45.23,-1.61,-2.53,39.44,-4.67,-0.04,84.15,-0.14,-3.09,-31.74
-11,16,785,-156,-319,3895,-0.63,0.40,45.49,-1.56,-3.19,38.95,-4.67,-0.01,83.97,1.63,-2.60,-32.84
-5,18,851,-122,-275,3931,-0.60,0.47,46.13,-1.22,-2.75,39.31,-4.67,0.03,83.79,0.22,-2.86,-37.83
-8,18,873,-157,-275,3920,-0.58,0.53,46.85,-1.57,-2.75,39.20,-4.67,0.06,83.60,1.02,-2.63,-39.04
-6,7,930,-123,-225,3956,-0.56,0.52,47.83,-1.23,-2.25,39.56,-4.66,0.09,83.41,0.60,0.12,-42.96
-13,10,928,-90,-214,3934,-0.59,0.53,48.71,-0.90,-2.14,39.34,-4.65,0.12,83.22,2.28,-0.62,-41.98
-7,9,897,-100,-290,4023,-0.57,0.53,49.31,-1.00,-2.90,40.23,-4.64,0.16,83.02,0.82,-0.37,-38.79
-9,18,883,-52,-299,3942,-0.57,0.59,49.77,-0.52,-2.99,39.42,-4.63,0.19,82.82,1.33,-2.45,-37.18
-20,13,912,86,-394,3948,-0.63,0.61,50.35,0.86,-3.94,39.48,-4.65,0.20,82.62,3.89,-1.10,-39.08
-12,18,916,60,-276,3952,-0.64,0.66,50.91,0.60,-2.76,39.52,-4.64,0.20,82.42,1.81,-2.19,-38.90
-5,9,910,-117,-235,3897,-0.61,0.65,51.37,-1.17,-2.35,38.97,-4.63,0.24,82.21,0.16,0.05,-37.96
-21,21,909,-79,-245,3924,-0.68,0.71,51.77,-0.79,-2.45,39.24,-4.62,0.27,82.01,3.97,-2.77,-37.49
-12,13,927,17,-256,3974,-0.68,0.72,52.25,0.17,-2.56,39.74,-4.60,0.28,81.80,1.66,-0.71,-38.56
-3,25,922,-56,-217,3909,-0.63,0.80,52.65,-0.56,-2.17,39.09,-4.59,0.30,81.59,-0.44,-3.47,-37.75
-13,20,979,-14,-116,3995,-0.65,0.84,53.36,-0.14,-1.16,39.95,-4.57,0.32,81.38,2.03,-2.04,-41.92
-3,20,1026,-59,-127,3932,-0.60,0.88,54.28,-0.59,-1.27,39.32,-4.55,0.35,81.16,-0.34,-1.90,-45.05
-4,14,1160,-160,-160,3939,-0.57,0.88,55.93,-1.60,-1.60,39.39,-4.54,0.38,80.94,0.05,-0.40,-54.89
-5,30,1215,-122,-253,3894,-0.54,0.97,57.75,-1.22,-2.53,38.94,-4.53,0.42,80.71,0.40,-4.12,-57.87
-33,13,1347,-78,-336,3957,-0.69,0.95,60.19,-0.78,-3.36,39.57,-4.54,0.46,80.47,6.96,0.13,-66.82
-20,15,1364,-157,-254,3899,-0.74,0.95,62.49,-1.57,-2.54,38.99,-4.53,0.50,80.22,3.46,-0.40,-66.15
-4,35,1394,-129,-424,3968,-0.69,1.07,64.74,-1.29,-4.24,39.68,-4.55,0.54,79.96,-0.42,-5.05,-66.62
-18,21,1398,-94,-312,3958,-0.73,1.09,66.80,-0.94,-3.12,39.58,-4.55,0.58,79.70,2.98,-1.42,-65.07
-21,22,1381,56,-358,3894,-0.79,1.12,68.54,0.56,-3.58,38.94,-4.56,0.59,79.42,3.54,-1.59,-62.03
-22,35,1369,-11,-363,3988,-0.84,1.22,70.04,-0.11,-3.63,39.88,-4.57,0.61,79.14,3.59,-4.51,-59.63
-23,15,1330,-57,-365,4046,-0.90,1.19,71.15,-0.57,-3.65,40.46,-4.59,0.64,78.86,3.64,0.45,-55.29
-16,22,1307,56,-239,3933,-0.91,1.20,72.01,0.56,-2.39,39.33,-4.58,0.65,78.57,1.83,-1.27,-52.54
-17,22,1238,241,-522,3917,-0.92,1.22,72.36,2.41,-5.22,39.17,-4.59,0.67,78.29,2.03,-1.22,-46.35
-15,21,1224,336,-495,3996,-0.92,1.22,72.59,3.36,-4.95,39.96,-4.60,0.68,78.00,1.53,-0.95,-44.93
-16,21,1187,288,-486,3934,-0.92,1.23,72.57,2.88,-4.86,39.34,-4.61,0.69,77.71,1.76,-0.93,-41.78
-16,8,1180,253,-485,3939,-0.93,1.15,72.51,2.53,-4.85,39.39,-4.62,0.70,77.42,1.75,2.09,-41.22
-11,10,1158,120,-344,3829,-0.90,1.10,72.32,1.20,-3.44,38.29,-4.62,0.71,77.13,0.57,1.38,-39.50
-1,9,1121,76,-235,3920,-0.82,1.05,71.93,0.76,-2.35,39.20,-4.61,0.72,76.85,-1.65,1.42,-36.69
-3,26,999,256,-518,3892,-0.76,1.10,70.83,2.56,-5.18,38.92,-4.62,0.74,76.56,-0.90,-2.70,-27.33
-5,22,969,167,-457,3968,-0.71,1.12,69.66,1.67,-4.57,39.68,-4.63,0.75,76.29,-0.22,-1.59,-25.83
0,17,920,210,-419,3941,-0.64,1.11,68.30,2.10,-4.19,39.41,-4.63,0.76,76.01,-1.22,-0.36,-22.88
-16,-4,919,205,-446,3922,-0.67,0.98,67.08,2.05,-4.46,39.22,-4.64,0.77,75.75,2.72,4.47,-23.88
-5,-6,914,77,-442,3968,-0.64,0.84,65.95,0.77,-4.42,39.68,-4.65,0.78,75.48,0.06,4.47,-24.46
-9,3,915,34,-396,3938,-0.63,0.78,64.93,0.34,-3.96,39.38,-4.66,0.79,75.23,1.11,1.93,-25.44
1,-3,988,-44,-370,3929,-0.56,0.68,64.47,-0.44,-3.70,39.29,-4.68,0.81,74.97,-1.16,3.09,-32.03
-12,-5,1023,5,-369,3957,-0.58,0.58,64.26,0.05,-3.69,39.57,-4.69,0.82,74.71,2.08,3.22,-35.16
-1,7,1144,-85,-242,3962,-0.52,0.57,64.81,-0.85,-2.42,39.62,-4.67,0.84,74.46,-0.53,0.10,-44.88
-27,4,1198,-70,-311,3972,-0.64,0.54,65.64,-0.70,-3.11,39.72,-4.65,0.88,74.19,5.65,0.74,-48.69
-17,5,1340,-173,-493,3967,-0.68,0.51,67.25,-1.73,-4.93,39.67,-4.67,0.91,73.93,2.96,0.39,-59.23
-15,8,1376,-156,-392,3911,-0.70,0.51,68.92,-1.56,-3.92,39.11,-4.68,0.95,73.65,2.37,-0.39,-60.74
-21,13,1474,-116,-486,3963,-0.76,0.54,71.02,-1.16,-4.86,39.63,-4.69,0.98,73.37,3.68,-1.57,-67.12
-17,29,1473,-158,-518,3898,-0.79,0.66,72.90,-1.58,-5.18,38.98,-4.71,1.02,73.08,2.56,-5.18,-65.30
-15,18,1347,-284,-506,3956,-0.80,0.70,73.83,-2.84,-5.06,39.56,-4.72,1.06,72.78,2.01,-2.23,-53.75
-20,15,1291,-239,-533,3881,-0.84,0.73,74.32,-2.39,-5.33,38.81,-4.73,1.10,72.49,3.12,-1.39,-48.54
-1,9,1098,-114,-426,3924,-0.76,0.71,73.59,-1.14,-4.26,39.24,-4.74,1.13,72.20,-1.41,0.06,-32.82
-3,15,1055,-144,-430,3926,-0.71,0.73,72.66,-1.44,-4.30,39.26,-4.76,1.17,71.91,-0.68,-1.40,-29.99
-15,8,952,57,-504,3987,-0.73,0.70,71.20,0.57,-5.04,39.87,-4.77,1.18,71.62,2.29,0.28,-22.56
-2,24,891,69,-521,3988,-0.67,0.78,69.52,0.69,-5.21,39.88,-4.78,1.20,71.35,-0.78,-3.50,-18.90
-18,-5,850,-161,-325,3930,-0.71,0.67,67.75,-1.61,-3.25,39.30,-4.78,1.24,71.08,3.12,3.45,-17.01
-6,-5,864,-182,-362,3921,-0.67,0.57,66.25,-1.82,-3.62,39.21,-4.78,1.28,70.81,0.20,3.07,-19.53
-2,21,873,181,-458,3954,-0.62,0.65,64.95,1.81,-4.58,39.54,-4.78,1.29,70.55,-0.60,-3.27,-21.45
-7,9,855,203,-274,3945,-0.60,0.64,63.67,2.03,-2.74,39.45,-4.78,1.30,70.30,0.74,-0.26,-21.07
-2,10,817,184,-324,3920,-0.55,0.63,62.29,1.84,-3.24,39.20,-4.77,1.30,70.05,-0.35,-0.52,-19.08
-2,6,796,5,-169,4013,-0.51,0.61,60.91,0.05,-1.69,40.13,-4.75,1.31,69.81,-0.20,0.39,-18.52
-10,4,744,-180,-172,3966,-0.52,0.57,59.36,-1.80,-1.72,39.66,-4.73,1.35,69.57,1.79,0.75,-15.51
-20,2,736,-166,-70,3955,-0.59,0.53,57.91,-1.66,-0.70,39.55,-4.71,1.37,69.34,4.07,1.09,-16.12
-1,12,678,-142,-217,3889,-0.54,0.55,56.26,-1.42,-2.17,38.89,-4.69,1.40,69.12,-0.57,-1.38,-12.69
-16,15,667,-75,-304,3902,-0.58,0.58,54.70,-0.75,-3.04,39.02,-4.68,1.41,68.90,3.08,-2.01,-13.15
-18,10,661,-126,-361,3878,-0.63,0.59,53.26,-1.26,-3.61,38.78,-4.69,1.44,68.69,3.39,-0.73,-13.93
-1,12,660,-139,-423,3970,-0.58,0.60,51.96,-1.39,-4.23,39.70,-4.71,1.46,68.48,-0.71,-1.19,-15.00
-7,10,656,114,-482,3951,-0.56,0.60,50.77,1.14,-4.82,39.51,-4.71,1.47,68.28,0.87,-0.68,-15.73
-11,15,641,141,-469,3934,-0.57,0.63,49.60,1.41,-4.69,39.34,-4.72,1.47,68.08,1.85,-1.84,-15.50
-5,12,586,132,-398,3896,-0.54,0.64,48.22,1.32,-3.98,38.96,-4.72,1.47,67.89,0.42,-1.04,-12.08
-7,14,567,127,-449,3888,-0.53,0.66,46.85,1.27,-4.49,38.88,-4.73,1.47,67.70,0.98,-1.47,-11.69
3,0,514,157,-374,3892,-0.46,0.60,45.30,1.57,-3.74,38.92,-4.73,1.47,67.52,-1.29,1.84,-8.59
-5,5,524,115,-401,3888,-0.45,0.57,43.97,1.15,-4.01,38.88,-4.73,1.47,67.35,0.80,0.46,-10.63
-12,8,522,43,-416,3995,-0.47,0.56,42.76,0.43,-4.16,39.95,-4.74,1.47,67.18,2.47,-0.33,-11.55
-7,-12,493,-12,-341,3965,-0.47,0.43,41.49,-0.12,-3.41,39.65,-4.74,1.47,67.01,1.22,4.27,-10.23
-4,1,523,-266,-67,3939,-0.45,0.39,40.53,-2.66,-0.67,39.39,-4.72,1.49,66.85,0.54,0.82,-13.62
-16,-2,544,-289,-142,3857,-0.50,0.34,39.79,-2.89,-1.42,38.57,-4.71,1.52,66.69,3.39,1.38,-16.05
-12,1,515,-399,-116,3999,-0.52,0.31,38.96,-3.99,-1.16,39.99,-4.70,1.55,66.54,2.28,0.50,-14.34
-15,0,503,-406,-93,3920,-0.56,0.28,38.13,-4.06,-0.93,39.20,-4.68,1.58,66.38,2.89,0.63,-14.06
-15,2,497,-182,-121,3905,-0.60,0.27,37.35,-1.82,-1.21,39.05,-4.66,1.60,66.23,2.75,0.06,-14.25
0,9,480,-183,-133,4009,-0.54,0.29,36.54,-1.83,-1.33,40.09,-4.64,1.62,66.09,-0.84,-1.62,-13.53
-1,3,385,-189,-178,3929,-0.49,0.28,35.24,-1.89,-1.78,39.29,-4.63,1.64,65.95,-0.41,-0.14,-6.65
-6,3,366,-198,-101,3940,-0.48,0.27,33.94,-1.98,-1.01,39.40,-4.61,1.66,65.81,0.90,-0.18,-6.20
-4,-1,268,-198,-205,3871,-0.45,0.24,32.19,-1.98,-2.05,38.71,-4.59,1.68,65.68,0.48,0.70,0.51
3,0,226,-306,-152,3880,-0.39,0.22,30.35,-3.06,-1.52,38.80,-4.58,1.71,65.56,-1.06,0.35,2.41
4,8,276,-101,-241,3988,-0.33,0.24,28.99,-1.01,-2.41,39.88,-4.56,1.71,65.45,-1.08,-1.58,-3.04
-4,17,276,105,-294,4021,-0.32,0.32,27.78,1.05,-2.94,40.21,-4.55,1.70,65.33,0.98,-3.57,-4.13
-14,16,217,-23,-281,3967,-0.37,0.39,26.32,-0.23,-2.81,39.67,-4.55,1.70,65.23,3.32,-3.07,-0.44
-11,10,231,-113,-215,3924,-0.40,0.41,25.10,-1.13,-2.15,39.24,-4.53,1.71,65.13,2.44,-1.46,-2.73
25,4,460,-154,-149,3747,-0.21,0.39,25.40,-1.54,-1.49,37.47,-4.51,1.72,65.03,-5.99,-0.00,-21.85
-11,9,496,133,-296,4072,-0.26,0.41,25.88,1.33,-2.96,40.72,-4.50,1.71,64.92,2.98,-1.21,-24.45
3,5,520,-120,-345,3925,-0.21,0.40,26.47,-1.20,-3.45,39.25,-4.52,1.72,64.82,-0.41,-0.24,-25.95
-15,1,532,65,-365,4015,-0.28,0.36,27.07,0.65,-3.65,40.15,-4.52,1.71,64.71,3.91,0.65,-26.41
-9,10,564,103,-360,3919,-0.31,0.39,27.80,1.03,-3.60,39.19,-4.52,1.71,64.60,2.28,-1.54,-28.45
2,1,593,14,-322,3886,-0.27,0.36,28.64,0.14,-3.22,38.86,-4.52,1.70,64.49,-0.35,0.63,-30.13
2,7,505,-19,-363,3983,-0.23,0.36,28.85,-0.19,-3.63,39.83,-4.53,1.69,64.37,-0.21,-0.87,-22.47
1,0,494,-48,-307,3853,-0.20,0.33,28.98,-0.48,-3.07,38.53,-4.53,1.69,64.26,0.16,0.77,-21.41
-4,0,449,-11,-482,3918,-0.20,0.29,28.82,-0.11,-4.82,39.18,-4.54,1.69,64.14,1.41,0.65,-17.73
-11,9,435,-13,-478,3961,-0.25,0.32,28.59,-0.13,-4.78,39.61,-4.55,1.69,64.03,3.02,-1.54,-16.74
2,21,513,-115,-359,3988,-0.21,0.42,28.86,-1.15,-3.59,39.88,-4.57,1.70,63.91,-0.14,-4.23,-23.10
-4,1,508,-67,-378,3925,-0.22,0.38,29.08,-0.67,-3.78,39.25,-4.58,1.70,63.80,1.37,0.72,-22.47
-16,10,586,-215,-446,3931,-0.29,0.40,29.74,-2.15,-4.46,39.31,-4.59,1.72,63.68,4.14,-1.49,-28.46
3,14,633,-106,-397,3949,-0.24,0.45,30.63,-1.06,-3.97,39.49,-4.61,1.73,63.56,-0.51,-2.34,-31.63
-15,-1,748,-88,-329,3872,-0.31,0.40,32.13,-0.88,-3.29,38.72,-4.61,1.72,63.43,3.82,1.28,-40.00
-20,16,768,-50,-545,3972,-0.40,0.46,33.60,-0.50,-5.45,39.72,-4.63,1.73,63.30,4.75,-2.82,-40.35
-12,15,832,-151,-340,3923,-0.44,0.50,35.32,-1.51,-3.40,39.23,-4.64,1.76,63.16,2.60,-2.40,-44.20
-17,11,864,-135,-326,3894,-0.50,0.52,37.06,-1.35,-3.26,38.94,-4.64,1.79,63.01,3.64,-1.33,-45.32
-17,18,900,-135,-453,3960,-0.55,0.58,38.84,-1.35,-4.53,39.60,-4.66,1.80,62.86,3.44,-2.89,-46.74
1,10,890,-116,-399,3919,-0.49,0.58,40.38,-1.16,-3.99,39.19,-4.67,1.82,62.70,-0.90,-0.85,-44.47
12,20,896,-157,-257,3948,-0.37,0.64,41.81,-1.57,-2.57,39.48,-4.65,1.84,62.53,-3.24,-3.16,-43.67
4,-1,902,-61,-273,3830,-0.31,0.57,43.13,-0.61,-2.73,38.30,-4.64,1.84,62.36,-0.98,1.91,-42.97
-12,1,877,-7,-251,4037,-0.35,0.52,44.17,-0.07,-2.51,40.37,-4.63,1.84,62.18,2.92,1.21,-39.89
-21,18,863,-24,-256,3931,-0.44,0.58,45.02,-0.24,-2.56,39.31,-4.61,1.84,62.00,4.85,-2.89,-37.92
2,10,828,-110,-295,3860,-0.38,0.58,45.57,-1.10,-2.95,38.60,-4.60,1.85,61.82,-0.78,-0.85,-34.44
6,8,822,-159,-309,4008,-0.31,0.57,46.02,-1.59,-3.09,40.08,-4.58,1.88,61.63,-1.52,-0.38,-33.50
-6,-5,882,-182,-314,3825,-0.32,0.49,46.80,-1.82,-3.14,38.25,-4.58,1.92,61.45,1.51,2.58,-37.86
-17,3,897,-128,-301,4033,-0.39,0.46,47.59,-1.28,-3.01,40.33,-4.56,1.93,61.26,4.03,0.43,-38.40
-8,28,880,-204,-362,3966,-0.40,0.58,48.20,-2.04,-3.62,39.66,-4.56,1.96,61.07,1.70,-5.46,-36.39
5,18,855,-255,-400,3930,-0.33,0.63,48.60,-2.55,-4.00,39.30,-4.57,1.99,60.87,-1.34,-2.73,-33.89
-19,-14,582,-293,412,3966,-0.41,0.48,47.29,-2.93,4.12,39.66,-4.55,2.02,60.68,4.45,4.84,-11.93
22,31,446,-195,-79,3812,-0.24,0.62,45.28,-1.95,-0.79,38.12,-4.52,2.04,60.50,-5.32,-6.08,-2.22
-16,23,525,-21,-471,3997,-0.31,0.70,43.95,-0.21,-4.71,39.97,-4.53,2.04,60.33,4.06,-3.75,-10.10
4,30,565,-11,-437,3948,-0.25,0.81,43.00,-0.11,-4.37,39.48,-4.54,2.05,60.16,-0.81,-5.11,-14.33
-10,22,715,56,-415,4003,-0.29,0.87,43.07,0.56,-4.15,40.03,-4.54,2.05,59.99,2.61,-2.87,-26.97
-2,7,791,90,-498,3991,-0.27,0.82,43.58,0.90,-4.98,39.91,-4.55,2.05,59.81,0.64,0.77,-32.92
-13,14,965,18,-456,3982,-0.32,0.83,45.11,0.18,-4.56,39.82,-4.56,2.05,59.63,3.25,-1.00,-46.26
-14,21,998,1,-507,3850,-0.38,0.87,46.69,0.01,-5.07,38.50,-4.57,2.06,59.45,3.30,-2.61,-47.61
-6,10,1061,-28,-424,3937,-0.38,0.85,48.49,-0.28,-4.24,39.37,-4.57,2.07,59.25,1.28,0.09,-51.29
-3,8,1060,-126,-448,3883,-0.36,0.81,50.11,-1.26,-4.48,38.83,-4.58,2.08,59.06,0.59,0.46,-49.72
-24,21,1038,-141,-429,3920,-0.47,0.86,51.43,-1.41,-4.29,39.20,-4.60,2.10,58.85,5.51,-2.67,-46.64
5,13,1021,-136,-272,3947,-0.39,0.85,52.52,-1.36,-2.72,39.47,-4.57,2.12,58.64,-1.57,-0.67,-44.20
-6,10,908,-133,-202,3927,-0.39,0.83,52.80,-1.33,-2.02,39.27,-4.55,2.14,58.43,1.23,-0.00,-34.35
-16,7,859,-143,-358,3923,-0.45,0.79,52.76,-1.43,-3.58,39.23,-4.56,2.16,58.22,3.55,0.61,-30.21
-3,8,638,-4,-190,3954,-0.42,0.76,51.38,-0.04,-1.90,39.54,-4.54,2.16,58.02,0.34,0.24,-12.73
-7,14,562,-55,-308,3871,-0.42,0.77,49.67,-0.55,-3.08,38.71,-4.54,2.16,57.82,1.35,-1.25,-7.82
0,0,468,-28,-288,3910,-0.38,0.69,47.56,-0.28,-2.88,39.10,-4.53,2.16,57.63,-0.27,2.02,-1.76
4,6,456,-24,-296,3970,-0.32,0.66,45.58,-0.24,-2.96,39.70,-4.52,2.16,57.45,-1.05,0.37,-2.52
-1,5,496,59,-321,3982,-0.29,0.62,44.05,0.59,-3.21,39.82,-4.52,2.16,57.27,0.31,0.49,-7.28
-6,3,513,49,-377,3962,-0.30,0.58,42.77,0.49,-3.77,39.62,-4.52,2.16,57.10,1.55,0.84,-9.86
-4,6,554,-35,-393,3920,-0.29,0.56,41.88,-0.35,-3.93,39.20,-4.52,2.16,56.93,1.07,-0.00,-14.14
-6,-5,549,16,-436,3967,-0.30,0.47,41.04,0.16,-4.36,39.67,-4.53,2.16,56.77,1.55,2.47,-14.46
-12,11,584,-25,-480,3917,-0.34,0.49,40.50,-0.25,-4.80,39.17,-4.54,2.16,56.61,2.92,-1.53,-17.90
8,19,593,-28,-439,3947,-0.26,0.56,40.06,-0.28,-4.39,39.47,-4.55,2.16,56.45,-1.85,-3.31,-19.04
-6,13,613,-8,-391,3862,-0.27,0.58,39.80,-0.08,-3.91,38.62,-4.55,2.16,56.29,1.67,-1.69,-20.96
-18,20,609,-193,-448,3850,-0.35,0.65,39.53,-1.93,-4.48,38.50,-4.56,2.18,56.14,4.41,-3.24,-20.85
-17,12,602,-65,-409,3903,-0.42,0.65,39.25,-0.65,-4.09,39.03,-4.57,2.19,55.98,3.90,-1.17,-20.50
4,-13,634,72,-285,3919,-0.36,0.51,39.19,0.72,-2.85,39.19,-4.57,2.18,55.82,-1.19,4.64,-23.25
-11,8,717,103,-387,3894,-0.39,0.51,39.65,1.03,-3.87,38.94,-4.57,2.18,55.67,2.51,-0.71,-29.85
11,1,698,138,-444,4045,-0.28,0.46,39.94,1.38,-4.44,40.45,-4.57,2.18,55.51,-2.69,0.90,-27.96
-3,10,678,59,-444,3979,-0.27,0.48,40.08,0.59,-4.44,39.79,-4.57,2.18,55.35,0.91,-1.33,-26.13
-6,1,684,34,-434,3951,-0.28,0.44,40.25,0.34,-4.34,39.51,-4.58,2.18,55.19,1.64,0.80,-26.47
-13,-1,699,65,-435,3953,-0.33,0.39,40.49,0.65,-4.35,39.53,-4.58,2.17,55.03,3.22,1.13,-27.51
-2,8,701,-23,-507,3933,-0.31,0.40,40.71,-0.23,-5.07,39.33,-4.59,2.18,54.86,0.51,-1.12,-27.46
-3,0,662,-100,-626,3876,-0.30,0.36,40.68,-1.00,-6.26,38.76,-4.61,2.19,54.70,0.82,0.76,-24.17
-2,3,654,-107,-692,3871,-0.28,0.34,40.60,-1.07,-6.92,38.71,-4.62,2.20,54.54,0.63,-0.07,-23.55
-11,-27,667,-50,-507,3983,-0.32,0.14,40.61,-0.50,-5.07,39.83,-4.63,2.21,54.38,2.77,6.80,-24.63
-18,-10,663,-2,-551,3859,-0.40,0.07,40.59,-0.02,-5.51,38.59,-4.64,2.21,54.22,4.26,2.20,-24.29
-9,-10,620,-189,-360,3988,-0.41,-0.00,40.32,-1.89,-3.60,39.88,-4.65,2.24,54.06,1.92,1.94,-20.88
-1,13,602,-147,-310,3838,-0.38,0.08,39.96,-1.47,-3.10,38.38,-4.63,2.23,53.90,0.02,-3.61,-19.67
-5,8,538,-184,-193,3914,-0.37,0.12,39.24,-1.84,-1.93,39.14,-4.61,2.25,53.74,1.05,-2.19,-14.88
-9,-2,516,-290,-202,3953,-0.39,0.09,38.47,-2.90,-2.02,39.53,-4.60,2.28,53.59,2.00,0.26,-13.71
-4,0,413,-318,-187,3950,-0.37,0.09,37.14,-3.18,-1.87,39.50,-4.58,2.31,53.44,0.78,-0.29,-6.17
1,8,397,-302,-163,3893,-0.33,0.13,35.85,-3.02,-1.63,38.93,-4.56,2.33,53.30,-0.33,-2.18,-5.98
-8,5,352,-179,-315,3959,-0.35,0.14,34.41,-1.79,-3.15,39.59,-4.56,2.36,53.16,1.90,-1.36,-3.46
-3,8,298,-177,-370,3923,-0.33,0.18,32.79,-1.77,-3.70,39.23,-4.57,2.38,53.03,0.69,-1.99,-0.34
-2,11,287,-100,-330,3958,-0.31,0.23,31.26,-1.00,-3.30,39.58,-4.57,2.37,52.90,0.51,-2.57,-0.79
0,16,311,-91,-333,3909,-0.28,0.30,30.03,-0.91,-3.33,39.09,-4.57,2.36,52.78,0.12,-3.56,-3.92
-9,4,394,46,-432,3999,-0.31,0.30,29.43,0.46,-4.32,39.99,-4.58,2.36,52.67,2.31,-0.53,-11.49
-6,18,403,-42,-407,3962,-0.31,0.38,28.95,-0.42,-4.07,39.62,-4.58,2.35,52.55,1.52,-3.78,-12.68
-4,11,515,-22,-387,3954,-0.30,0.41,29.19,-0.22,-3.87,39.54,-4.59,2.35,52.44,1.04,-1.89,-21.94
-13,8,542,3,-408,3954,-0.35,0.41,29.58,0.03,-4.08,39.54,-4.59,2.34,52.32,3.15,-1.10,-23.86
-3,13,603,23,-333,3988,-0.34,0.45,30.30,0.23,-3.33,39.88,-4.59,2.33,52.20,0.67,-2.22,-28.36
4,6,594,23,-221,3982,-0.28,0.44,30.89,0.23,-2.21,39.82,-4.58,2.33,52.07,-0.89,-0.48,-27.05
-17,22,650,59,-275,3924,-0.35,0.53,31.77,0.59,-2.75,39.24,-4.57,2.32,51.95,4.16,-4.20,-30.99
-7,22,665,73,-200,3912,-0.36,0.61,32.65,0.73,-2.00,39.12,-4.56,2.32,51.82,1.58,-3.90,-31.45
0,17,695,5,-212,3912,-0.33,0.66,33.62,0.05,-2.12,39.12,-4.55,2.32,51.68,-0.06,-2.47,-33.10
-11,16,694,63,-345,3984,-0.36,0.69,34.49,0.63,-3.45,39.84,-4.54,2.31,51.55,2.60,-2.09,-32.21
-14,16,610,-20,-187,3959,-0.41,0.72,34.77,-0.20,-1.87,39.59,-4.53,2.31,51.41,3.18,-1.98,-24.83
4,9,622,-42,-91,3844,-0.34,0.70,35.08,-0.42,-0.91,38.44,-4.51,2.32,51.27,-1.16,-0.27,-25.55
-6,9,658,-172,-343,3924,-0.35,0.69,35.59,-1.72,-3.43,39.24,-4.52,2.34,51.12,1.38,-0.33,-28.13
1,12,669,-139,-373,3911,-0.31,0.69,36.11,-1.39,-3.73,39.11,-4.53,2.35,50.98,-0.25,-1.08,-28.57
17,12,753,48,-275,3973,-0.17,0.69,37.09,0.48,-2.75,39.73,-4.52,2.34,50.83,-3.81,-1.06,-34.79
-8,20,734,228,-296,4079,-0.20,0.75,37.86,2.28,-2.96,40.79,-4.52,2.34,50.68,2.42,-2.90,-32.47
-10,7,749,-130,-303,3843,-0.24,0.71,38.64,-1.30,-3.03,38.43,-4.51,2.34,50.53,2.78,0.29,-33.01
-13,-1,800,-183,-351,3915,-0.30,0.64,39.66,-1.83,-3.51,39.15,-4.52,2.36,50.37,3.34,2.02,-36.40
2,19,810,-165,-378,3902,-0.26,0.69,40.63,-1.65,-3.78,39.02,-4.54,2.38,50.21,-0.31,-2.87,-36.35
-2,4,817,-131,-395,3977,-0.24,0.64,41.55,-1.31,-3.95,39.77,-4.55,2.39,50.05,0.76,0.78,-36.09
8,14,719,13,-392,4033,-0.17,0.67,41.79,0.13,-3.92,40.33,-4.55,2.39,49.88,-1.51,-1.69,-27.56
-3,14,686,-39,-380,3930,-0.17,0.68,41.79,-0.39,-3.80,39.30,-4.55,2.39,49.71,1.28,-1.62,-24.75
0,15,712,-170,-325,4013,-0.15,0.71,41.96,-1.70,-3.25,40.13,-4.56,2.41,49.55,0.58,-1.79,-26.78
10,18,707,-88,-239,3872,-0.08,0.75,42.07,-0.88,-2.39,38.72,-4.54,2.41,49.38,-1.67,-2.41,-26.24
-3,14,692,-54,-319,3973,-0.09,0.76,42.09,-0.54,-3.19,39.73,-4.53,2.41,49.21,1.59,-1.35,-24.94
-11,15,673,-2,-288,3905,-0.15,0.77,41.98,-0.02,-2.88,39.05,-4.53,2.41,49.04,3.40,-1.54,-23.41
11,18,589,-67,-420,4096,-0.06,0.81,41.38,-0.67,-4.20,40.96,-4.53,2.41,48.88,-1.88,-2.18,-16.83
-11,15,616,-203,-413,3794,-0.13,0.82,41.00,-2.03,-4.13,37.94,-4.54,2.43,48.72,3.48,-1.39,-19.45
-10,-4,701,-172,-428,3953,-0.17,0.71,41.17,-1.72,-4.28,39.53,-4.55,2.45,48.55,3.05,3.04,-26.47
13,5,731,-188,-278,4106,-0.08,0.67,41.52,-1.88,-2.78,41.06,-4.53,2.47,48.39,-2.44,0.60,-28.69
-14,12,753,90,-436,4001,-0.15,0.68,41.96,0.90,-4.36,40.01,-4.53,2.47,48.22,4.13,-1.16,-30.14
12,9,743,-34,-291,3950,-0.07,0.66,42.29,-0.34,-2.91,39.50,-4.52,2.47,48.05,-2.14,-0.45,-28.97
-7,14,790,-173,-285,3804,-0.10,0.68,42.88,-1.73,-2.85,38.04,-4.50,2.49,47.88,2.54,-1.65,-32.40
-2,14,841,-110,-339,3833,-0.10,0.70,43.73,-1.10,-3.39,38.33,-4.50,2.49,47.71,1.27,-1.59,-35.94
-10,-11,938,-72,-242,4058,-0.15,0.56,45.07,-0.72,-2.42,40.58,-4.48,2.49,47.53,3.11,4.25,-42.92
-10,0,932,-126,-393,3925,-0.20,0.51,46.25,-1.26,-3.93,39.25,-4.49,2.50,47.34,2.94,1.24,-41.33
-2,31,950,-106,-391,3928,-0.19,0.64,47.42,-1.06,-3.91,39.28,-4.50,2.51,47.15,0.93,-6.12,-41.77
-2,9,971,-82,-374,3968,-0.19,0.64,48.60,-0.82,-3.74,39.68,-4.50,2.51,46.96,0.96,-0.56,-42.46
-7,12,1034,-34,-346,3962,-0.21,0.64,50.05,-0.34,-3.46,39.62,-4.50,2.51,46.76,2.14,-1.29,-46.47
-9,7,1067,-23,-326,3923,-0.24,0.62,51.55,-0.23,-3.26,39.23,-4.49,2.51,46.55,2.52,-0.10,-47.88
-13,13,1217,82,-306,3932,-0.30,0.64,53.82,0.82,-3.06,39.32,-4.48,2.51,46.34,3.33,-1.56,-58.51
-2,7,1263,141,-243,3996,-0.28,0.62,56.14,1.41,-2.43,39.96,-4.47,2.51,46.12,0.59,-0.12,-60.28
-19,31,1420,51,-299,4063,-0.37,0.75,59.19,0.51,-2.99,40.63,-4.46,2.52,45.88,4.58,-5.74,-70.80
0,27,1449,103,-274,3919,-0.33,0.84,62.11,1.03,-2.74,39.19,-4.45,2.52,45.63,-0.11,-4.39,-70.58
-27,29,1476,10,-405,3870,-0.46,0.93,64.90,0.10,-4.05,38.70,-4.45,2.53,45.37,6.26,-4.54,-70.31
-9,32,1470,-26,-438,3951,-0.47,1.03,67.38,-0.26,-4.38,39.51,-4.45,2.54,45.11,1.65,-4.93,-67.53
-18,27,1348,-38,-476,3870,-0.53,1.09,68.87,-0.38,-4.76,38.70,-4.45,2.56,44.83,3.70,-3.43,-55.83
-7,20,1240,80,-472,3971,-0.52,1.11,69.54,0.80,-4.72,39.71,-4.45,2.57,44.55,0.95,-1.60,-46.04
-17,21,1070,-2,-444,3917,-0.58,1.12,69.12,-0.02,-4.44,39.17,-4.46,2.58,44.28,3.30,-1.79,-32.00
-12,22,1040,-42,-478,3955,-0.59,1.15,68.55,-0.42,-4.78,39.55,-4.46,2.59,44.01,1.97,-1.97,-29.94
-21,12,956,-100,-523,3860,-0.66,1.10,67.52,-1.00,-5.23,38.60,-4.47,2.61,43.74,4.00,0.41,-23.73
0,6,949,-86,-520,3888,-0.59,1.03,66.56,-0.86,-5.20,38.88,-4.47,2.63,43.47,-1.09,1.66,-23.99
-11,-1,892,-111,-420,3976,-0.60,0.92,65.35,-1.11,-4.20,39.76,-4.48,2.64,43.21,1.68,3.02,-20.24
-12,-1,860,-203,-406,3903,-0.61,0.82,64.06,-2.03,-4.06,39.03,-4.49,2.67,42.96,1.88,2.64,-18.67
-6,-7,803,-386,-275,3887,-0.59,0.70,62.55,-3.86,-2.75,38.87,-4.48,2.71,42.71,0.45,3.69,-15.19
-2,-6,805,-346,-218,3937,-0.54,0.59,61.21,-3.46,-2.18,39.37,-4.46,2.75,42.47,-0.39,3.03,-16.56
-9,-4,824,-253,-190,4020,-0.54,0.51,60.11,-2.53,-1.90,40.20,-4.43,2.78,42.22,1.38,2.20,-19.14
4,16,809,-360,-274,4031,-0.46,0.55,59.04,-3.60,-2.74,40.31,-4.42,2.82,41.99,-1.64,-2.72,-18.82
-6,14,804,-250,-532,3890,-0.45,0.58,58.04,-2.50,-5.32,38.90,-4.43,2.84,41.76,0.95,-2.10,-19.29
-9,19,783,-219,-576,3942,-0.46,0.64,57.01,-2.19,-5.76,39.42,-4.44,2.86,41.53,1.67,-3.17,-18.42
-1,8,656,-96,-556,3969,-0.42,0.63,55.31,-0.96,-5.56,39.69,-4.44,2.87,41.31,-0.20,-0.43,-9.18
2,20,615,-160,-576,3956,-0.37,0.69,53.53,-1.60,-5.76,39.56,-4.45,2.89,41.10,-0.76,-3.26,-7.30
-8,23,552,-144,-625,3902,-0.38,0.76,51.54,-1.44,-6.25,39.02,-4.46,2.91,40.89,1.74,-3.76,-3.75
-8,16,560,-145,-514,3908,-0.39,0.78,49.81,-1.45,-5.14,39.08,-4.47,2.92,40.70,1.70,-1.90,-5.99
4,21,583,-128,-606,3958,-0.33,0.83,48.38,-1.28,-6.06,39.58,-4.48,2.93,40.50,-1.11,-2.99,-9.21
-4,12,580,-133,-546,3955,-0.32,0.82,47.08,-1.33,-5.46,39.55,-4.49,2.95,40.32,0.96,-0.74,-10.12
-3,21,526,-155,-535,3979,-0.31,0.87,45.58,-1.55,-5.35,39.79,-4.50,2.96,40.14,0.76,-2.86,-6.89
1,18,488,-160,-503,3878,-0.27,0.89,44.00,-1.60,-5.03,38.78,-4.51,2.97,39.96,-0.12,-2.01,-5.09
0,3,441,-95,-395,3984,-0.24,0.82,42.29,-0.95,-3.95,39.84,-4.51,2.98,39.79,0.24,1.54,-2.64
0,18,411,-27,-470,3900,-0.22,0.85,40.57,-0.27,-4.70,39.00,-4.52,2.98,39.63,0.33,-2.17,-1.65
-7,1,354,-6,-457,3950,-0.24,0.77,38.67,-0.06,-4.57,39.50,-4.52,2.98,39.48,2.03,1.85,1.47
-3,7,345,-35,-526,3909,-0.23,0.73,36.91,-0.35,-5.26,39.09,-4.53,2.98,39.33,1.04,0.20,0.65
-4,-2,296,38,-520,3928,-0.23,0.65,35.02,0.38,-5.20,39.28,-4.53,2.98,39.19,1.29,2.17,3.10
2,-9,265,58,-489,3937,-0.20,0.53,33.14,0.58,-4.89,39.37,-4.54,2.98,39.06,-0.10,3.49,4.03
3,3,202,18,-542,3886,-0.16,0.49,31.06,0.18,-5.42,38.86,-4.54,2.98,38.94,-0.21,0.31,7.49
-10,0,212,30,-527,3907,-0.21,0.44,29.24,0.30,-5.27,39.07,-4.55,2.98,38.82,2.93,0.89,5.01
-5,-8,167,-9,-430,3959,-0.22,0.35,27.34,-0.09,-4.30,39.59,-4.56,2.97,38.72,1.62,2.58,7.10
7,1,173,-52,-505,3929,-0.15,0.32,25.66,-0.52,-5.05,39.29,-4.57,2.97,38.61,-1.18,0.18,5.08
6,3,151,-61,-364,3931,-0.10,0.31,24.01,-0.61,-3.64,39.31,-4.57,2.96,38.52,-0.73,-0.38,5.46
-2,2,143,-69,-372,3925,-0.10,0.29,22.49,-0.69,-3.72,39.25,-4.57,2.95,38.43,1.29,-0.19,4.76
-5,-14,158,91,-321,4019,-0.12,0.18,21.20,0.91,-3.21,40.19,-4.57,2.94,38.34,1.98,3.45,2.33
2,-5,135,-35,-326,3928,-0.10,0.13,19.90,-0.35,-3.26,39.28,-4.56,2.93,38.26,0.29,0.98,3.11
-4,-8,43,-154,-307,3931,-0.11,0.07,18.18,-1.54,-3.07,39.31,-4.56,2.92,38.19,1.76,1.51,9.34
-2,-9,22,-147,-321,3924,-0.11,0.00,16.49,-1.47,-3.21,39.24,-4.56,2.90,38.13,1.25,1.54,9.60
-4,-12,25,-16,-432,3947,-0.13,-0.07,15.00,-0.16,-4.32,39.47,-4.57,2.89,38.07,1.71,2.03,7.99
-4,-13,38,-4,-450,3957,-0.14,-0.14,13.73,-0.04,-4.50,39.57,-4.57,2.88,38.01,1.66,2.01,5.74
-5,-3,117,41,-549,3955,-0.15,-0.15,13.07,0.41,-5.49,39.55,-4.58,2.87,37.96,1.86,-0.54,-1.54
-14,2,203,91,-571,3937,-0.22,-0.12,13.00,0.91,-5.71,39.37,-4.59,2.86,37.91,3.89,-1.71,-8.89
-2,3,331,25,-541,3871,-0.21,-0.09,13.72,0.25,-5.41,38.71,-4.61,2.85,37.86,0.88,-1.85,-19.07
-7,-7,360,2,-426,3968,-0.24,-0.12,14.54,0.02,-4.26,39.68,-4.61,2.84,37.80,2.07,0.57,-20.78
-5,-13,379,-38,-302,3932,-0.24,-0.19,15.40,-0.38,-3.02,39.32,-4.61,2.83,37.74,1.53,1.84,-21.60
4,-12,385,-9,-365,3884,-0.19,-0.24,16.21,-0.09,-3.65,38.84,-4.61,2.81,37.67,-0.57,1.39,-21.37
-7,-36,365,45,-14,4045,-0.22,-0.44,16.81,0.45,-0.14,40.45,-4.59,2.81,37.60,2.13,6.76,-19.12
-15,-30,354,19,-18,3908,-0.29,-0.58,17.29,0.19,-0.18,39.08,-4.58,2.80,37.53,3.90,4.71,-17.75
-10,-27,344,-18,-114,3937,-0.32,-0.69,17.66,-0.18,-1.14,39.37,-4.56,2.79,37.46,2.50,3.55,-16.56
-24,-15,361,42,-148,3946,-0.43,-0.71,18.10,0.42,-1.48,39.46,-4.55,2.78,37.39,5.63,0.41,-17.60
-9,1,432,-51,-414,3976,-0.45,-0.63,18.92,-0.51,-4.14,39.76,-4.56,2.77,37.31,1.78,-3.36,-22.86
-10,4,432,-140,-533,3926,-0.46,-0.54,19.67,-1.40,-5.33,39.26,-4.57,2.77,37.24,1.97,-3.79,-22.18
-7,0,422,-208,-583,3906,-0.46,-0.49,20.27,-2.08,-5.83,39.06,-4.59,2.77,37.16,1.23,-2.57,-20.77
-12,-1,423,-128,-597,3883,-0.49,-0.45,20.83,-1.28,-5.97,38.83,-4.61,2.77,37.07,2.40,-2.16,-20.35
-11,-8,424,-16,-575,3991,-0.50,-0.45,21.33,-0.16,-5.75,39.91,-4.62,2.77,36.99,2.08,-0.39,-19.97
0,1,428,58,-498,3935,-0.45,-0.40,21.81,0.58,-4.98,39.35,-4.63,2.76,36.90,-0.53,-2.49,-19.87
-3,3,408,2,-448,3932,-0.43,-0.34,22.12,0.02,-4.48,39.32,-4.63,2.75,36.81,0.34,-2.77,-17.88
-5,0,400,-41,-433,3961,-0.41,-0.31,22.34,-0.41,-4.33,39.61,-4.64,2.74,36.73,0.90,-1.88,-16.99
-2,-5,375,-145,-436,3939,-0.39,-0.31,22.40,-1.45,-4.36,39.39,-4.66,2.74,36.64,0.25,-0.61,-14.82
-3,1,357,-160,-407,3908,-0.37,-0.27,22.34,-1.60,-4.07,39.08,-4.67,2.74,36.55,0.58,-2.00,-13.34
-4,8,298,-146,-406,3947,-0.35,-0.19,21.92,-1.46,-4.06,39.47,-4.68,2.74,36.46,0.88,-3.49,-8.71
-2,8,242,-218,-351,3945,-0.33,-0.13,21.20,-2.18,-3.51,39.45,-4.69,2.76,36.38,0.46,-3.24,-4.61
-1,8,71,-252,-346,3939,-0.30,-0.06,19.52,-2.52,-3.46,39.39,-4.70,2.78,36.30,0.31,-3.01,8.35
5,12,30,-262,-335,3948,-0.24,0.02,17.75,-2.62,-3.35,39.48,-4.70,2.80,36.23,-0.98,-3.74,10.23
5,2,-87,-44,-488,3894,-0.19,0.03,15.44,-0.44,-4.88,38.94,-4.71,2.80,36.17,-0.78,-1.15,18.06
7,-3,-54,-155,-503,3889,-0.13,0.00,13.57,-1.55,-5.03,38.89,-4.73,2.80,36.12,-1.05,0.04,13.56
6,-11,-38,-87,-412,4006,-0.08,-0.06,11.98,-0.87,-4.12,40.06,-4.73,2.79,36.07,-0.61,1.82,10.77
1,-10,-40,-78,-376,3932,-0.06,-0.12,10.54,-0.78,-3.76,39.32,-4.74,2.77,36.03,0.72,1.36,9.64
1,-7,-67,-38,-298,3933,-0.05,-0.15,9.08,-0.38,-2.98,39.33,-4.74,2.76,35.99,0.76,0.49,10.60
-19,-22,-87,-40,-297,3944,-0.16,-0.27,7.64,-0.40,-2.97,39.44,-4.73,2.74,35.96,5.43,3.86,10.99
-87,-69,-178,-164,-261,3863,-0.68,-0.66,5.79,-1.64,-2.61,38.63,-4.72,2.73,35.94,20.77,14.32,17.03
-102,-101,-235,-203,-268,3962,-1.23,-1.21,3.78,-2.03,-2.68,39.62,-4.70,2.74,35.92,22.49,20.39,20.03
-10,-13,-398,-327,-222,3998,-1.17,-1.17,0.97,-3.27,-2.22,39.98,-4.70,2.75,35.91,-0.66,-1.83,31.30
-15,-2,-455,-359,-254,3922,-1.14,-1.07,-1.90,-3.59,-2.54,39.22,-4.69,2.76,35.92,0.71,-4.23,33.52
7,0,-711,-276,-373,3887,-0.99,-0.96,-6.05,-2.76,-3.73,38.87,-4.71,2.77,35.95,-4.29,-4.34,51.44
13,4,-766,-258,-330,3873,-0.81,-0.84,-10.12,-2.58,-3.30,38.73,-4.72,2.78,35.99,-5.14,-4.91,52.41
-3,-15,-801,-207,-367,3901,-0.75,-0.85,-13.99,-2.07,-3.67,39.01,-4.74,2.78,36.04,-0.84,-0.11,51.85
9,-19,-805,-165,-439,3911,-0.62,-0.88,-17.50,-1.65,-4.39,39.11,-4.76,2.76,36.11,-3.39,0.80,49.00
18,-11,-855,-109,-519,3948,-0.44,-0.86,-20.97,-1.09,-5.19,39.48,-4.79,2.75,36.20,-5.03,-1.16,50.08
14,-5,-866,-110,-539,3963,-0.31,-0.80,-24.15,-1.10,-5.39,39.63,-4.81,2.73,36.29,-3.52,-2.47,48.12
28,3,-854,-92,-483,3966,-0.11,-0.70,-26.95,-0.92,-4.83,39.66,-4.83,2.71,36.40,-6.31,-4.13,44.56
46,5,-839,-38,-492,3929,0.18,-0.60,-29.37,-0.38,-4.92,39.29,-4.85,2.68,36.52,-9.78,-4.25,41.08
39,20,-829,-32,-496,3846,0.40,-0.42,-31.49,-0.32,-4.96,38.46,-4.86,2.66,36.65,-7.17,-7.37,38.29
48,24,-830,-55,-516,3956,0.65,-0.23,-33.40,-0.55,-5.16,39.56,-4.88,2.63,36.78,-8.50,-7.67,36.63
49,36,-838,-40,-554,3866,0.89,0.01,-35.18,-0.40,-5.54,38.66,-4.90,2.61,36.92,-7.87,-9.80,35.69
66,35,-839,-43,-554,3982,1.20,0.22,-36.78,-0.43,-5.54,39.82,-4.92,2.59,37.07,-11.01,-8.75,34.31
55,39,-855,-62,-571,3904,1.42,0.44,-38.31,-0.62,-5.71,39.04,-4.94,2.57,37.22,-7.40,-8.95,34.26
51,37,-861,-30,-524,3950,1.58,0.62,-39.73,-0.30,-5.24,39.50,-4.95,2.55,37.38,-5.74,-7.75,33.47
-10,-27,-867,-115,-499,3819,1.37,0.39,-41.05,-1.15,-4.99,38.19,-4.97,2.53,37.55,8.94,7.67,32.77
-59,-74,-853,-65,-433,3910,0.87,-0.10,-42.15,-0.65,-4.33,39.10,-4.99,2.50,37.71,19.53,17.77,30.57
20,10,-754,-44,-401,3891,0.90,-0.03,-42.53,-0.44,-4.01,38.91,-5.00,2.47,37.88,-0.41,-3.30,21.82
1,-14,-698,19,-390,3977,0.82,-0.11,-42.54,0.19,-3.90,39.77,-5.01,2.44,38.05,4.10,2.49,17.06
8,7,-565,84,-488,3957,0.79,-0.06,-41.73,0.84,-4.88,39.57,-5.02,2.41,38.22,2.20,-2.63,6.51
18,0,-533,26,-488,3927,0.82,-0.05,-40.81,0.26,-4.88,39.27,-5.03,2.38,38.38,-0.22,-0.83,4.62
-12,-13,-445,29,-491,3945,0.66,-0.12,-39.44,0.29,-4.91,39.45,-5.05,2.35,38.54,6.83,2.20,-1.61
-18,-17,-425,101,-489,3937,0.49,-0.22,-38.09,1.01,-4.89,39.37,-5.06,2.32,38.69,7.69,2.88,-2.09
1,-7,-332,65,-445,3935,0.44,-0.24,-36.31,0.65,-4.45,39.35,-5.07,2.29,38.84,2.70,0.27,-8.36
-8,-2,-311,-17,-491,3924,0.35,-0.23,-34.57,-0.17,-4.91,39.24,-5.09,2.26,38.98,4.65,-0.95,-8.58
7,-4,-263,-51,-463,3932,0.36,-0.23,-32.72,-0.51,-4.63,39.32,-5.11,2.23,39.11,0.87,-0.44,-10.97
-16,-17,-250,10,-379,3934,0.23,-0.31,-30.97,0.10,-3.79,39.34,-5.11,2.20,39.23,6.21,2.56,-10.50
-4,1,-223,-6,-337,3936,0.18,-0.27,-29.24,-0.06,-3.37,39.36,-5.12,2.17,39.35,2.98,-1.87,-11.22
-21,-4,-203,22,-309,3901,0.03,-0.27,-27.55,0.22,-3.09,39.01,-5.11,2.15,39.46,6.76,-0.58,-11.39
11,8,-138,36,-280,3937,0.10,-0.19,-25.64,0.36,-2.80,39.37,-5.11,2.12,39.56,-1.14,-3.34,-15.17
-8,-7,-121,-8,-308,3976,0.04,-0.22,-23.81,-0.08,-3.08,39.76,-5.11,2.09,39.65,3.47,0.39,-14.97
2,-2,-70,-19,-338,3932,0.05,-0.21,-21.86,-0.19,-3.38,39.32,-5.11,2.07,39.74,0.96,-0.84,-17.52
-6,-1,-60,20,-321,3923,0.00,-0.19,-20.04,0.20,-3.21,39.23,-5.11,2.04,39.82,2.84,-1.03,-16.72
-2,-1,-21,-17,-363,3943,-0.01,-0.18,-18.16,-0.17,-3.63,39.43,-5.11,2.01,39.89,1.78,-0.97,-18.33
2,1,-12,-73,-392,3949,0.01,-0.16,-16.42,-0.73,-3.92,39.49,-5.13,1.99,39.96,0.81,-1.39,-17.52
1,-1,-4,-78,-403,3941,0.01,-0.15,-14.80,-0.78,-4.03,39.41,-5.14,1.97,40.02,1.09,-0.84,-16.73
-1,-1,-4,-70,-394,3943,0.00,-0.14,-13.35,-0.70,-3.94,39.43,-5.15,1.95,40.07,1.57,-0.80,-15.42
-3,-2,-4,-60,-392,3926,-0.02,-0.14,-12.04,-0.60,-3.92,39.26,-5.16,1.93,40.12,2.01,-0.54,-14.23
-4,-2,-5,-63,-400,3927,-0.04,-0.13,-10.86,-0.63,-4.00,39.27,-5.17,1.91,40.16,2.19,-0.53,-13.09
-2,-2,-5,-58,-397,3943,-0.05,-0.13,-9.81,-0.58,-3.97,39.43,-5.18,1.89,40.20,1.65,-0.52,-12.13
-1,-2,-5,-65,-398,3942,-0.05,-0.13,-8.86,-0.65,-3.98,39.42,-5.19,1.87,40.24,1.39,-0.51,-11.27
-1,-1,-5,-62,-396,3935,-0.05,-0.12,-8.00,-0.62,-3.96,39.35,-5.20,1.85,40.27,1.39,-0.73,-10.50
0,-1,-5,-64,-396,3933,-0.04,-0.12,-7.23,-0.64,-3.96,39.33,-5.21,1.83,40.30,1.15,-0.70,-9.80
-1,-2,-5,-69,-393,3926,-0.05,-0.12,-6.54,-0.69,-3.93,39.26,-5.22,1.81,40.33,1.41,-0.44,-9.18
0,-2,-4,-76,-392,3942,-0.04,-0.12,-5.91,-0.76,-3.92,39.42,-5.23,1.80,40.35,1.17,-0.44,-8.69
0,-3,-5,-70,-410,3934,-0.04,-0.13,-5.35,-0.70,-4.10,39.34,-5.25,1.78,40.37,1.19,-0.21,-8.10
0,-2,-4,-64,-409,3935,-0.03,-0.13,-4.84,-0.64,-4.09,39.35,-5.26,1.76,40.39,1.21,-0.46,-7.73
1,-9,-28,-219,-548,3900,-0.02,-0.17,-4.53,-2.19,-5.48,39.00,-5.28,1.77,40.41,0.99,1.16,-5.41
1,-16,-69,-184,-309,3961,-0.02,-0.25,-4.49,-1.84,-3.09,39.61,-5.27,1.78,40.43,1.02,2.63,-1.91
-4,-6,-42,8,-400,3918,-0.04,-0.26,-4.30,0.08,-4.00,39.18,-5.27,1.76,40.44,2.21,0.05,-4.02
-1,-6,-24,25,-332,3909,-0.04,-0.27,-4.02,0.25,-3.32,39.09,-5.27,1.74,40.46,1.44,0.02,-5.29
-4,-4,-23,-92,-378,3902,-0.06,-0.27,-3.76,-0.92,-3.78,39.02,-5.28,1.72,40.47,2.12,-0.48,-5.14
2,2,-29,-106,-364,3926,-0.04,-0.23,-3.56,-1.06,-3.64,39.26,-5.28,1.70,40.49,0.67,-1.85,-4.45
3,1,-64,-141,-343,3926,-0.02,-0.20,-3.59,-1.41,-3.43,39.26,-5.27,1.71,40.50,0.50,-1.49,-1.52
0,5,-74,-117,-314,3909,-0.02,-0.15,-3.68,-1.17,-3.14,39.09,-5.25,1.71,40.52,1.26,-2.31,-0.76
-3,-5,-74,-38,-394,4001,-0.03,-0.17,-3.77,-0.38,-3.94,40.01,-5.26,1.69,40.53,1.96,0.17,-0.84
-3,3,-63,16,-421,3880,-0.05,-0.13,-3.77,0.16,-4.21,38.80,-5.27,1.67,40.55,1.91,-1.72,-1.78
-27,-18,-24,-90,-469,3937,-0.21,-0.23,-3.54,-0.90,-4.69,39.37,-5.29,1.67,40.56,7.41,3.25,-4.87
4,1,-18,-47,-431,3949,-0.16,-0.20,-3.30,-0.47,-4.31,39.49,-5.30,1.65,40.58,-0.29,-1.47,-5.16
1,1,-7,-75,-407,3948,-0.14,-0.17,-3.01,-0.75,-4.07,39.48,-5.31,1.64,40.59,0.56,-1.37,-5.83
0,-1,-5,-54,-394,3921,-0.13,-0.16,-2.74,-0.54,-3.94,39.21,-5.32,1.62,40.60,0.87,-0.81,-5.76
-1,0,-4,-50,-403,3921,-0.12,-0.15,-2.49,-0.50,-4.03,39.21,-5.33,1.60,40.61,1.15,-1.00,-5.62
-1,-2,-4,-62,-412,3958,-0.11,-0.14,-2.27,-0.62,-4.12,39.58,-5.35,1.59,40.62,1.18,-0.48,-5.42
-1,-2,-4,-64,-401,3948,-0.11,-0.14,-2.06,-0.64,-4.01,39.48,-5.36,1.57,40.63,1.20,-0.47,-5.23
-4,-3,-5,-69,-398,3928,-0.12,-0.14,-1.89,-0.69,-3.98,39.28,-5.37,1.55,40.63,1.91,-0.23,-4.99
-3,-3,-4,-60,-396,3934,-0.13,-0.15,-1.72,-0.60,-3.96,39.34,-5.38,1.54,40.64,1.64,-0.24,-4.93
0,0,-4,-61,-390,3945,-0.12,-0.13,-1.58,-0.61,-3.90,39.45,-5.39,1.52,40.65,0.93,-0.94,-4.79
0,0,-5,-70,-401,3945,-0.10,-0.12,-1.45,-0.70,-4.01,39.45,-5.40,1.50,40.65,0.97,-0.88,-4.59
1,0,-4,-65,-396,3940,-0.09,-0.11,-1.33,-0.65,-3.96,39.40,-5.41,1.49,40.66,0.78,-0.83,-4.57
1,-1,-5,-57,-398,3936,-0.07,-0.10,-1.23,-0.57,-3.98,39.36,-5.42,1.47,40.66,0.84,-0.56,-4.39
0,-1,-4,-70,-402,3934,-0.07,-0.10,-1.13,-0.70,-4.02,39.34,-5.43,1.46,40.67,1.13,-0.54,-4.39
-1,-1,-4,-70,-407,3944,-0.07,-0.10,-1.04,-0.70,-4.07,39.44,-5.44,1.44,40.67,1.39,-0.52,-4.31
-1,-2,-4,-63,-398,3939,-0.06,-0.10,-0.96,-0.63,-3.98,39.39,-5.45,1.43,40.68,1.39,-0.27,-4.24
0,-1,-4,-71,-394,3938,-0.06,-0.09,-0.89,-0.71,-3.94,39.38,-5.46,1.41,40.68,1.16,-0.51,-4.17
-2,-2,-5,-76,-399,3936,-0.06,-0.10,-0.83,-0.76,-3.99,39.36,-5.48,1.40,40.69,1.65,-0.26,-4.04
-1,-1,-5,-75,-405,3945,-0.06,-0.09,-0.78,-0.75,-4.05,39.45,-5.49,1.38,40.69,1.40,-0.50,-3.99
-1,-1,-4,-73,-393,3925,-0.06,-0.09,-0.72,-0.73,-3.93,39.25,-5.50,1.37,40.69,1.40,-0.48,-4.03
-2,-2,-8,-56,-452,3923,-0.07,-0.09,-0.70,-0.56,-4.52,39.23,-5.52,1.36,40.69,1.64,-0.24,-3.67
-7,-18,-14,-129,-418,3874,-0.11,-0.19,-0.72,-1.29,-4.18,38.74,-5.53,1.37,40.70,2.78,3.45,-3.17
23,10,-4,-50,-371,3932,0.05,-0.11,-0.67,-0.50,-3.71,39.32,-5.53,1.35,40.70,-4.28,-3.36,-3.98
3,-4,-3,-81,-364,3924,0.06,-0.13,-0.62,-0.81,-3.64,39.24,-5.52,1.34,40.70,0.85,0.15,-4.02
0,-13,-48,-33,-312,4210,0.05,-0.19,-0.85,-0.33,-3.12,42.10,-5.50,1.33,40.71,1.59,2.19,-0.42
-5,-29,-23,-12,-437,4007,0.02,-0.35,-0.91,-0.12,-4.37,40.07,-5.51,1.31,40.71,2.73,5.67,-2.58
-16,-6,14,-181,-282,4114,-0.08,-0.35,-0.73,-1.81,-2.82,41.14,-5.50,1.32,40.71,5.15,-0.19,-5.56
2,3,1,-168,-376,3856,-0.06,-0.30,-0.65,-1.68,-3.76,38.56,-5.50,1.34,40.71,0.65,-2.28,-4.39
-10,-13,-23,-24,-504,3920,-0.12,-0.35,-0.73,-0.24,-5.04,39.20,-5.51,1.33,40.72,3.50,1.61,-2.42
-1,0,-9,-61,-418,3953,-0.11,-0.31,-0.71,-0.61,-4.18,39.53,-5.53,1.31,40.72,1.23,-1.56,-3.59
2,1,-2,-61,-415,3932,-0.09,-0.28,-0.65,-0.61,-4.15,39.32,-5.54,1.30,40.72,0.56,-1.67,-4.13
3,4,-3,-52,-405,3961,-0.06,-0.22,-0.60,-0.52,-4.05,39.61,-5.55,1.28,40.73,0.41,-2.24,-4.01
-10,-2,0,-54,-363,3965,-0.12,-0.21,-0.54,-0.54,-3.63,39.65,-5.54,1.27,40.73,3.51,-0.67,-4.21
-7,1,4,-64,-324,4016,-0.15,-0.19,-0.46,-0.64,-3.24,40.16,-5.53,1.26,40.73,2.62,-1.33,-4.48
-42,-14,29,-9,-291,3907,-0.39,-0.25,-0.24,-0.09,-2.91,39.07,-5.51,1.25,40.73,10.61,2.24,-6.39
-32,-25,23,-45,-472,3637,-0.54,-0.38,-0.08,-0.45,-4.72,36.37,-5.53,1.24,40.73,7.48,4.56,-5.73
-26,-13,-44,-61,-430,3885,-0.65,-0.42,-0.34,-0.61,-4.30,38.85,-5.55,1.23,40.73,5.57,1.35,-0.29
7,3,-38,-89,-488,3940,-0.54,-0.36,-0.54,-0.89,-4.88,39.40,-5.57,1.23,40.73,-2.41,-2.49,-0.98
6,4,-11,-94,-430,3954,-0.45,-0.30,-0.55,-0.94,-4.30,39.54,-5.59,1.23,40.74,-1.81,-2.51,-3.28
-2,-4,-8,-43,-393,3897,-0.42,-0.29,-0.54,-0.43,-3.93,38.97,-5.60,1.21,40.74,0.35,-0.45,-3.53
-2,-1,-5,-46,-398,3894,-0.39,-0.27,-0.52,-0.46,-3.98,38.94,-5.61,1.19,40.74,0.46,-1.12,-3.77
-3,-4,-5,-52,-400,3885,-0.37,-0.27,-0.50,-0.52,-4.00,38.85,-5.62,1.18,40.74,0.80,-0.35,-3.75
-3,-2,-4,-54,-405,3905,-0.35,-0.25,-0.47,-0.54,-4.05,39.05,-5.63,1.16,40.74,0.87,-0.80,-3.81
-1,-1,-3,-70,-400,3959,-0.32,-0.23,-0.44,-0.70,-4.00,39.59,-5.65,1.15,40.75,0.47,-0.97,-3.87
-2,-3,-4,-66,-403,3954,-0.30,-0.23,-0.42,-0.66,-4.03,39.54,-5.66,1.13,40.75,0.81,-0.44,-3.77
-1,-2,-4,-53,-408,3923,-0.28,-0.22,-0.41,-0.53,-4.08,39.23,-5.67,1.12,40.75,0.65,-0.65,-3.75
-2,-1,-4,-62,-407,3925,-0.26,-0.20,-0.39,-0.62,-4.07,39.25,-5.69,1.10,40.75,0.96,-0.84,-3.74
0,-1,-5,-76,-404,3954,-0.23,-0.19,-0.38,-0.76,-4.04,39.54,-5.71,1.10,40.75,0.56,-0.79,-3.64
1,-1,-5,-64,-398,3952,-0.21,-0.18,-0.37,-0.64,-3.98,39.52,-5.71,1.08,40.76,0.41,-0.74,-3.64
0,0,-5,-58,-404,3937,-0.18,-0.16,-0.37,-0.58,-4.04,39.37,-5.72,1.07,40.76,0.75,-0.92,-3.63
-1,0,-4,-61,-396,3925,-0.17,-0.14,-0.35,-0.61,-3.96,39.25,-5.73,1.05,40.76,1.05,-0.86,-3.71
0,-1,-4,-59,-400,3924,-0.16,-0.13,-0.34,-0.59,-4.00,39.24,-5.73,1.03,40.76,0.86,-0.57,-3.70
-2,-1,-5,-61,-396,3946,-0.15,-0.13,-0.34,-0.61,-3.96,39.46,-5.73,1.01,40.76,1.38,-0.54,-3.61
0,-1,-5,-64,-406,3950,-0.14,-0.12,-0.34,-0.64,-4.06,39.50,-5.75,1.00,40.76,0.94,-0.51,-3.61
1,-1,-4,-68,-413,3939,-0.12,-0.11,-0.33,-0.68,-4.13,39.39,-5.77,1.00,40.76,0.76,-0.49,-3.68
-1,0,-4,-71,-409,3939,-0.11,-0.10,-0.32,-0.71,-4.09,39.39,-5.79,1.00,40.77,1.29,-0.70,-3.68
-1,-1,-4,-68,-396,3940,-0.11,-0.10,-0.31,-0.68,-3.96,39.40,-5.77,0.99,40.77,1.31,-0.43,-3.67
0,-1,-4,-73,-400,3941,-0.10,-0.10,-0.30,-0.73,-4.00,39.41,-5.78,1.01,40.77,1.10,-0.42,-3.66
2,-1,-4,-72,-410,3931,-0.07,-0.09,-0.30,-0.72,-4.10,39.31,-5.80,1.01,40.77,0.67,-0.40,-3.66
-1,0,-4,-73,-403,3922,-0.07,-0.08,-0.29,-0.73,-4.03,39.22,-5.81,1.02,40.77,1.45,-0.63,-3.65
0,0,-4,-62,-399,3929,-0.07,-0.07,-0.29,-0.62,-3.99,39.29,-5.81,1.01,40.77,1.22,-0.59,-3.65
0,-1,-4,-67,-412,3932,-0.06,-0.07,-0.28,-0.67,-4.12,39.32,-5.83,1.00,40.77,1.25,-0.33,-3.65
0,0,-3,-69,-418,3946,-0.05,-0.07,-0.27,-0.69,-4.18,39.46,-5.85,1.00,40.77,1.27,-0.56,-3.72
-1,-1,-4,-68,-400,3936,-0.05,-0.07,-0.27,-0.68,-4.00,39.36,-5.83,0.99,40.78,1.52,-0.30,-3.64
0,-1,-4,-64,-399,3919,-0.05,-0.06,-0.27,-0.64,-3.99,39.19,-5.83,0.98,40.78,1.29,-0.29,-3.63
0,0,-4,-74,-412,3939,-0.04,-0.06,-0.27,-0.74,-4.12,39.39,-5.84,0.99,40.78,1.31,-0.53,-3.63
0,-1,-3,-84,-414,3931,-0.04,-0.06,-0.26,-0.84,-4.14,39.31,-5.85,1.00,40.78,1.33,-0.28,-3.71
-1,-1,-5,-64,-397,3930,-0.04,-0.06,-0.26,-0.64,-3.97,39.30,-5.84,0.99,40.78,1.57,-0.27,-3.54
-2,-2,-5,-70,-403,3932,-0.05,-0.07,-0.27,-0.70,-4.03,39.32,-5.85,1.00,40.78,1.80,-0.05,-3.55
0,0,-5,-64,-411,3930,-0.04,-0.06,-0.27,-0.64,-4.11,39.30,-5.86,0.99,40.78,1.31,-0.53,-3.55
0,0,-4,-71,-403,3934,-0.04,-0.05,-0.27,-0.71,-4.03,39.34,-5.86,1.01,40.78,1.32,-0.51,-3.64
0,-2,-5,-59,-407,3933,-0.04,-0.06,-0.27,-0.59,-4.07,39.33,-5.86,0.99,40.78,1.34,-0.02,-3.55
1,-1,-5,-65,-405,3923,-0.03,-0.06,-0.27,-0.65,-4.05,39.23,-5.87,0.98,40.79,1.13,-0.28,-3.56
-1,-3,-3,-65,-404,3926,-0.03,-0.07,-0.27,-0.65,-4.04,39.26,-5.87,0.96,40.79,1.62,0.19,-3.72
-3,-2,-6,-52,-401,3939,-0.05,-0.08,-0.28,-0.52,-4.01,39.39,-5.87,0.94,40.79,2.07,-0.08,-3.48
1,-1,-4,-53,-403,3935,-0.03,-0.08,-0.27,-0.53,-4.03,39.35,-5.87,0.92,40.79,1.09,-0.32,-3.64
0,-14,-16,-36,-442,3908,-0.03,-0.15,-0.34,-0.36,-4.42,39.08,-5.88,0.91,40.79,1.36,2.69,-2.69
-1,-15,-20,-59,-415,3961,-0.03,-0.23,-0.43,-0.59,-4.15,39.61,-5.90,0.90,40.79,1.61,2.66,-2.43
3,-4,-61,-98,-500,3922,-0.01,-0.23,-0.76,-0.98,-5.00,39.22,-5.91,0.91,40.79,0.68,-0.14,0.74
1,-3,-83,-82,-534,3941,-0.01,-0.23,-1.19,-0.82,-5.34,39.41,-5.93,0.91,40.80,1.22,-0.38,2.22
-2,1,-165,-13,-560,3958,-0.02,-0.20,-2.08,-0.13,-5.60,39.58,-5.95,0.90,40.81,1.94,-1.28,8.36
6,-4,-197,53,-521,3945,0.02,-0.20,-3.07,0.53,-5.21,39.45,-5.96,0.88,40.82,0.06,-0.03,10.16
1,10,-182,-48,-317,3949,0.03,-0.12,-3.87,-0.48,-3.17,39.49,-5.95,0.88,40.84,1.34,-3.28,8.16
5,12,-160,-143,-267,3941,0.05,-0.04,-4.46,-1.43,-2.67,39.41,-5.93,0.89,40.85,0.42,-3.47,5.76
1,1,-99,-196,-274,3965,0.05,-0.03,-4.62,-1.96,-2.74,39.65,-5.92,0.90,40.87,1.44,-0.64,0.45
3,4,-80,-151,-261,3901,0.07,0.00,-4.65,-1.51,-2.61,39.01,-5.90,0.90,40.89,0.98,-1.30,-1.18
1,0,-28,0,-344,3931,0.07,0.00,-4.35,0.00,-3.44,39.31,-5.89,0.89,40.91,1.48,-0.28,-5.32
2,0,-17,-43,-374,3940,0.07,0.00,-4.02,-0.43,-3.74,39.40,-5.87,0.88,40.92,1.24,-0.28,-5.96
-1,-3,-6,-61,-411,3940,0.06,-0.02,-3.66,-0.61,-4.11,39.40,-5.89,0.88,40.94,1.96,0.42,-6.56
-1,-1,-5,-69,-401,3944,0.05,-0.02,-3.32,-0.69,-4.01,39.44,-5.88,0.89,40.95,1.91,-0.11,-6.34
-5,-4,-6,-50,-392,3937,0.01,-0.04,-3.03,-0.50,-3.92,39.37,-5.87,0.88,40.96,2.79,0.57,-5.99
-2,-2,-4,-67,-412,3930,-0.00,-0.05,-2.75,-0.67,-4.12,39.30,-5.88,0.89,40.97,1.98,0.03,-5.91
-1,0,-4,-67,-402,3932,-0.01,-0.05,-2.50,-0.67,-4.02,39.32,-5.87,0.90,40.98,1.70,-0.46,-5.68
1,-1,-5,-51,-397,3925,-0.00,-0.05,-2.28,-0.51,-3.97,39.25,-5.86,0.89,40.99,1.22,-0.21,-5.40
2,1,-5,-58,-410,3931,0.01,-0.04,-2.08,-0.58,-4.10,39.31,-5.88,0.88,41.00,1.02,-0.67,-5.22
1,1,-4,-68,-410,3935,0.02,-0.03,-1.90,-0.68,-4.10,39.35,-5.89,0.89,41.01,1.29,-0.64,-5.14
0,2,-4,-61,-394,3939,0.01,-0.01,-1.73,-0.61,-3.94,39.39,-5.87,0.89,41.01,1.53,-0.84,-4.99
1,0,-4,-58,-393,3932,0.02,-0.01,-1.58,-0.58,-3.93,39.32,-5.85,0.88,41.02,1.29,-0.32,-4.86
0,-2,-4,-59,-400,3923,0.02,-0.02,-1.45,-0.59,-4.00,39.23,-5.84,0.87,41.03,1.54,0.15,-4.74
-3,-2,-5,-62,-409,3930,-0.00,-0.03,-1.33,-0.62,-4.09,39.30,-5.86,0.88,41.03,2.23,0.11,-4.55
-3,-1,-5,-56,-401,3937,-0.02,-0.04,-1.23,-0.56,-4.01,39.37,-5.85,0.86,41.04,2.16,-0.15,-4.46
0,-2,-5,-66,-411,3930,-0.02,-0.04,-1.14,-0.66,-4.11,39.30,-5.86,0.87,41.04,1.41,0.06,-4.37
0,0,-4,-67,-413,3937,-0.02,-0.04,-1.05,-0.67,-4.13,39.37,-5.88,0.88,41.05,1.42,-0.43,-4.38
0,0,-4,-59,-397,3936,-0.02,-0.04,-0.97,-0.59,-3.97,39.36,-5.86,0.88,41.05,1.42,-0.41,-4.30
0,0,-5,-58,-400,3928,-0.01,-0.03,-0.90,-0.58,-4.00,39.28,-5.85,0.86,41.05,1.42,-0.40,-4.16
2,0,-4,-72,-414,3936,0.00,-0.03,-0.84,-0.72,-4.14,39.36,-5.86,0.88,41.06,0.97,-0.39,-4.19
1,-1,-5,-73,-413,3934,0.01,-0.03,-0.78,-0.73,-4.13,39.34,-5.87,0.89,41.06,1.25,-0.15,-4.05
-1,-1,-5,-71,-403,3940,-0.00,-0.03,-0.74,-0.71,-4.03,39.40,-5.86,0.91,41.06,1.73,-0.17,-4.01
0,-1,-4,-62,-403,3934,-0.00,-0.04,-0.69,-0.62,-4.03,39.34,-5.85,0.90,41.06,1.47,-0.17,-4.05
0,-1,-4,-68,-411,3934,-0.00,-0.04,-0.64,-0.68,-4.11,39.34,-5.86,0.91,41.07,1.48,-0.18,-4.01
-1,-1,-4,-57,-412,3927,-0.01,-0.04,-0.60,-0.57,-4.12,39.27,-5.88,0.90,41.07,1.71,-0.19,-3.98
1,0,-4,-60,-410,3929,0.00,-0.04,-0.57,-0.60,-4.10,39.29,-5.90,0.89,41.07,1.23,-0.43,-3.94
1,0,-4,-71,-414,3928,0.01,-0.03,-0.53,-0.71,-4.14,39.28,-5.91,0.91,41.08,1.26,-0.42,-3.91
0,1,-4,-69,-401,3939,0.01,-0.02,-0.51,-0.69,-4.01,39.39,-5.90,0.92,41.08,1.51,-0.64,-3.89
0,0,-4,-54,-396,3940,0.01,-0.02,-0.48,-0.54,-3.96,39.40,-5.88,0.91,41.08,1.50,-0.37,-3.87
1,-1,-4,-65,-407,3925,0.01,-0.03,-0.46,-0.65,-4.07,39.25,-5.90,0.92,41.08,1.27,-0.13,-3.84
1,-2,-4,-63,-408,3928,0.02,-0.04,-0.43,-0.63,-4.08,39.28,-5.91,0.92,41.08,1.29,0.08,-3.83
0,-1,-4,-62,-399,3935,0.01,-0.04,-0.42,-0.62,-3.99,39.35,-5.90,0.91,41.08,1.54,-0.18,-3.81
-1,-1,-5,-59,-393,3944,0.01,-0.04,-0.40,-0.59,-3.93,39.44,-5.88,0.91,41.09,1.76,-0.19,-3.71
0,0,-4,-63,-406,3938,0.01,-0.04,-0.39,-0.63,-4.06,39.38,-5.89,0.92,41.09,1.51,-0.43,-3.78
0,-1,-4,-62,-413,3930,0.01,-0.04,-0.37,-0.62,-4.13,39.30,-5.91,0.91,41.09,1.51,-0.18,-3.77
0,-1,-5,-37,-436,3944,0.00,-0.04,-0.37,-0.37,-4.36,39.44,-5.93,0.90,41.09,1.51,-0.19,-3.68
1,-8,-180,38,-589,4043,0.01,-0.09,-1.43,0.38,-5.89,40.43,-5.94,0.89,41.10,1.28,1.43,10.18
4,0,-210,-48,-483,3980,0.03,-0.08,-2.57,-0.48,-4.83,39.80,-5.96,0.88,41.11,0.61,-0.57,11.69
2,-10,-202,-113,-434,3982,0.04,-0.13,-3.54,-1.13,-4.34,39.82,-5.96,0.90,41.12,1.15,1.77,10.13
-1,-4,-197,-81,-479,3967,0.03,-0.14,-4.39,-0.81,-4.79,39.67,-5.98,0.90,41.14,1.88,0.20,8.93
-3,-6,-134,-71,-306,4007,0.01,-0.16,-4.77,-0.71,-3.06,40.07,-5.96,0.90,41.16,2.30,0.62,3.25
2,0,-116,-92,-294,3954,0.02,-0.15,-5.00,-0.92,-2.94,39.54,-5.95,0.90,41.18,1.07,-0.84,1.51
1,-1,-43,-130,-240,3960,0.03,-0.14,-4.76,-1.30,-2.40,39.60,-5.93,0.91,41.20,1.34,-0.56,-4.46
3,1,-27,-79,-319,3912,0.04,-0.12,-4.45,-0.79,-3.19,39.12,-5.91,0.91,41.21,0.88,-0.99,-5.53
2,-4,-16,-50,-394,3930,0.05,-0.13,-4.10,-0.50,-3.94,39.30,-5.90,0.89,41.23,1.16,0.24,-6.15
1,-13,-14,-2,-510,3868,0.05,-0.20,-3.78,-0.02,-5.10,38.68,-5.92,0.88,41.24,1.43,2.28,-6.03
0,-17,-165,405,-999,3952,0.05,-0.28,-4.41,4.05,-9.99,39.52,-5.93,0.87,41.26,1.66,2.98,6.19
10,-20,-243,505,-1051,4032,0.10,-0.38,-5.45,5.05,-10.51,40.32,-5.94,0.85,41.28,-0.66,3.40,11.86
6,-118,-431,379,-748,3960,0.13,-1.06,-7.53,3.79,-7.48,39.60,-5.95,0.83,41.31,0.46,25.74,25.89
-5,-94,-392,366,-527,3673,0.09,-1.53,-9.17,3.66,-5.27,36.73,-5.96,0.80,41.35,3.09,17.89,21.10
4,95,-359,-455,-113,3851,0.10,-0.79,-10.44,-4.55,-1.13,38.51,-5.95,0.81,41.39,0.86,-27.40,17.14
-1,75,-444,-546,-136,3860,0.08,-0.26,-12.11,-5.46,-1.36,38.60,-5.94,0.82,41.44,2.07,-20.29,22.83
4,0,-342,-382,-237,3894,0.10,-0.23,-12.98,-3.82,-2.37,38.94,-5.93,0.83,41.49,0.86,-1.14,13.39
5,10,-324,-340,-225,4014,0.12,-0.15,-13.66,-3.40,-2.25,40.14,-5.92,0.84,41.54,0.68,-3.37,11.24
3,-6,-258,-282,-156,3975,0.13,-0.17,-13.87,-2.82,-1.56,39.75,-5.91,0.84,41.60,1.21,0.62,5.46
-1,-1,-217,-262,-186,3926,0.11,-0.16,-13.81,-2.62,-1.86,39.26,-5.90,0.85,41.65,2.15,-0.61,2.04
5,-4,-129,-173,-247,3975,0.13,-0.17,-13.21,-1.73,-2.47,39.75,-5.88,0.85,41.71,0.69,0.11,-4.88
2,0,-110,-148,-287,3868,0.13,-0.15,-12.56,-1.48,-2.87,38.68,-5.87,0.86,41.76,1.45,-0.84,-5.91
5,-5,-83,5,-336,3934,0.15,-0.17,-11.81,0.05,-3.36,39.34,-5.86,0.84,41.80,0.75,0.38,-7.52
4,-3,-75,11,-339,3930,0.16,-0.17,-11.09,0.11,-3.39,39.30,-5.84,0.82,41.85,1.04,-0.13,-7.54
3,-4,-57,7,-483,3914,0.16,-0.17,-10.33,0.07,-4.83,39.14,-5.86,0.81,41.89,1.31,0.09,-8.38
1,-7,-63,5,-492,3923,0.15,-0.20,-9.68,0.05,-4.92,39.23,-5.87,0.79,41.93,1.78,0.77,-7.29
-1,-4,-71,-55,-395,3975,0.13,-0.20,-9.14,-0.55,-3.95,39.75,-5.85,0.79,41.96,2.21,-0.01,-6.13
2,-2,-70,-77,-379,3871,0.13,-0.20,-8.66,-0.77,-3.79,38.71,-5.84,0.80,42.00,1.44,-0.49,-5.77
3,-4,-63,-64,-391,3921,0.13,-0.20,-8.18,-0.64,-3.91,39.21,-5.83,0.81,42.03,1.20,-0.00,-5.93
2,-3,-59,-21,-382,3926,0.13,-0.20,-7.72,-0.21,-3.82,39.26,-5.82,0.79,42.06,1.45,-0.25,-5.86
0,0,-71,5,-450,3955,0.12,-0.18,-7.38,0.05,-4.50,39.55,-5.83,0.77,42.09,1.91,-0.93,-4.54
2,-2,-82,3,-458,3936,0.12,-0.17,-7.14,0.03,-4.58,39.36,-5.84,0.75,42.12,1.41,-0.39,-3.39
2,0,-139,65,-525,3958,0.12,-0.16,-7.27,0.65,-5.25,39.58,-5.86,0.73,42.15,1.42,-0.83,1.31
2,0,-162,64,-513,3919,0.12,-0.14,-7.54,0.64,-5.13,39.19,-5.87,0.72,42.18,1.42,-0.77,3.02
-3,-6,-194,-72,-392,3930,0.09,-0.16,-7.97,-0.72,-3.92,39.30,-5.86,0.73,42.21,2.57,0.67,5.34
3,2,-198,-130,-335,3888,0.10,-0.13,-8.38,-1.30,-3.35,38.88,-5.85,0.74,42.24,1.08,-1.26,5.30
1,1,-161,-246,-254,3929,0.09,-0.12,-8.52,-2.46,-2.54,39.29,-5.84,0.75,42.27,1.57,-0.94,2.03
2,-1,-135,-250,-254,3913,0.10,-0.11,-8.49,-2.50,-2.54,39.13,-5.83,0.76,42.31,1.33,-0.41,-0.15
1,0,-58,-130,-296,3904,0.09,-0.10,-8.00,-1.30,-2.96,39.04,-5.81,0.77,42.34,1.56,-0.63,-6.22
0,-9,-34,-6,-298,3881,0.08,-0.14,-7.40,-0.06,-2.98,38.81,-5.80,0.76,42.37,1.78,1.49,-7.72
2,-26,-3,16,-377,3971,0.09,-0.29,-6.68,0.16,-3.77,39.71,-5.79,0.74,42.39,1.28,5.28,-9.70
1,-77,11,240,-191,4065,0.09,-0.73,-5.95,2.40,-1.91,40.65,-5.78,0.72,42.42,1.52,16.59,-10.22
7,-51,35,151,-406,3907,0.12,-0.97,-5.14,1.51,-4.06,39.07,-5.78,0.69,42.44,0.13,9.09,-11.52
2,-36,11,227,-321,4024,0.12,-1.09,-4.56,2.27,-3.21,40.24,-5.78,0.67,42.46,1.40,4.82,-8.96
12,-19,-14,38,-342,4005,0.18,-1.10,-4.19,0.38,-3.42,40.05,-5.76,0.65,42.47,-0.92,0.48,-6.51
0,2,-16,5,-378,3760,0.16,-0.97,-3.87,0.05,-3.78,37.60,-5.76,0.62,42.49,2.07,-4.40,-6.05
5,-9,-28,-154,-455,3869,0.18,-0.93,-3.65,-1.54,-4.55,38.69,-5.77,0.64,42.50,0.85,-1.44,-4.84
8,-2,-27,-193,-466,3855,0.21,-0.85,-3.45,-1.93,-4.66,38.55,-5.78,0.65,42.51,0.21,-2.92,-4.74
3,4,-17,-178,-523,3954,0.21,-0.74,-3.21,-1.78,-5.23,39.54,-5.79,0.66,42.53,1.47,-4.04,-5.37
3,-12,0,-185,-527,3915,0.20,-0.74,-2.89,-1.85,-5.27,39.15,-5.80,0.67,42.54,1.47,0.03,-6.52
2,-10,30,-68,-472,3925,0.20,-0.73,-2.42,-0.68,-4.72,39.25,-5.82,0.67,42.55,1.69,-0.43,-8.64
-3,-7,40,-63,-432,3890,0.16,-0.70,-1.93,-0.63,-4.32,38.90,-5.83,0.67,42.56,2.83,-1.08,-9.04
1,-12,92,-176,-442,3935,0.15,-0.70,-1.18,-1.76,-4.42,39.35,-5.84,0.69,42.56,1.77,0.18,-12.76
0,-13,114,-138,-436,3935,0.13,-0.71,-0.36,-1.38,-4.36,39.35,-5.85,0.70,42.56,1.97,0.39,-13.89
0,-9,201,-167,-384,3960,0.12,-0.69,0.90,-1.67,-3.84,39.60,-5.84,0.72,42.56,1.92,-0.57,-20.12
3,-11,124,-190,-277,3911,0.13,-0.69,1.57,-1.90,-2.77,39.11,-5.83,0.73,42.55,1.18,-0.05,-12.99
1,-2,52,-63,-352,3955,0.12,-0.63,1.73,-0.63,-3.52,39.55,-5.81,0.73,42.54,1.66,-2.13,-6.74
1,3,58,-71,-370,3949,0.11,-0.55,1.91,-0.71,-3.70,39.49,-5.79,0.74,42.54,1.63,-3.09,-7.08
2,5,145,-197,-355,3901,0.11,-0.47,2.60,-1.97,-3.55,39.01,-5.79,0.76,42.52,1.38,-3.28,-13.82
0,4,169,-135,-338,3927,0.10,-0.40,3.37,-1.35,-3.38,39.27,-5.78,0.77,42.51,1.84,-2.76,-15.16
-1,4,154,-23,-478,3951,0.09,-0.33,3.97,-0.23,-4.78,39.51,-5.79,0.76,42.50,2.04,-2.52,-13.34
4,9,99,64,-568,3965,0.10,-0.24,4.18,0.64,-5.68,39.65,-5.81,0.75,42.48,0.83,-3.46,-8.49
-6,2,77,-174,-485,3891,0.06,-0.21,4.23,-1.74,-4.85,38.91,-5.82,0.77,42.46,3.20,-1.54,-6.58
0,6,106,-166,-421,3887,0.05,-0.15,4.46,-1.66,-4.21,38.87,-5.82,0.79,42.44,1.66,-2.35,-8.83
-7,7,313,25,-353,3936,0.00,-0.09,5.92,0.25,-3.53,39.36,-5.81,0.77,42.42,3.25,-2.38,-25.04
-10,4,375,44,-457,3948,-0.06,-0.06,7.61,0.44,-4.57,39.48,-5.82,0.76,42.39,3.79,-1.49,-28.75
-5,12,527,45,-564,3918,-0.08,0.02,10.07,0.45,-5.64,39.18,-5.84,0.76,42.35,2.43,-3.22,-39.40
-17,10,588,26,-603,3974,-0.18,0.08,12.65,0.26,-6.03,39.74,-5.85,0.76,42.30,5.12,-2.49,-42.22
-1,25,737,-71,-520,3958,-0.17,0.22,15.88,-0.71,-5.20,39.58,-5.87,0.77,42.24,1.10,-5.77,-51.91
-17,13,798,-51,-540,3906,-0.25,0.28,19.16,-0.51,-5.40,39.06,-5.89,0.77,42.16,4.85,-2.50,-54.09
-16,14,942,-15,-441,3929,-0.33,0.34,22.99,-0.15,-4.41,39.29,-5.90,0.77,42.07,4.33,-2.54,-62.81
-5,21,966,-131,-450,3929,-0.32,0.43,26.58,-1.31,-4.50,39.29,-5.91,0.80,41.97,1.54,-3.97,-61.57
-14,10,1031,-37,-478,4005,-0.38,0.45,30.21,-0.37,-4.78,40.05,-5.93,0.81,41.85,3.63,-1.11,-63.77
3,13,1048,-85,-433,3866,-0.32,0.48,33.59,-0.85,-4.33,38.66,-5.94,0.84,41.71,-0.47,-1.75,-62.14
-21,10,1086,-54,-450,3897,-0.42,0.50,36.85,-0.54,-4.50,38.97,-5.96,0.85,41.57,5.27,-0.95,-62.38
-25,15,1062,-115,-440,3900,-0.53,0.54,39.64,-1.15,-4.40,39.00,-5.97,0.89,41.41,5.87,-2.07,-57.80
-21,12,954,9,-418,3978,-0.60,0.56,41.50,0.09,-4.18,39.78,-5.97,0.89,41.24,4.57,-1.23,-46.95
-6,15,931,50,-415,3964,-0.58,0.59,43.03,0.50,-4.15,39.64,-5.97,0.89,41.07,0.85,-1.86,-43.60
-12,14,837,-20,-494,3902,-0.59,0.62,43.83,-0.20,-4.94,39.02,-5.98,0.90,40.90,2.32,-1.51,-34.89
-9,5,781,-37,-435,3872,-0.59,0.59,44.21,-0.37,-4.35,38.72,-6.00,0.91,40.72,1.58,0.65,-29.79
-15,9,704,-22,-435,3902,-0.62,0.58,44.09,-0.22,-4.35,39.02,-6.01,0.92,40.55,2.98,-0.38,-23.36
-12,1,680,-18,-368,3963,-0.63,0.53,43.82,-0.18,-3.68,39.63,-5.99,0.93,40.37,2.17,1.46,-21.55
-11,-9,549,-158,-265,3974,-0.64,0.42,42.79,-1.58,-2.65,39.74,-5.98,0.96,40.20,1.90,3.58,-11.37
-14,-12,499,-173,-254,3919,-0.66,0.31,41.56,-1.73,-2.54,39.19,-5.96,0.98,40.04,2.58,3.90,-8.24
-12,-18,258,-154,-208,3908,-0.67,0.17,38.97,-1.54,-2.08,39.08,-5.95,1.01,39.88,2.04,4.89,9.84
-10,-16,187,-171,-203,3942,-0.66,0.05,36.22,-1.71,-2.03,39.42,-5.93,1.03,39.74,1.55,3.95,13.37
5,-8,36,-66,-180,3953,-0.56,-0.00,32.82,-0.66,-1.80,39.53,-5.91,1.04,39.61,-1.90,1.71,23.09
5,-1,14,-52,-257,3962,-0.48,-0.01,29.62,-0.52,-2.57,39.62,-5.89,1.05,39.49,-1.58,-0.09,22.06
6,12,-5,-137,-437,3926,-0.39,0.07,26.63,-1.37,-4.37,39.26,-5.90,1.08,39.38,-1.52,-3.13,20.97
3,11,-9,-147,-445,3922,-0.34,0.13,23.91,-1.47,-4.45,39.22,-5.91,1.11,39.29,-0.54,-2.65,18.85
0,1,-33,-51,-432,4009,-0.30,0.12,21.32,-0.51,-4.32,40.09,-5.92,1.10,39.20,0.35,-0.13,18.54
0,2,-42,-25,-421,3950,-0.27,0.12,18.93,-0.25,-4.21,39.50,-5.92,1.09,39.13,0.47,-0.39,17.14
2,13,-24,-40,-466,3913,-0.23,0.19,16.89,-0.40,-4.66,39.13,-5.94,1.09,39.06,0.11,-2.93,13.77
2,13,-25,-89,-485,3919,-0.20,0.25,15.05,-0.89,-4.85,39.19,-5.95,1.10,39.00,0.25,-2.70,12.19
-1,5,-3,-2,-446,3951,-0.18,0.25,13.53,-0.02,-4.46,39.51,-5.96,1.09,38.95,1.07,-0.65,8.95
-4,6,16,32,-454,3907,-0.19,0.27,12.27,0.32,-4.54,39.07,-5.97,1.08,38.90,1.81,-0.86,6.20
-5,8,74,-41,-438,3871,-0.20,0.29,11.49,-0.41,-4.38,38.71,-5.98,1.07,38.86,2.02,-1.28,0.59
0,4,83,-54,-421,3973,-0.18,0.28,10.85,-0.54,-4.21,39.73,-5.99,1.06,38.81,0.83,-0.28,-0.75
-4,-1,122,3,-477,3989,-0.19,0.25,10.51,0.03,-4.77,39.89,-6.00,1.05,38.77,1.82,0.87,-4.36
-6,0,152,12,-506,3872,-0.20,0.22,10.39,0.12,-5.06,38.72,-6.01,1.05,38.73,2.27,0.52,-7.01
3,5,225,-6,-473,3918,-0.17,0.23,10.72,-0.06,-4.73,39.18,-6.02,1.04,38.69,0.13,-0.72,-12.89
1,-2,247,34,-477,4008,-0.14,0.20,11.16,0.34,-4.77,40.08,-6.03,1.03,38.64,0.72,0.93,-14.35
-16,-4,373,-32,-560,3903,-0.23,0.15,12.31,-0.32,-5.60,39.03,-6.05,1.03,38.59,4.74,1.27,-23.97
-8,5,417,-53,-637,3889,-0.25,0.17,13.63,-0.53,-6.37,38.89,-6.07,1.03,38.54,2.61,-0.96,-26.51
-6,6,574,-44,-621,3892,-0.26,0.19,15.77,-0.44,-6.21,38.92,-6.08,1.04,38.48,2.06,-1.14,-37.86
-7,2,626,-40,-643,3956,-0.28,0.18,18.01,-0.40,-6.43,39.56,-6.10,1.04,38.41,2.26,-0.15,-40.23
-5,16,810,-58,-603,3917,-0.28,0.26,21.15,-0.58,-6.03,39.17,-6.12,1.05,38.32,1.75,-3.41,-52.96
-9,15,862,-51,-622,3967,-0.31,0.33,24.29,-0.51,-6.22,39.67,-6.14,1.06,38.23,2.67,-2.91,-54.50
-23,16,1028,-44,-545,3910,-0.42,0.39,28.13,-0.44,-5.45,39.10,-6.16,1.07,38.12,5.82,-2.92,-65.07
-1,27,1105,-72,-531,3898,-0.38,0.52,32.06,-0.72,-5.31,38.98,-6.17,1.09,37.99,0.36,-5.25,-68.02
-29,14,1228,-80,-519,3895,-0.52,0.55,36.35,-0.80,-5.19,38.95,-6.19,1.11,37.85,6.96,-1.82,-74.54
-21,23,1246,-72,-488,3851,-0.60,0.64,40.31,-0.72,-4.88,38.51,-6.21,1.12,37.69,4.65,-3.79,-72.45
-6,35,1263,-64,-442,3957,-0.57,0.79,43.98,-0.64,-4.42,39.57,-6.22,1.13,37.51,0.93,-6.28,-70.54
-4,9,1259,-63,-345,4061,-0.54,0.76,47.27,-0.63,-3.45,40.61,-6.20,1.15,37.32,0.54,0.23,-67.21
-37,10,1219,-113,-433,3909,-0.71,0.75,49.98,-1.13,-4.33,39.09,-6.20,1.20,37.12,8.28,-0.09,-61.34
-16,16,1203,-127,-349,3921,-0.74,0.77,52.32,-1.27,-3.49,39.21,-6.18,1.23,36.92,2.84,-1.54,-57.84
-7,13,1116,-176,-286,3941,-0.71,0.77,53.89,-1.76,-2.86,39.41,-6.17,1.27,36.70,0.67,-0.77,-49.02
-25,11,1078,-126,-252,3858,-0.79,0.76,55.08,-1.26,-2.52,38.58,-6.15,1.30,36.48,4.93,-0.31,-44.71
-5,22,932,-112,-125,3953,-0.74,0.82,55.26,-1.12,-1.25,39.53,-6.13,1.33,36.26,0.02,-2.89,-32.16
-14,4,848,-162,-117,3825,-0.75,0.76,54.90,-1.62,-1.17,38.25,-6.11,1.36,36.04,2.26,1.46,-25.34
-8,21,689,-119,-87,3957,-0.73,0.81,53.62,-1.19,-0.87,39.57,-6.09,1.38,35.83,0.83,-2.68,-13.02
-16,7,637,-131,-118,3999,-0.75,0.78,52.14,-1.31,-1.18,39.99,-6.07,1.41,35.62,2.77,0.73,-9.94
3,11,475,-44,-163,3927,-0.66,0.77,49.82,-0.44,-1.63,39.27,-6.05,1.43,35.43,-1.72,-0.33,1.71
-10,7,436,9,-182,3963,-0.65,0.73,47.50,0.09,-1.82,39.63,-6.03,1.45,35.24,1.60,0.55,2.92
-12,8,362,22,-307,3951,-0.66,0.71,44.96,0.22,-3.07,39.51,-6.01,1.46,35.06,2.08,0.21,6.90
-8,4,358,14,-370,3897,-0.64,0.66,42.65,0.14,-3.70,38.97,-6.01,1.46,34.89,1.12,1.05,5.15
-15,6,337,18,-396,3916,-0.67,0.63,40.44,0.18,-3.96,39.16,-6.00,1.46,34.73,2.80,0.43,4.94
-7,9,339,-6,-434,3897,-0.65,0.62,38.46,-0.06,-4.34,38.97,-6.01,1.46,34.57,0.86,-0.36,2.99
-7,6,357,93,-395,3968,-0.62,0.60,36.79,0.93,-3.95,39.68,-6.00,1.46,34.43,0.94,0.30,-0.03
-13,-1,344,126,-377,3907,-0.64,0.53,35.21,1.26,-3.77,39.07,-6.00,1.46,34.29,2.40,1.83,-0.35
-3,9,343,15,-418,3871,-0.60,0.53,33.78,0.15,-4.18,38.71,-6.00,1.46,34.15,0.03,-0.70,-1.55
5,8,359,-9,-391,3916,-0.51,0.53,32.60,-0.09,-3.91,39.16,-5.99,1.45,34.02,-1.66,-0.46,-3.97
-3,-1,417,37,-345,3957,-0.47,0.47,31.88,0.37,-3.45,39.57,-5.98,1.45,33.90,0.49,1.60,-9.53
-8,0,425,8,-331,3953,-0.47,0.42,31.28,0.08,-3.31,39.53,-5.97,1.45,33.77,1.75,1.17,-10.73
-8,9,467,-74,-405,3944,-0.48,0.44,31.00,-0.74,-4.05,39.44,-5.97,1.45,33.65,1.74,-1.07,-14.53
-5,3,472,-58,-374,3932,-0.46,0.41,30.78,-0.58,-3.74,39.32,-5.95,1.45,33.53,1.04,0.36,-15.15
-12,3,522,-7,-451,3983,-0.49,0.39,30.89,-0.07,-4.51,39.83,-5.96,1.45,33.40,2.72,0.28,-19.28
-13,4,541,-24,-474,3895,-0.52,0.37,31.10,-0.24,-4.74,38.95,-5.97,1.45,33.28,2.86,-0.03,-20.68
-13,6,574,-3,-476,3943,-0.54,0.37,31.49,-0.03,-4.76,39.43,-5.98,1.45,33.16,2.76,-0.54,-23.11
-17,4,580,-36,-503,3932,-0.59,0.36,31.88,-0.36,-5.03,39.32,-5.99,1.45,33.03,3.60,-0.08,-23.26
-14,6,597,-27,-455,3903,-0.62,0.36,32.33,-0.27,-4.55,39.03,-6.00,1.45,32.90,2.74,-0.59,-24.27
1,-4,600,0,-407,3993,-0.55,0.30,32.76,0.00,-4.07,39.93,-6.00,1.45,32.77,-0.82,1.73,-24.13
-12,-3,579,-101,-355,3851,-0.57,0.25,33.02,-1.01,-3.55,38.51,-5.98,1.46,32.64,2.41,1.29,-22.11
-10,4,574,-94,-439,3883,-0.57,0.25,33.22,-0.94,-4.39,38.83,-6.00,1.48,32.51,1.89,-0.50,-21.49
-23,6,568,-64,-463,3917,-0.66,0.26,33.36,-0.64,-4.63,39.17,-6.01,1.48,32.38,4.89,-0.96,-20.84
-30,-7,561,-88,-510,3951,-0.77,0.19,33.45,-0.88,-5.10,39.51,-6.03,1.49,32.24,6.23,2.08,-20.16
-3,2,526,-66,-408,3902,-0.71,0.19,33.31,-0.66,-4.08,39.02,-6.02,1.49,32.11,-0.41,-0.24,-17.30
-7,9,520,-94,-504,3918,-0.69,0.22,33.15,-0.94,-5.04,39.18,-6.04,1.50,31.98,0.72,-1.88,-16.93
-7,0,443,-75,-458,3907,-0.66,0.20,32.54,-0.75,-4.58,39.07,-6.06,1.51,31.85,0.82,0.32,-10.95
-13,1,407,-60,-452,3984,-0.67,0.19,31.77,-0.60,-4.52,39.84,-6.07,1.51,31.72,2.30,0.02,-8.58
1,9,387,-118,-510,3965,-0.60,0.22,30.95,-1.18,-5.10,39.65,-6.08,1.52,31.60,-0.98,-1.89,-7.62
-4,6,384,-140,-443,3863,-0.56,0.24,30.20,-1.40,-4.43,38.63,-6.09,1.55,31.48,0.43,-1.08,-8.04
-1,5,365,-112,-395,3880,-0.51,0.24,29.40,-1.12,-3.95,38.80,-6.08,1.57,31.36,-0.15,-0.80,-7.14
-5,7,372,-144,-449,3949,-0.49,0.26,28.73,-1.44,-4.49,39.49,-6.09,1.60,31.25,0.95,-1.25,-8.33
-3,6,361,-125,-423,3919,-0.46,0.27,28.06,-1.25,-4.23,39.19,-6.09,1.63,31.14,0.56,-0.96,-8.00
0,10,348,-100,-407,3870,-0.42,0.31,27.38,-1.00,-4.07,38.70,-6.08,1.62,31.03,-0.04,-1.85,-7.51
-2,9,308,-38,-348,3888,-0.39,0.33,26.52,-0.38,-3.48,38.88,-6.07,1.62,30.92,0.58,-1.50,-4.89
-11,7,300,15,-420,4004,-0.41,0.34,25.70,0.15,-4.20,40.04,-6.06,1.62,30.82,2.76,-0.96,-4.95
-4,12,276,132,-480,3962,-0.40,0.38,24.81,1.32,-4.80,39.62,-6.07,1.61,30.72,1.05,-2.08,-3.71
-15,0,293,-22,-487,3963,-0.45,0.34,24.12,-0.22,-4.87,39.63,-6.08,1.61,30.63,3.65,0.83,-5.77
0,-1,295,-323,-493,3904,-0.40,0.30,23.51,-3.23,-4.93,39.04,-6.08,1.64,30.53,0.01,0.92,-6.49
4,2,307,-295,-471,3948,-0.34,0.28,23.03,-2.95,-4.71,39.48,-6.09,1.66,30.44,-0.76,0.09,-7.93
0,25,389,-158,-512,3948,-0.31,0.41,23.10,-1.58,-5.12,39.48,-6.10,1.68,30.35,0.38,-5.30,-14.80
-3,0,408,-135,-518,4039,-0.29,0.37,23.28,-1.35,-5.18,40.39,-6.12,1.70,30.26,1.20,0.90,-16.24
2,3,456,-140,-461,3852,-0.25,0.35,23.73,-1.40,-4.61,38.52,-6.13,1.72,30.17,0.09,0.07,-19.89
-3,21,477,-113,-418,3893,-0.25,0.44,24.27,-1.13,-4.18,38.93,-6.13,1.71,30.07,1.38,-4.16,-21.17
-13,12,530,-77,-426,4050,-0.30,0.47,25.07,-0.77,-4.26,40.50,-6.12,1.71,29.97,3.72,-1.76,-24.92
-8,11,548,-90,-385,3897,-0.32,0.49,25.91,-0.90,-3.85,38.97,-6.11,1.71,29.87,2.37,-1.43,-25.68
-12,26,573,74,-366,3844,-0.36,0.60,26.81,0.74,-3.66,38.44,-6.10,1.70,29.76,3.23,-4.83,-26.97
-18,7,562,-67,-353,3903,-0.43,0.58,27.56,-0.67,-3.53,39.03,-6.09,1.71,29.65,4.47,-0.07,-25.35
-11,8,551,-183,-467,3921,-0.46,0.57,28.17,-1.83,-4.67,39.21,-6.10,1.74,29.54,2.61,-0.36,-23.86
2,12,557,-168,-435,3932,-0.40,0.59,28.75,-1.68,-4.35,39.32,-6.10,1.77,29.43,-0.48,-1.33,-23.83
1,14,553,51,-398,3945,-0.35,0.62,29.25,0.51,-3.98,39.45,-6.09,1.76,29.31,-0.05,-1.74,-23.02
-2,16,551,54,-446,3916,-0.33,0.65,29.68,0.54,-4.46,39.16,-6.09,1.76,29.19,0.80,-2.11,-22.45
-7,10,500,79,-411,3909,-0.34,0.65,29.76,0.79,-4.11,39.09,-6.09,1.76,29.07,2.03,-0.60,-18.04
-12,20,495,28,-505,3890,-0.38,0.70,29.81,0.28,-5.05,38.90,-6.10,1.76,28.96,3.16,-2.92,-17.57
-13,2,450,3,-367,3882,-0.42,0.65,29.57,0.03,-3.67,38.82,-6.09,1.76,28.84,3.25,1.43,-13.96
-3,13,438,-10,-375,3911,-0.40,0.66,29.29,-0.10,-3.75,39.11,-6.08,1.75,28.72,0.80,-1.31,-13.19
-3,18,413,-21,-308,3935,-0.38,0.70,28.88,-0.21,-3.08,39.35,-6.07,1.76,28.61,0.88,-2.41,-11.44
2,-8,387,7,-272,3964,-0.33,0.59,28.35,0.07,-2.72,39.64,-6.05,1.76,28.49,-0.21,3.74,-9.70
-2,1,306,-34,-388,3915,-0.31,0.53,27.38,-0.34,-3.88,39.15,-6.04,1.76,28.38,0.88,1.26,-3.71
-5,3,293,14,-415,3961,-0.31,0.50,26.43,0.14,-4.15,39.61,-6.04,1.75,28.28,1.64,0.62,-3.46
0,5,255,34,-475,3924,-0.27,0.48,25.34,0.34,-4.75,39.24,-6.05,1.75,28.18,0.49,0.04,-1.22
-4,4,241,42,-490,3926,-0.27,0.46,24.28,0.42,-4.90,39.26,-6.05,1.74,28.08,1.52,0.21,-0.99
1,4,204,5,-466,3931,-0.24,0.43,23.10,0.05,-4.66,39.31,-6.06,1.74,27.99,0.37,0.13,1.08
0,5,194,41,-505,3929,-0.21,0.42,21.97,0.41,-5.05,39.29,-6.06,1.73,27.90,0.72,-0.17,0.91
-3,4,163,19,-466,3931,-0.21,0.40,20.77,0.19,-4.66,39.31,-6.07,1.72,27.82,1.49,0.02,2.46
-1,0,157,39,-468,3916,-0.20,0.36,19.65,0.39,-4.68,39.16,-6.07,1.72,27.74,1.04,0.88,1.96
-2,1,134,-22,-413,3912,-0.19,0.33,18.50,-0.22,-4.13,39.12,-6.07,1.71,27.67,1.32,0.52,2.87
-4,1,136,-54,-416,3926,-0.19,0.31,17.48,-0.54,-4.16,39.26,-6.07,1.70,27.60,1.81,0.42,1.78
-5,-4,150,-20,-388,3935,-0.21,0.25,16.65,-0.20,-3.88,39.35,-6.06,1.69,27.53,2.02,1.49,-0.15
-2,2,153,-62,-405,3959,-0.20,0.24,15.92,-0.62,-4.05,39.59,-6.06,1.68,27.47,1.29,-0.09,-1.07
-5,2,167,-61,-388,3961,-0.21,0.23,15.34,-0.61,-3.88,39.61,-6.05,1.67,27.41,2.01,-0.13,-2.77
-4,7,173,-83,-415,3894,-0.21,0.25,14.86,-0.83,-4.15,38.94,-6.05,1.66,27.35,1.74,-1.32,-3.70
-5,5,197,-63,-442,3899,-0.22,0.25,14.58,-0.63,-4.42,38.99,-6.05,1.65,27.29,1.96,-0.79,-5.99
0,13,214,-91,-441,3947,-0.20,0.31,14.43,-0.91,-4.41,39.47,-6.07,1.64,27.24,0.78,-2.62,-7.56
0,8,261,-38,-449,4008,-0.18,0.32,14.58,-0.38,-4.49,40.08,-6.07,1.63,27.18,0.85,-1.27,-11.41
-7,-4,269,-14,-408,3991,-0.20,0.27,14.76,-0.14,-4.08,39.91,-6.07,1.62,27.12,2.54,1.56,-11.91
1,6,323,-74,-445,3888,-0.18,0.28,15.25,-0.74,-4.45,38.88,-6.08,1.62,27.06,0.61,-0.94,-16.03
-6,3,353,-66,-456,3968,-0.20,0.27,15.88,-0.66,-4.56,39.68,-6.09,1.61,27.00,2.32,-0.21,-18.00
1,1,430,-123,-411,3923,-0.17,0.25,16.92,-1.23,-4.11,39.23,-6.08,1.63,26.93,0.63,0.21,-23.58
-4,6,451,-144,-461,3928,-0.18,0.26,17.98,-1.44,-4.61,39.28,-6.09,1.65,26.86,1.88,-1.02,-24.39
1,4,516,-22,-409,3973,-0.15,0.26,19.33,-0.22,-4.09,39.73,-6.09,1.64,26.78,0.70,-0.51,-28.66
-11,12,527,-22,-458,3914,-0.21,0.31,20.61,-0.22,-4.58,39.14,-6.09,1.64,26.70,3.55,-2.36,-28.42
-5,9,568,-18,-457,3898,-0.22,0.33,22.01,-0.18,-4.57,38.98,-6.10,1.63,26.61,1.99,-1.51,-30.62
-3,19,591,-70,-405,3881,-0.21,0.41,23.42,-0.70,-4.05,38.81,-6.09,1.62,26.52,1.50,-3.74,-31.28
7,23,600,-111,-434,3999,-0.15,0.51,24.73,-1.11,-4.34,39.99,-6.11,1.63,26.42,-0.80,-4.38,-30.84
3,0,599,-107,-395,4008,-0.12,0.46,25.91,-1.07,-3.95,40.08,-6.09,1.64,26.32,0.33,1.27,-29.68
5,12,620,-3,-476,3827,-0.07,0.49,27.11,-0.03,-4.76,38.27,-6.09,1.64,26.21,-0.01,-1.68,-30.36
-13,-23,609,68,-447,4002,-0.15,0.30,28.11,0.68,-4.47,40.02,-6.09,1.63,26.10,4.29,6.51,-28.51
-18,1,599,-19,-494,3921,-0.24,0.27,28.95,-0.19,-4.94,39.21,-6.10,1.63,25.98,5.20,0.32,-26.89
-11,8,584,-32,-431,3830,-0.28,0.30,29.62,-0.32,-4.31,38.30,-6.10,1.63,25.87,3.26,-1.38,-25.00
-17,13,537,-162,-349,3870,-0.36,0.35,29.93,-1.62,-3.49,38.70,-6.09,1.65,25.75,4.50,-2.47,-20.72
7,15,539,-116,-374,4007,-0.28,0.40,30.23,-1.16,-3.74,40.07,-6.07,1.67,25.63,-1.31,-2.77,-20.62
-13,15,469,41,-471,3971,-0.33,0.45,30.07,0.41,-4.71,39.71,-6.07,1.66,25.51,3.58,-2.57,-14.82
-12,10,447,130,-467,3943,-0.37,0.47,29.79,1.30,-4.67,39.43,-6.07,1.66,25.39,3.18,-1.24,-13.20
-3,8,411,107,-506,3940,-0.35,0.47,29.31,1.07,-5.06,39.40,-6.08,1.66,25.27,0.96,-0.73,-10.57
-8,1,404,95,-408,3897,-0.37,0.43,28.85,0.95,-4.08,38.97,-6.07,1.65,25.16,2.18,0.90,-10.39
-9,7,430,77,-527,3954,-0.38,0.43,28.59,0.77,-5.27,39.54,-6.08,1.65,25.05,2.37,-0.63,-12.82
-13,1,417,200,-442,3999,-0.43,0.39,28.27,2.00,-4.42,39.99,-6.08,1.65,24.93,3.23,0.76,-11.99
-3,-6,343,27,-453,3931,-0.40,0.32,27.54,0.27,-4.53,39.31,-6.08,1.64,24.82,0.78,2.25,-6.38
-6,3,342,-83,-484,3852,-0.40,0.30,26.87,-0.83,-4.84,38.52,-6.10,1.65,24.72,1.56,-0.08,-6.89
-7,0,357,-163,-546,3902,-0.40,0.27,26.36,-1.63,-5.46,39.02,-6.11,1.67,24.61,1.81,0.56,-8.62
-7,-4,369,-135,-561,3997,-0.40,0.22,25.97,-1.35,-5.61,39.97,-6.13,1.68,24.51,1.80,1.38,-9.97
0,-4,430,-66,-533,3846,-0.36,0.18,26.00,-0.66,-5.33,38.46,-6.15,1.69,24.41,0.18,1.20,-15.11
-7,14,457,-42,-561,3949,-0.37,0.24,26.19,-0.42,-5.61,39.49,-6.16,1.69,24.30,1.94,-3.12,-17.22
-2,19,525,-121,-558,3946,-0.34,0.33,26.77,-1.21,-5.58,39.46,-6.18,1.70,24.20,0.76,-4.05,-22.44
-3,1,561,-163,-540,3961,-0.33,0.31,27.52,-1.63,-5.40,39.61,-6.19,1.72,24.09,1.08,0.42,-24.80
-20,0,643,-134,-477,3889,-0.42,0.28,28.69,-1.34,-4.77,38.89,-6.21,1.74,23.98,5.07,0.55,-30.68
-7,-3,657,-85,-401,3956,-0.42,0.23,29.83,-0.85,-4.01,39.56,-6.19,1.74,23.86,1.76,1.14,-30.82
-16,-7,655,-19,-392,3894,-0.47,0.16,30.84,-0.19,-3.92,38.94,-6.19,1.74,23.73,3.84,1.91,-29.72
-12,17,653,-28,-412,3887,-0.50,0.25,31.74,-0.28,-4.12,38.87,-6.18,1.73,23.61,2.72,-3.86,-28.72
-8,4,627,77,-439,4047,-0.50,0.25,32.39,0.77,-4.39,40.47,-6.18,1.73,23.48,1.71,-0.56,-25.92
-6,0,612,89,-367,3896,-0.49,0.23,32.88,0.89,-3.67,38.96,-6.17,1.73,23.35,1.25,0.37,-24.19
-8,0,545,62,-380,3916,-0.49,0.20,32.92,0.62,-3.80,39.16,-6.17,1.72,23.22,1.76,0.28,-18.46
-4,11,523,42,-362,3892,-0.46,0.25,32.82,0.42,-3.62,38.92,-6.16,1.72,23.09,0.83,-2.34,-16.68
0,5,460,95,-360,3943,-0.42,0.26,32.34,0.95,-3.60,39.43,-6.15,1.72,22.96,-0.02,-0.79,-11.76
0,5,436,46,-419,3880,-0.37,0.26,31.77,0.46,-4.19,38.80,-6.15,1.72,22.83,0.14,-0.77,-10.24
-7,-12,374,81,-437,3929,-0.38,0.16,30.87,0.81,-4.37,39.29,-6.15,1.71,22.71,1.90,3.18,-5.79
-7,5,366,46,-453,3934,-0.38,0.18,30.02,0.46,-4.53,39.34,-6.15,1.71,22.59,1.88,-1.09,-5.88
-3,4,385,78,-404,3925,-0.36,0.18,29.36,0.78,-4.04,39.25,-6.15,1.70,22.47,0.94,-0.81,-8.07
-16,2,392,60,-401,4005,-0.43,0.18,28.82,0.60,-4.01,40.05,-6.14,1.70,22.36,4.01,-0.32,-9.15
-7,-1,352,0,-345,3978,-0.43,0.15,28.08,0.00,-3.45,39.78,-6.13,1.69,22.25,1.72,0.35,-6.41
-6,-4,333,-32,-344,3940,-0.42,0.11,27.31,-0.32,-3.44,39.40,-6.12,1.69,22.14,1.48,0.97,-5.50
8,7,247,-168,-315,3885,-0.33,0.14,26.08,-1.68,-3.15,38.85,-6.10,1.71,22.03,-1.74,-1.72,0.69
11,4,181,-146,-278,3941,-0.23,0.15,24.58,-1.46,-2.78,39.41,-6.08,1.73,21.93,-2.13,-0.92,4.92
-3,-1,100,-19,-440,3971,-0.22,0.13,22.73,-0.19,-4.40,39.71,-6.08,1.72,21.84,1.45,0.27,10.12
1,2,102,-8,-451,3934,-0.20,0.13,21.08,-0.08,-4.51,39.34,-6.08,1.71,21.76,0.54,-0.49,8.46
-3,3,97,-6,-469,3917,-0.19,0.14,19.56,-0.06,-4.69,39.17,-6.09,1.70,21.68,1.56,-0.73,7.51
-3,2,87,-22,-456,3954,-0.19,0.14,18.14,-0.22,-4.56,39.54,-6.09,1.69,21.61,1.57,-0.48,7.07
2,1,89,17,-448,3914,-0.16,0.13,16.87,0.17,-4.48,39.14,-6.10,1.68,21.54,0.42,-0.25,5.75
4,-2,87,30,-459,3922,-0.12,0.10,15.71,0.30,-4.59,39.22,-6.10,1.67,21.48,0.06,0.42,4.88
3,-7,63,32,-422,3938,-0.09,0.05,14.52,0.32,-4.22,39.38,-6.10,1.66,21.42,0.43,1.50,5.84
5,-8,66,-3,-371,3934,-0.05,-0.00,13.47,-0.03,-3.71,39.34,-6.09,1.65,21.37,0.07,1.55,4.64
6,-6,64,-4,-365,3937,-0.01,-0.04,12.52,-0.04,-3.65,39.37,-6.08,1.64,21.32,-0.03,0.91,3.94
3,-2,61,-18,-348,3954,0.01,-0.05,11.64,-0.18,-3.48,39.54,-6.07,1.63,21.27,0.80,-0.13,3.40
0,-1,54,-35,-413,3936,0.01,-0.05,10.80,-0.35,-4.13,39.36,-6.07,1.62,21.23,1.56,-0.39,3.24
3,0,56,-38,-434,3945,0.03,-0.04,10.06,-0.38,-4.34,39.45,-6.07,1.60,21.19,0.86,-0.62,2.41
0,-7,61,-19,-477,3948,0.02,-0.08,9.43,-0.19,-4.77,39.48,-6.08,1.59,21.15,1.62,1.02,1.41
-4,-6,64,4,-411,3933,-0.00,-0.11,8.88,0.04,-4.11,39.33,-6.07,1.58,21.12,2.53,0.66,0.66
-1,-2,30,16,-390,3910,-0.01,-0.11,8.17,0.16,-3.90,39.10,-6.07,1.56,21.09,1.75,-0.36,2.90
-2,2,17,42,-365,3931,-0.02,-0.09,7.46,0.42,-3.65,39.31,-6.06,1.55,21.06,1.96,-1.28,3.36
-3,-6,-7,22,-463,3876,-0.04,-0.12,6.67,0.22,-4.63,38.76,-6.07,1.53,21.03,2.15,0.65,4.68
-3,-4,-16,-16,-483,3921,-0.05,-0.13,5.91,-0.16,-4.83,39.21,-6.08,1.52,21.01,2.10,0.10,4.75
-5,-10,-13,-18,-581,3906,-0.08,-0.18,5.24,-0.18,-5.81,39.06,-6.10,1.51,20.99,2.52,1.44,3.89
-2,-3,-14,-27,-549,3869,-0.08,-0.18,4.63,-0.27,-5.49,38.69,-6.11,1.50,20.97,1.74,-0.34,3.43
0,-1,-17,-11,-490,3950,-0.07,-0.17,4.06,-0.11,-4.90,39.50,-6.12,1.49,20.95,1.26,-0.80,3.17
0,-1,-20,-2,-469,3936,-0.07,-0.16,3.53,-0.02,-4.69,39.36,-6.13,1.47,20.94,1.29,-0.76,2.94
0,3,-30,-31,-489,3936,-0.06,-0.12,3.00,-0.31,-4.89,39.36,-6.14,1.46,20.93,1.32,-1.64,3.30
-1,3,-27,-22,-505,3911,-0.06,-0.09,2.53,-0.22,-5.05,39.11,-6.15,1.45,20.92,1.58,-1.52,2.63
-2,5,-29,40,-403,3936,-0.07,-0.05,2.10,0.40,-4.03,39.36,-6.15,1.43,20.91,1.81,-1.88,2.41
-1,6,-42,43,-377,3936,-0.07,-0.01,1.64,0.43,-3.77,39.36,-6.15,1.42,20.90,1.55,-1.97,3.09
0,4,-109,54,-348,3939,-0.06,0.02,0.81,0.54,-3.48,39.39,-6.14,1.40,20.90,1.32,-1.36,8.01
0,2,-125,82,-406,3913,-0.05,0.03,-0.04,0.82,-4.06,39.13,-6.14,1.38,20.90,1.34,-0.81,8.60
4,-3,-145,1,-458,3907,-0.02,0.01,-0.92,0.01,-4.58,39.07,-6.14,1.36,20.90,0.44,0.38,9.50
-5,-7,-145,10,-451,3960,-0.05,-0.04,-1.71,0.10,-4.51,39.60,-6.15,1.35,20.91,2.62,1.24,8.78
-9,-14,-169,-12,-444,3989,-0.10,-0.12,-2.57,-0.12,-4.44,39.89,-6.15,1.33,20.92,3.45,2.72,10.03
-7,-11,-174,7,-499,3854,-0.13,-0.17,-3.37,0.07,-4.99,38.54,-6.17,1.31,20.93,2.83,1.75,9.72
-10,-10,-145,-36,-497,3938,-0.18,-0.22,-3.92,-0.36,-4.97,39.38,-6.18,1.30,20.95,3.41,1.34,6.77
-12,-14,-122,-82,-502,3934,-0.24,-0.28,-4.27,-0.82,-5.02,39.34,-6.20,1.29,20.97,3.72,2.12,4.50
-1,-8,-198,100,-403,3967,-0.22,-0.30,-5.05,1.00,-4.03,39.67,-6.20,1.27,20.99,0.99,0.52,10.23
4,-11,-262,-18,-459,3970,-0.17,-0.34,-6.15,-0.18,-4.59,39.70,-6.21,1.25,21.01,-0.11,1.15,14.66
0,-6,-236,60,-519,3895,-0.16,-0.34,-6.97,0.60,-5.19,38.95,-6.22,1.23,21.04,0.98,-0.13,11.70
0,-7,-252,35,-476,3935,-0.14,-0.35,-7.81,0.35,-4.76,39.35,-6.23,1.21,21.07,1.04,0.10,12.29
7,-3,-345,-69,-354,3947,-0.08,-0.33,-9.13,-0.69,-3.54,39.47,-6.21,1.20,21.10,-0.53,-0.85,18.97
6,-4,-354,5,-435,3987,-0.04,-0.32,-10.38,0.05,-4.35,39.87,-6.21,1.17,21.15,-0.11,-0.56,18.60
3,-9,-436,14,-416,3919,-0.02,-0.35,-12.00,0.14,-4.16,39.19,-6.21,1.15,21.19,0.74,0.64,24.07
15,-7,-461,-31,-373,3907,0.08,-0.36,-13.61,-0.31,-3.73,39.07,-6.20,1.13,21.25,-1.97,0.10,24.72
13,-4,-497,-154,-448,3971,0.15,-0.34,-15.28,-1.54,-4.48,39.71,-6.20,1.14,21.31,-1.19,-0.62,26.25
11,-10,-499,-125,-414,3882,0.20,-0.37,-16.80,-1.25,-4.14,38.82,-6.20,1.15,21.37,-0.48,0.80,25.04
1,-2,-481,-135,-495,3860,0.19,-0.35,-18.05,-1.35,-4.95,38.60,-6.21,1.15,21.45,2.01,-1.14,22.37
6,-9,-473,-150,-488,4020,0.20,-0.37,-19.13,-1.50,-4.88,40.20,-6.23,1.16,21.52,0.81,0.56,20.71
6,-1,-411,-38,-466,3904,0.22,-0.34,-19.73,-0.38,-4.66,39.04,-6.24,1.13,21.60,0.87,-1.35,14.91
1,5,-401,-1,-502,3976,0.20,-0.27,-20.20,-0.01,-5.02,39.76,-6.25,1.11,21.68,2.09,-2.63,13.62
15,-3,-380,47,-435,3971,0.28,-0.26,-20.50,0.47,-4.35,39.71,-6.25,1.08,21.76,-1.20,-0.56,11.57
10,0,-375,-2,-385,3896,0.31,-0.24,-20.74,-0.02,-3.85,38.96,-6.24,1.05,21.84,0.19,-1.21,10.92
8,-2,-400,-11,-327,3962,0.33,-0.22,-21.10,-0.11,-3.27,39.62,-6.23,1.04,21.93,0.76,-0.66,12.70
6,9,-428,16,-327,3895,0.33,-0.15,-21.60,0.16,-3.27,38.95,-6.21,1.01,22.01,1.28,-3.16,14.61
8,1,-383,55,-370,4009,0.35,-0.13,-21.78,0.55,-3.70,40.09,-6.21,0.99,22.10,0.83,-1.04,10.63
7,9,-379,65,-342,3904,0.35,-0.06,-21.91,0.65,-3.42,39.04,-6.20,0.96,22.19,1.11,-2.81,10.17
13,11,-409,104,-370,3894,0.40,0.01,-22.22,1.04,-3.70,38.94,-6.19,0.94,22.28,-0.25,-3.04,12.43
12,10,-438,125,-341,3936,0.43,0.07,-22.67,1.25,-3.41,39.36,-6.18,0.91,22.37,0.13,-2.55,14.47
13,-8,-504,57,-240,4013,0.47,0.02,-23.47,0.57,-2.40,40.13,-6.17,0.89,22.46,0.01,1.82,19.32
9,-16,-503,21,-244,3928,0.48,-0.08,-24.20,0.21,-2.44,39.28,-6.15,0.87,22.55,1.05,3.48,18.57
-6,-29,-484,-108,-381,4034,0.39,-0.25,-24.73,-1.08,-3.81,40.34,-6.14,0.87,22.65,4.54,6.15,16.47
15,-25,-490,-84,-331,3912,0.44,-0.38,-25.24,-0.84,-3.31,39.12,-6.12,0.86,22.75,-0.60,4.65,16.50
21,-5,-562,-57,-501,3883,0.53,-0.37,-26.15,-0.57,-5.01,38.83,-6.14,0.85,22.86,-1.81,-0.40,21.77
20,-18,-583,-72,-500,4039,0.60,-0.44,-27.09,-0.72,-5.00,40.39,-6.15,0.84,22.96,-1.29,2.63,22.69
4,-17,-579,-97,-526,3935,0.56,-0.50,-27.91,-0.97,-5.26,39.35,-6.17,0.83,23.08,2.65,2.16,21.59
3,-4,-555,-261,-587,3980,0.52,-0.48,-28.51,-2.61,-5.87,39.80,-6.18,0.83,23.19,2.76,-1.05,19.01
15,-3,-556,-244,-516,3933,0.56,-0.45,-29.05,-2.44,-5.16,39.33,-6.19,0.84,23.30,-0.14,-1.19,18.60
18,10,-555,-226,-464,3839,0.62,-0.34,-29.53,-2.26,-4.64,38.39,-6.19,0.84,23.42,-0.70,-4.10,18.07
11,-6,-605,-237,-486,3862,0.62,-0.34,-30.27,-2.37,-4.86,38.62,-6.20,0.84,23.54,1.10,-0.04,21.62
10,6,-632,-286,-552,3899,0.62,-0.27,-31.09,-2.86,-5.52,38.99,-6.21,0.84,23.67,1.35,-2.83,23.15
7,-18,-676,-146,-522,3925,0.60,-0.36,-32.11,-1.46,-5.22,39.25,-6.22,0.84,23.79,2.05,2.96,25.95
3,-2,-699,-118,-484,3903,0.56,-0.33,-33.16,-1.18,-4.84,39.03,-6.23,0.84,23.93,2.91,-1.01,26.93
15,7,-802,64,-478,3902,0.60,-0.26,-34.74,0.64,-4.78,39.02,-6.24,0.80,24.06,-0.01,-3.01,34.21
9,1,-821,61,-461,3955,0.59,-0.22,-36.27,0.61,-4.61,39.55,-6.24,0.77,24.21,1.50,-1.35,34.42
24,-11,-865,105,-448,4009,0.68,-0.27,-37.92,1.05,-4.48,40.09,-6.24,0.73,24.36,-1.98,1.54,36.64
21,-11,-865,68,-447,3934,0.74,-0.31,-39.41,0.68,-4.47,39.34,-6.24,0.70,24.52,-0.99,1.39,35.28
29,-9,-837,43,-450,3965,0.84,-0.33,-40.57,0.43,-4.50,39.65,-6.25,0.66,24.68,-2.64,0.80,31.84
-3,6,-831,-2,-460,3804,0.74,-0.26,-41.58,-0.02,-4.60,38.04,-6.26,0.63,24.84,5.11,-2.74,30.40
8,5,-814,1,-498,3901,0.71,-0.21,-42.39,0.01,-4.98,39.01,-6.27,0.60,25.01,2.23,-2.26,28.21
1,-19,-812,-70,-519,4020,0.65,-0.30,-43.10,-0.70,-5.19,40.20,-6.29,0.59,25.18,3.76,3.48,27.38
5,-25,-778,8,-506,3968,0.61,-0.42,-43.54,0.08,-5.06,39.68,-6.30,0.55,25.35,2.62,4.55,24.09
24,-19,-766,48,-474,3897,0.70,-0.50,-43.86,0.48,-4.74,38.97,-6.31,0.52,25.53,-1.89,2.76,22.77
7,-18,-688,-39,-545,3926,0.67,-0.56,-43.67,-0.39,-5.45,39.26,-6.33,0.50,25.70,2.34,2.29,16.32
10,-13,-663,-3,-505,3914,0.67,-0.58,-43.35,-0.03,-5.05,39.14,-6.34,0.47,25.87,1.56,0.94,14.48
9,-5,-582,-134,-481,3869,0.65,-0.55,-42.56,-1.34,-4.81,38.69,-6.35,0.46,26.04,1.77,-0.99,8.32
13,-2,-528,-115,-488,3947,0.67,-0.51,-41.53,-1.15,-4.88,39.47,-6.36,0.46,26.21,0.80,-1.59,4.67
1,-20,-449,-94,-392,3866,0.61,-0.58,-40.11,-0.94,-3.92,38.66,-6.35,0.45,26.37,3.62,2.72,-0.75
14,4,-427,-106,-455,3939,0.63,-0.50,-38.71,-1.06,-4.55,39.39,-6.35,0.45,26.52,0.41,-3.07,-1.35
2,-3,-372,-70,-414,3952,0.58,-0.47,-37.10,-0.70,-4.14,39.52,-6.34,0.45,26.67,3.27,-1.17,-4.57
-7,-4,-350,-57,-409,3912,0.48,-0.44,-35.53,-0.57,-4.09,39.12,-6.32,0.45,26.81,5.17,-0.83,-5.02
9,-4,-300,-38,-402,3886,0.49,-0.42,-33.81,-0.38,-4.02,38.86,-6.31,0.43,26.94,1.13,-0.76,-7.70
7,-2,-287,-72,-420,3906,0.48,-0.39,-32.18,-0.72,-4.20,39.06,-6.30,0.44,27.07,1.61,-1.15,-7.34
11,-5,-252,-83,-469,3914,0.50,-0.39,-30.50,-0.83,-4.69,39.14,-6.31,0.44,27.19,0.67,-0.35,-8.79
2,-16,-241,-72,-424,3962,0.46,-0.44,-28.92,-0.72,-4.24,39.62,-6.30,0.44,27.31,2.81,2.22,-8.29
9,-6,-238,-88,-445,3928,0.47,-0.44,-27.48,-0.88,-4.45,39.28,-6.30,0.44,27.42,1.07,-0.29,-7.25
-4,-6,-241,-37,-412,3848,0.40,-0.43,-26.20,-0.37,-4.12,38.48,-6.29,0.44,27.52,4.10,-0.27,-5.84
3,-6,-222,-64,-435,3925,0.38,-0.42,-24.93,-0.64,-4.35,39.25,-6.29,0.44,27.62,2.24,-0.24,-6.31
10,-8,-221,-69,-413,3974,0.40,-0.43,-23.79,-0.69,-4.13,39.74,-6.28,0.45,27.71,0.54,0.24,-5.37
6,1,-225,-61,-374,3966,0.40,-0.38,-22.78,-0.61,-3.74,39.66,-6.26,0.44,27.80,1.54,-1.86,-4.12
5,-3,-224,-57,-402,3936,0.39,-0.36,-21.87,-0.57,-4.02,39.36,-6.25,0.44,27.89,1.76,-0.77,-3.39
11,-3,-210,29,-380,3913,0.42,-0.34,-20.96,0.29,-3.80,39.13,-6.23,0.42,27.97,0.34,-0.70,-3.76
-1,2,-215,-11,-434,3921,0.37,-0.30,-20.18,-0.11,-4.34,39.21,-6.24,0.39,28.05,3.21,-1.79,-2.63
-12,-4,-204,10,-417,3888,0.26,-0.29,-19.41,0.10,-4.17,38.88,-6.23,0.37,28.13,5.59,-0.24,-2.87
11,-1,-202,3,-445,3966,0.30,-0.27,-18.70,0.03,-4.45,39.66,-6.24,0.34,28.21,-0.10,-0.91,-2.40
13,0,-190,-24,-462,3903,0.35,-0.24,-17.99,-0.24,-4.62,39.03,-6.26,0.33,28.28,-0.42,-1.06,-2.78
3,-2,-181,11,-460,3951,0.33,-0.23,-17.29,0.11,-4.60,39.51,-6.27,0.31,28.35,2.06,-0.50,-2.91
1,-8,-196,49,-468,3947,0.31,-0.26,-16.76,0.49,-4.68,39.47,-6.27,0.28,28.41,2.47,0.93,-1.16
3,2,-202,-1,-513,3820,0.29,-0.22,-16.31,-0.01,-5.13,38.20,-6.29,0.27,28.48,1.92,-1.46,-0.26
13,8,-187,-18,-527,3919,0.34,-0.15,-15.82,-0.18,-5.27,39.19,-6.31,0.26,28.54,-0.43,-2.72,-1.09
6,0,-185,-53,-558,3974,0.35,-0.13,-15.37,-0.53,-5.58,39.74,-6.32,0.26,28.60,1.36,-0.63,-0.85
