gyroADC_X,gyroADC_Y,gyroADC_Z,accADC_X,accADC_Y,accADC_Z,GyroX,GyroY,GyroZ,AccX,AccY,AccZ,roll_IMU,pitch_IMU,yaw_IMU,roll_PID,pitch_PID,yaw_PID
1,5,3,-42,-315,3916,0.08,0.25,0.36,-0.42,-3.15,39.16,-3.87,-1.03,83.25,2.51,0.51,-5.05
1,4,2,-31,-314,3909,0.08,0.25,0.34,-0.31,-3.14,39.09,-3.88,-1.01,83.25,2.52,0.52,-5.04
-1,0,1,-29,-321,3921,0.07,0.23,0.31,-0.29,-3.21,39.21,-3.89,-1.00,83.25,2.57,0.60,-5.03
-2,-2,-1,-23,-323,3904,0.05,0.19,0.27,-0.23,-3.23,39.04,-3.90,-0.98,83.24,2.60,0.63,-5.01
3,1,-7,-19,-311,3927,0.06,0.18,0.20,-0.19,-3.11,39.27,-3.91,-0.96,83.24,2.50,0.57,-4.95
4,-1,-8,-16,-308,3907,0.08,0.16,0.14,-0.16,-3.08,39.07,-3.91,-0.95,83.24,2.48,0.60,-4.94
4,0,-8,-19,-302,3929,0.10,0.14,0.07,-0.19,-3.02,39.29,-3.92,-0.93,83.24,2.48,0.57,-4.93
4,0,-8,-22,-283,3903,0.11,0.13,0.02,-0.22,-2.83,39.03,-3.92,-0.91,83.24,2.48,0.57,-4.93
-3,0,-44,11,-173,3913,0.08,0.11,-0.25,0.11,-1.73,39.13,-3.91,-0.90,83.24,2.62,0.56,-4.60
-4,-6,-62,-10,-189,3951,0.05,0.07,-0.61,-0.10,-1.89,39.51,-3.89,-0.89,83.25,2.64,0.69,-4.42
8,-4,-60,-35,-433,3942,0.09,0.03,-0.91,-0.35,-4.33,39.42,-3.91,-0.88,83.25,2.39,0.65,-4.41
5,-2,-35,-45,-436,3939,0.11,0.02,-1.03,-0.45,-4.36,39.39,-3.92,-0.87,83.25,2.46,0.61,-4.61
4,1,-10,-31,-316,3941,0.13,0.02,-0.99,-0.31,-3.16,39.41,-3.93,-0.85,83.26,2.48,0.54,-4.83
3,1,-7,-42,-328,3901,0.13,0.03,-0.94,-0.42,-3.28,39.01,-3.94,-0.84,83.26,2.50,0.53,-4.86
2,2,-14,-29,-246,3941,0.13,0.04,-0.93,-0.29,-2.46,39.41,-3.93,-0.82,83.26,2.52,0.49,-4.80
3,0,-30,-19,-204,3920,0.14,0.03,-1.02,-0.19,-2.04,39.20,-3.92,-0.81,83.27,2.49,0.52,-4.66
-2,-11,-150,55,-164,3900,0.11,-0.04,-1.83,0.55,-1.64,39.00,-3.90,-0.81,83.28,2.59,0.77,-3.58
2,-8,-161,53,-256,3852,0.11,-0.08,-2.63,0.53,-2.56,38.52,-3.88,-0.80,83.29,2.49,0.72,-3.42
3,-7,-99,-91,-538,4018,0.12,-0.12,-2.97,-0.91,-5.38,40.18,-3.90,-0.80,83.30,2.48,0.70,-3.92
0,-6,-66,-95,-539,3914,0.11,-0.14,-3.08,-0.95,-5.39,39.14,-3.91,-0.79,83.31,2.55,0.68,-4.19
-2,4,-8,-42,-358,3901,0.08,-0.10,-2.82,-0.42,-3.58,39.01,-3.93,-0.78,83.32,2.61,0.46,-4.70
-6,3,-2,-23,-333,3903,0.04,-0.07,-2.55,-0.23,-3.33,39.03,-3.94,-0.76,83.33,2.71,0.46,-4.78
-2,-6,-3,-5,-314,3896,0.02,-0.10,-2.31,-0.05,-3.14,38.96,-3.95,-0.75,83.34,2.64,0.65,-4.79
-2,-9,-1,-15,-329,3914,0.01,-0.15,-2.09,-0.15,-3.29,39.14,-3.96,-0.74,83.35,2.65,0.71,-4.82
10,10,-8,57,-411,3909,0.07,-0.07,-1.93,0.57,-4.11,39.09,-3.98,-0.74,83.36,2.40,0.31,-4.78
3,3,-12,59,-376,3937,0.08,-0.05,-1.81,0.59,-3.76,39.37,-4.00,-0.74,83.36,2.55,0.44,-4.75
5,-4,1,-12,-350,3858,0.10,-0.07,-1.62,-0.12,-3.50,38.58,-4.01,-0.73,83.37,2.52,0.58,-4.88
2,-4,-4,-11,-345,3949,0.10,-0.08,-1.48,-0.11,-3.45,39.49,-4.02,-0.72,83.38,2.59,0.58,-4.85
-6,1,-64,143,-499,3948,0.06,-0.07,-1.72,1.43,-4.99,39.48,-4.04,-0.73,83.38,2.77,0.48,-4.32
3,1,-96,196,-472,3964,0.07,-0.06,-2.14,1.96,-4.72,39.64,-4.05,-0.74,83.39,2.60,0.48,-4.02
13,-17,-145,366,-334,3889,0.14,-0.15,-2.81,3.66,-3.34,38.89,-4.06,-0.76,83.40,2.37,0.89,-3.55
5,-17,-157,401,-374,3851,0.16,-0.24,-3.49,4.01,-3.74,38.51,-4.06,-0.78,83.42,2.54,0.93,-3.39
1,2,-148,87,-322,3885,0.15,-0.21,-4.04,0.87,-3.22,38.85,-4.08,-0.79,83.43,2.63,0.54,-3.42
8,1,-174,-115,-303,3987,0.18,-0.18,-4.70,-1.15,-3.03,39.87,-4.08,-0.78,83.45,2.48,0.54,-3.15
0,2,-136,-280,-218,3918,0.16,-0.15,-5.06,-2.80,-2.18,39.18,-4.07,-0.76,83.47,2.64,0.50,-3.45
-1,5,-111,-329,-234,3885,0.14,-0.10,-5.23,-3.29,-2.34,38.85,-4.07,-0.74,83.49,2.67,0.42,-3.64
-1,4,-55,-313,-238,3906,0.12,-0.07,-5.04,-3.13,-2.38,39.06,-4.07,-0.73,83.51,2.67,0.42,-4.14
-2,6,-38,-255,-258,3892,0.10,-0.03,-4.77,-2.55,-2.58,38.92,-4.06,-0.71,83.53,2.70,0.35,-4.30
-9,-2,53,16,-359,3899,0.03,-0.04,-3.97,0.16,-3.59,38.99,-4.08,-0.70,83.55,2.87,0.52,-5.14
-11,7,77,86,-343,3877,-0.04,0.01,-3.10,0.86,-3.43,38.77,-4.10,-0.71,83.56,2.94,0.33,-5.41
-5,3,77,153,-377,3894,-0.06,0.03,-2.32,1.53,-3.77,38.94,-4.11,-0.73,83.57,2.83,0.41,-5.48
-1,-2,84,82,-302,3968,-0.06,0.01,-1.58,0.82,-3.02,39.68,-4.12,-0.74,83.57,2.76,0.53,-5.60
0,2,115,116,-344,3907,-0.06,0.02,-0.72,1.16,-3.44,39.07,-4.13,-0.76,83.58,2.74,0.45,-5.93
5,-2,131,37,-313,3865,-0.02,0.01,0.15,0.37,-3.13,38.65,-4.15,-0.75,83.58,2.64,0.53,-6.14
-8,-8,126,-292,-196,3940,-0.07,-0.04,0.91,-2.92,-1.96,39.40,-4.14,-0.73,83.57,2.92,0.66,-6.16
-3,-7,112,-387,-157,3929,-0.08,-0.08,1.50,-3.87,-1.57,39.29,-4.14,-0.72,83.57,2.81,0.64,-6.08
0,18,31,-207,-216,3936,-0.07,0.04,1.54,-2.07,-2.16,39.36,-4.13,-0.70,83.56,2.75,0.08,-5.40
3,19,26,-102,-280,3914,-0.05,0.15,1.54,-1.02,-2.80,39.14,-4.13,-0.68,83.55,2.68,0.02,-5.36
1,9,13,-42,-322,3902,-0.04,0.19,1.47,-0.42,-3.22,39.02,-4.14,-0.66,83.55,2.72,0.20,-5.24
-2,7,13,-12,-294,3916,-0.04,0.21,1.40,-0.12,-2.94,39.16,-4.15,-0.64,83.54,2.79,0.22,-5.24
-1,1,7,-14,-303,3932,-0.05,0.20,1.30,-0.14,-3.03,39.32,-4.15,-0.62,83.54,2.77,0.34,-5.18
-1,0,6,-21,-309,3918,-0.05,0.18,1.21,-0.21,-3.09,39.18,-4.16,-0.60,83.53,2.78,0.35,-5.16
-2,-2,3,-18,-314,3921,-0.05,0.15,1.11,-0.18,-3.14,39.21,-4.17,-0.59,83.53,2.81,0.39,-5.13
-1,-4,0,-23,-302,3906,-0.06,0.11,1.00,-0.23,-3.02,39.06,-4.17,-0.57,83.52,2.79,0.43,-5.09
4,2,-2,-39,-312,3918,-0.03,0.11,0.88,-0.39,-3.12,39.18,-4.18,-0.55,83.52,2.68,0.29,-5.07
5,3,-1,-33,-312,3927,0.01,0.12,0.79,-0.33,-3.12,39.27,-4.18,-0.53,83.52,2.66,0.26,-5.07
3,6,2,-11,-287,3953,0.03,0.14,0.72,-0.11,-2.87,39.53,-4.18,-0.51,83.51,2.69,0.18,-5.09
7,6,4,-33,-299,3886,0.07,0.17,0.67,-0.33,-2.99,38.86,-4.19,-0.49,83.51,2.60,0.16,-5.10
1,0,3,-49,-323,3913,0.06,0.15,0.63,-0.49,-3.23,39.13,-4.19,-0.48,83.51,2.73,0.27,-5.09
-2,2,1,-41,-332,3932,0.05,0.15,0.57,-0.41,-3.32,39.32,-4.20,-0.46,83.51,2.80,0.22,-5.07
-3,-1,1,-23,-314,3924,0.02,0.13,0.52,-0.23,-3.14,39.24,-4.21,-0.44,83.50,2.83,0.28,-5.06
-3,-1,1,-18,-304,3931,0.00,0.11,0.47,-0.18,-3.04,39.31,-4.22,-0.42,83.50,2.84,0.27,-5.06
-2,-1,2,-22,-309,3927,-0.01,0.09,0.44,-0.22,-3.09,39.27,-4.22,-0.41,83.50,2.83,0.26,-5.06
-5,0,3,-24,-308,3924,-0.04,0.08,0.41,-0.24,-3.08,39.24,-4.23,-0.39,83.50,2.90,0.23,-5.07
-1,-1,-2,-24,-298,3907,-0.04,0.07,0.36,-0.24,-2.98,39.07,-4.23,-0.37,83.50,2.82,0.25,-5.02
2,0,-4,-20,-308,3917,-0.03,0.06,0.30,-0.20,-3.08,39.17,-4.24,-0.35,83.50,2.76,0.22,-5.00
2,0,-2,-19,-313,3905,-0.01,0.05,0.26,-0.19,-3.13,39.05,-4.25,-0.34,83.50,2.77,0.21,-5.01
1,1,-1,-18,-309,3920,-0.00,0.05,0.22,-0.18,-3.09,39.20,-4.26,-0.32,83.49,2.79,0.18,-5.02
-1,5,7,-26,-303,3909,-0.01,0.08,0.24,-0.26,-3.03,39.09,-4.26,-0.30,83.49,2.83,0.08,-5.09
-1,6,8,-33,-296,3911,-0.01,0.11,0.27,-0.33,-2.96,39.11,-4.26,-0.28,83.49,2.84,0.04,-5.10
1,3,6,-18,-319,3908,-0.01,0.12,0.28,-0.18,-3.19,39.08,-4.27,-0.27,83.49,2.80,0.08,-5.08
1,2,6,-14,-316,3925,0.00,0.12,0.29,-0.14,-3.16,39.25,-4.28,-0.25,83.49,2.81,0.09,-5.08
-2,2,32,110,-276,3875,-0.01,0.12,0.45,1.10,-2.76,38.75,-4.28,-0.27,83.49,2.87,0.11,-5.32
0,-10,60,27,-277,3927,-0.01,0.04,0.77,0.27,-2.77,39.27,-4.26,-0.28,83.49,2.82,0.37,-5.58
-6,7,97,-30,-364,3935,-0.05,0.08,1.29,-0.30,-3.64,39.35,-4.28,-0.27,83.48,2.96,0.01,-5.94
-2,1,94,-55,-288,3914,-0.05,0.08,1.73,-0.55,-2.88,39.14,-4.28,-0.25,83.47,2.88,0.12,-5.95
-4,11,103,-18,-384,3935,-0.07,0.14,2.19,-0.18,-3.84,39.35,-4.30,-0.24,83.46,2.94,-0.10,-6.06
1,14,109,-95,-373,3921,-0.06,0.21,2.63,-0.95,-3.73,39.21,-4.31,-0.22,83.45,2.84,-0.20,-6.14
-3,7,112,-61,-402,3896,-0.07,0.23,3.05,-0.61,-4.02,38.96,-4.32,-0.21,83.44,2.93,-0.07,-6.20
-6,1,110,-12,-304,3935,-0.10,0.22,3.42,-0.12,-3.04,39.35,-4.33,-0.19,83.43,3.01,0.05,-6.22
0,-6,48,-29,-272,3907,-0.09,0.16,3.37,-0.29,-2.72,39.07,-4.32,-0.17,83.41,2.87,0.19,-5.68
-1,-5,40,-41,-298,3907,-0.09,0.11,3.28,-0.41,-2.98,39.07,-4.32,-0.15,83.40,2.90,0.17,-5.61
0,1,36,-34,-311,3940,-0.08,0.11,3.17,-0.34,-3.11,39.40,-4.33,-0.13,83.39,2.88,0.04,-5.57
-1,4,41,-42,-311,3915,-0.08,0.12,3.10,-0.42,-3.11,39.15,-4.33,-0.12,83.38,2.90,-0.04,-5.60
-6,2,79,16,-314,3918,-0.11,0.12,3.27,0.16,-3.14,39.18,-4.35,-0.12,83.36,3.02,0.01,-5.94
-1,-1,80,-53,-308,3930,-0.10,0.10,3.43,-0.53,-3.08,39.30,-4.35,-0.10,83.35,2.92,0.06,-5.96
1,3,43,-56,-270,3922,-0.09,0.11,3.35,-0.56,-2.70,39.22,-4.34,-0.08,83.34,2.87,-0.04,-5.64
0,4,34,-36,-278,3909,-0.08,0.12,3.23,-0.36,-2.78,39.09,-4.34,-0.07,83.32,2.88,-0.07,-5.55
1,6,15,-41,-300,3916,-0.06,0.15,2.99,-0.41,-3.00,39.16,-4.34,-0.05,83.31,2.86,-0.13,-5.37
1,6,14,-35,-308,3895,-0.05,0.17,2.78,-0.35,-3.08,38.95,-4.34,-0.03,83.30,2.86,-0.15,-5.34
2,9,26,-47,-321,3922,-0.03,0.21,2.66,-0.47,-3.21,39.22,-4.35,-0.01,83.29,2.84,-0.23,-5.43
1,8,28,-42,-316,3917,-0.02,0.24,2.57,-0.42,-3.16,39.17,-4.36,0.01,83.28,2.86,-0.23,-5.44
-6,-17,55,-158,-211,3821,-0.06,0.11,2.64,-1.58,-2.11,38.21,-4.35,0.03,83.27,3.01,0.30,-5.68
-7,-17,111,-71,-248,3914,-0.10,-0.01,3.06,-0.71,-2.48,39.14,-4.34,0.04,83.26,3.03,0.32,-6.18
-6,-7,129,-5,-361,3933,-0.12,-0.05,3.54,-0.05,-3.61,39.33,-4.36,0.04,83.24,3.03,0.13,-6.37
-9,-8,131,15,-323,3938,-0.16,-0.09,3.98,0.15,-3.23,39.38,-4.37,0.03,83.23,3.11,0.17,-6.43
1,-2,100,-44,-266,3902,-0.14,-0.10,4.20,-0.44,-2.66,39.02,-4.36,0.05,83.21,2.90,0.03,-6.18
-3,-2,97,-59,-296,3894,-0.15,-0.10,4.37,-0.59,-2.96,38.94,-4.36,0.07,83.19,2.98,0.02,-6.17
-7,-6,130,-10,-327,3911,-0.17,-0.12,4.72,-0.10,-3.27,39.11,-4.38,0.07,83.17,3.08,0.11,-6.48
0,-6,146,-35,-324,3929,-0.16,-0.15,5.14,-0.35,-3.24,39.29,-4.39,0.09,83.15,2.94,0.10,-6.64
-1,-5,225,-79,-311,3935,-0.15,-0.16,6.00,-0.79,-3.11,39.35,-4.40,0.11,83.13,2.96,0.08,-7.38
-6,-1,234,-86,-320,3918,-0.17,-0.15,6.83,-0.86,-3.20,39.18,-4.40,0.13,83.10,3.07,-0.02,-7.52
-17,-6,270,45,-373,3837,-0.26,-0.18,7.79,0.45,-3.73,38.37,-4.42,0.12,83.07,3.33,0.09,-7.90
-2,-15,290,-16,-359,3876,-0.24,-0.25,8.78,-0.16,-3.59,38.76,-4.44,0.12,83.04,3.03,0.29,-8.15
-6,3,183,-39,-377,3845,-0.25,-0.21,9.02,-0.39,-3.77,38.45,-4.45,0.13,83.00,3.13,-0.09,-7.26
-12,-1,192,-28,-311,3882,-0.30,-0.19,9.29,-0.28,-3.11,38.82,-4.46,0.15,82.96,3.27,-0.03,-7.36
3,2,153,-64,-342,3894,-0.25,-0.16,9.29,-0.64,-3.42,38.94,-4.47,0.17,82.93,2.96,-0.11,-7.03
-2,0,148,0,-383,3871,-0.24,-0.14,9.27,0.00,-3.83,38.71,-4.49,0.17,82.89,3.07,-0.07,-6.98
0,4,154,77,-453,3918,-0.22,-0.11,9.28,0.77,-4.53,39.18,-4.51,0.16,82.85,3.04,-0.16,-7.03
-2,-4,161,129,-373,3911,-0.21,-0.12,9.33,1.29,-3.73,39.11,-4.52,0.15,82.82,3.08,0.02,-7.09
-2,-10,120,52,-321,3869,-0.20,-0.17,9.13,0.52,-3.21,38.69,-4.52,0.13,82.78,3.08,0.16,-6.72
-3,-8,127,35,-373,3891,-0.20,-0.20,8.99,0.35,-3.73,38.91,-4.54,0.12,82.74,3.11,0.14,-6.77
-3,-14,104,-4,-212,3914,-0.20,-0.27,8.73,-0.04,-2.12,39.14,-4.52,0.12,82.71,3.10,0.28,-6.55
1,0,78,24,-267,3913,-0.17,-0.24,8.33,0.24,-2.67,39.13,-4.51,0.11,82.67,3.00,-0.01,-6.30
-3,6,122,72,-447,3964,-0.17,-0.18,8.24,0.72,-4.47,39.64,-4.52,0.11,82.64,3.09,-0.14,-6.66
3,2,146,97,-421,3925,-0.14,-0.15,8.31,0.97,-4.21,39.25,-4.54,0.10,82.61,2.97,-0.06,-6.87
0,2,224,64,-384,3965,-0.12,-0.12,8.84,0.64,-3.84,39.65,-4.55,0.08,82.57,3.04,-0.06,-7.57
-1,4,244,64,-410,3904,-0.12,-0.08,9.45,0.64,-4.10,39.04,-4.57,0.08,82.54,3.07,-0.11,-7.79
-8,2,324,41,-351,3871,-0.15,-0.06,10.48,0.41,-3.51,38.71,-4.58,0.07,82.49,3.23,-0.07,-8.54
-4,10,342,19,-362,3950,-0.16,0.00,11.52,0.19,-3.62,39.50,-4.60,0.06,82.45,3.16,-0.24,-8.78
-10,30,404,-42,-375,3974,-0.21,0.19,12.83,-0.42,-3.75,39.74,-4.61,0.08,82.40,3.30,-0.71,-9.41
12,2,404,-138,-398,4017,-0.11,0.18,14.01,-1.38,-3.98,40.17,-4.62,0.10,82.34,2.84,-0.15,-9.50
7,12,420,-178,-384,4002,-0.06,0.23,15.17,-1.78,-3.84,40.02,-4.63,0.12,82.28,2.93,-0.39,-9.73
-6,9,428,-59,-423,3834,-0.09,0.27,16.27,-0.59,-4.23,38.34,-4.64,0.14,82.22,3.21,-0.34,-9.88
0,6,442,-19,-338,3935,-0.08,0.28,17.34,-0.19,-3.38,39.35,-4.66,0.15,82.15,3.10,-0.30,-10.08
10,3,429,50,-253,3984,-0.01,0.27,18.22,0.50,-2.53,39.84,-4.65,0.15,82.07,2.87,-0.23,-10.04
-1,-3,436,49,-119,3941,-0.02,0.22,19.06,0.49,-1.19,39.41,-4.63,0.15,82.00,3.08,-0.10,-10.16
-7,-6,417,16,-142,3913,-0.06,0.16,19.69,0.16,-1.42,39.13,-4.61,0.15,81.92,3.20,-0.02,-10.05
1,-1,363,-7,-185,3931,-0.05,0.14,19.94,-0.07,-1.85,39.31,-4.59,0.16,81.84,3.02,-0.12,-9.60
1,1,350,-89,-242,3889,-0.04,0.13,20.08,-0.89,-2.42,38.89,-4.58,0.18,81.76,3.01,-0.17,-9.50
-2,0,331,-123,-204,3889,-0.04,0.12,20.09,-1.23,-2.04,38.89,-4.57,0.20,81.68,3.07,-0.16,-9.33
-3,7,349,-19,-173,3905,-0.06,0.15,20.21,-0.19,-1.73,39.05,-4.55,0.21,81.60,3.08,-0.32,-9.49
-12,7,396,-123,-288,3852,-0.13,0.18,20.61,-1.23,-2.88,38.52,-4.55,0.23,81.52,3.28,-0.34,-9.92
-13,16,436,-208,-242,3915,-0.19,0.26,21.20,-2.08,-2.42,39.15,-4.54,0.26,81.43,3.31,-0.57,-10.30
2,-4,550,-141,-225,3937,-0.16,0.21,22.44,-1.41,-2.25,39.37,-4.53,0.28,81.34,2.99,-0.16,-11.36
-23,-29,564,-106,-409,3900,-0.28,0.01,23.64,-1.06,-4.09,39.00,-4.54,0.30,81.25,3.54,0.39,-11.57
-9,3,541,-97,-199,3888,-0.31,0.03,24.57,-0.97,-1.99,38.88,-4.53,0.32,81.15,3.26,-0.28,-11.45
-1,-3,555,30,-208,3926,-0.29,0.01,25.50,0.30,-2.08,39.26,-4.51,0.32,81.05,3.08,-0.15,-11.63
-5,1,562,64,-252,3957,-0.29,0.01,26.38,0.64,-2.52,39.57,-4.50,0.31,80.94,3.15,-0.23,-11.76
8,6,550,2,-282,3918,-0.21,0.05,27.10,0.02,-2.82,39.18,-4.49,0.31,80.84,2.86,-0.34,-11.71
-30,-22,513,57,-381,3885,-0.37,-0.09,27.52,0.57,-3.81,38.85,-4.50,0.30,80.73,3.68,0.27,-11.42
-49,-44,484,-35,-317,3973,-0.63,-0.35,27.72,-0.35,-3.17,39.73,-4.51,0.33,80.62,4.15,0.77,-11.19
-83,-71,487,50,-417,3896,-1.08,-0.75,27.92,0.50,-4.17,38.96,-4.53,0.32,80.50,4.97,1.43,-11.22
-87,-81,503,41,-392,3948,-1.50,-1.17,28.19,0.41,-3.92,39.48,-4.55,0.32,80.39,5.18,1.76,-11.37
-69,-54,530,58,-466,3908,-1.77,-1.38,28.61,0.58,-4.66,39.08,-4.57,0.31,80.28,4.90,1.27,-11.63
-70,-51,536,50,-454,3887,-2.02,-1.55,29.02,0.50,-4.54,38.87,-4.60,0.31,80.16,5.01,1.26,-11.70
-45,-25,577,103,-426,3897,-2.09,-1.55,29.63,1.03,-4.26,38.97,-4.62,0.30,80.04,4.53,0.74,-12.09
-19,-2,572,34,-420,3909,-2.00,-1.41,30.16,0.34,-4.20,39.09,-4.64,0.29,79.92,3.99,0.23,-12.09
8,25,532,15,-260,3940,-1.75,-1.11,30.39,0.15,-2.60,39.40,-4.63,0.29,79.80,3.37,-0.39,-11.76
2,22,519,6,-234,3905,-1.56,-0.87,30.52,0.06,-2.34,39.05,-4.62,0.29,79.68,3.43,-0.40,-11.65
48,55,467,-3,-314,3934,-1.11,-0.45,30.31,-0.03,-3.14,39.34,-4.62,0.28,79.56,2.38,-1.18,-11.19
56,62,458,9,-294,3937,-0.66,-0.02,30.08,0.09,-2.94,39.37,-4.61,0.27,79.44,2.08,-1.44,-11.09
47,68,419,-70,-329,3970,-0.31,0.39,29.62,-0.70,-3.29,39.70,-4.61,0.30,79.32,2.17,-1.69,-10.71
43,65,408,7,-417,3930,-0.02,0.75,29.15,0.07,-4.17,39.30,-4.63,0.31,79.20,2.19,-1.73,-10.57
22,37,326,-74,-249,3874,0.12,0.90,28.22,-0.74,-2.49,38.74,-4.61,0.34,79.09,2.57,-1.22,-9.80
25,25,296,-114,-279,3932,0.26,0.96,27.21,-1.14,-2.79,39.32,-4.61,0.36,78.98,2.46,-1.01,-9.45
-15,-11,227,-102,-189,3975,0.14,0.80,25.87,-1.02,-1.89,39.75,-4.59,0.39,78.88,3.29,-0.25,-8.75
-17,-27,207,-104,-141,3925,0.03,0.56,24.55,-1.04,-1.41,39.25,-4.57,0.40,78.78,3.36,0.13,-8.47
-56,-51,236,19,-387,3899,-0.32,0.19,23.53,0.19,-3.87,38.99,-4.59,0.40,78.69,4.25,0.72,-8.63
-62,-53,261,-12,-347,3917,-0.67,-0.15,22.77,-0.12,-3.47,39.17,-4.61,0.40,78.60,4.48,0.86,-8.77
-82,-67,332,-69,-339,3945,-1.10,-0.55,22.52,-0.69,-3.39,39.45,-4.62,0.42,78.51,5.02,1.23,-9.35
-67,-68,353,-92,-358,3957,-1.40,-0.91,22.42,-0.92,-3.58,39.57,-4.63,0.44,78.42,4.80,1.34,-9.51
-23,-16,454,-46,-392,3871,-1.40,-0.91,22.95,-0.46,-3.92,38.71,-4.66,0.45,78.33,3.92,0.28,-10.41
-18,-9,465,-69,-441,3977,-1.37,-0.88,23.49,-0.69,-4.41,39.77,-4.68,0.46,78.23,3.83,0.12,-10.54
-15,6,481,-15,-372,3911,-1.32,-0.75,24.07,-0.15,-3.72,39.11,-4.70,0.46,78.14,3.77,-0.22,-10.72
-4,7,491,-54,-357,3919,-1.22,-0.63,24.66,-0.54,-3.57,39.19,-4.72,0.47,78.04,3.53,-0.28,-10.84
4,21,521,-56,-377,3940,-1.07,-0.44,25.37,-0.56,-3.77,39.40,-4.74,0.49,77.94,3.34,-0.63,-11.15
-11,-1,520,28,-373,3930,-1.03,-0.41,26.01,0.28,-3.73,39.30,-4.75,0.48,77.83,3.64,-0.19,-11.19
-1,8,538,56,-417,3913,-0.93,-0.32,26.69,0.56,-4.17,39.13,-4.77,0.47,77.73,3.42,-0.39,-11.39
-3,3,528,2,-455,3903,-0.86,-0.27,27.24,0.02,-4.55,39.03,-4.79,0.48,77.62,3.46,-0.30,-11.34
0,-4,496,26,-299,3926,-0.77,-0.26,27.54,0.26,-2.99,39.26,-4.78,0.47,77.51,3.37,-0.16,-11.09
-7,4,494,67,-292,3893,-0.74,-0.21,27.80,0.67,-2.92,38.93,-4.78,0.46,77.40,3.50,-0.33,-11.08
-6,10,473,59,-321,3948,-0.70,-0.13,27.91,0.59,-3.21,39.48,-4.78,0.45,77.29,3.47,-0.47,-10.91
-9,6,447,6,-342,3917,-0.69,-0.08,27.84,0.06,-3.42,39.17,-4.79,0.44,77.18,3.53,-0.39,-10.68
-10,-3,417,12,-368,3913,-0.68,-0.09,27.60,0.12,-3.68,39.13,-4.80,0.44,77.07,3.56,-0.20,-10.40
-5,7,419,20,-372,3926,-0.64,-0.04,27.40,0.20,-3.72,39.26,-4.82,0.43,76.96,3.45,-0.42,-10.39
3,11,468,29,-383,3936,-0.56,0.03,27.51,0.29,-3.83,39.36,-4.83,0.43,76.85,3.28,-0.52,-10.81
-18,3,484,8,-398,3928,-0.61,0.05,27.71,0.08,-3.98,39.28,-4.85,0.43,76.74,3.73,-0.36,-10.95
-19,5,554,9,-381,3873,-0.67,0.07,28.32,0.09,-3.81,38.73,-4.86,0.43,76.62,3.78,-0.40,-11.59
-6,12,574,-89,-367,3930,-0.64,0.14,28.99,-0.89,-3.67,39.30,-4.87,0.46,76.51,3.51,-0.58,-11.81
-7,0,599,-147,-331,3882,-0.62,0.12,29.75,-1.47,-3.31,38.82,-4.88,0.48,76.39,3.53,-0.35,-12.07
-2,8,606,-169,-261,3920,-0.57,0.16,30.47,-1.69,-2.61,39.20,-4.87,0.51,76.27,3.41,-0.54,-12.18
-8,15,539,-199,-302,3903,-0.56,0.24,30.71,-1.99,-3.02,39.03,-4.87,0.54,76.15,3.53,-0.73,-11.63
-14,8,492,-157,-323,3916,-0.59,0.26,30.64,-1.57,-3.23,39.16,-4.87,0.57,76.02,3.66,-0.61,-11.21
-9,6,397,-56,-230,3935,-0.58,0.27,30.00,-0.56,-2.30,39.35,-4.85,0.58,75.90,3.54,-0.58,-10.35
0,7,362,-32,-279,3945,-0.53,0.29,29.21,-0.32,-2.79,39.45,-4.83,0.59,75.79,3.33,-0.61,-9.98
-8,4,308,-19,-319,3930,-0.52,0.28,28.16,-0.19,-3.19,39.30,-4.82,0.59,75.68,3.49,-0.55,-9.43
-6,-1,307,24,-354,3935,-0.51,0.25,27.22,0.24,-3.54,39.35,-4.83,0.58,75.57,3.45,-0.43,-9.34
-11,0,328,49,-387,3915,-0.52,0.22,26.50,0.49,-3.87,39.15,-4.84,0.57,75.46,3.56,-0.44,-9.46
-10,4,346,24,-414,3867,-0.53,0.23,25.96,0.24,-4.14,38.67,-4.86,0.57,75.36,3.55,-0.52,-9.56
-16,2,349,23,-346,3878,-0.58,0.22,25.49,0.23,-3.46,38.78,-4.86,0.57,75.26,3.69,-0.47,-9.54
2,9,348,-24,-275,3963,-0.51,0.25,25.07,-0.24,-2.75,39.63,-4.85,0.57,75.16,3.30,-0.63,-9.49
0,9,293,-110,-286,3875,-0.46,0.28,24.35,-1.10,-2.86,38.75,-4.84,0.60,75.06,3.32,-0.65,-8.96
0,4,272,-117,-280,3892,-0.41,0.28,23.57,-1.17,-2.80,38.92,-4.83,0.62,74.97,3.30,-0.57,-8.71
0,13,291,-122,-238,3923,-0.37,0.33,22.99,-1.22,-2.38,39.23,-4.81,0.64,74.87,3.28,-0.78,-8.82
1,16,292,-149,-205,3921,-0.33,0.39,22.47,-1.49,-2.05,39.21,-4.80,0.66,74.78,3.24,-0.87,-8.78
-2,13,366,-77,-138,3954,-0.31,0.43,22.46,-0.77,-1.38,39.54,-4.78,0.67,74.69,3.28,-0.83,-9.40
-16,9,384,-75,-149,3914,-0.37,0.44,22.55,-0.75,-1.49,39.14,-4.77,0.69,74.60,3.57,-0.76,-9.56
-15,-9,422,-37,-231,3948,-0.43,0.34,22.87,-0.37,-2.31,39.48,-4.75,0.69,74.51,3.55,-0.37,-9.90
-12,-2,439,-53,-225,3971,-0.46,0.30,23.26,-0.53,-2.25,39.71,-4.73,0.70,74.42,3.49,-0.50,-10.07
-14,-9,457,63,-314,3916,-0.50,0.21,23.72,0.63,-3.14,39.16,-4.73,0.69,74.33,3.54,-0.33,-10.26
-16,-9,468,52,-219,3914,-0.54,0.14,24.21,0.52,-2.19,39.14,-4.72,0.69,74.23,3.59,-0.31,-10.38
-18,-24,465,145,-332,3914,-0.60,-0.02,24.62,1.45,-3.32,39.14,-4.72,0.68,74.13,3.64,0.05,-10.38
-20,-25,456,158,-401,3893,-0.66,-0.17,24.94,1.58,-4.01,38.93,-4.73,0.67,74.03,3.71,0.11,-10.33
-11,-40,435,100,-457,3943,-0.66,-0.40,25.10,1.00,-4.57,39.43,-4.74,0.66,73.93,3.53,0.49,-10.16
-9,-97,421,119,-408,3987,-0.65,-0.95,25.16,1.19,-4.08,39.87,-4.75,0.65,73.83,3.50,1.80,-10.04
3,-32,385,157,-490,3843,-0.57,-1.05,24.99,1.57,-4.90,38.43,-4.76,0.64,73.73,3.24,0.51,-9.71
-4,-18,381,137,-555,3880,-0.54,-1.06,24.82,1.37,-5.55,38.80,-4.78,0.63,73.63,3.38,0.24,-9.66
-5,18,354,28,-567,3861,-0.51,-0.84,24.49,0.28,-5.67,38.61,-4.80,0.63,73.53,3.41,-0.55,-9.40
0,15,348,18,-531,3918,-0.46,-0.67,24.17,0.18,-5.31,39.18,-4.82,0.63,73.44,3.30,-0.54,-9.31
11,18,328,14,-445,3987,-0.35,-0.49,23.75,0.14,-4.45,39.87,-4.83,0.63,73.34,3.06,-0.65,-9.11
-1,13,326,35,-411,3865,-0.32,-0.36,23.37,0.35,-4.11,38.65,-4.85,0.62,73.25,3.31,-0.58,-9.05
6,11,297,83,-350,3893,-0.25,-0.26,22.84,0.83,-3.50,38.93,-4.85,0.61,73.16,3.15,-0.56,-8.76
-9,3,273,74,-366,3907,-0.28,-0.21,22.22,0.74,-3.66,39.07,-4.85,0.60,73.07,3.46,-0.40,-8.50
2,5,284,5,-353,3935,-0.24,-0.16,21.73,0.05,-3.53,39.35,-4.86,0.59,72.98,3.23,-0.45,-8.55
-4,4,302,33,-361,3915,-0.24,-0.12,21.40,0.33,-3.61,39.15,-4.87,0.58,72.90,3.36,-0.43,-8.67
-4,8,346,-87,-378,3888,-0.24,-0.06,21.37,-0.87,-3.78,38.88,-4.88,0.60,72.81,3.37,-0.54,-9.03
-7,6,354,-139,-423,3936,-0.26,-0.02,21.39,-1.39,-4.23,39.36,-4.89,0.62,72.73,3.44,-0.53,-9.10
-5,9,444,-70,-434,3987,-0.26,0.04,21.96,-0.70,-4.34,39.87,-4.91,0.64,72.64,3.41,-0.61,-9.90
-21,7,459,-18,-407,3866,-0.37,0.08,22.57,-0.18,-4.07,38.66,-4.93,0.64,72.55,3.78,-0.58,-10.07
-25,0,497,-64,-445,3901,-0.48,0.07,23.34,-0.64,-4.45,39.01,-4.95,0.65,72.46,3.90,-0.45,-10.45
-9,9,512,-70,-431,3957,-0.49,0.12,24.13,-0.70,-4.31,39.57,-4.97,0.66,72.36,3.59,-0.65,-10.64
-17,6,540,-117,-388,3890,-0.54,0.14,25.01,-1.17,-3.88,38.90,-4.98,0.69,72.26,3.78,-0.61,-10.94
-11,5,535,-83,-303,3938,-0.56,0.16,25.77,-0.83,-3.03,39.38,-4.96,0.71,72.16,3.65,-0.61,-10.95
-1,14,558,-27,-350,3962,-0.51,0.23,26.60,-0.27,-3.50,39.62,-4.97,0.70,72.05,3.44,-0.81,-11.21
-12,1,569,-73,-349,3888,-0.53,0.21,27.41,-0.73,-3.49,38.88,-4.98,0.73,71.95,3.67,-0.56,-11.36
2,15,606,5,-406,3966,-0.46,0.28,28.37,0.05,-4.06,39.66,-4.99,0.73,71.83,3.38,-0.86,-11.74
-1,15,608,-34,-407,3933,-0.42,0.35,29.24,-0.34,-4.07,39.33,-5.01,0.73,71.72,3.44,-0.88,-11.83
-3,18,572,-9,-243,3963,-0.40,0.42,29.80,-0.09,-2.43,39.63,-4.99,0.74,71.60,3.46,-0.97,-11.56
-10,7,549,7,-193,3929,-0.42,0.42,30.17,0.07,-1.93,39.29,-4.98,0.75,71.48,3.60,-0.75,-11.39
0,8,451,20,-184,3902,-0.38,0.43,29.91,0.20,-1.84,39.02,-4.96,0.75,71.36,3.38,-0.77,-10.53
-15,6,435,28,-174,3849,-0.43,0.42,29.57,0.28,-1.74,38.49,-4.94,0.75,71.24,3.69,-0.73,-10.36
-6,9,328,-114,-271,3912,-0.43,0.43,28.61,-1.14,-2.71,39.12,-4.93,0.78,71.13,3.49,-0.81,-9.37
-2,30,304,-21,-281,3890,-0.40,0.57,27.61,-0.21,-2.81,38.90,-4.91,0.78,71.02,3.39,-1.28,-9.08
-1,103,308,-6,-232,3911,-0.36,1.14,26.72,-0.06,-2.32,39.11,-4.90,0.79,70.91,3.35,-2.93,-9.03
-8,92,319,71,-284,3920,-0.37,1.59,26.00,0.71,-2.84,39.20,-4.89,0.78,70.81,3.49,-2.82,-9.06
-9,58,379,-39,-149,3958,-0.39,1.79,25.71,-0.39,-1.49,39.58,-4.87,0.80,70.70,3.51,-2.19,-9.54
2,35,386,-77,-140,3941,-0.34,1.82,25.49,-0.77,-1.40,39.41,-4.85,0.82,70.60,3.26,-1.75,-9.57
-12,7,445,-51,-218,3944,-0.38,1.68,25.66,-0.51,-2.18,39.44,-4.84,0.83,70.50,3.54,-1.15,-10.08
-8,6,444,-44,-246,3905,-0.39,1.55,25.80,-0.44,-2.46,39.05,-4.82,0.84,70.40,3.45,-1.10,-10.08
-3,0,405,-73,-326,3926,-0.37,1.40,25.69,-0.73,-3.26,39.26,-4.81,0.87,70.30,3.34,-0.96,-9.73
-8,-3,394,-80,-290,3860,-0.38,1.24,25.53,-0.80,-2.90,38.60,-4.80,0.90,70.20,3.43,-0.87,-9.62
2,-6,398,-100,-470,3949,-0.33,1.08,25.40,-1.00,-4.70,39.49,-4.81,0.92,70.09,3.23,-0.78,-9.64
-2,9,365,-188,-493,3960,-0.31,1.02,25.09,-1.88,-4.93,39.60,-4.83,0.94,70.00,3.31,-1.08,-9.33
-11,0,322,-145,-433,3892,-0.35,0.92,24.54,-1.45,-4.33,38.92,-4.84,0.96,69.90,3.51,-0.89,-8.91
-6,-4,324,-160,-430,3924,-0.35,0.81,24.07,-1.60,-4.30,39.24,-4.85,0.99,69.80,3.42,-0.79,-8.89
-10,-6,347,-132,-375,3888,-0.37,0.69,23.78,-1.32,-3.75,38.88,-4.87,1.01,69.71,3.52,-0.73,-9.05
-15,-7,355,-85,-380,3939,-0.43,0.58,23.56,-0.85,-3.80,39.39,-4.88,1.03,69.61,3.64,-0.69,-9.10
-14,-5,357,5,-378,3900,-0.47,0.49,23.38,0.05,-3.78,39.00,-4.89,1.02,69.52,3.64,-0.71,-9.09
3,6,358,-65,-400,3918,-0.41,0.48,23.23,-0.65,-4.00,39.18,-4.91,1.03,69.43,3.29,-0.93,-9.08
-8,1,345,28,-351,3890,-0.41,0.43,23.01,0.28,-3.51,38.90,-4.91,1.02,69.34,3.52,-0.81,-8.95
-6,5,339,-1,-343,3951,-0.41,0.42,22.78,-0.01,-3.43,39.51,-4.91,1.01,69.25,3.48,-0.89,-8.87
-7,6,313,1,-346,3925,-0.41,0.42,22.41,0.01,-3.46,39.25,-4.92,1.00,69.16,3.50,-0.90,-8.62
0,8,304,22,-295,3909,-0.37,0.42,22.02,0.22,-2.95,39.09,-4.91,1.00,69.07,3.34,-0.94,-8.51
-6,8,279,7,-344,3890,-0.37,0.43,21.52,0.07,-3.44,38.90,-4.91,0.99,68.99,3.46,-0.93,-8.25
-3,11,289,30,-308,3904,-0.35,0.45,21.13,0.30,-3.08,39.04,-4.91,0.98,68.90,3.39,-0.99,-8.30
-5,10,317,-38,-414,3909,-0.35,0.47,20.95,-0.38,-4.14,39.09,-4.92,0.98,68.82,3.45,-0.98,-8.51
8,13,324,-125,-374,3888,-0.26,0.50,20.83,-1.25,-3.74,38.88,-4.93,1.01,68.74,3.16,-1.07,-8.56
1,18,412,-85,-465,3910,-0.23,0.56,21.26,-0.85,-4.65,39.10,-4.95,1.02,68.65,3.31,-1.19,-9.33
-4,18,444,-37,-463,3932,-0.23,0.62,21.85,-0.37,-4.63,39.32,-4.97,1.02,68.56,3.42,-1.21,-9.65
-10,14,541,-12,-512,3884,-0.27,0.64,22.96,-0.12,-5.12,38.84,-4.98,1.03,68.47,3.57,-1.14,-10.55
-9,15,560,-48,-449,3940,-0.30,0.67,24.08,-0.48,-4.49,39.40,-5.00,1.04,68.38,3.57,-1.17,-10.80
-2,14,620,-45,-422,3945,-0.28,0.69,25.46,-0.45,-4.22,39.45,-5.02,1.04,68.28,3.43,-1.16,-11.41
-8,7,641,56,-440,3920,-0.30,0.66,26.82,0.56,-4.40,39.20,-5.03,1.04,68.17,3.56,-1.01,-11.70
-16,3,593,23,-216,3938,-0.37,0.61,27.76,0.23,-2.16,39.38,-5.01,1.04,68.06,3.73,-0.91,-11.36
-15,-6,594,62,-297,3965,-0.42,0.51,28.60,0.62,-2.97,39.65,-5.01,1.03,67.95,3.72,-0.70,-11.43
-7,2,574,-6,-259,3950,-0.42,0.47,29.24,-0.06,-2.59,39.50,-4.99,1.04,67.83,3.55,-0.85,-11.30
-13,0,560,-54,-317,3861,-0.46,0.43,29.74,-0.54,-3.17,38.61,-4.98,1.04,67.71,3.67,-0.80,-11.22
-8,0,530,-116,-346,3891,-0.46,0.38,30.00,-1.16,-3.46,38.91,-4.98,1.07,67.59,3.58,-0.81,-10.98
-12,5,531,-171,-341,3868,-0.49,0.38,30.23,-1.71,-3.41,38.68,-4.98,1.10,67.47,3.66,-0.93,-11.00
-12,7,513,-129,-417,3937,-0.51,0.38,30.34,-1.29,-4.17,39.37,-4.99,1.12,67.35,3.68,-0.99,-10.85
-7,8,504,-189,-440,3895,-0.51,0.39,30.38,-1.89,-4.40,38.95,-5.01,1.15,67.23,3.58,-1.03,-10.77
-3,12,494,-189,-412,3933,-0.47,0.43,30.36,-1.89,-4.12,39.33,-5.02,1.17,67.11,3.50,-1.13,-10.67
-14,18,518,-194,-402,3896,-0.51,0.49,30.48,-1.94,-4.02,38.96,-5.02,1.20,66.99,3.74,-1.29,-10.88
-22,4,527,-31,-212,3897,-0.59,0.47,30.65,-0.31,-2.12,38.97,-5.01,1.21,66.87,3.91,-1.01,-10.96
3,15,512,-43,-237,4007,-0.52,0.51,30.71,-0.43,-2.37,40.07,-4.99,1.21,66.74,3.37,-1.25,-10.83
-15,3,456,18,-231,3957,-0.56,0.48,30.42,0.18,-2.31,39.57,-4.97,1.21,66.62,3.74,-0.99,-10.33
-3,17,438,58,-220,3888,-0.52,0.54,30.05,0.58,-2.20,38.88,-4.96,1.21,66.50,3.48,-1.29,-10.14
-3,4,414,131,-240,3873,-0.49,0.51,29.57,1.31,-2.40,38.73,-4.95,1.21,66.38,3.46,-1.02,-9.89
1,13,440,80,-273,3917,-0.43,0.54,29.29,0.80,-2.73,39.17,-4.95,1.20,66.27,3.36,-1.21,-10.08
0,10,477,118,-276,3878,-0.39,0.54,29.27,1.18,-2.76,38.78,-4.94,1.20,66.15,3.37,-1.14,-10.38
-6,18,492,69,-353,3926,-0.39,0.60,29.35,0.69,-3.53,39.26,-4.94,1.19,66.03,3.49,-1.32,-10.51
-5,5,507,10,-393,3909,-0.38,0.57,29.51,0.10,-3.93,39.09,-4.95,1.19,65.92,3.47,-1.04,-10.64
-9,7,523,-18,-370,3930,-0.39,0.55,29.75,-0.18,-3.70,39.30,-4.96,1.19,65.80,3.56,-1.08,-10.79
-12,5,519,4,-445,3896,-0.43,0.53,29.94,0.04,-4.45,38.96,-4.97,1.19,65.68,3.64,-1.03,-10.77
-6,7,521,15,-396,3921,-0.42,0.52,30.12,0.15,-3.96,39.21,-4.98,1.18,65.56,3.52,-1.07,-10.79
-2,11,516,-8,-447,3912,-0.39,0.53,30.26,-0.08,-4.47,39.12,-4.99,1.19,65.44,3.44,-1.15,-10.75
-14,0,512,-34,-401,3922,-0.44,0.48,30.35,-0.34,-4.01,39.22,-5.01,1.19,65.32,3.71,-0.91,-10.72
-2,0,485,-102,-459,3905,-0.41,0.43,30.28,-1.02,-4.59,39.05,-5.02,1.20,65.20,3.47,-0.91,-10.48
0,11,480,-94,-464,3891,-0.37,0.46,30.18,-0.94,-4.64,38.91,-5.04,1.22,65.08,3.43,-1.15,-10.42
2,24,470,-10,-373,3976,-0.32,0.56,30.03,-0.10,-3.73,39.76,-5.04,1.21,64.96,3.37,-1.44,-10.32
-17,7,472,36,-359,3891,-0.39,0.54,29.90,0.36,-3.59,38.91,-5.05,1.21,64.84,3.78,-1.09,-10.31
-1,6,479,-38,-287,3894,-0.36,0.53,29.84,-0.38,-2.87,38.94,-5.03,1.21,64.72,3.44,-1.06,-10.36
-7,10,461,-51,-265,3928,-0.36,0.54,29.66,-0.51,-2.65,39.28,-5.01,1.21,64.60,3.55,-1.15,-10.19
-3,11,407,33,-227,3881,-0.35,0.55,29.18,0.33,-2.27,38.81,-5.00,1.21,64.49,3.45,-1.17,-9.68
-5,8,408,-37,-274,3898,-0.34,0.54,28.75,-0.37,-2.74,38.98,-4.98,1.21,64.37,3.48,-1.11,-9.65
-15,5,398,-122,-340,3905,-0.40,0.52,28.30,-1.22,-3.40,39.05,-4.98,1.24,64.26,3.70,-1.06,-9.52
-1,9,392,-89,-248,3928,-0.36,0.52,27.86,-0.89,-2.48,39.28,-4.96,1.26,64.15,3.39,-1.15,-9.43
-5,7,397,-76,-352,3907,-0.36,0.51,27.50,-0.76,-3.52,39.07,-4.97,1.26,64.04,3.48,-1.11,-9.44
1,10,399,-18,-363,3923,-0.32,0.52,27.18,-0.18,-3.63,39.23,-4.98,1.25,63.93,3.35,-1.17,-9.42
-11,10,409,-50,-416,3892,-0.35,0.53,26.96,-0.50,-4.16,38.92,-5.00,1.25,63.82,3.62,-1.18,-9.48
-1,11,418,-47,-434,3956,-0.32,0.54,26.81,-0.47,-4.34,39.56,-5.01,1.26,63.72,3.42,-1.20,-9.54
6,21,429,-11,-370,3943,-0.25,0.62,26.75,-0.11,-3.70,39.43,-5.01,1.25,63.61,3.26,-1.42,-9.62
-3,11,438,-38,-359,3948,-0.25,0.62,26.75,-0.38,-3.59,39.48,-5.02,1.25,63.51,3.44,-1.22,-9.69
-8,8,460,-142,-378,3899,-0.27,0.61,26.88,-1.42,-3.78,38.99,-5.03,1.27,63.40,3.55,-1.17,-9.88
9,17,457,-236,-369,3953,-0.19,0.65,26.98,-2.36,-3.69,39.53,-5.03,1.30,63.29,3.19,-1.38,-9.86
3,15,399,-204,-358,3932,-0.15,0.68,26.71,-2.04,-3.58,39.32,-5.03,1.34,63.19,3.30,-1.37,-9.34
-3,9,362,-175,-241,3971,-0.16,0.67,26.25,-1.75,-2.41,39.71,-5.01,1.36,63.08,3.41,-1.26,-8.98
-8,7,297,-148,-225,3926,-0.19,0.64,25.44,-1.48,-2.25,39.26,-4.99,1.38,62.98,3.51,-1.23,-8.36
-2,11,273,-180,-256,3929,-0.18,0.65,24.56,-1.80,-2.56,39.29,-4.98,1.40,62.88,3.38,-1.32,-8.08
1,15,200,-94,-294,3949,-0.16,0.67,23.32,-0.94,-2.94,39.49,-4.96,1.41,62.79,3.30,-1.42,-7.35
-2,5,209,-9,-337,3941,-0.15,0.64,22.27,-0.09,-3.37,39.41,-4.96,1.40,62.70,3.35,-1.20,-7.34
-13,4,261,-26,-322,3848,-0.22,0.60,21.63,-0.26,-3.22,38.48,-4.95,1.39,62.61,3.59,-1.16,-7.72
-6,-2,273,-68,-359,3941,-0.23,0.52,21.13,-0.68,-3.59,39.41,-4.96,1.39,62.53,3.46,-1.02,-7.78
-8,-3,254,-64,-411,3881,-0.26,0.45,20.57,-0.64,-4.11,38.81,-4.98,1.39,62.45,3.52,-0.98,-7.57
-6,2,250,-79,-397,3906,-0.27,0.42,20.04,-0.79,-3.97,39.06,-4.99,1.39,62.37,3.49,-1.08,-7.49
-8,-2,288,-3,-370,3916,-0.29,0.37,19.79,-0.03,-3.70,39.16,-5.00,1.38,62.29,3.54,-0.97,-7.78
3,10,308,-41,-383,3978,-0.24,0.39,19.69,-0.41,-3.83,39.78,-5.01,1.38,62.21,3.31,-1.22,-7.94
-1,8,337,-5,-428,3917,-0.23,0.40,19.78,-0.05,-4.28,39.17,-5.02,1.37,62.13,3.39,-1.18,-8.19
-5,10,344,30,-403,3923,-0.23,0.42,19.90,0.30,-4.03,39.23,-5.02,1.36,62.05,3.48,-1.22,-8.25
-6,5,387,41,-420,3898,-0.25,0.41,20.27,0.41,-4.20,38.98,-5.03,1.36,61.97,3.51,-1.11,-8.64
-3,10,408,80,-414,3906,-0.24,0.43,20.73,0.80,-4.14,39.06,-5.04,1.35,61.89,3.45,-1.21,-8.85
-2,9,502,30,-444,3905,-0.23,0.44,21.72,0.30,-4.44,39.05,-5.05,1.34,61.81,3.44,-1.19,-9.72
-2,14,548,-17,-478,3905,-0.22,0.48,22.89,-0.17,-4.78,39.05,-5.06,1.35,61.72,3.44,-1.30,-10.20
-17,0,638,-35,-437,3938,-0.30,0.43,24.49,-0.35,-4.37,39.38,-5.08,1.35,61.62,3.78,-1.01,-11.09
-8,10,664,37,-451,3951,-0.32,0.45,26.09,0.37,-4.51,39.51,-5.09,1.34,61.51,3.61,-1.21,-11.43
-13,19,742,41,-387,3827,-0.37,0.52,28.01,0.41,-3.87,38.27,-5.09,1.34,61.40,3.73,-1.41,-12.24
-8,12,744,-40,-332,3983,-0.38,0.54,29.75,-0.40,-3.32,39.83,-5.08,1.33,61.28,3.62,-1.27,-12.39
-10,0,723,-38,-252,3926,-0.40,0.49,31.18,-0.38,-2.52,39.26,-5.07,1.34,61.16,3.66,-1.02,-12.32
3,11,719,-89,-260,3906,-0.34,0.51,32.45,-0.89,-2.60,39.06,-5.05,1.35,61.03,3.36,-1.25,-12.39
-5,6,732,-53,-242,3895,-0.34,0.49,33.67,-0.53,-2.42,38.95,-5.03,1.36,60.90,3.51,-1.15,-12.59
-7,13,747,-16,-382,3894,-0.35,0.52,34.86,-0.16,-3.82,38.94,-5.03,1.36,60.76,3.56,-1.30,-12.80
-15,16,787,-140,-391,3901,-0.40,0.57,36.18,-1.40,-3.91,39.01,-5.05,1.38,60.61,3.75,-1.39,-13.24
-12,12,801,-171,-393,3879,-0.44,0.58,37.44,-1.71,-3.93,38.79,-5.05,1.41,60.47,3.70,-1.34,-13.45
4,32,781,-290,-335,3832,-0.37,0.72,38.46,-2.90,-3.35,38.32,-5.05,1.45,60.31,3.35,-1.80,-13.36
-9,16,790,-242,-310,3916,-0.39,0.75,39.44,-2.42,-3.10,39.16,-5.04,1.48,60.16,3.62,-1.51,-13.50
-20,23,771,-226,-243,3881,-0.47,0.81,40.20,-2.26,-2.43,38.81,-5.03,1.52,60.00,3.86,-1.69,-13.39
3,22,758,-226,-163,3962,-0.41,0.87,40.80,-2.26,-1.63,39.62,-5.01,1.54,59.83,3.36,-1.70,-13.32
-9,15,639,-30,-14,4005,-0.42,0.87,40.62,-0.30,-0.14,40.05,-4.99,1.56,59.67,3.59,-1.57,-12.29
-2,19,589,0,-6,3967,-0.39,0.90,40.15,0.00,-0.06,39.67,-4.97,1.57,59.51,3.43,-1.67,-11.82
-2,10,482,3,-49,3907,-0.36,0.87,39.07,0.03,-0.49,39.07,-4.95,1.58,59.35,3.41,-1.48,-10.81
-2,14,461,-4,-56,3952,-0.34,0.87,37.98,-0.04,-0.56,39.52,-4.93,1.59,59.20,3.39,-1.57,-10.54
-4,1,511,80,-193,3921,-0.33,0.79,37.30,0.80,-1.93,39.21,-4.92,1.59,59.05,3.42,-1.29,-10.90
-7,7,519,7,-294,3900,-0.34,0.75,36.73,0.07,-2.94,39.00,-4.91,1.59,58.91,3.47,-1.40,-10.91
-17,12,549,-124,-520,3826,-0.41,0.75,36.41,-1.24,-5.20,38.26,-4.92,1.61,58.76,3.71,-1.51,-11.13
-9,4,543,-106,-597,3922,-0.42,0.70,36.08,-1.06,-5.97,39.22,-4.94,1.62,58.62,3.56,-1.34,-11.04
6,9,505,-86,-621,3877,-0.34,0.68,35.55,-0.86,-6.21,38.77,-4.96,1.63,58.48,3.24,-1.45,-10.67
-2,5,496,-74,-644,3922,-0.32,0.65,35.02,-0.74,-6.44,39.22,-4.97,1.65,58.34,3.41,-1.36,-10.54
-13,13,445,-30,-584,3849,-0.37,0.66,34.24,-0.30,-5.84,38.49,-4.99,1.66,58.20,3.66,-1.54,-10.04
-15,7,470,-7,-506,3908,-0.42,0.64,33.68,-0.07,-5.06,39.08,-5.00,1.66,58.07,3.72,-1.41,-10.20
2,17,545,2,-388,3948,-0.37,0.68,33.64,0.02,-3.88,39.48,-5.00,1.66,57.94,3.36,-1.62,-10.82
-21,6,560,33,-418,3881,-0.46,0.65,33.69,0.33,-4.18,38.81,-5.01,1.66,57.80,3.86,-1.39,-10.95
0,5,541,-17,-404,3928,-0.41,0.61,33.62,-0.17,-4.04,39.28,-5.02,1.65,57.67,3.42,-1.36,-10.77
-19,-6,503,-25,-340,3956,-0.49,0.51,33.33,-0.25,-3.40,39.56,-5.01,1.65,57.54,3.83,-1.11,-10.42
3,1,368,-114,-294,3960,-0.42,0.47,32.24,-1.14,-2.94,39.60,-4.99,1.66,57.41,3.35,-1.25,-9.18
-3,-7,320,-95,-321,3931,-0.40,0.38,30.97,-0.95,-3.21,39.31,-4.98,1.66,57.28,3.46,-1.06,-8.66
-11,-2,232,-129,-435,3899,-0.42,0.33,29.28,-1.29,-4.35,38.99,-4.99,1.68,57.17,3.64,-1.16,-7.77
-12,-3,212,-78,-425,3940,-0.46,0.28,27.65,-0.78,-4.25,39.40,-5.01,1.68,57.06,3.67,-1.12,-7.46
-6,-3,136,-48,-371,3900,-0.45,0.23,25.71,-0.48,-3.71,39.00,-5.02,1.67,56.96,3.55,-1.11,-6.66
-5,-6,134,-45,-339,3906,-0.43,0.17,23.96,-0.45,-3.39,39.06,-5.01,1.66,56.86,3.53,-1.02,-6.49
1,-7,106,-117,-308,3914,-0.38,0.11,22.21,-1.17,-3.08,39.14,-4.99,1.67,56.77,3.38,-0.99,-6.11
1,-5,90,-141,-301,3926,-0.34,0.07,20.54,-1.41,-3.01,39.26,-4.98,1.69,56.69,3.36,-1.03,-5.83
1,-2,66,-86,-366,3923,-0.30,0.05,18.89,-0.86,-3.66,39.23,-4.99,1.68,56.61,3.35,-1.08,-5.49
-5,-1,83,-48,-384,3983,-0.30,0.04,17.50,-0.48,-3.84,39.83,-5.00,1.67,56.55,3.48,-1.09,-5.52
-11,-3,104,25,-419,3876,-0.34,0.02,16.39,0.25,-4.19,38.76,-5.00,1.66,56.48,3.62,-1.04,-5.60
-6,0,116,6,-434,3898,-0.34,0.02,15.46,0.06,-4.34,38.98,-5.02,1.65,56.42,3.52,-1.10,-5.62
-4,-8,214,62,-435,3897,-0.33,-0.03,15.22,0.62,-4.35,38.97,-5.02,1.64,56.36,3.49,-0.91,-6.43
-15,-8,243,67,-477,3914,-0.39,-0.08,15.18,0.67,-4.77,39.14,-5.03,1.63,56.30,3.73,-0.89,-6.67
-12,-12,293,3,-433,3876,-0.42,-0.14,15.45,0.03,-4.33,38.76,-5.05,1.62,56.24,3.69,-0.79,-7.11
-3,5,299,-8,-373,3864,-0.40,-0.10,15.73,-0.08,-3.73,38.64,-5.05,1.61,56.17,3.50,-1.14,-7.18
-5,-15,292,-106,-400,3920,-0.39,-0.18,15.94,-1.06,-4.00,39.20,-5.07,1.61,56.11,3.55,-0.71,-7.13
-8,-7,300,-113,-345,3924,-0.40,-0.21,16.17,-1.13,-3.45,39.24,-5.05,1.63,56.05,3.61,-0.88,-7.22
-7,-17,310,33,-402,3858,-0.40,-0.29,16.45,0.33,-4.02,38.58,-5.06,1.62,55.98,3.59,-0.64,-7.32
-10,-16,335,-1,-438,3963,-0.42,-0.36,16.84,-0.01,-4.38,39.63,-5.07,1.61,55.91,3.67,-0.64,-7.56
-5,-76,344,-101,-366,3571,-0.41,-0.79,17.26,-1.01,-3.66,35.71,-5.09,1.61,55.85,3.57,0.70,-7.67
-17,-32,359,-40,-278,3922,-0.47,-0.90,17.72,-0.40,-2.78,39.22,-5.08,1.60,55.77,3.82,-0.16,-7.83
-13,-14,258,-197,-173,3961,-0.51,-0.90,17.52,-1.97,-1.73,39.61,-5.06,1.61,55.70,3.74,-0.53,-6.95
2,-5,218,-258,-209,3932,-0.44,-0.84,17.10,-2.58,-2.09,39.32,-5.05,1.63,55.63,3.41,-0.74,-6.57
-9,-3,87,-218,-260,3916,-0.45,-0.77,15.92,-2.18,-2.60,39.16,-5.04,1.64,55.57,3.63,-0.81,-5.36
0,-3,52,-171,-270,3912,-0.41,-0.71,14.65,-1.71,-2.70,39.12,-5.02,1.66,55.51,3.43,-0.84,-4.96
-2,-1,12,-45,-363,3890,-0.38,-0.65,13.26,-0.45,-3.63,38.90,-5.03,1.64,55.46,3.46,-0.89,-4.50
1,-1,6,-50,-378,3922,-0.34,-0.59,11.97,-0.50,-3.78,39.22,-5.03,1.63,55.41,3.39,-0.89,-4.35
0,0,3,-64,-386,3926,-0.30,-0.53,10.79,-0.64,-3.86,39.26,-5.05,1.61,55.37,3.41,-0.92,-4.22
-1,0,-1,-66,-380,3928,-0.28,-0.48,9.70,-0.66,-3.80,39.28,-5.06,1.60,55.33,3.43,-0.93,-4.10
0,0,1,-58,-359,3922,-0.25,-0.43,8.74,-0.58,-3.59,39.22,-5.06,1.59,55.29,3.41,-0.93,-4.03
0,1,1,-49,-379,3920,-0.23,-0.38,7.87,-0.49,-3.79,39.20,-5.07,1.57,55.26,3.41,-0.95,-3.96
0,1,2,-46,-372,3922,-0.20,-0.34,7.10,-0.46,-3.72,39.22,-5.08,1.55,55.24,3.41,-0.95,-3.91
1,-1,1,-64,-373,3907,-0.18,-0.31,6.39,-0.64,-3.73,39.07,-5.09,1.54,55.21,3.38,-0.91,-3.84
0,0,1,-58,-372,3922,-0.16,-0.28,5.76,-0.58,-3.72,39.22,-5.09,1.52,55.19,3.41,-0.93,-3.79
1,1,0,-48,-384,3933,-0.14,-0.24,5.18,-0.48,-3.84,39.33,-5.10,1.51,55.17,3.39,-0.95,-3.73
0,0,1,-43,-375,3913,-0.12,-0.22,4.67,-0.43,-3.75,39.13,-5.11,1.49,55.15,3.41,-0.93,-3.70
1,-2,1,-49,-377,3919,-0.10,-0.21,4.21,-0.49,-3.77,39.19,-5.12,1.48,55.13,3.39,-0.88,-3.66
0,0,2,-41,-375,3909,-0.09,-0.19,3.80,-0.41,-3.75,39.09,-5.13,1.46,55.12,3.41,-0.91,-3.63
0,0,2,-50,-369,3920,-0.08,-0.17,3.43,-0.50,-3.69,39.20,-5.13,1.44,55.10,3.41,-0.91,-3.60
1,0,1,-43,-367,3919,-0.07,-0.15,3.10,-0.43,-3.67,39.19,-5.14,1.43,55.09,3.39,-0.90,-3.57
0,0,1,-43,-373,3912,-0.06,-0.14,2.79,-0.43,-3.73,39.12,-5.14,1.41,55.08,3.41,-0.89,-3.54
0,-1,0,-52,-366,3922,-0.06,-0.13,2.51,-0.52,-3.66,39.22,-5.15,1.39,55.07,3.41,-0.86,-3.51
0,0,1,-51,-368,3915,-0.05,-0.12,2.27,-0.51,-3.68,39.15,-5.15,1.38,55.06,3.42,-0.88,-3.50
0,1,0,-41,-362,3905,-0.05,-0.10,2.04,-0.41,-3.62,39.05,-5.16,1.36,55.05,3.42,-0.89,-3.47
0,0,0,-44,-360,3912,-0.04,-0.09,1.84,-0.44,-3.60,39.12,-5.16,1.34,55.04,3.42,-0.86,-3.45
0,0,1,-38,-370,3921,-0.04,-0.08,1.66,-0.38,-3.70,39.21,-5.16,1.32,55.04,3.42,-0.85,-3.45
0,0,1,-44,-374,3910,-0.03,-0.07,1.50,-0.44,-3.74,39.10,-5.17,1.31,55.03,3.42,-0.84,-3.43
0,-1,2,-47,-371,3910,-0.03,-0.07,1.36,-0.47,-3.71,39.10,-5.18,1.29,55.03,3.43,-0.81,-3.43
0,0,2,-45,-374,3913,-0.03,-0.06,1.24,-0.45,-3.74,39.13,-5.19,1.27,55.02,3.43,-0.82,-3.42
0,-1,2,-40,-369,3915,-0.02,-0.06,1.13,-0.40,-3.69,39.15,-5.19,1.26,55.02,3.43,-0.79,-3.41
0,-1,2,-42,-367,3919,-0.02,-0.06,1.03,-0.42,-3.67,39.19,-5.20,1.24,55.01,3.44,-0.78,-3.40
0,-1,2,-47,-367,3903,-0.02,-0.06,0.94,-0.47,-3.67,39.03,-5.20,1.22,55.01,3.44,-0.77,-3.39
1,0,2,-45,-364,3918,-0.01,-0.06,0.85,-0.45,-3.64,39.18,-5.20,1.20,55.01,3.42,-0.78,-3.39
1,-1,2,-51,-364,3914,-0.00,-0.06,0.78,-0.51,-3.64,39.14,-5.21,1.18,55.00,3.42,-0.75,-3.38
0,0,2,-53,-364,3901,-0.00,-0.05,0.72,-0.53,-3.64,39.01,-5.21,1.17,55.00,3.44,-0.76,-3.38
0,0,2,-42,-378,3914,-0.00,-0.05,0.66,-0.42,-3.78,39.14,-5.22,1.15,55.00,3.45,-0.75,-3.37
1,0,2,-48,-371,3914,0.00,-0.04,0.60,-0.48,-3.71,39.14,-5.23,1.13,55.00,3.43,-0.74,-3.37
0,-1,2,-57,-366,3896,0.00,-0.04,0.55,-0.57,-3.66,38.96,-5.24,1.12,54.99,3.46,-0.71,-3.36
0,-1,2,-54,-371,3906,0.00,-0.05,0.51,-0.54,-3.71,39.06,-5.25,1.10,54.99,3.46,-0.69,-3.36
0,0,2,-57,-369,3912,0.00,-0.04,0.47,-0.57,-3.69,39.12,-5.26,1.09,54.99,3.47,-0.71,-3.35
1,0,2,-52,-369,3921,0.01,-0.04,0.44,-0.52,-3.69,39.21,-5.26,1.07,54.99,3.45,-0.70,-3.35
0,0,2,-53,-377,3921,0.01,-0.03,0.41,-0.53,-3.77,39.21,-5.27,1.05,54.99,3.48,-0.69,-3.35
0,0,2,-59,-371,3926,0.01,-0.03,0.38,-0.59,-3.71,39.26,-5.28,1.04,54.99,3.48,-0.68,-3.35
0,0,2,-46,-370,3914,0.01,-0.03,0.35,-0.46,-3.70,39.14,-5.29,1.02,54.99,3.49,-0.67,-3.34
0,-1,2,-45,-369,3904,0.01,-0.03,0.33,-0.45,-3.69,39.04,-5.29,1.00,54.98,3.49,-0.63,-3.34
1,0,1,-49,-368,3919,0.01,-0.03,0.30,-0.49,-3.68,39.19,-5.30,0.99,54.98,3.47,-0.64,-3.33
1,0,2,-53,-377,3915,0.02,-0.02,0.28,-0.53,-3.77,39.15,-5.31,0.97,54.98,3.48,-0.64,-3.34
1,-1,1,-55,-367,3920,0.02,-0.03,0.26,-0.55,-3.67,39.20,-5.31,0.95,54.98,3.48,-0.60,-3.33
1,0,1,-55,-361,3906,0.02,-0.03,0.24,-0.55,-3.61,39.06,-5.31,0.94,54.98,3.48,-0.61,-3.33
1,0,1,-40,-366,3912,0.03,-0.02,0.22,-0.40,-3.66,39.12,-5.31,0.92,54.98,3.48,-0.60,-3.33
1,-1,2,-39,-368,3926,0.03,-0.03,0.21,-0.39,-3.68,39.26,-5.31,0.90,54.98,3.48,-0.57,-3.33
1,1,1,-41,-356,3922,0.03,-0.02,0.20,-0.41,-3.56,39.22,-5.31,0.88,54.98,3.47,-0.60,-3.32
1,1,2,-39,-368,3908,0.04,-0.01,0.19,-0.39,-3.68,39.08,-5.31,0.87,54.98,3.47,-0.59,-3.33
1,0,1,-42,-364,3916,0.04,-0.01,0.18,-0.42,-3.64,39.16,-5.31,0.85,54.98,3.47,-0.56,-3.32
1,0,1,-46,-361,3918,0.04,-0.01,0.17,-0.46,-3.61,39.18,-5.31,0.83,54.98,3.47,-0.55,-3.32
1,0,2,-43,-374,3911,0.04,-0.01,0.16,-0.43,-3.74,39.11,-5.32,0.82,54.97,3.48,-0.54,-3.33
0,-1,3,-39,-377,3916,0.04,-0.01,0.16,-0.39,-3.77,39.16,-5.33,0.80,54.97,3.51,-0.50,-3.34
0,0,2,-47,-368,3919,0.04,-0.01,0.16,-0.47,-3.68,39.19,-5.33,0.78,54.97,3.51,-0.51,-3.33
1,-1,3,-52,-372,3913,0.04,-0.02,0.16,-0.52,-3.72,39.13,-5.35,0.78,54.97,3.50,-0.49,-3.34
0,-1,3,-61,-371,3924,0.03,-0.02,0.16,-0.61,-3.71,39.24,-5.36,0.79,54.97,3.53,-0.50,-3.34
0,-1,2,-63,-374,3923,0.03,-0.02,0.16,-0.63,-3.74,39.23,-5.37,0.81,54.97,3.53,-0.51,-3.33
0,0,2,-63,-375,3916,0.03,-0.02,0.16,-0.63,-3.75,39.16,-5.38,0.82,54.97,3.54,-0.54,-3.33
0,-1,2,-64,-374,3900,0.02,-0.03,0.15,-0.64,-3.74,39.00,-5.39,0.84,54.97,3.55,-0.52,-3.33
0,-1,2,-57,-371,3920,0.02,-0.03,0.15,-0.57,-3.71,39.20,-5.41,0.83,54.97,3.56,-0.52,-3.33
0,0,2,-53,-372,3925,0.02,-0.03,0.15,-0.53,-3.72,39.25,-5.41,0.81,54.97,3.57,-0.53,-3.33
1,-1,1,-52,-380,3911,0.02,-0.03,0.14,-0.52,-3.80,39.11,-5.43,0.80,54.97,3.56,-0.50,-3.32
0,-2,1,-55,-374,3916,0.02,-0.04,0.13,-0.55,-3.74,39.16,-5.45,0.80,54.97,3.59,-0.48,-3.32
1,0,1,-44,-373,3917,0.03,-0.04,0.12,-0.44,-3.73,39.17,-5.44,0.78,54.97,3.57,-0.51,-3.32
0,-1,1,-47,-364,3906,0.02,-0.04,0.12,-0.47,-3.64,39.06,-5.43,0.77,54.97,3.58,-0.48,-3.32
0,0,1,-45,-368,3928,0.02,-0.03,0.11,-0.45,-3.68,39.28,-5.42,0.76,54.97,3.57,-0.49,-3.32
-1,0,2,-39,-365,3918,0.01,-0.03,0.11,-0.39,-3.65,39.18,-5.41,0.74,54.97,3.59,-0.48,-3.32
0,-2,2,-46,-372,3916,0.01,-0.04,0.11,-0.46,-3.72,39.16,-5.42,0.72,54.97,3.57,-0.43,-3.32
0,-1,2,-55,-372,3915,0.01,-0.04,0.11,-0.55,-3.72,39.15,-5.42,0.74,54.97,3.57,-0.46,-3.32
0,0,1,-47,-372,3908,0.01,-0.04,0.11,-0.47,-3.72,39.08,-5.42,0.72,54.97,3.58,-0.47,-3.32
0,-1,2,-48,-373,3915,0.01,-0.04,0.11,-0.48,-3.73,39.15,-5.44,0.71,54.97,3.59,-0.44,-3.32
0,-1,1,-44,-359,3915,0.01,-0.04,0.11,-0.44,-3.59,39.15,-5.42,0.70,54.97,3.57,-0.43,-3.31
0,0,1,-44,-366,3918,0.01,-0.04,0.10,-0.44,-3.66,39.18,-5.40,0.69,54.96,3.56,-0.45,-3.31
0,-1,2,-38,-372,3915,0.01,-0.04,0.10,-0.38,-3.72,39.15,-5.41,0.67,54.96,3.57,-0.41,-3.32
0,-1,2,-44,-376,3919,0.01,-0.04,0.11,-0.44,-3.76,39.19,-5.42,0.67,54.96,3.58,-0.41,-3.32
0,0,1,-44,-376,3917,0.00,-0.04,0.10,-0.44,-3.76,39.17,-5.44,0.66,54.96,3.59,-0.42,-3.31
-1,-1,2,-50,-371,3900,-0.00,-0.04,0.10,-0.50,-3.71,39.00,-5.44,0.68,54.96,3.61,-0.42,-3.32
0,-1,1,-53,-369,3914,-0.00,-0.04,0.10,-0.53,-3.69,39.14,-5.43,0.69,54.96,3.58,-0.42,-3.31
0,0,1,-52,-370,3914,-0.00,-0.04,0.09,-0.52,-3.70,39.14,-5.42,0.71,54.96,3.58,-0.46,-3.31
0,-1,1,-48,-369,3907,-0.00,-0.04,0.09,-0.48,-3.69,39.07,-5.40,0.70,54.96,3.57,-0.43,-3.31
0,0,2,-55,-371,3920,-0.00,-0.04,0.09,-0.55,-3.71,39.20,-5.41,0.72,54.96,3.57,-0.47,-3.32
0,0,1,-42,-371,3938,-0.00,-0.03,0.09,-0.42,-3.71,39.38,-5.40,0.70,54.96,3.57,-0.46,-3.31
0,0,1,-44,-367,3914,-0.00,-0.03,0.09,-0.44,-3.67,39.14,-5.39,0.69,54.96,3.56,-0.45,-3.31
0,-1,2,-49,-367,3905,-0.00,-0.03,0.09,-0.49,-3.67,39.05,-5.38,0.70,54.96,3.55,-0.43,-3.32
0,-1,2,-50,-374,3908,-0.00,-0.04,0.09,-0.50,-3.74,39.08,-5.40,0.71,54.96,3.56,-0.44,-3.32
0,-1,2,-49,-373,3915,-0.00,-0.04,0.10,-0.49,-3.73,39.15,-5.41,0.71,54.96,3.57,-0.44,-3.32
1,-1,1,-49,-373,3909,0.01,-0.04,0.09,-0.49,-3.73,39.09,-5.43,0.71,54.96,3.56,-0.44,-3.31
-1,1,1,-45,-367,3906,-0.00,-0.03,0.09,-0.45,-3.67,39.06,-5.42,0.70,54.96,3.60,-0.47,-3.31
-2,0,0,-45,-367,3919,-0.01,-0.03,0.08,-0.45,-3.67,39.19,-5.40,0.69,54.96,3.61,-0.45,-3.30
0,1,3,-76,-373,3938,-0.01,-0.02,0.09,-0.76,-3.73,39.38,-5.40,0.71,54.96,3.57,-0.48,-3.33
-1,3,4,-5,-355,3916,-0.02,0.00,0.11,-0.05,-3.55,39.16,-5.40,0.69,54.96,3.59,-0.52,-3.34
-2,2,3,-6,-346,3915,-0.03,0.01,0.11,-0.06,-3.46,39.15,-5.39,0.68,54.96,3.60,-0.49,-3.33
0,-2,6,-65,-370,3927,-0.02,0.00,0.14,-0.65,-3.70,39.27,-5.39,0.69,54.96,3.56,-0.42,-3.36
10,3,-30,42,-310,3868,0.04,0.02,-0.06,0.42,-3.10,38.68,-5.38,0.68,54.96,3.34,-0.51,-3.04
-8,-2,-42,66,-240,3899,-0.01,0.00,-0.31,0.66,-2.40,38.99,-5.37,0.67,54.96,3.71,-0.40,-2.92
2,6,-48,-135,-445,3881,-0.00,0.04,-0.57,-1.35,-4.45,38.81,-5.38,0.68,54.96,3.51,-0.58,-2.84
1,6,-41,-117,-471,3940,0.01,0.07,-0.76,-1.17,-4.71,39.40,-5.39,0.69,54.96,3.54,-0.60,-2.89
1,3,-4,-75,-397,3907,0.01,0.08,-0.71,-0.75,-3.97,39.07,-5.41,0.70,54.97,3.54,-0.55,-3.21
-1,2,4,-64,-383,3911,0.00,0.09,-0.62,-0.64,-3.83,39.11,-5.42,0.72,54.97,3.59,-0.54,-3.28
-3,1,18,-60,-360,3929,-0.01,0.09,-0.44,-0.60,-3.60,39.29,-5.40,0.73,54.97,3.63,-0.53,-3.41
-3,0,22,-78,-385,3935,-0.03,0.08,-0.27,-0.78,-3.85,39.35,-5.41,0.75,54.97,3.64,-0.51,-3.46
4,-17,21,-60,-438,3863,-0.00,-0.03,-0.11,-0.60,-4.38,38.63,-5.43,0.75,54.97,3.50,-0.14,-3.47
1,-11,42,-61,-437,3897,0.00,-0.10,0.16,-0.61,-4.37,38.97,-5.45,0.75,54.97,3.57,-0.25,-3.67
-5,-5,101,-154,-446,3958,-0.03,-0.12,0.76,-1.54,-4.46,39.58,-5.46,0.77,54.97,3.71,-0.37,-4.22
-4,5,140,-144,-449,3920,-0.05,-0.08,1.54,-1.44,-4.49,39.20,-5.47,0.78,54.96,3.70,-0.60,-4.61
-3,6,139,29,-349,3921,-0.06,-0.03,2.23,0.29,-3.49,39.21,-5.46,0.76,54.95,3.68,-0.62,-4.66
-7,7,142,20,-354,3924,-0.10,0.01,2.87,0.20,-3.54,39.24,-5.46,0.75,54.94,3.77,-0.64,-4.73
0,14,165,-79,-448,3897,-0.09,0.10,3.59,-0.79,-4.48,38.97,-5.48,0.76,54.93,3.64,-0.81,-4.98
-7,5,172,-14,-408,3910,-0.12,0.12,4.28,-0.14,-4.08,39.10,-5.49,0.74,54.91,3.80,-0.62,-5.10
-11,2,177,-7,-327,3883,-0.18,0.12,4.93,-0.07,-3.27,38.83,-5.48,0.73,54.89,3.89,-0.56,-5.19
-8,14,178,-55,-361,3822,-0.21,0.19,5.53,-0.55,-3.61,38.22,-5.46,0.75,54.87,3.83,-0.83,-5.25
7,2,152,-154,-419,3843,-0.15,0.19,5.90,-1.54,-4.19,38.43,-5.47,0.77,54.85,3.51,-0.60,-5.06
0,0,170,-113,-442,3941,-0.13,0.17,6.35,-1.13,-4.42,39.41,-5.49,0.78,54.82,3.66,-0.56,-5.24
4,8,212,-100,-443,3869,-0.09,0.20,7.01,-1.00,-4.43,38.69,-5.50,0.80,54.79,3.57,-0.74,-5.65
3,1,217,7,-419,3978,-0.07,0.19,7.63,0.07,-4.19,39.78,-5.51,0.79,54.76,3.59,-0.59,-5.74
-6,-5,190,62,-459,3883,-0.10,0.14,8.03,0.62,-4.59,38.83,-5.52,0.77,54.73,3.79,-0.45,-5.54
-8,-6,198,-7,-429,3921,-0.14,0.09,8.43,-0.07,-4.29,39.21,-5.53,0.77,54.70,3.85,-0.41,-5.64
-4,-4,195,15,-457,3921,-0.15,0.05,8.78,0.15,-4.57,39.21,-5.55,0.76,54.66,3.78,-0.43,-5.64
-5,-4,202,-21,-530,3897,-0.16,0.02,9.13,-0.21,-5.30,38.97,-5.57,0.76,54.63,3.82,-0.42,-5.73
-3,-2,214,5,-486,3884,-0.16,0.01,9.52,0.05,-4.86,38.84,-5.58,0.75,54.59,3.79,-0.46,-5.86
-4,6,202,21,-484,3926,-0.17,0.04,9.80,0.21,-4.84,39.26,-5.60,0.75,54.55,3.82,-0.63,-5.78
-2,0,164,-26,-298,3965,-0.17,0.04,9.82,-0.26,-2.98,39.65,-5.58,0.74,54.51,3.77,-0.50,-5.46
-9,2,166,-77,-373,3887,-0.21,0.05,9.85,-0.77,-3.73,38.87,-5.58,0.77,54.47,3.92,-0.56,-5.47
0,3,199,-70,-322,3911,-0.18,0.06,10.08,-0.70,-3.22,39.11,-5.56,0.78,54.43,3.72,-0.59,-5.77
2,16,212,-205,-343,3822,-0.15,0.15,10.37,-2.05,-3.43,38.22,-5.56,0.80,54.39,3.67,-0.89,-5.90
-4,5,296,13,-188,3787,-0.16,0.17,11.14,0.13,-1.88,37.87,-5.54,0.80,54.35,3.78,-0.67,-6.67
-14,-13,325,155,-118,3950,-0.23,0.07,12.01,1.55,-1.18,39.50,-5.52,0.79,54.30,3.99,-0.28,-6.99
-9,-10,366,83,-540,3913,-0.26,0.00,13.04,0.83,-5.40,39.13,-5.54,0.78,54.25,3.91,-0.32,-7.41
-19,-14,391,43,-567,3882,-0.35,-0.08,14.12,0.43,-5.67,38.82,-5.56,0.78,54.19,4.15,-0.21,-7.71
-9,4,466,60,-420,3858,-0.37,-0.05,15.55,0.60,-4.20,38.58,-5.56,0.77,54.13,3.96,-0.58,-8.46
-14,0,474,55,-384,3952,-0.42,-0.04,16.89,0.55,-3.84,39.52,-5.56,0.76,54.06,4.07,-0.49,-8.63
-13,8,558,-105,-236,3857,-0.46,0.01,18.60,-1.05,-2.36,38.57,-5.55,0.77,53.99,4.05,-0.67,-9.48
0,12,564,-53,-223,3905,-0.41,0.08,20.18,-0.53,-2.23,39.05,-5.53,0.78,53.91,3.76,-0.78,-9.65
-8,0,589,-128,-180,3922,-0.42,0.07,21.76,-1.28,-1.80,39.22,-5.51,0.79,53.82,3.92,-0.54,-9.98
-12,3,613,-143,-239,3906,-0.45,0.08,23.32,-1.43,-2.39,39.06,-5.50,0.81,53.73,4.00,-0.62,-10.31
-8,8,642,-31,-489,3990,-0.45,0.12,24.90,-0.31,-4.89,39.90,-5.52,0.82,53.63,3.93,-0.74,-10.68
-19,-9,643,-19,-461,3950,-0.53,0.06,26.34,-0.19,-4.61,39.50,-5.53,0.82,53.52,4.18,-0.38,-10.80
4,27,596,6,-480,3795,-0.45,0.22,27.34,0.06,-4.80,37.95,-5.55,0.82,53.41,3.70,-1.15,-10.47
-25,17,550,-8,-494,4070,-0.56,0.30,27.96,-0.08,-4.94,40.70,-5.57,0.83,53.30,4.33,-0.97,-10.13
-22,8,467,20,-449,3890,-0.63,0.32,28.01,0.20,-4.49,38.90,-5.58,0.83,53.19,4.30,-0.79,-9.42
-8,22,490,-132,-551,3884,-0.62,0.42,28.20,-1.32,-5.51,38.84,-5.60,0.85,53.08,4.03,-1.12,-9.62
-15,4,532,-87,-411,3830,-0.65,0.40,28.62,-0.87,-4.11,38.30,-5.61,0.87,52.97,4.19,-0.77,-10.01
2,19,541,-77,-376,3973,-0.57,0.48,29.06,-0.77,-3.76,39.73,-5.60,0.90,52.85,3.81,-1.11,-10.11
-14,-4,520,54,-344,3954,-0.60,0.41,29.33,0.54,-3.44,39.54,-5.59,0.89,52.73,4.14,-0.62,-9.95
-13,3,517,147,-359,3878,-0.62,0.38,29.55,1.47,-3.59,38.78,-5.59,0.89,52.62,4.12,-0.75,-9.93
-3,8,496,-10,-350,3968,-0.58,0.39,29.62,-0.10,-3.50,39.68,-5.58,0.89,52.50,3.90,-0.86,-9.75
-9,17,500,40,-363,3783,-0.57,0.46,29.71,0.40,-3.63,37.83,-5.58,0.88,52.38,4.02,-1.05,-9.79
-11,6,473,10,-343,3891,-0.58,0.45,29.62,0.10,-3.43,38.91,-5.57,0.88,52.26,4.06,-0.83,-9.55
-3,4,463,-19,-320,3955,-0.54,0.43,29.48,-0.19,-3.20,39.55,-5.56,0.88,52.15,3.88,-0.78,-9.44
-15,-16,458,-70,-377,3799,-0.58,0.29,29.33,-0.70,-3.77,37.99,-5.57,0.91,52.03,4.14,-0.35,-9.38
-9,-7,444,-30,-359,3939,-0.58,0.22,29.11,-0.30,-3.59,39.39,-5.56,0.91,51.91,4.01,-0.52,-9.24
-13,-6,446,-25,-424,3892,-0.60,0.16,28.92,-0.25,-4.24,38.92,-5.57,0.91,51.80,4.11,-0.52,-9.23
-9,3,465,-14,-438,3918,-0.59,0.16,28.86,-0.14,-4.38,39.18,-5.59,0.91,51.68,4.03,-0.70,-9.38
-4,7,473,-14,-448,3999,-0.56,0.19,28.86,-0.14,-4.48,39.99,-5.60,0.91,51.57,3.93,-0.79,-9.44
-15,7,471,6,-453,3908,-0.59,0.21,28.85,0.06,-4.53,39.08,-5.62,0.91,51.45,4.17,-0.80,-9.42
-17,5,488,3,-436,3974,-0.64,0.22,28.94,0.03,-4.36,39.74,-5.63,0.90,51.34,4.23,-0.76,-9.56
-7,9,483,57,-479,3912,-0.62,0.25,28.99,0.57,-4.79,39.12,-5.64,0.90,51.22,4.03,-0.85,-9.52
-3,13,518,-22,-418,3935,-0.57,0.31,29.25,-0.22,-4.18,39.35,-5.65,0.90,51.11,3.95,-0.94,-9.83
-13,18,527,-182,-391,3793,-0.60,0.39,29.54,-1.82,-3.91,37.93,-5.65,0.93,50.99,4.16,-1.09,-9.92
2,18,560,-141,-365,3791,-0.52,0.46,30.00,-1.41,-3.65,37.91,-5.65,0.96,50.87,3.83,-1.13,-10.23
0,10,569,-87,-348,4042,-0.47,0.47,30.47,-0.87,-3.48,40.42,-5.63,0.98,50.75,3.85,-0.98,-10.34
-4,12,570,-81,-408,4013,-0.45,0.50,30.90,-0.81,-4.08,40.13,-5.65,1.01,50.63,3.93,-1.05,-10.37
-5,13,560,-41,-412,3879,-0.43,0.53,31.23,-0.41,-4.12,38.79,-5.66,1.01,50.50,3.95,-1.08,-10.31
-14,8,531,-68,-331,3945,-0.48,0.52,31.35,-0.68,-3.31,39.45,-5.64,1.03,50.38,4.14,-0.98,-10.06
-24,18,519,-66,-450,3758,-0.58,0.58,31.38,-0.66,-4.50,37.58,-5.66,1.04,50.25,4.38,-1.21,-9.96
-8,22,476,2,-391,3856,-0.57,0.66,31.14,0.02,-3.91,38.56,-5.66,1.04,50.13,4.05,-1.31,-9.57
-3,10,475,11,-402,4081,-0.53,0.65,30.93,0.11,-4.02,40.81,-5.66,1.03,50.01,3.94,-1.06,-9.53
-1,6,456,-49,-400,3913,-0.48,0.62,30.61,-0.49,-4.00,39.13,-5.67,1.03,49.89,3.89,-0.97,-9.34
-16,-3,454,-41,-354,3843,-0.53,0.54,30.32,-0.41,-3.54,38.43,-5.66,1.03,49.77,4.20,-0.77,-9.29
-11,2,476,-49,-443,3800,-0.54,0.50,30.19,-0.49,-4.43,38.00,-5.67,1.04,49.65,4.12,-0.86,-9.46
2,0,496,16,-374,4006,-0.48,0.45,30.20,0.16,-3.74,40.06,-5.67,1.04,49.53,3.83,-0.81,-9.62
-1,4,397,-166,-236,3909,-0.44,0.43,29.60,-1.66,-2.36,39.09,-5.65,1.06,49.41,3.87,-0.90,-8.73
-3,2,375,-162,-266,3992,-0.41,0.40,28.93,-1.62,-2.66,39.92,-5.64,1.08,49.29,3.89,-0.87,-8.48
-19,-2,483,-44,-857,3955,-0.49,0.35,28.98,-0.44,-8.57,39.55,-5.65,1.10,49.18,4.25,-0.78,-9.39
-11,14,627,-24,-667,3858,-0.50,0.40,29.91,-0.24,-6.67,38.58,-5.67,1.11,49.06,4.10,-1.12,-10.68
-16,6,698,-74,-476,3805,-0.55,0.39,31.18,-0.74,-4.76,38.05,-5.69,1.12,48.94,4.23,-0.97,-11.38
-3,31,718,-111,-548,3883,-0.51,0.54,32.44,-1.11,-5.48,38.83,-5.71,1.14,48.81,3.97,-1.53,-11.64
-7,22,733,-23,-355,3936,-0.51,0.62,33.67,-0.23,-3.55,39.36,-5.70,1.14,48.67,4.04,-1.37,-11.86
-14,19,739,-71,-406,3977,-0.54,0.68,34.81,-0.71,-4.06,39.77,-5.71,1.14,48.53,4.20,-1.33,-12.00
-4,14,697,-165,-324,4007,-0.51,0.70,35.58,-1.65,-3.24,40.07,-5.70,1.17,48.39,3.98,-1.25,-11.69
-6,19,703,-230,-428,3825,-0.50,0.74,36.31,-2.30,-4.28,38.25,-5.70,1.21,48.25,4.02,-1.39,-11.80
-19,21,766,-127,-369,3758,-0.56,0.80,37.35,-1.27,-3.69,37.58,-5.70,1.25,48.10,4.30,-1.47,-12.41
-16,28,777,-78,-383,3937,-0.60,0.89,38.35,-0.78,-3.83,39.37,-5.68,1.25,47.95,4.24,-1.64,-12.57
-11,29,712,-174,-519,3730,-0.61,0.98,38.86,-1.74,-5.19,37.30,-5.70,1.28,47.79,4.15,-1.70,-12.05
-13,-17,740,244,-314,4014,-0.63,0.77,39.49,2.44,-3.14,40.14,-5.69,1.28,47.64,4.19,-0.71,-12.33
-31,15,763,-46,-395,3882,-0.76,0.79,40.20,-0.46,-3.95,38.82,-5.69,1.28,47.48,4.59,-1.37,-12.57
-21,19,755,-53,-317,3854,-0.81,0.83,40.78,-0.53,-3.17,38.54,-5.68,1.29,47.32,4.39,-1.47,-12.54
-11,22,711,-214,-353,3769,-0.79,0.88,41.04,-2.14,-3.53,37.69,-5.67,1.33,47.15,4.19,-1.57,-12.18
-8,18,705,-211,-298,3944,-0.76,0.90,41.24,-2.11,-2.98,39.44,-5.66,1.37,46.99,4.11,-1.51,-12.14
-6,4,703,-40,-244,3964,-0.72,0.83,41.40,-0.40,-2.44,39.64,-5.64,1.38,46.82,4.04,-1.22,-12.12
-6,16,696,-159,-325,3944,-0.69,0.85,41.51,-1.59,-3.25,39.44,-5.63,1.41,46.66,4.03,-1.49,-12.06
-16,8,668,-149,-417,3960,-0.72,0.81,41.43,-1.49,-4.17,39.60,-5.64,1.45,46.49,4.24,-1.34,-11.81
-18,7,655,-28,-349,3863,-0.75,0.77,41.28,-0.28,-3.49,38.63,-5.63,1.45,46.33,4.29,-1.31,-11.68
-4,22,602,-144,-468,3959,-0.70,0.83,40.83,-1.44,-4.68,39.59,-5.64,1.48,46.17,4.00,-1.65,-11.18
-2,17,642,11,-440,3739,-0.65,0.85,40.66,0.11,-4.40,37.39,-5.65,1.48,46.01,3.95,-1.56,-11.50
-10,10,604,-73,-323,3876,-0.64,0.83,40.28,-0.73,-3.23,38.76,-5.63,1.49,45.85,4.10,-1.42,-11.14
-3,26,621,-28,-453,3868,-0.60,0.90,40.04,-0.28,-4.53,38.68,-5.64,1.50,45.69,3.95,-1.77,-11.25
-6,28,676,-3,-298,3867,-0.57,0.98,40.16,-0.03,-2.98,38.67,-5.63,1.51,45.53,3.99,-1.83,-11.72
0,10,643,33,-295,4100,-0.52,0.95,40.07,0.33,-2.95,41.00,-5.62,1.51,45.37,3.85,-1.46,-11.42
-16,11,652,2,-489,3853,-0.56,0.92,40.04,0.02,-4.89,38.53,-5.63,1.52,45.21,4.19,-1.48,-11.48
-15,28,680,-20,-540,3819,-0.60,1.00,40.18,-0.20,-5.40,38.19,-5.64,1.53,45.05,4.19,-1.85,-11.72
-8,22,625,-192,-467,3863,-0.59,1.03,39.97,-1.92,-4.67,38.63,-5.65,1.56,44.89,4.05,-1.76,-11.23
-11,0,622,-125,-388,4076,-0.59,0.93,39.77,-1.25,-3.88,40.76,-5.64,1.59,44.73,4.11,-1.31,-11.18
-7,-15,529,-2,-216,4013,-0.58,0.74,39.02,-0.02,-2.16,40.13,-5.62,1.60,44.58,4.01,-0.96,-10.32
-19,-1,543,-189,-473,3791,-0.64,0.66,38.43,-1.89,-4.73,37.91,-5.63,1.63,44.42,4.28,-1.24,-10.38
-7,9,501,-89,-340,3839,-0.62,0.65,37.64,-0.89,-3.40,38.39,-5.61,1.64,44.27,4.02,-1.44,-9.95
0,7,499,-57,-319,4016,-0.55,0.63,36.92,-0.57,-3.19,40.16,-5.60,1.65,44.13,3.85,-1.40,-9.87
-12,9,524,-67,-339,4145,-0.57,0.62,36.43,-0.67,-3.39,41.45,-5.58,1.65,43.98,4.08,-1.44,-10.03
-2,8,518,-54,-227,3771,-0.53,0.61,35.94,-0.54,-2.27,37.71,-5.56,1.66,43.84,3.86,-1.43,-9.93
-19,25,568,-30,-469,3818,-0.59,0.70,35.82,-0.30,-4.69,38.18,-5.57,1.67,43.70,4.23,-1.80,-10.34
-6,27,580,-20,-319,3976,-0.57,0.79,35.77,-0.20,-3.19,39.76,-5.56,1.67,43.55,3.95,-1.87,-10.43
-4,15,577,-34,-473,3964,-0.54,0.81,35.71,-0.34,-4.73,39.64,-5.57,1.67,43.41,3.91,-1.63,-10.39
-8,20,587,5,-375,3891,-0.53,0.85,35.72,0.05,-3.75,38.91,-5.57,1.67,43.27,3.98,-1.74,-10.47
-14,16,605,-65,-587,3809,-0.56,0.86,35.84,-0.65,-5.87,38.09,-5.59,1.69,43.13,4.13,-1.67,-10.62
-8,19,607,-31,-489,3901,-0.56,0.89,35.96,-0.31,-4.89,39.01,-5.60,1.69,42.99,4.01,-1.75,-10.64
-12,13,630,-87,-411,3892,-0.57,0.88,36.21,-0.87,-4.11,38.92,-5.61,1.70,42.84,4.10,-1.62,-10.84
-13,6,641,25,-422,3968,-0.59,0.83,36.50,0.25,-4.22,39.68,-5.61,1.70,42.70,4.13,-1.47,-10.95
-13,3,631,-5,-394,3931,-0.61,0.76,36.70,-0.05,-3.94,39.31,-5.61,1.70,42.55,4.14,-1.39,-10.88
-19,9,661,-41,-445,3821,-0.67,0.74,37.06,-0.41,-4.45,38.21,-5.62,1.70,42.41,4.28,-1.51,-11.15
-18,2,673,-1,-221,3900,-0.71,0.68,37.46,-0.01,-2.21,39.00,-5.61,1.71,42.26,4.26,-1.35,-11.28
-11,13,652,-60,-258,3912,-0.71,0.69,37.69,-0.60,-2.58,39.12,-5.59,1.72,42.11,4.10,-1.59,-11.11
-23,11,684,-128,-378,3898,-0.78,0.69,38.09,-1.28,-3.78,38.98,-5.58,1.75,41.95,4.36,-1.57,-11.40
-5,9,681,-117,-219,3984,-0.73,0.68,38.44,-1.17,-2.19,39.84,-5.56,1.77,41.80,3.97,-1.53,-11.40
-16,14,694,-86,-464,3980,-0.75,0.69,38.83,-0.86,-4.64,39.80,-5.58,1.78,41.65,4.21,-1.65,-11.53
-12,20,681,-81,-403,3890,-0.75,0.75,39.10,-0.81,-4.03,38.90,-5.58,1.78,41.49,4.13,-1.79,-11.43
-11,21,673,-111,-428,3897,-0.74,0.80,39.29,-1.11,-4.28,38.97,-5.60,1.80,41.34,4.12,-1.83,-11.37
-18,10,669,-64,-425,3933,-0.78,0.78,39.45,-0.64,-4.25,39.33,-5.61,1.80,41.18,4.28,-1.60,-11.34
-11,4,666,-104,-567,3874,-0.77,0.73,39.56,-1.04,-5.67,38.74,-5.62,1.81,41.02,4.14,-1.48,-11.31
-17,13,675,-144,-517,3890,-0.80,0.73,39.72,-1.44,-5.17,38.90,-5.64,1.84,40.87,4.28,-1.68,-11.39
-3,12,678,23,-511,3927,-0.73,0.73,39.89,0.23,-5.11,39.27,-5.65,1.84,40.71,3.99,-1.66,-11.42
-17,2,684,-63,-369,4074,-0.76,0.67,40.07,-0.63,-3.69,40.74,-5.64,1.84,40.55,4.28,-1.44,-11.48
-17,12,688,-29,-478,3888,-0.79,0.68,40.26,-0.29,-4.78,38.88,-5.65,1.85,40.39,4.29,-1.65,-11.52
-18,15,695,-9,-410,3929,-0.82,0.70,40.47,-0.09,-4.10,39.29,-5.65,1.85,40.23,4.32,-1.72,-11.58
-19,24,725,-88,-470,3801,-0.86,0.78,40.85,-0.88,-4.70,38.01,-5.67,1.86,40.07,4.36,-1.93,-11.86
-10,23,726,-67,-396,4001,-0.83,0.84,41.19,-0.67,-3.96,40.01,-5.66,1.86,39.90,4.17,-1.93,-11.89
-23,15,773,-53,-412,3895,-0.89,0.85,41.79,-0.53,-4.12,38.95,-5.67,1.87,39.74,4.45,-1.77,-12.32
-3,24,778,-30,-462,3914,-0.82,0.91,42.36,-0.30,-4.62,39.14,-5.68,1.87,39.57,4.03,-1.97,-12.40
-17,8,794,-79,-436,3968,-0.84,0.87,42.96,-0.79,-4.36,39.68,-5.69,1.88,39.40,4.33,-1.64,-12.58
-10,-10,778,30,-258,3969,-0.82,0.72,43.41,0.30,-2.58,39.69,-5.67,1.88,39.22,4.17,-1.24,-12.47
-31,-11,717,128,-500,3915,-0.92,0.58,43.45,1.28,-5.00,39.15,-5.68,1.89,39.05,4.63,-1.18,-11.94
-26,14,723,45,-396,3794,-0.99,0.61,43.51,0.45,-3.96,37.94,-5.68,1.89,38.88,4.55,-1.70,-11.99
-8,32,734,18,-473,3921,-0.94,0.74,43.64,0.18,-4.73,39.21,-5.68,1.89,38.71,4.17,-2.10,-12.08
-12,32,733,-23,-404,3926,-0.92,0.86,43.75,-0.23,-4.04,39.26,-5.68,1.89,38.53,4.25,-2.14,-12.07
-7,14,729,17,-385,3920,-0.87,0.86,43.82,0.17,-3.85,39.20,-5.68,1.90,38.36,4.13,-1.77,-12.03
-12,22,738,-47,-431,3962,-0.86,0.91,43.94,-0.47,-4.31,39.62,-5.69,1.90,38.18,4.23,-1.95,-12.11
-20,15,714,-93,-525,4014,-0.89,0.91,43.90,-0.93,-5.25,40.14,-5.70,1.92,38.01,4.41,-1.82,-11.89
-10,-2,712,-54,-354,3920,-0.86,0.81,43.85,-0.54,-3.54,39.20,-5.69,1.92,37.83,4.20,-1.45,-11.86
-5,9,657,-290,-454,3767,-0.81,0.78,43.47,-2.90,-4.54,37.67,-5.70,1.96,37.66,4.08,-1.69,-11.35
-5,0,648,44,-392,3967,-0.76,0.70,43.08,0.44,-3.92,39.67,-5.69,1.96,37.49,4.07,-1.48,-11.23
-19,2,565,-189,-481,3747,-0.80,0.65,42.22,-1.89,-4.81,37.47,-5.71,1.99,37.32,4.37,-1.53,-10.45
-14,-2,578,-144,-530,3981,-0.80,0.57,41.52,-1.44,-5.30,39.81,-5.72,2.01,37.16,4.28,-1.44,-10.49
-5,-4,572,-48,-384,3962,-0.75,0.49,40.86,-0.48,-3.84,39.62,-5.72,2.01,37.00,4.08,-1.38,-10.38
-6,-2,567,-24,-353,3895,-0.72,0.43,40.23,-0.24,-3.53,38.95,-5.71,2.01,36.84,4.08,-1.40,-10.28
-21,-4,550,-44,-441,3921,-0.77,0.36,39.56,-0.44,-4.41,39.21,-5.71,2.01,36.68,4.41,-1.34,-10.07
-8,-3,534,-66,-429,3902,-0.74,0.31,38.87,-0.66,-4.29,39.02,-5.72,2.01,36.52,4.14,-1.35,-9.87
-12,-19,480,62,-356,3936,-0.74,0.16,37.91,0.62,-3.56,39.36,-5.72,2.01,36.37,4.22,-0.98,-9.32
-13,-6,443,-236,-463,3771,-0.75,0.11,36.82,-2.36,-4.63,37.71,-5.72,2.04,36.23,4.25,-1.25,-8.91
3,26,549,-153,-454,3794,-0.65,0.25,36.49,-1.53,-4.54,37.94,-5.74,2.05,36.08,3.91,-1.95,-9.78
-5,27,567,-231,-452,4001,-0.62,0.39,36.30,-2.31,-4.52,40.01,-5.75,2.09,35.94,4.06,-2.03,-9.90
-18,6,533,-118,-339,3832,-0.67,0.39,35.92,-1.18,-3.39,38.32,-5.73,2.09,35.80,4.33,-1.61,-9.58
-18,12,527,-122,-458,3918,-0.71,0.42,35.54,-1.22,-4.58,39.18,-5.74,2.10,35.65,4.35,-1.75,-9.49
-1,7,541,-15,-253,3952,-0.65,0.43,35.29,-0.15,-2.53,39.52,-5.73,2.11,35.51,3.98,-1.65,-9.58
0,13,527,-25,-403,3815,-0.58,0.46,34.97,-0.25,-4.03,38.15,-5.73,2.11,35.37,3.94,-1.78,-9.42
-11,16,479,1,-338,3843,-0.59,0.51,34.40,0.01,-3.38,38.43,-5.72,2.10,35.24,4.16,-1.85,-8.96
-4,5,452,-58,-340,3845,-0.56,0.49,33.71,-0.58,-3.40,38.45,-5.71,2.10,35.10,4.00,-1.62,-8.67
-6,16,503,-53,-451,3875,-0.54,0.54,33.41,-0.53,-4.51,38.75,-5.71,2.10,34.97,4.04,-1.86,-9.07
-18,2,499,-57,-457,3845,-0.59,0.50,33.11,-0.57,-4.57,38.45,-5.72,2.11,34.84,4.31,-1.57,-9.00
-15,-1,504,-77,-484,3860,-0.62,0.44,32.88,-0.77,-4.84,38.60,-5.74,2.11,34.71,4.26,-1.49,-9.02
-17,1,536,-75,-448,3961,-0.67,0.40,32.86,-0.75,-4.48,39.61,-5.75,2.11,34.58,4.32,-1.52,-9.28
-3,0,610,0,-422,3961,-0.62,0.36,33.29,0.00,-4.22,39.61,-5.75,2.11,34.45,4.02,-1.49,-9.94
-25,10,621,-83,-446,3842,-0.71,0.39,33.75,-0.83,-4.46,38.42,-5.76,2.11,34.31,4.50,-1.70,-10.06
-22,-16,582,-77,-355,3962,-0.77,0.25,33.93,-0.77,-3.55,39.62,-5.74,2.11,34.18,4.45,-1.13,-9.73
-9,14,600,-266,-538,3800,-0.75,0.31,34.19,-2.66,-5.38,38.00,-5.76,2.13,34.04,4.19,-1.78,-9.90
-6,-22,551,95,-283,4082,-0.71,0.15,34.14,0.95,-2.83,40.82,-5.75,2.13,33.91,4.11,-1.00,-9.47
-13,24,604,-162,-783,3802,-0.72,0.28,34.41,-1.62,-7.83,38.02,-5.76,2.15,33.77,4.26,-1.98,-9.93
-15,0,654,26,-310,4235,-0.74,0.25,34.96,0.26,-3.10,42.35,-5.75,2.15,33.63,4.30,-1.49,-10.39
-22,2,628,-117,-361,3788,-0.80,0.24,35.29,-1.17,-3.61,37.88,-5.74,2.15,33.49,4.45,-1.52,-10.19
-21,17,610,-101,-586,3801,-0.85,0.32,35.48,-1.01,-5.86,38.01,-5.75,2.16,33.35,4.45,-1.86,-10.05
-4,18,606,-30,-417,3965,-0.79,0.40,35.63,-0.30,-4.17,39.65,-5.75,2.16,33.21,4.09,-1.90,-10.02
-4,17,609,-6,-415,4061,-0.73,0.46,35.78,-0.06,-4.15,40.61,-5.75,2.16,33.06,4.08,-1.89,-10.05
-13,20,602,20,-240,3796,-0.74,0.54,35.88,0.20,-2.40,37.96,-5.74,2.16,32.92,4.25,-1.98,-9.99
-12,0,564,-42,-334,3810,-0.74,0.48,35.73,-0.42,-3.34,38.10,-5.73,2.16,32.78,4.23,-1.56,-9.64
-10,20,541,-159,-401,3945,-0.73,0.56,35.46,-1.59,-4.01,39.45,-5.73,2.19,32.64,4.19,-2.00,-9.42
-21,-1,533,2,-453,4064,-0.78,0.49,35.16,0.02,-4.53,40.64,-5.74,2.19,32.50,4.43,-1.56,-9.32
-7,8,493,-34,-475,3828,-0.75,0.49,34.65,-0.34,-4.75,38.28,-5.75,2.19,32.36,4.14,-1.74,-8.93
0,22,539,88,-531,4006,-0.67,0.58,34.48,0.88,-5.31,40.06,-5.75,2.19,32.22,3.98,-2.05,-9.30
-14,-5,533,33,-376,4051,-0.69,0.49,34.28,0.33,-3.76,40.51,-5.75,2.19,32.09,4.26,-1.48,-9.22
-12,-10,474,-15,-278,3861,-0.69,0.38,33.74,-0.15,-2.78,38.61,-5.73,2.19,31.95,4.22,-1.34,-8.67
-9,13,463,-132,-360,3893,-0.68,0.42,33.19,-1.32,-3.60,38.93,-5.71,2.19,31.82,4.14,-1.83,-8.52
-15,3,449,36,-344,3929,-0.70,0.40,32.61,0.36,-3.44,39.29,-5.71,2.19,31.69,4.26,-1.62,-8.35
-17,-11,437,-44,-324,4094,-0.74,0.29,32.02,-0.44,-3.24,40.94,-5.69,2.19,31.56,4.30,-1.30,-8.19
-9,6,447,-68,-295,4086,-0.72,0.30,31.54,-0.68,-2.95,40.86,-5.68,2.19,31.44,4.13,-1.65,-8.23
-4,-43,373,-9,109,4158,-0.67,0.01,30.66,-0.09,1.09,41.58,-5.66,2.20,31.31,4.00,-0.58,-7.53
-15,21,323,-294,-924,3785,-0.69,0.13,29.57,-2.94,-9.24,37.85,-5.67,2.22,31.20,4.24,-1.93,-7.01
-23,20,472,111,-391,4192,-0.77,0.24,29.49,1.11,-3.91,41.92,-5.67,2.21,31.08,4.42,-1.93,-8.26
-12,16,471,-234,-490,3979,-0.76,0.32,29.41,-2.34,-4.90,39.79,-5.68,2.24,30.96,4.20,-1.89,-8.23
-8,35,506,-157,-543,3756,-0.73,0.50,29.56,-1.57,-5.43,37.56,-5.70,2.25,30.85,4.12,-2.33,-8.54
-7,41,586,-124,-626,3961,-0.70,0.70,30.18,-1.24,-6.26,39.61,-5.72,2.26,30.73,4.11,-2.52,-9.26
-6,11,589,-46,-489,3969,-0.67,0.70,30.75,-0.46,-4.89,39.69,-5.73,2.26,30.61,4.08,-1.91,-9.32
-11,-3,550,-67,-542,3930,-0.67,0.61,31.03,-0.67,-5.42,39.30,-5.74,2.27,30.48,4.19,-1.60,-9.01
-8,26,579,-36,-490,3795,-0.65,0.71,31.46,-0.36,-4.90,37.95,-5.75,2.27,30.36,4.13,-2.22,-9.28
-16,18,600,11,-439,3901,-0.68,0.74,31.98,0.11,-4.39,39.01,-5.75,2.27,30.23,4.31,-2.07,-9.49
-13,5,588,-27,-387,3961,-0.70,0.70,32.36,-0.27,-3.87,39.61,-5.75,2.27,30.10,4.25,-1.79,-9.41
-9,-9,487,24,-295,3794,-0.68,0.58,32.10,0.24,-2.95,37.94,-5.74,2.27,29.97,4.16,-1.47,-8.53
-11,0,540,168,-178,4188,-0.68,0.52,32.18,1.68,-1.78,41.88,-5.72,2.27,29.85,4.19,-1.64,-8.98
-8,7,587,-50,-495,3988,-0.66,0.51,32.55,-0.50,-4.95,39.88,-5.73,2.27,29.72,4.13,-1.78,-9.40
-12,-1,618,52,-427,3861,-0.67,0.45,33.06,0.52,-4.27,38.61,-5.73,2.26,29.59,4.21,-1.60,-9.69
-10,8,652,-55,-390,3950,-0.66,0.46,33.73,-0.55,-3.90,39.50,-5.73,2.26,29.45,4.17,-1.78,-10.03
-14,15,689,-115,-462,3942,-0.68,0.50,34.56,-1.15,-4.62,39.42,-5.74,2.27,29.31,4.26,-1.94,-10.40
-16,-6,710,-113,-418,3882,-0.71,0.41,35.44,-1.13,-4.18,38.82,-5.75,2.27,29.17,4.31,-1.49,-10.64
-12,24,731,-171,-565,3837,-0.71,0.52,36.35,-1.71,-5.65,38.37,-5.77,2.29,29.03,4.24,-2.14,-10.88
2,5,717,-28,-432,4067,-0.63,0.50,37.09,-0.28,-4.32,40.67,-5.77,2.28,28.88,3.94,-1.75,-10.82
-35,-12,682,-17,-253,3927,-0.78,0.38,37.54,-0.17,-2.53,39.27,-5.75,2.29,28.73,4.72,-1.37,-10.55
-28,-8,660,-159,-498,3879,-0.87,0.29,37.81,-1.59,-4.98,38.79,-5.77,2.31,28.58,4.61,-1.44,-10.37
-28,22,715,-98,-553,4027,-0.96,0.39,38.39,-0.98,-5.53,40.27,-5.78,2.31,28.43,4.64,-2.08,-10.88
-17,5,740,3,-311,3927,-0.96,0.39,39.07,0.03,-3.11,39.27,-5.77,2.32,28.28,4.42,-1.74,-11.13
-3,24,730,-271,-463,3827,-0.89,0.49,39.61,-2.71,-4.63,38.27,-5.78,2.35,28.12,4.11,-2.17,-11.08
-28,21,703,-231,-554,3763,-0.97,0.57,39.94,-2.31,-5.54,37.63,-5.79,2.37,27.96,4.65,-2.15,-10.87
11,28,739,99,-432,4040,-0.80,0.69,40.45,0.99,-4.32,40.40,-5.79,2.38,27.80,3.82,-2.32,-11.21
-17,38,798,-108,-583,3917,-0.83,0.85,41.28,-1.08,-5.83,39.17,-5.80,2.39,27.64,4.40,-2.58,-11.77
-21,25,802,-65,-516,3937,-0.87,0.92,42.04,-0.65,-5.16,39.37,-5.81,2.40,27.47,4.50,-2.34,-11.85
-17,24,780,-36,-446,3930,-0.89,0.97,42.60,-0.36,-4.46,39.30,-5.82,2.40,27.30,4.43,-2.34,-11.70
-14,18,770,-13,-543,3911,-0.89,0.98,43.03,-0.13,-5.43,39.11,-5.82,2.41,27.13,4.37,-2.23,-11.64
2,14,706,-56,-278,3905,-0.79,0.97,43.04,-0.56,-2.78,39.05,-5.81,2.42,26.96,4.01,-2.15,-11.09
-15,22,691,-9,-428,3932,-0.80,1.01,42.95,-0.09,-4.28,39.32,-5.81,2.42,26.79,4.35,-2.32,-10.95
-7,21,602,18,-479,3867,-0.76,1.04,42.33,0.18,-4.79,38.67,-5.81,2.43,26.62,4.18,-2.31,-10.13
-19,39,646,-107,-554,3914,-0.80,1.17,42.03,-1.07,-5.54,39.14,-5.82,2.44,26.45,4.45,-2.72,-10.47
-19,10,685,105,-379,3996,-0.84,1.11,42.01,1.05,-3.79,39.96,-5.82,2.45,26.29,4.45,-2.12,-10.79
-14,17,696,50,-394,3909,-0.84,1.11,42.05,0.50,-3.94,39.09,-5.81,2.45,26.12,4.35,-2.26,-10.87
-5,4,685,-76,-522,3839,-0.78,1.02,42.03,-0.76,-5.22,38.39,-5.82,2.46,25.95,4.16,-1.98,-10.77
0,-1,671,60,-329,3909,-0.71,0.91,41.92,0.60,-3.29,39.09,-5.81,2.46,25.79,4.03,-1.85,-10.63
-4,38,664,-38,-528,3811,-0.66,1.05,41.78,-0.38,-5.28,38.11,-5.82,2.47,25.62,4.10,-2.69,-10.55
-25,22,685,-4,-499,3979,-0.75,1.08,41.78,-0.04,-4.99,39.79,-5.83,2.48,25.46,4.56,-2.38,-10.72
-11,-13,627,-57,-333,3994,-0.74,0.89,41.42,-0.57,-3.33,39.94,-5.81,2.48,25.29,4.26,-1.62,-10.19
-8,15,592,66,-597,4030,-0.71,0.90,40.89,0.66,-5.97,40.30,-5.82,2.49,25.13,4.20,-2.19,-9.84
-17,9,639,9,-549,4075,-0.75,0.86,40.70,0.09,-5.49,40.75,-5.83,2.49,24.97,4.40,-2.06,-10.21
-10,-5,629,19,-508,3794,-0.73,0.74,40.47,0.19,-5.08,37.94,-5.83,2.50,24.81,4.25,-1.75,-10.10
-12,16,643,92,-401,4074,-0.73,0.77,40.34,0.92,-4.01,40.74,-5.83,2.50,24.65,4.29,-2.18,-10.20
-14,-4,627,58,-321,4016,-0.74,0.67,40.13,0.58,-3.21,40.16,-5.82,2.50,24.49,4.33,-1.75,-10.04
-9,0,534,-60,-447,3774,-0.73,0.60,39.38,-0.60,-4.47,37.74,-5.82,2.50,24.33,4.22,-1.81,-9.18
-15,37,547,-145,-564,3748,-0.74,0.77,38.78,-1.45,-5.64,37.48,-5.84,2.52,24.18,4.36,-2.62,-9.23
-3,46,577,-9,-543,3905,-0.69,0.97,38.42,-0.09,-5.43,39.05,-5.85,2.52,24.02,4.11,-2.87,-9.45
-17,17,581,38,-479,4069,-0.72,0.98,38.12,0.38,-4.79,40.69,-5.85,2.53,23.87,4.40,-2.28,-9.45
-4,10,527,54,-465,3802,-0.68,0.94,37.52,0.54,-4.65,38.02,-5.85,2.53,23.72,4.13,-2.13,-8.93
-6,10,502,-33,-361,3962,-0.64,0.91,36.83,-0.33,-3.61,39.62,-5.84,2.53,23.58,4.15,-2.12,-8.66
-15,0,407,-96,-444,3801,-0.67,0.82,35.63,-0.96,-4.44,38.01,-5.85,2.53,23.44,4.35,-1.89,-7.74
2,29,408,-14,-598,3765,-0.59,0.91,34.56,-0.14,-5.98,37.65,-5.86,2.54,23.30,3.99,-2.51,-7.66
-5,17,319,-88,-401,3922,-0.56,0.92,33.05,-0.88,-4.01,39.22,-5.85,2.54,23.17,4.12,-2.27,-6.77
-1,31,336,-70,-606,3827,-0.51,1.02,31.79,-0.70,-6.06,38.27,-5.87,2.55,23.04,4.03,-2.59,-6.81
2,33,285,-120,-542,3904,-0.45,1.12,30.35,-1.20,-5.42,39.04,-5.88,2.56,22.92,3.96,-2.66,-6.25
-9,7,310,-49,-522,3976,-0.46,1.05,29.21,-0.49,-5.22,39.76,-5.89,2.56,22.81,4.20,-2.12,-6.36
-5,5,322,5,-444,3802,-0.44,0.98,28.25,0.05,-4.44,38.02,-5.89,2.56,22.70,4.11,-2.06,-6.38
-7,7,318,42,-398,3967,-0.44,0.92,27.37,0.42,-3.98,39.67,-5.89,2.55,22.59,4.15,-2.08,-6.27
-13,-19,265,-47,-415,3864,-0.48,0.71,26.25,-0.47,-4.15,38.64,-5.89,2.55,22.48,4.28,-1.49,-5.72
-4,8,271,-9,-421,4000,-0.45,0.69,25.27,-0.09,-4.21,40.00,-5.89,2.54,22.38,4.09,-2.03,-5.69
-6,-10,257,26,-443,3969,-0.45,0.56,24.31,0.26,-4.43,39.69,-5.89,2.54,22.29,4.13,-1.62,-5.49
-10,-2,259,-84,-495,3806,-0.46,0.49,23.46,-0.84,-4.95,38.06,-5.90,2.54,22.19,4.22,-1.77,-5.43
-6,15,280,-103,-571,3889,-0.45,0.53,22.82,-1.03,-5.71,38.89,-5.91,2.54,22.10,4.15,-2.13,-5.55
-3,-8,290,42,-443,4100,-0.43,0.43,22.31,0.42,-4.43,41.00,-5.91,2.54,22.02,4.08,-1.63,-5.59
0,10,351,36,-636,3956,-0.38,0.45,22.22,0.36,-6.36,39.56,-5.92,2.53,21.93,4.01,-2.00,-6.09
-10,5,360,13,-373,3964,-0.41,0.44,22.20,0.13,-3.73,39.64,-5.92,2.53,21.84,4.22,-1.89,-6.16
-4,19,338,30,-795,4002,-0.39,0.51,22.04,0.30,-7.95,40.02,-5.93,2.53,21.75,4.10,-2.19,-5.96
-5,5,383,116,-681,3991,-0.38,0.49,22.17,1.16,-6.81,39.91,-5.94,2.53,21.67,4.13,-1.90,-6.34
-13,-4,427,-24,-480,3940,-0.42,0.41,22.56,-0.24,-4.80,39.40,-5.95,2.52,21.58,4.30,-1.70,-6.74
-14,5,413,-10,-480,3830,-0.47,0.40,22.82,-0.10,-4.80,38.30,-5.95,2.52,21.49,4.34,-1.87,-6.64
-3,-7,380,11,-293,3905,-0.44,0.32,22.86,0.11,-2.93,39.05,-5.94,2.51,21.39,4.10,-1.60,-6.36
-8,10,372,-90,-442,3817,-0.44,0.35,22.84,-0.90,-4.42,38.17,-5.95,2.51,21.30,4.21,-1.95,-6.28
-4,4,376,31,-429,3724,-0.42,0.34,22.85,0.31,-4.29,37.24,-5.95,2.50,21.21,4.12,-1.82,-6.31
-2,21,390,41,-578,3885,-0.39,0.43,22.94,0.41,-5.78,38.85,-5.96,2.50,21.12,4.08,-2.19,-6.43
8,20,451,11,-348,3921,-0.30,0.51,23.40,0.11,-3.48,39.21,-5.95,2.49,21.03,3.85,-2.19,-6.98
-12,12,446,-62,-366,3915,-0.35,0.53,23.78,-0.62,-3.66,39.15,-5.94,2.48,20.93,4.26,-2.03,-6.96
-14,6,476,-59,-436,3865,-0.40,0.52,24.31,-0.59,-4.36,38.65,-5.94,2.48,20.84,4.31,-1.90,-7.25
-6,27,490,-112,-466,3843,-0.39,0.63,24.87,-1.12,-4.66,38.43,-5.95,2.48,20.74,4.16,-2.36,-7.41
-5,12,420,-328,-567,3594,-0.39,0.64,24.94,-3.28,-5.67,35.94,-5.96,2.51,20.64,4.14,-2.07,-6.82
-6,9,511,-110,-593,4040,-0.38,0.63,25.56,-1.10,-5.93,40.40,-5.98,2.51,20.54,4.17,-2.01,-7.64
-24,19,517,-190,-502,3618,-0.49,0.68,26.16,-1.90,-5.02,36.18,-5.99,2.53,20.44,4.58,-2.24,-7.73
-1,36,536,-81,-416,4183,-0.45,0.84,26.81,-0.81,-4.16,41.83,-5.99,2.53,20.33,4.09,-2.63,-7.94
-5,35,497,-145,-469,4126,-0.43,0.97,27.16,-1.45,-4.69,41.26,-6.00,2.53,20.22,4.18,-2.64,-7.63
-8,20,509,-69,-535,3837,-0.44,0.99,27.55,-0.69,-5.35,38.37,-6.01,2.53,20.12,4.25,-2.35,-7.75
-12,23,491,-89,-427,3824,-0.47,1.03,27.79,-0.89,-4.27,38.24,-6.01,2.53,20.01,4.34,-2.42,-7.61
0,32,482,-189,-462,3975,-0.42,1.12,27.95,-1.89,-4.62,39.75,-6.02,2.55,19.90,4.09,-2.64,-7.54
-6,12,438,-60,-509,3911,-0.42,1.08,27.83,-0.60,-5.09,39.11,-6.03,2.55,19.79,4.22,-2.23,-7.16
-3,17,435,-37,-487,3879,-0.39,1.08,27.70,-0.37,-4.87,38.79,-6.04,2.55,19.68,4.15,-2.33,-7.11
1,11,453,25,-460,3968,-0.35,1.04,27.69,0.25,-4.60,39.68,-6.04,2.55,19.57,4.06,-2.19,-7.26
-13,7,471,39,-505,3870,-0.39,0.98,27.80,0.39,-5.05,38.70,-6.04,2.55,19.46,4.36,-2.09,-7.41
-10,6,462,15,-468,3751,-0.41,0.92,27.84,0.15,-4.68,37.51,-6.05,2.55,19.35,4.31,-2.05,-7.33
-9,18,475,-63,-490,3966,-0.43,0.93,27.95,-0.63,-4.90,39.66,-6.05,2.55,19.24,4.29,-2.30,-7.45
-10,-32,428,-28,-299,3949,-0.45,0.65,27.77,-0.28,-2.99,39.49,-6.04,2.55,19.13,4.31,-1.21,-7.03
-5,1,432,-68,-489,3802,-0.43,0.59,27.62,-0.68,-4.89,38.02,-6.05,2.55,19.02,4.21,-1.86,-7.04
-12,-13,510,42,-467,3942,-0.46,0.45,27.97,0.42,-4.67,39.42,-6.05,2.54,18.90,4.36,-1.54,-7.72
-18,-2,509,-74,-519,3782,-0.53,0.39,28.28,-0.74,-5.19,37.82,-6.06,2.55,18.79,4.51,-1.75,-7.73
-14,0,539,-11,-455,3820,-0.56,0.35,28.74,-0.11,-4.55,38.20,-6.06,2.54,18.68,4.44,-1.77,-8.02
-12,21,545,-120,-420,3912,-0.58,0.45,29.19,-1.20,-4.20,39.12,-6.06,2.54,18.56,4.40,-2.22,-8.10
-8,42,533,16,-523,4023,-0.57,0.66,29.52,0.16,-5.23,40.23,-6.06,2.54,18.45,4.32,-2.71,-8.02
-10,30,568,-104,-530,3809,-0.57,0.77,30.04,-1.04,-5.30,38.09,-6.08,2.54,18.33,4.37,-2.50,-8.35
-13,31,545,-101,-575,3956,-0.59,0.89,30.36,-1.01,-5.75,39.56,-6.09,2.55,18.21,4.45,-2.56,-8.17
-10,1,549,87,-400,4042,-0.59,0.80,30.67,0.87,-4.00,40.42,-6.09,2.55,18.09,4.38,-1.92,-8.22
-20,6,535,-67,-558,3999,-0.66,0.76,30.87,-0.67,-5.58,39.99,-6.10,2.55,17.96,4.61,-2.01,-8.11
-11,7,543,24,-530,3824,-0.66,0.73,31.09,0.24,-5.30,38.24,-6.10,2.55,17.84,4.43,-2.03,-8.19
-9,4,521,13,-432,3906,-0.65,0.68,31.16,0.13,-4.32,39.06,-6.10,2.55,17.72,4.39,-1.95,-8.00
-14,8,515,-107,-526,3864,-0.67,0.66,31.19,-1.07,-5.26,38.64,-6.12,2.56,17.59,4.50,-2.03,-7.95
1,6,505,80,-254,4040,-0.60,0.63,31.15,0.80,-2.54,40.40,-6.10,2.56,17.47,4.17,-1.98,-7.85
-4,10,486,-129,-509,3792,-0.56,0.63,31.00,-1.29,-5.09,37.92,-6.12,2.57,17.35,4.27,-2.07,-7.67
-3,15,474,-8,-448,3906,-0.52,0.66,30.79,-0.08,-4.48,39.06,-6.12,2.57,17.23,4.24,-2.18,-7.55
-3,15,480,-78,-458,3863,-0.49,0.68,30.64,-0.78,-4.58,38.63,-6.12,2.57,17.10,4.23,-2.18,-7.58
-3,11,407,-158,-522,3858,-0.46,0.68,30.06,-1.58,-5.22,38.58,-6.13,2.58,16.99,4.23,-2.11,-6.91
-6,19,435,-45,-554,3933,-0.45,0.73,29.71,-0.45,-5.54,39.33,-6.14,2.58,16.87,4.30,-2.29,-7.11
-9,7,438,100,-431,3888,-0.46,0.70,29.41,1.00,-4.31,38.88,-6.14,2.58,16.75,4.36,-2.03,-7.10
0,21,435,0,-506,3848,-0.41,0.76,29.12,0.00,-5.06,38.48,-6.15,2.58,16.64,4.17,-2.33,-7.05
-4,31,496,-159,-456,3955,-0.40,0.87,29.23,-1.59,-4.56,39.55,-6.16,2.58,16.52,4.25,-2.57,-7.56
-11,-2,483,-24,-469,4004,-0.42,0.77,29.26,-0.24,-4.69,40.04,-6.16,2.58,16.40,4.40,-1.87,-7.45
-12,5,494,-45,-548,3889,-0.45,0.72,29.34,-0.45,-5.48,38.89,-6.17,2.58,16.29,4.44,-2.00,-7.54
-2,6,492,-33,-487,3927,-0.42,0.69,29.41,-0.33,-4.87,39.27,-6.17,2.58,16.17,4.23,-2.01,-7.52
1,21,471,38,-441,3873,-0.37,0.75,29.34,0.38,-4.41,38.73,-6.17,2.58,16.06,4.15,-2.33,-7.33
-9,2,451,71,-444,3853,-0.39,0.69,29.16,0.71,-4.44,38.53,-6.17,2.58,15.94,4.36,-1.93,-7.14
-6,0,399,-102,-509,3759,-0.39,0.62,28.68,-1.02,-5.09,37.59,-6.18,2.58,15.83,4.31,-1.87,-6.66
-7,22,426,-88,-609,3852,-0.39,0.69,28.41,-0.88,-6.09,38.52,-6.19,2.59,15.72,4.34,-2.34,-6.86
-6,4,463,-31,-513,3919,-0.39,0.64,28.39,-0.31,-5.13,39.19,-6.20,2.59,15.60,4.32,-1.96,-7.16
-14,2,474,-101,-484,4010,-0.44,0.59,28.44,-1.01,-4.84,40.10,-6.20,2.59,15.49,4.50,-1.91,-7.25
-16,6,514,-13,-576,3888,-0.49,0.57,28.73,-0.13,-5.76,38.88,-6.21,2.59,15.38,4.56,-1.98,-7.61
-8,16,507,26,-529,3822,-0.49,0.61,28.95,0.26,-5.29,38.22,-6.22,2.59,15.26,4.40,-2.20,-7.56
-13,25,482,34,-417,3942,-0.52,0.70,29.00,0.34,-4.17,39.42,-6.21,2.58,15.15,4.51,-2.40,-7.34
-11,-17,445,47,-339,4155,-0.54,0.53,28.81,0.47,-3.39,41.55,-6.20,2.58,15.03,4.46,-1.50,-7.01
-6,9,430,-28,-460,3855,-0.52,0.53,28.56,-0.28,-4.60,38.55,-6.21,2.58,14.92,4.36,-2.03,-6.85
-4,29,436,-81,-450,3965,-0.49,0.65,28.36,-0.81,-4.50,39.65,-6.21,2.57,14.81,4.31,-2.47,-6.88
-12,4,397,-38,-405,3962,-0.51,0.61,27.95,-0.38,-4.05,39.62,-6.20,2.57,14.70,4.48,-1.95,-6.51
-9,6,388,-72,-430,3939,-0.52,0.59,27.52,-0.72,-4.30,39.39,-6.20,2.57,14.59,4.41,-1.98,-6.39
-6,4,413,52,-514,3935,-0.50,0.55,27.28,0.52,-5.14,39.35,-6.20,2.56,14.48,4.35,-1.92,-6.58
-7,4,405,92,-519,3827,-0.50,0.52,27.03,0.92,-5.19,38.27,-6.21,2.56,14.37,4.37,-1.91,-6.49
-7,6,398,99,-359,3946,-0.49,0.51,26.75,0.99,-3.59,39.46,-6.20,2.56,14.26,4.37,-1.95,-6.40
-12,3,365,-21,-388,3873,-0.51,0.47,26.30,-0.21,-3.88,38.73,-6.19,2.55,14.16,4.47,-1.87,-6.08
1,6,334,-61,-399,3848,-0.46,0.46,25.71,-0.61,-3.99,38.48,-6.19,2.55,14.06,4.19,-1.93,-5.76
-8,-13,306,-60,-320,4004,-0.46,0.34,25.01,-0.60,-3.20,40.04,-6.17,2.55,13.96,4.36,-1.51,-5.46
-6,6,342,-27,-439,3923,-0.45,0.34,24.59,-0.27,-4.39,39.23,-6.17,2.54,13.86,4.32,-1.89,-5.72
-7,-24,287,9,-205,3940,-0.45,0.16,23.88,0.09,-2.05,39.40,-6.15,2.54,13.76,4.33,-1.23,-5.19
-7,0,311,53,-568,3896,-0.45,0.14,23.39,0.53,-5.68,38.96,-6.16,2.53,13.67,4.33,-1.71,-5.35
-14,-17,313,54,-450,3994,-0.49,0.03,22.96,0.54,-4.50,39.94,-6.16,2.53,13.58,4.48,-1.33,-5.33
-12,-14,301,9,-519,3941,-0.51,-0.06,22.50,0.09,-5.19,39.41,-6.17,2.52,13.49,4.45,-1.36,-5.18
-12,-6,296,1,-471,3874,-0.53,-0.09,22.06,0.01,-4.71,38.74,-6.17,2.51,13.40,4.46,-1.51,-5.10
-1,-4,262,21,-406,4003,-0.49,-0.11,21.45,0.21,-4.06,40.03,-6.17,2.50,13.32,4.22,-1.54,-4.76
-5,-1,248,-61,-439,3883,-0.47,-0.10,20.82,-0.61,-4.39,38.83,-6.17,2.49,13.24,4.30,-1.60,-4.58
-2,5,215,-15,-399,3950,-0.43,-0.06,20.05,-0.15,-3.99,39.50,-6.16,2.48,13.16,4.23,-1.72,-4.24
-4,8,207,-66,-452,3905,-0.41,-0.01,19.31,-0.66,-4.52,39.05,-6.17,2.47,13.08,4.26,-1.79,-4.10
-5,11,227,47,-461,3884,-0.40,0.06,18.76,0.47,-4.61,38.84,-6.17,2.46,13.00,4.28,-1.87,-4.23
-2,-10,225,-22,-336,4070,-0.38,-0.01,18.26,-0.22,-3.36,40.70,-6.16,2.45,12.93,4.21,-1.42,-4.16
-3,1,147,-39,-501,3870,-0.36,0.00,17.33,-0.39,-5.01,38.70,-6.16,2.45,12.86,4.23,-1.64,-3.42
-5,12,165,-54,-574,3839,-0.35,0.07,16.60,-0.54,-5.74,38.39,-6.18,2.44,12.80,4.27,-1.88,-3.51
-5,-15,203,36,-239,3940,-0.35,-0.03,16.18,0.36,-2.39,39.40,-6.16,2.44,12.73,4.26,-1.30,-3.80
8,-1,160,-71,-337,3868,-0.26,-0.03,15.54,-0.71,-3.37,38.68,-6.15,2.43,12.67,3.97,-1.58,-3.38
-3,11,132,-50,-526,3894,-0.25,0.04,14.79,-0.50,-5.26,38.94,-6.16,2.42,12.61,4.20,-1.83,-3.07
-7,8,147,-59,-519,3919,-0.27,0.09,14.21,-0.59,-5.19,39.19,-6.17,2.42,12.56,4.29,-1.78,-3.15
1,2,135,-54,-469,3912,-0.24,0.09,13.61,-0.54,-4.69,39.12,-6.18,2.40,12.50,4.12,-1.65,-3.00
-1,0,133,-50,-442,3929,-0.22,0.08,13.06,-0.50,-4.42,39.29,-6.18,2.39,12.45,4.16,-1.60,-2.93
-2,4,123,-8,-467,3931,-0.21,0.10,12.50,-0.08,-4.67,39.31,-6.18,2.38,12.40,4.18,-1.68,-2.80
2,8,130,-55,-505,3906,-0.18,0.14,12.05,-0.55,-5.05,39.06,-6.19,2.37,12.35,4.10,-1.77,-2.82
4,3,145,54,-360,3969,-0.14,0.14,11.73,0.54,-3.60,39.69,-6.19,2.36,12.31,4.04,-1.66,-2.92
8,-3,112,34,-363,3902,-0.07,0.11,11.24,0.34,-3.63,39.02,-6.18,2.35,12.26,3.94,-1.52,-2.60
4,6,95,-149,-488,3914,-0.04,0.13,10.69,-1.49,-4.88,39.14,-6.20,2.35,12.22,4.02,-1.71,-2.41
2,7,109,-118,-500,3922,-0.03,0.16,10.29,-1.18,-5.00,39.22,-6.21,2.35,12.18,4.06,-1.73,-2.49
1,-21,116,13,-451,3832,-0.02,0.02,9.97,0.13,-4.51,38.32,-6.21,2.33,12.14,4.08,-1.12,-2.52
5,-17,111,36,-478,3896,0.02,-0.09,9.65,0.36,-4.78,38.96,-6.21,2.32,12.10,4.00,-1.16,-2.45
-15,0,287,0,-638,4003,-0.08,-0.08,10.43,0.00,-6.38,40.03,-6.23,2.31,12.06,4.44,-1.50,-4.00
-18,-9,320,-26,-619,3905,-0.18,-0.13,11.34,-0.26,-6.19,39.05,-6.24,2.30,12.02,4.53,-1.30,-4.35
-5,3,390,23,-543,3904,-0.19,-0.09,12.59,0.23,-5.43,39.04,-6.25,2.29,11.97,4.28,-1.55,-5.04
-3,8,401,-18,-511,3913,-0.19,-0.04,13.77,-0.18,-5.11,39.13,-6.26,2.28,11.91,4.24,-1.66,-5.23
0,12,417,19,-610,3886,-0.17,0.04,14.94,0.19,-6.10,38.86,-6.27,2.28,11.85,4.18,-1.76,-5.46
-13,-4,424,8,-536,3954,-0.23,0.01,16.03,0.08,-5.36,39.54,-6.28,2.27,11.79,4.47,-1.42,-5.60
-4,31,478,-37,-528,3981,-0.24,0.20,17.35,-0.37,-5.28,39.81,-6.29,2.26,11.72,4.29,-2.18,-6.16
-22,33,523,-17,-475,3977,-0.35,0.38,18.80,-0.17,-4.75,39.77,-6.29,2.25,11.65,4.69,-2.26,-6.65
-17,38,662,5,-501,4155,-0.41,0.58,20.96,0.05,-5.01,41.55,-6.29,2.25,11.56,4.61,-2.41,-8.00
-8,36,699,47,-639,3735,-0.42,0.74,23.13,0.47,-6.39,37.35,-6.30,2.25,11.47,4.44,-2.42,-8.49
-13,13,675,0,-422,3767,-0.46,0.74,24.93,0.00,-4.22,37.67,-6.30,2.25,11.37,4.55,-1.95,-8.42
-10,21,662,-95,-318,4119,-0.47,0.80,26.48,-0.95,-3.18,41.19,-6.28,2.25,11.27,4.48,-2.13,-8.43
-11,13,605,-34,-504,3824,-0.49,0.80,27.52,-0.34,-5.04,38.24,-6.29,2.25,11.16,4.51,-1.97,-8.03
-6,-4,564,28,-197,4013,-0.48,0.69,28.21,0.28,-1.97,40.13,-6.28,2.26,11.05,4.40,-1.60,-7.73
-17,3,595,-15,-536,3898,-0.54,0.64,29.02,-0.15,-5.36,38.98,-6.28,2.26,10.93,4.64,-1.73,-8.05
-10,4,590,-25,-452,3946,-0.54,0.60,29.71,-0.25,-4.52,39.46,-6.28,2.25,10.81,4.50,-1.73,-8.06
-12,3,549,107,-450,4004,-0.56,0.56,30.09,1.07,-4.50,40.04,-6.28,2.25,10.69,4.54,-1.70,-7.73
0,-2,532,60,-448,3890,-0.51,0.49,30.33,0.60,-4.48,38.90,-6.28,2.25,10.57,4.28,-1.58,-7.60
-7,7,491,-65,-492,3826,-0.50,0.49,30.29,-0.65,-4.92,38.26,-6.29,2.25,10.45,4.43,-1.76,-7.24
-12,3,474,12,-468,3915,-0.52,0.45,30.15,0.12,-4.68,39.15,-6.29,2.25,10.33,4.54,-1.67,-7.08
-5,8,463,92,-436,3970,-0.50,0.46,29.96,0.92,-4.36,39.70,-6.29,2.24,10.22,4.39,-1.77,-6.97
-7,-9,427,-23,-328,3996,-0.49,0.36,29.57,-0.23,-3.28,39.96,-6.27,2.24,10.10,4.42,-1.40,-6.62
-4,4,406,23,-369,3970,-0.47,0.35,29.09,0.23,-3.69,39.70,-6.27,2.24,9.98,4.34,-1.65,-6.40
0,15,376,-7,-371,3967,-0.42,0.40,28.47,-0.07,-3.71,39.67,-6.26,2.24,9.87,4.24,-1.89,-6.09
2,28,392,-36,-621,3929,-0.37,0.53,28.02,-0.36,-6.21,39.29,-6.27,2.24,9.76,4.20,-2.19,-6.18
-5,3,378,130,-442,3921,-0.36,0.50,27.52,1.30,-4.42,39.21,-6.27,2.24,9.65,4.34,-1.67,-6.01
-13,7,382,43,-497,3867,-0.40,0.49,27.10,0.43,-4.97,38.67,-6.27,2.23,9.54,4.51,-1.75,-6.01
-5,28,390,11,-397,3964,-0.39,0.61,26.77,0.11,-3.97,39.64,-6.26,2.23,9.43,4.34,-2.21,-6.04
-7,-3,317,26,-433,3946,-0.40,0.53,26.03,0.26,-4.33,39.46,-6.26,2.23,9.33,4.38,-1.55,-5.36
-8,-4,293,1,-378,3844,-0.41,0.46,25.21,0.01,-3.78,38.44,-6.25,2.22,9.23,4.40,-1.51,-5.08
-7,3,240,5,-451,3868,-0.41,0.43,24.15,0.05,-4.51,38.68,-6.25,2.22,9.13,4.38,-1.64,-4.54
-3,3,227,39,-430,3969,-0.39,0.40,23.12,0.39,-4.30,39.69,-6.25,2.21,9.04,4.29,-1.63,-4.34
2,14,207,-97,-468,3965,-0.34,0.45,22.07,-0.97,-4.68,39.65,-6.26,2.20,8.96,4.18,-1.86,-4.08
1,7,195,67,-545,3930,-0.30,0.45,21.06,0.67,-5.45,39.30,-6.27,2.20,8.87,4.20,-1.72,-3.89
-3,-2,157,-35,-326,4029,-0.28,0.39,19.91,-0.35,-3.26,40.29,-6.25,2.20,8.79,4.26,-1.52,-3.47
-1,-10,122,-57,-254,3928,-0.26,0.29,18.66,-0.57,-2.54,39.28,-6.23,2.20,8.72,4.21,-1.33,-3.07
4,19,87,47,-605,3862,-0.21,0.38,17.33,0.47,-6.05,38.62,-6.24,2.19,8.65,4.10,-1.94,-2.66
-2,4,94,54,-573,3903,-0.20,0.36,16.17,0.54,-5.73,39.03,-6.25,2.19,8.59,4.22,-1.62,-2.62
-8,0,124,18,-449,3896,-0.23,0.33,15.31,0.18,-4.49,38.96,-6.25,2.18,8.53,4.35,-1.53,-2.80
-2,6,122,-16,-427,3912,-0.22,0.33,14.52,-0.16,-4.27,39.12,-6.25,2.16,8.47,4.23,-1.64,-2.72
-1,3,96,-31,-427,3885,-0.20,0.32,13.65,-0.31,-4.27,38.85,-6.25,2.15,8.41,4.20,-1.57,-2.43
0,5,99,3,-438,3907,-0.18,0.32,12.89,0.03,-4.38,39.07,-6.25,2.14,8.36,4.18,-1.60,-2.39
-2,-8,73,3,-356,3922,-0.18,0.23,12.05,0.03,-3.56,39.22,-6.24,2.13,8.31,4.21,-1.31,-2.09
-4,-5,56,-43,-439,3888,-0.18,0.18,11.18,-0.43,-4.39,38.88,-6.24,2.12,8.27,4.25,-1.35,-1.88
-5,-8,61,-26,-448,3922,-0.20,0.11,10.44,-0.26,-4.48,39.22,-6.25,2.11,8.23,4.28,-1.26,-1.86
-3,-12,53,13,-417,3922,-0.19,0.03,9.72,0.13,-4.17,39.22,-6.24,2.09,8.19,4.23,-1.15,-1.73
-1,-10,27,-2,-470,3907,-0.18,-0.03,8.91,-0.02,-4.70,39.07,-6.25,2.08,8.15,4.19,-1.16,-1.44
-1,-8,25,-10,-486,3906,-0.17,-0.08,8.17,-0.10,-4.86,39.06,-6.26,2.07,8.12,4.19,-1.18,-1.36
-1,-6,45,41,-555,3882,-0.16,-0.11,7.63,0.41,-5.55,38.82,-6.27,2.05,8.09,4.20,-1.20,-1.49
-4,-4,58,27,-572,3885,-0.17,-0.12,7.22,0.27,-5.72,38.85,-6.28,2.04,8.06,4.27,-1.23,-1.56
-2,-8,87,59,-480,3895,-0.16,-0.16,7.03,0.59,-4.80,38.95,-6.28,2.03,8.04,4.23,-1.13,-1.79
-2,-4,89,6,-505,3880,-0.16,-0.17,6.87,0.06,-5.05,38.80,-6.29,2.01,8.01,4.23,-1.20,-1.79
-1,-4,44,-42,-417,3893,-0.15,-0.17,6.45,-0.42,-4.17,38.93,-6.29,2.00,7.98,4.21,-1.19,-1.37
-1,-2,27,-28,-464,3913,-0.14,-0.17,5.97,-0.28,-4.64,39.13,-6.29,1.98,7.96,4.21,-1.22,-1.19
-2,1,49,-11,-559,3888,-0.14,-0.15,5.67,-0.11,-5.59,38.88,-6.30,1.97,7.94,4.24,-1.28,-1.35
-2,4,67,-3,-580,3884,-0.14,-0.11,5.51,-0.03,-5.80,38.84,-6.32,1.96,7.92,4.25,-1.35,-1.49
-2,-6,64,1,-441,3892,-0.14,-0.13,5.35,0.01,-4.41,38.92,-6.32,1.94,7.89,4.25,-1.12,-1.45
-2,-3,58,-22,-468,3896,-0.13,-0.14,5.17,-0.22,-4.68,38.96,-6.33,1.93,7.87,4.25,-1.17,-1.38
-3,0,70,18,-539,3895,-0.14,-0.12,5.08,0.18,-5.39,38.95,-6.34,1.91,7.85,4.28,-1.23,-1.48
-3,-4,84,34,-538,3966,-0.14,-0.14,5.09,0.34,-5.38,39.66,-6.34,1.90,7.83,4.29,-1.14,-1.59
-2,-2,99,18,-508,3961,-0.14,-0.13,5.18,0.18,-5.08,39.61,-6.35,1.89,7.81,4.27,-1.17,-1.73
-2,-7,101,27,-502,3941,-0.14,-0.16,5.28,0.27,-5.02,39.41,-6.36,1.87,7.79,4.28,-1.05,-1.75
-2,-3,138,-2,-433,3955,-0.14,-0.17,5.59,-0.02,-4.33,39.55,-6.36,1.85,7.77,4.27,-1.12,-2.09
-5,3,131,-77,-522,3890,-0.15,-0.13,5.83,-0.77,-5.22,38.90,-6.37,1.85,7.75,4.35,-1.24,-2.05
-2,-1,141,-5,-449,3895,-0.15,-0.12,6.11,-0.05,-4.49,38.95,-6.38,1.83,7.72,4.29,-1.15,-2.15
-1,5,142,-24,-466,3906,-0.14,-0.08,6.36,-0.24,-4.66,39.06,-6.38,1.82,7.70,4.27,-1.28,-2.18
-1,18,146,1,-613,3837,-0.13,0.04,6.62,0.01,-6.13,38.37,-6.39,1.81,7.67,4.28,-1.57,-2.23
-1,5,158,66,-464,4062,-0.13,0.06,6.92,0.66,-4.64,40.62,-6.40,1.79,7.65,4.28,-1.30,-2.36
-4,5,155,2,-582,3877,-0.14,0.09,7.17,0.02,-5.82,38.77,-6.41,1.79,7.62,4.35,-1.30,-2.35
-6,9,174,45,-509,3901,-0.16,0.13,7.52,0.45,-5.09,39.01,-6.42,1.77,7.59,4.40,-1.39,-2.54
0,-2,99,-131,-390,3869,-0.14,0.11,7.37,-1.31,-3.90,38.69,-6.40,1.78,7.56,4.26,-1.16,-1.89
0,-1,91,-104,-424,3946,-0.13,0.09,7.19,-1.04,-4.24,39.46,-6.38,1.77,7.53,4.25,-1.17,-1.81
-1,-2,123,45,-518,3930,-0.12,0.07,7.22,0.45,-5.18,39.30,-6.39,1.76,7.50,4.27,-1.14,-2.08
-5,-5,145,58,-508,3899,-0.14,0.03,7.38,0.58,-5.08,38.99,-6.40,1.74,7.47,4.36,-1.06,-2.28
-6,-4,139,-11,-409,3916,-0.16,0.00,7.49,-0.11,-4.09,39.16,-6.39,1.73,7.44,4.39,-1.06,-2.23
-1,-4,110,3,-386,3946,-0.15,-0.02,7.41,0.03,-3.86,39.46,-6.39,1.72,7.41,4.28,-1.05,-1.98
2,3,56,-16,-475,3933,-0.13,0.00,7.01,-0.16,-4.75,39.33,-6.39,1.70,7.38,4.21,-1.18,-1.49
2,6,53,-29,-498,3910,-0.10,0.04,6.64,-0.29,-4.98,39.10,-6.40,1.69,7.36,4.21,-1.25,-1.43
0,22,72,-11,-540,3902,-0.09,0.17,6.41,-0.11,-5.40,39.02,-6.41,1.68,7.33,4.26,-1.60,-1.57
3,22,72,58,-482,3917,-0.06,0.28,6.21,0.58,-4.82,39.17,-6.42,1.67,7.31,4.19,-1.62,-1.55
10,18,17,83,-402,3913,0.00,0.37,5.69,0.83,-4.02,39.13,-6.41,1.65,7.29,4.03,-1.56,-1.04
10,14,5,57,-431,3906,0.06,0.41,5.15,0.57,-4.31,39.06,-6.41,1.64,7.27,4.01,-1.48,-0.90
10,4,-8,18,-470,3894,0.12,0.40,4.59,0.18,-4.70,38.94,-6.41,1.62,7.25,4.00,-1.26,-0.74
5,-2,-6,-5,-455,3894,0.14,0.35,4.09,-0.05,-4.55,38.94,-6.42,1.61,7.23,4.10,-1.12,-0.72
-1,-8,-1,-2,-487,3904,0.12,0.26,3.68,-0.02,-4.87,39.04,-6.42,1.59,7.22,4.23,-0.96,-0.72
-3,-9,2,-4,-476,3920,0.09,0.18,3.32,-0.04,-4.76,39.20,-6.43,1.58,7.20,4.28,-0.91,-0.72
-3,-10,9,-11,-489,3925,0.06,0.10,3.05,-0.11,-4.89,39.25,-6.44,1.56,7.19,4.29,-0.86,-0.75
-4,-9,10,-12,-485,3923,0.03,0.04,2.80,-0.12,-4.85,39.23,-6.44,1.55,7.18,4.33,-0.85,-0.74
-2,-4,9,-5,-486,3919,0.01,0.01,2.58,-0.05,-4.86,39.19,-6.45,1.53,7.17,4.29,-0.93,-0.72
-3,-1,8,-3,-487,3916,-0.00,0.00,2.37,-0.03,-4.87,39.16,-6.46,1.52,7.16,4.32,-0.98,-0.69
-4,4,3,-1,-486,3914,-0.03,0.03,2.15,-0.01,-4.86,39.14,-6.46,1.50,7.15,4.35,-1.08,-0.63
-4,1,3,-14,-491,3923,-0.05,0.03,1.95,-0.14,-4.91,39.23,-6.47,1.49,7.15,4.37,-1.01,-0.61
-4,1,1,-2,-477,3902,-0.07,0.03,1.76,-0.02,-4.77,39.02,-6.48,1.47,7.14,4.38,-1.00,-0.58
-3,0,0,3,-464,3908,-0.08,0.03,1.59,0.03,-4.64,39.08,-6.48,1.45,7.13,4.36,-0.97,-0.56
-2,-5,2,-4,-474,3914,-0.09,-0.00,1.44,-0.04,-4.74,39.14,-6.49,1.44,7.13,4.35,-0.85,-0.56
0,-5,2,1,-477,3906,-0.08,-0.03,1.31,0.01,-4.77,39.06,-6.49,1.42,7.12,4.31,-0.83,-0.55
-1,-6,3,-4,-479,3922,-0.08,-0.07,1.20,-0.04,-4.79,39.22,-6.50,1.40,7.12,4.33,-0.79,-0.55
-1,-5,4,-12,-478,3922,-0.07,-0.09,1.10,-0.12,-4.78,39.22,-6.51,1.39,7.11,4.33,-0.79,-0.55
-1,-1,2,-2,-481,3913,-0.07,-0.09,1.00,-0.02,-4.81,39.13,-6.51,1.37,7.11,4.34,-0.86,-0.52
-2,0,2,5,-482,3904,-0.08,-0.08,0.91,0.05,-4.82,39.04,-6.52,1.35,7.11,4.36,-0.87,-0.52
-1,4,-3,-2,-489,3919,-0.08,-0.05,0.81,-0.02,-4.89,39.19,-6.53,1.33,7.10,4.35,-0.95,-0.47
-2,4,-3,-7,-488,3908,-0.08,-0.02,0.71,-0.07,-4.88,39.08,-6.53,1.32,7.10,4.38,-0.95,-0.46
6,7,-4,12,-491,3898,-0.04,0.03,0.61,0.12,-4.91,38.98,-6.54,1.30,7.10,4.21,-1.01,-0.44
6,8,-7,-5,-480,3903,0.00,0.07,0.51,-0.05,-4.80,39.03,-6.55,1.29,7.10,4.20,-1.03,-0.41
4,5,-6,-2,-469,3888,0.03,0.10,0.42,-0.02,-4.69,38.88,-6.55,1.27,7.09,4.24,-0.96,-0.41
3,3,-5,4,-463,3898,0.04,0.10,0.35,0.04,-4.63,38.98,-6.56,1.25,7.09,4.25,-0.91,-0.41
0,-2,1,-2,-469,3911,0.04,0.08,0.32,-0.02,-4.69,39.11,-6.56,1.23,7.09,4.32,-0.80,-0.46
0,-3,2,-3,-470,3908,0.04,0.06,0.30,-0.03,-4.70,39.08,-6.56,1.22,7.09,4.32,-0.76,-0.47
1,-2,3,6,-488,3909,0.04,0.04,0.29,0.06,-4.88,39.09,-6.57,1.20,7.09,4.31,-0.76,-0.47
1,-2,2,4,-484,3917,0.04,0.02,0.27,0.04,-4.84,39.17,-6.58,1.18,7.09,4.31,-0.75,-0.46
-1,1,0,-3,-485,3907,0.03,0.03,0.24,-0.03,-4.85,39.07,-6.58,1.17,7.09,4.36,-0.80,-0.45
0,1,0,1,-479,3900,0.03,0.03,0.22,0.01,-4.79,39.00,-6.59,1.15,7.09,4.34,-0.79,-0.44
0,-1,2,0,-473,3906,0.02,0.02,0.21,0.00,-4.73,39.06,-6.59,1.13,7.09,4.35,-0.73,-0.46
1,-1,2,3,-468,3917,0.03,0.01,0.20,0.03,-4.68,39.17,-6.60,1.11,7.09,4.33,-0.72,-0.46
2,-1,2,-1,-478,3911,0.04,0.00,0.19,-0.01,-4.78,39.11,-6.60,1.10,7.09,4.31,-0.70,-0.46
1,-1,3,-8,-483,3912,0.04,-0.00,0.19,-0.08,-4.83,39.12,-6.61,1.08,7.09,4.33,-0.69,-0.47
1,1,2,-3,-481,3910,0.04,0.00,0.19,-0.03,-4.81,39.10,-6.62,1.06,7.08,4.34,-0.72,-0.46
2,0,0,5,-478,3918,0.05,0.00,0.17,0.05,-4.78,39.18,-6.62,1.04,7.08,4.32,-0.69,-0.44
2,-1,1,5,-484,3915,0.06,-0.00,0.16,0.05,-4.84,39.15,-6.63,1.03,7.08,4.32,-0.66,-0.45
1,-2,1,4,-471,3889,0.06,-0.01,0.15,0.04,-4.71,38.89,-6.63,1.01,7.08,4.34,-0.62,-0.45
1,-4,1,-13,-478,3916,0.06,-0.04,0.14,-0.13,-4.78,39.16,-6.64,0.99,7.08,4.35,-0.56,-0.44
-3,-5,6,2,-506,3898,0.03,-0.06,0.16,0.02,-5.06,38.98,-6.65,0.98,7.08,4.44,-0.53,-0.49
-4,-6,8,-10,-488,3916,0.01,-0.09,0.19,-0.10,-4.88,39.16,-6.66,0.96,7.08,4.47,-0.49,-0.51
-2,-3,8,-7,-479,3924,-0.01,-0.10,0.22,-0.07,-4.79,39.24,-6.67,0.94,7.08,4.44,-0.53,-0.51
-4,-2,10,-21,-500,3937,-0.03,-0.11,0.26,-0.21,-5.00,39.37,-6.68,0.93,7.08,4.50,-0.54,-0.53
-5,-3,12,-6,-489,3914,-0.06,-0.11,0.31,-0.06,-4.89,39.14,-6.69,0.91,7.08,4.53,-0.51,-0.55
3,-6,15,-55,-523,3827,-0.03,-0.14,0.37,-0.55,-5.23,38.27,-6.70,0.91,7.08,4.37,-0.44,-0.58
6,2,19,-19,-490,3941,0.01,-0.11,0.45,-0.19,-4.90,39.41,-6.71,0.90,7.08,4.31,-0.60,-0.62
4,-9,17,6,-481,3923,0.03,-0.16,0.51,0.06,-4.81,39.23,-6.72,0.88,7.07,4.34,-0.35,-0.61
3,-7,20,4,-496,3875,0.05,-0.18,0.58,0.04,-4.96,38.75,-6.73,0.86,7.07,4.37,-0.38,-0.64
-3,-2,46,-7,-490,3927,0.02,-0.18,0.80,-0.07,-4.90,39.27,-6.74,0.84,7.07,4.50,-0.47,-0.88
-4,-8,41,48,-437,3920,-0.00,-0.21,0.97,0.48,-4.37,39.20,-6.73,0.83,7.06,4.53,-0.33,-0.85
0,-2,9,13,-471,3914,-0.00,-0.20,0.93,0.13,-4.71,39.14,-6.73,0.81,7.06,4.45,-0.44,-0.58
-1,2,4,-2,-478,3919,-0.01,-0.17,0.86,-0.02,-4.78,39.19,-6.74,0.79,7.06,4.47,-0.52,-0.53
2,6,-6,-8,-469,3917,0.00,-0.11,0.74,-0.08,-4.69,39.17,-6.74,0.77,7.05,4.41,-0.60,-0.43
3,6,-8,-5,-473,3912,0.02,-0.07,0.62,-0.05,-4.73,39.12,-6.75,0.75,7.05,4.38,-0.60,-0.41
5,5,-11,-3,-472,3909,0.05,-0.03,0.49,-0.03,-4.72,39.09,-6.75,0.74,7.05,4.34,-0.58,-0.37
4,7,-13,-5,-462,3880,0.07,0.02,0.36,-0.05,-4.62,38.80,-6.75,0.72,7.05,4.35,-0.62,-0.34
7,10,-17,2,-464,3925,0.11,0.08,0.22,0.02,-4.64,39.25,-6.75,0.70,7.05,4.28,-0.69,-0.30
1,10,-18,29,-455,3943,0.10,0.13,0.09,0.29,-4.55,39.43,-6.75,0.68,7.05,4.40,-0.69,-0.28
-3,4,-20,14,-476,3909,0.07,0.14,-0.04,0.14,-4.76,39.09,-6.75,0.67,7.05,4.50,-0.56,-0.25
-3,3,-20,12,-476,3897,0.05,0.15,-0.16,0.12,-4.76,38.97,-6.75,0.65,7.05,4.51,-0.53,-0.24
0,-5,-26,8,-441,3930,0.04,0.10,-0.30,0.08,-4.41,39.30,-6.75,0.63,7.05,4.44,-0.34,-0.18
5,-4,-38,21,-451,3909,0.07,0.07,-0.50,0.21,-4.51,39.09,-6.74,0.61,7.05,4.33,-0.34,-0.06
-5,-10,-81,50,-406,3887,0.03,-0.00,-0.95,0.50,-4.06,38.87,-6.73,0.60,7.06,4.54,-0.19,0.34
11,-5,-114,-32,-353,3962,0.10,-0.03,-1.55,-0.32,-3.53,39.62,-6.71,0.59,7.06,4.18,-0.28,0.67
0,5,-169,-92,-547,3861,0.09,0.00,-2.43,-0.92,-5.47,38.61,-6.73,0.60,7.07,4.42,-0.50,1.20
4,9,-146,-27,-592,3937,0.10,0.06,-3.07,-0.27,-5.92,39.37,-6.75,0.60,7.08,4.34,-0.59,1.06
5,2,-132,-56,-490,3971,0.12,0.06,-3.57,-0.56,-4.90,39.71,-6.76,0.61,7.10,4.33,-0.46,0.98
2,-3,-131,-36,-443,3919,0.12,0.04,-4.01,-0.36,-4.43,39.19,-6.74,0.60,7.11,4.38,-0.35,1.01
4,6,-199,28,-474,3844,0.13,0.07,-4.83,0.28,-4.74,38.44,-6.75,0.58,7.13,4.34,-0.53,1.65
5,11,-199,55,-590,3866,0.15,0.13,-5.56,0.55,-5.90,38.66,-6.76,0.57,7.15,4.32,-0.64,1.71
6,-6,-194,-12,-418,3903,0.17,0.08,-6.18,-0.12,-4.18,39.03,-6.75,0.56,7.18,4.28,-0.27,1.71
9,-7,-220,-6,-364,3928,0.21,0.03,-6.91,-0.06,-3.64,39.28,-6.73,0.55,7.21,4.20,-0.23,1.99
6,-12,-302,-53,-444,3938,0.23,-0.05,-8.06,-0.53,-4.44,39.38,-6.71,0.56,7.24,4.25,-0.11,2.78
2,-10,-305,-107,-596,3832,0.22,-0.10,-9.11,-1.07,-5.96,38.32,-6.73,0.56,7.27,4.34,-0.14,2.89
9,-9,-309,-3,-389,3901,0.25,-0.15,-10.09,-0.03,-3.89,39.01,-6.71,0.55,7.31,4.18,-0.14,3.00
-1,10,-333,-161,-524,3845,0.22,-0.07,-11.11,-1.61,-5.24,38.45,-6.72,0.56,7.36,4.40,-0.55,3.28
10,-11,-404,-85,-534,3896,0.26,-0.13,-12.46,-0.85,-5.34,38.96,-6.74,0.56,7.41,4.17,-0.11,3.99
3,-21,-412,-28,-551,3902,0.25,-0.25,-13.73,-0.28,-5.51,39.02,-6.75,0.55,7.46,4.33,0.13,4.16
0,-14,-350,59,-465,3949,0.22,-0.31,-14.49,0.59,-4.65,39.49,-6.75,0.52,7.52,4.40,0.02,3.69
4,-14,-374,81,-352,3881,0.23,-0.36,-15.32,0.81,-3.52,38.81,-6.74,0.50,7.58,4.31,0.05,3.96
16,-7,-414,73,-491,3904,0.30,-0.37,-16.32,0.73,-4.91,39.04,-6.75,0.47,7.65,4.04,-0.07,4.37
19,-3,-416,51,-473,3972,0.39,-0.35,-17.22,0.51,-4.73,39.72,-6.75,0.45,7.71,3.96,-0.14,4.46
5,17,-420,-8,-414,3952,0.38,-0.21,-18.06,-0.08,-4.14,39.52,-6.73,0.43,7.79,4.24,-0.57,4.56
1,9,-415,117,-470,3939,0.35,-0.13,-18.79,1.17,-4.70,39.39,-6.73,0.40,7.86,4.32,-0.41,4.57
2,6,-404,-38,-496,3881,0.32,-0.08,-19.37,-0.38,-4.96,38.81,-6.74,0.40,7.94,4.32,-0.36,4.52
6,6,-382,41,-458,3920,0.33,-0.04,-19.77,0.41,-4.58,39.20,-6.74,0.37,8.02,4.24,-0.36,4.36
4,-11,-408,-53,-364,3865,0.32,-0.10,-20.28,-0.53,-3.64,38.65,-6.72,0.37,8.10,4.27,0.01,4.62
14,-4,-409,-74,-378,4003,0.37,-0.12,-20.75,-0.74,-3.78,40.03,-6.71,0.36,8.18,4.04,-0.13,4.66
5,-5,-419,-62,-473,4070,0.37,-0.14,-21.23,-0.62,-4.73,40.70,-6.70,0.37,8.26,4.22,-0.11,4.78
10,-20,-406,-12,-377,3973,0.39,-0.24,-21.58,-0.12,-3.77,39.73,-6.68,0.36,8.35,4.10,0.24,4.69
-1,-12,-395,-117,-415,3840,0.35,-0.29,-21.83,-1.17,-4.15,38.40,-6.68,0.36,8.43,4.33,0.08,4.61
3,-15,-395,-135,-413,3971,0.33,-0.36,-22.06,-1.35,-4.13,39.71,-6.67,0.37,8.52,4.25,0.16,4.62
2,-17,-416,-145,-451,3914,0.31,-0.42,-22.39,-1.45,-4.51,39.14,-6.67,0.37,8.61,4.27,0.21,4.82
10,-8,-410,-33,-443,3924,0.34,-0.43,-22.65,-0.33,-4.43,39.24,-6.65,0.37,8.70,4.09,0.04,4.79
12,2,-408,23,-526,3880,0.38,-0.37,-22.88,0.23,-5.26,38.80,-6.66,0.35,8.79,4.05,-0.17,4.78
-1,-2,-404,-39,-559,3895,0.33,-0.35,-23.05,-0.39,-5.59,38.95,-6.68,0.34,8.88,4.34,-0.09,4.76
7,-1,-414,-11,-473,3887,0.34,-0.32,-23.27,-0.11,-4.73,38.87,-6.69,0.32,8.98,4.18,-0.10,4.86
10,2,-415,28,-509,3918,0.37,-0.28,-23.48,0.28,-5.09,39.18,-6.71,0.29,9.07,4.12,-0.16,4.88
5,-5,-416,-43,-507,3964,0.36,-0.28,-23.67,-0.43,-5.07,39.64,-6.72,0.29,9.16,4.24,-0.01,4.89
4,-13,-420,-10,-539,3850,0.35,-0.33,-23.86,-0.10,-5.39,38.50,-6.74,0.27,9.26,4.27,0.17,4.94
6,-10,-448,-79,-527,3751,0.35,-0.36,-24.21,-0.79,-5.27,37.51,-6.75,0.27,9.35,4.24,0.12,5.20
1,-24,-435,-19,-502,3968,0.32,-0.47,-24.44,-0.19,-5.02,39.68,-6.77,0.26,9.45,4.36,0.45,5.10
14,-17,-440,54,-354,3900,0.38,-0.53,-24.68,0.54,-3.54,39.00,-6.75,0.23,9.55,4.07,0.33,5.16
7,-12,-468,-39,-412,3841,0.38,-0.55,-25.07,-0.39,-4.12,38.41,-6.74,0.23,9.65,4.20,0.24,5.42
5,-7,-458,-68,-456,3939,0.37,-0.53,-25.35,-0.68,-4.56,39.39,-6.73,0.23,9.75,4.24,0.13,5.35
9,-9,-456,-58,-553,3857,0.39,-0.54,-25.60,-0.58,-5.53,38.57,-6.75,0.23,9.85,4.16,0.18,5.35
10,-8,-443,-14,-428,3981,0.41,-0.53,-25.74,-0.14,-4.28,39.81,-6.73,0.21,9.95,4.12,0.17,5.24
15,-5,-445,-70,-437,3919,0.46,-0.51,-25.88,-0.70,-4.37,39.19,-6.72,0.21,10.05,4.00,0.10,5.27
1,-12,-411,76,-405,3990,0.42,-0.53,-25.80,0.76,-4.05,39.90,-6.71,0.18,10.16,4.29,0.27,4.97
-2,-6,-431,39,-468,3716,0.37,-0.51,-25.85,0.39,-4.68,37.16,-6.72,0.15,10.26,4.37,0.16,5.13
10,6,-452,-108,-636,3717,0.39,-0.43,-26.02,-1.08,-6.36,37.17,-6.73,0.15,10.36,4.13,-0.10,5.32
11,-20,-428,15,-346,4056,0.42,-0.51,-26.03,0.15,-3.46,40.56,-6.71,0.13,10.46,4.09,0.46,5.11
12,-17,-429,41,-561,3896,0.45,-0.56,-26.05,0.41,-5.61,38.96,-6.73,0.11,10.57,4.07,0.43,5.11
11,-8,-418,59,-403,3851,0.47,-0.55,-25.99,0.59,-4.03,38.51,-6.71,0.08,10.67,4.08,0.26,5.01
13,-9,-435,-33,-411,3882,0.51,-0.55,-26.05,-0.33,-4.11,38.82,-6.70,0.07,10.77,4.02,0.28,5.15
2,-13,-441,-45,-420,3997,0.47,-0.58,-26.13,-0.45,-4.20,39.97,-6.68,0.07,10.88,4.24,0.37,5.20
5,-16,-441,99,-455,3955,0.45,-0.62,-26.21,0.99,-4.55,39.55,-6.68,0.04,10.98,4.18,0.47,5.20
11,-1,-448,-52,-503,3797,0.47,-0.56,-26.32,-0.52,-5.03,37.97,-6.69,0.04,11.09,4.06,0.15,5.27
13,6,-444,2,-491,3865,0.51,-0.47,-26.40,0.02,-4.91,38.65,-6.70,0.02,11.19,4.02,-0.01,5.23
10,-12,-454,-60,-461,3978,0.52,-0.49,-26.53,-0.60,-4.61,39.78,-6.70,0.02,11.30,4.08,0.36,5.32
21,-9,-502,-157,-490,3865,0.59,-0.50,-26.94,-1.57,-4.90,38.65,-6.70,0.03,11.40,3.84,0.30,5.75
6,-8,-511,-26,-343,3948,0.57,-0.50,-27.36,-0.26,-3.43,39.48,-6.68,0.02,11.51,4.13,0.29,5.86
13,-17,-520,21,-437,4047,0.59,-0.55,-27.80,0.21,-4.37,40.47,-6.66,-0.01,11.62,3.97,0.50,5.96
14,-19,-549,-90,-345,3850,0.62,-0.61,-28.36,-0.90,-3.45,38.50,-6.65,-0.01,11.73,3.93,0.56,6.25
21,-16,-583,-53,-397,3924,0.68,-0.65,-29.08,-0.53,-3.97,39.24,-6.63,-0.02,11.85,3.76,0.51,6.59
4,-10,-595,-96,-364,3908,0.64,-0.65,-29.81,-0.96,-3.64,39.08,-6.62,-0.02,11.97,4.11,0.39,6.74
6,-9,-606,-73,-382,3958,0.61,-0.64,-30.52,-0.73,-3.82,39.58,-6.60,-0.02,12.09,4.07,0.37,6.88
12,0,-616,-37,-411,3757,0.62,-0.57,-31.23,-0.37,-4.11,37.57,-6.59,-0.02,12.21,3.93,0.17,7.02
22,-11,-660,-14,-439,3839,0.70,-0.58,-32.13,-0.14,-4.39,38.39,-6.58,-0.02,12.34,3.71,0.40,7.46
16,-5,-672,-73,-437,3891,0.72,-0.55,-33.02,-0.73,-4.37,38.91,-6.58,-0.02,12.47,3.82,0.27,7.62
21,-21,-704,-70,-471,3957,0.78,-0.63,-34.01,-0.70,-4.71,39.57,-6.58,-0.02,12.60,3.70,0.61,7.97
7,-32,-717,-29,-481,3900,0.74,-0.76,-34.98,-0.29,-4.81,39.00,-6.59,-0.03,12.74,4.00,0.88,8.15
1,-15,-711,-123,-460,3937,0.68,-0.78,-35.82,-1.23,-4.60,39.37,-6.58,-0.03,12.89,4.14,0.54,8.16
4,-30,-730,-22,-473,3900,0.63,-0.88,-36.69,-0.22,-4.73,39.00,-6.59,-0.04,13.03,4.10,0.87,8.38
23,3,-754,-67,-431,3820,0.71,-0.77,-37.62,-0.67,-4.31,38.20,-6.59,-0.04,13.18,3.69,0.18,8.65
27,-7,-751,7,-458,4084,0.80,-0.74,-38.44,0.07,-4.58,40.84,-6.57,-0.07,13.33,3.57,0.39,8.68
18,-5,-736,-59,-472,3984,0.83,-0.70,-39.09,-0.59,-4.72,39.84,-6.57,-0.07,13.49,3.74,0.34,8.60
11,-15,-741,-37,-499,3876,0.82,-0.72,-39.70,-0.37,-4.99,38.76,-6.58,-0.08,13.64,3.90,0.55,8.68
16,-20,-743,9,-432,3887,0.83,-0.77,-40.26,0.09,-4.32,38.87,-6.56,-0.10,13.80,3.78,0.68,8.73
19,-9,-747,-5,-442,3926,0.87,-0.75,-40.79,-0.05,-4.42,39.26,-6.54,-0.11,13.97,3.70,0.46,8.80
27,-14,-744,26,-471,3939,0.94,-0.76,-41.25,0.26,-4.71,39.39,-6.55,-0.14,14.13,3.52,0.59,8.80
14,-22,-749,0,-452,3919,0.93,-0.82,-41.69,0.00,-4.52,39.19,-6.55,-0.15,14.30,3.78,0.77,8.87
20,-10,-716,-7,-475,3891,0.96,-0.79,-41.89,-0.07,-4.75,38.91,-6.56,-0.16,14.46,3.66,0.53,8.60
10,-12,-718,13,-429,3905,0.93,-0.79,-42.08,0.13,-4.29,39.05,-6.54,-0.19,14.63,3.86,0.58,8.62
16,-3,-741,-23,-429,3817,0.93,-0.73,-42.39,-0.23,-4.29,38.17,-6.53,-0.19,14.80,3.73,0.38,8.83
8,-22,-740,-38,-445,4085,0.89,-0.79,-42.67,-0.38,-4.45,40.85,-6.52,-0.20,14.97,3.90,0.79,8.83
11,-28,-789,-27,-479,3933,0.87,-0.88,-43.22,-0.27,-4.79,39.33,-6.53,-0.20,15.14,3.85,0.94,9.28
1,-34,-788,-48,-465,3913,0.79,-1.00,-43.70,-0.48,-4.65,39.13,-6.53,-0.21,15.31,4.07,1.10,9.30
19,-20,-792,-52,-545,3906,0.82,-1.02,-44.16,-0.52,-5.45,39.06,-6.54,-0.22,15.49,3.70,0.83,9.36
-1,-33,-783,-96,-583,3977,0.73,-1.12,-44.52,-0.96,-5.83,39.77,-6.55,-0.24,15.66,4.14,1.13,9.31
12,-25,-756,-33,-503,3899,0.73,-1.16,-44.68,-0.33,-5.03,38.99,-6.56,-0.25,15.84,3.88,0.99,9.08
22,-21,-772,-71,-580,3823,0.80,-1.17,-44.92,-0.71,-5.80,38.23,-6.57,-0.27,16.02,3.67,0.92,9.22
20,-19,-748,-147,-470,3833,0.84,-1.17,-44.99,-1.47,-4.70,38.33,-6.57,-0.27,16.19,3.70,0.89,9.01
22,-7,-737,-103,-556,3902,0.89,-1.10,-44.99,-1.03,-5.56,39.02,-6.58,-0.28,16.37,3.65,0.63,8.91
9,-1,-681,-19,-433,3986,0.85,-0.99,-44.64,-0.19,-4.33,39.86,-6.56,-0.29,16.55,3.91,0.48,8.40
13,-6,-668,27,-478,3921,0.85,-0.93,-44.25,0.27,-4.78,39.21,-6.58,-0.32,16.73,3.84,0.59,8.25
13,4,-634,21,-482,3870,0.84,-0.81,-43.70,0.21,-4.82,38.70,-6.59,-0.34,16.90,3.85,0.37,7.90
19,4,-621,7,-513,3867,0.87,-0.71,-43.12,0.07,-5.13,38.67,-6.60,-0.36,17.07,3.73,0.35,7.73
10,-9,-608,-9,-395,3964,0.85,-0.69,-42.51,-0.09,-3.95,39.64,-6.58,-0.38,17.24,3.91,0.62,7.57
6,-16,-595,-5,-375,3930,0.80,-0.72,-41.89,-0.05,-3.75,39.30,-6.56,-0.39,17.40,3.99,0.78,7.39
16,-10,-569,27,-538,3904,0.82,-0.71,-41.17,0.27,-5.38,39.04,-6.57,-0.41,17.57,3.79,0.67,7.11
11,-14,-538,2,-497,3875,0.80,-0.72,-40.34,0.02,-4.97,38.75,-6.59,-0.43,17.73,3.90,0.76,6.77
5,-10,-440,27,-513,3889,0.75,-0.71,-38.99,0.27,-5.13,38.89,-6.60,-0.45,17.88,4.05,0.69,5.82
8,-10,-415,-5,-514,3979,0.73,-0.70,-37.62,-0.05,-5.14,39.79,-6.61,-0.46,18.03,4.00,0.70,5.49
1,-2,-360,23,-411,3917,0.66,-0.64,-36.05,0.23,-4.11,39.17,-6.59,-0.47,18.17,4.15,0.53,4.88
0,-4,-350,-42,-445,3956,0.59,-0.60,-34.58,-0.42,-4.45,39.56,-6.58,-0.47,18.31,4.18,0.56,4.67
6,-7,-318,-67,-458,4010,0.57,-0.59,-33.07,-0.67,-4.58,40.10,-6.58,-0.47,18.44,4.06,0.61,4.27
-4,-20,-317,-92,-452,3943,0.49,-0.65,-31.69,-0.92,-4.52,39.43,-6.58,-0.47,18.57,4.29,0.89,4.14
5,-12,-303,0,-531,3924,0.47,-0.66,-30.37,0.00,-5.31,39.24,-6.59,-0.48,18.69,4.12,0.74,3.91
3,-17,-289,-8,-487,3908,0.44,-0.70,-29.10,-0.08,-4.87,39.08,-6.60,-0.48,18.80,4.17,0.85,3.68
2,-6,-248,-75,-547,4039,0.41,-0.66,-27.70,-0.75,-5.47,40.39,-6.61,-0.48,18.91,4.21,0.62,3.21
3,-8,-231,17,-457,3822,0.39,-0.65,-26.34,0.17,-4.57,38.22,-6.62,-0.48,19.02,4.20,0.66,2.95
5,-8,-260,-113,-552,3885,0.38,-0.63,-25.29,-1.13,-5.52,38.85,-6.62,-0.48,19.12,4.17,0.65,3.11
0,-7,-252,-195,-541,3912,0.34,-0.61,-24.30,-1.95,-5.41,39.12,-6.63,-0.48,19.21,4.28,0.62,2.95
5,-5,-217,-58,-471,3924,0.34,-0.58,-23.19,-0.58,-4.71,39.24,-6.63,-0.47,19.31,4.18,0.57,2.56
8,-2,-205,-13,-484,3884,0.35,-0.53,-22.12,-0.13,-4.84,38.84,-6.64,-0.47,19.39,4.12,0.50,2.37
6,-3,-190,-117,-507,3898,0.35,-0.50,-21.07,-1.17,-5.07,38.98,-6.64,-0.47,19.48,4.17,0.50,2.15
6,-2,-186,-118,-505,3921,0.36,-0.46,-20.10,-1.18,-5.05,39.21,-6.65,-0.46,19.56,4.17,0.47,2.03
1,-9,-172,-42,-450,3908,0.33,-0.47,-19.14,-0.42,-4.50,39.08,-6.64,-0.45,19.63,4.27,0.61,1.83
1,-2,-177,-46,-458,3858,0.30,-0.43,-18.30,-0.46,-4.58,38.58,-6.64,-0.44,19.70,4.28,0.45,1.80
5,6,-160,-87,-493,3873,0.30,-0.35,-17.45,-0.87,-4.93,38.73,-6.65,-0.44,19.77,4.20,0.26,1.58
5,-4,-139,-62,-469,3924,0.30,-0.34,-16.55,-0.62,-4.69,39.24,-6.65,-0.43,19.84,4.20,0.46,1.33
1,1,-155,-24,-432,3848,0.28,-0.30,-15.84,-0.24,-4.32,38.48,-6.64,-0.42,19.90,4.29,0.34,1.40
4,-2,-173,-5,-430,3932,0.27,-0.29,-15.31,-0.05,-4.30,39.32,-6.63,-0.41,19.96,4.22,0.39,1.51
2,-8,-225,-67,-452,3925,0.26,-0.31,-15.15,-0.67,-4.52,39.25,-6.63,-0.40,20.02,4.26,0.51,1.93
11,-13,-245,-78,-415,3897,0.30,-0.35,-15.13,-0.78,-4.15,38.97,-6.62,-0.39,20.08,4.06,0.62,2.10
3,-7,-250,-55,-409,3888,0.29,-0.36,-15.15,-0.55,-4.09,38.88,-6.61,-0.38,20.14,4.22,0.49,2.14
5,1,-250,-71,-388,3897,0.29,-0.32,-15.16,-0.71,-3.88,38.97,-6.60,-0.38,20.20,4.17,0.32,2.14
6,-11,-278,-84,-396,3880,0.30,-0.35,-15.34,-0.84,-3.96,38.80,-6.59,-0.37,20.26,4.14,0.56,2.38
10,-6,-280,-44,-441,3932,0.33,-0.36,-15.51,-0.44,-4.41,39.32,-6.58,-0.36,20.33,4.05,0.46,2.41
8,-13,-274,12,-451,3942,0.34,-0.40,-15.63,0.12,-4.51,39.42,-6.57,-0.35,20.39,4.08,0.61,2.37
9,-1,-261,-1,-458,3884,0.36,-0.37,-15.66,-0.01,-4.58,38.84,-6.58,-0.34,20.45,4.06,0.35,2.25
4,0,-260,-34,-518,3921,0.35,-0.33,-15.68,-0.34,-5.18,39.21,-6.59,-0.34,20.51,4.17,0.31,2.24
5,-13,-266,-17,-514,3893,0.35,-0.38,-15.73,-0.17,-5.14,38.93,-6.61,-0.34,20.57,4.16,0.59,2.30
3,-21,-306,-72,-472,3874,0.33,-0.47,-16.03,-0.72,-4.72,38.74,-6.61,-0.33,20.64,4.21,0.77,2.65
6,-21,-308,-60,-398,3931,0.33,-0.55,-16.30,-0.60,-3.98,39.31,-6.60,-0.32,20.70,4.14,0.79,2.69
3,-14,-330,-62,-482,3940,0.32,-0.58,-16.69,-0.62,-4.82,39.40,-6.60,-0.32,20.77,4.21,0.65,2.90
10,-13,-350,-35,-485,3852,0.35,-0.60,-17.15,-0.35,-4.85,38.52,-6.61,-0.31,20.84,4.06,0.63,3.11
1,-14,-406,-90,-295,3946,0.32,-0.62,-17.91,-0.90,-2.95,39.46,-6.59,-0.31,20.91,4.24,0.66,3.64
-7,-18,-422,-75,-328,3913,0.25,-0.67,-18.70,-0.75,-3.28,39.13,-6.58,-0.31,20.98,4.42,0.76,3.83
14,-15,-528,-12,-419,3913,0.31,-0.70,-20.05,-0.12,-4.19,39.13,-6.56,-0.31,21.06,3.96,0.70,4.84
7,-16,-555,0,-439,3981,0.32,-0.72,-21.43,0.00,-4.39,39.81,-6.55,-0.31,21.14,4.09,0.73,5.17
5,-24,-588,85,-480,3920,0.32,-0.80,-22.87,0.85,-4.80,39.20,-6.55,-0.34,21.24,4.14,0.93,5.56
17,-6,-599,29,-465,3800,0.39,-0.76,-24.24,0.29,-4.65,38.00,-6.57,-0.36,21.33,3.88,0.56,5.76
21,-2,-588,-104,-540,4122,0.48,-0.69,-25.40,-1.04,-5.40,41.22,-6.58,-0.36,21.43,3.78,0.46,5.76
8,-18,-570,-28,-502,4002,0.48,-0.73,-26.34,-0.28,-5.02,40.02,-6.58,-0.36,21.54,4.05,0.80,5.67
-23,-45,-371,-236,-669,4170,0.29,-0.93,-25.97,-2.36,-6.69,41.70,-6.59,-0.36,21.64,4.74,1.41,3.95
-58,-99,-298,-218,-701,4248,-0.09,-1.44,-25.19,-2.18,-7.01,42.48,-6.60,-0.36,21.74,5.56,2.64,3.26
93,-55,-217,443,-419,3014,0.48,-1.64,-23.99,4.43,-4.19,30.14,-6.60,-0.40,21.83,2.34,1.83,2.47
92,100,-289,377,-221,3267,1.00,-0.86,-23.36,3.77,-2.21,32.67,-6.59,-0.43,21.92,2.21,-1.52,3.03
20,48,-430,92,-202,3603,1.02,-0.48,-23.64,0.92,-2.02,36.03,-6.57,-0.45,22.02,3.65,-0.55,4.24
20,17,-470,62,-400,4246,1.04,-0.33,-24.15,0.62,-4.00,42.46,-6.55,-0.46,22.11,3.63,0.05,4.61
14,-18,-608,299,-471,3966,1.02,-0.41,-25.44,2.99,-4.71,39.66,-6.54,-0.49,22.22,3.76,0.80,5.88
16,-21,-636,297,-324,3877,1.02,-0.49,-26.78,2.97,-3.24,38.77,-6.53,-0.53,22.32,3.71,0.91,6.22
13,-13,-657,-55,-295,3952,0.99,-0.52,-28.11,-0.55,-2.95,39.52,-6.51,-0.53,22.43,3.76,0.76,6.50
13,-10,-656,-216,-345,3937,0.97,-0.53,-29.30,-2.16,-3.45,39.37,-6.50,-0.53,22.55,3.76,0.70,6.58
18,-23,-615,-375,-458,3953,0.99,-0.62,-30.12,-3.75,-4.58,39.53,-6.49,-0.53,22.67,3.65,0.99,6.29
17,-10,-598,-377,-495,3864,0.99,-0.62,-30.76,-3.77,-4.95,38.64,-6.49,-0.53,22.79,3.67,0.72,6.19
-7,-29,-561,-223,-438,3884,0.85,-0.73,-31.10,-2.23,-4.38,38.84,-6.49,-0.52,22.91,4.19,1.14,5.90
5,-20,-539,-209,-430,3899,0.80,-0.78,-31.28,-2.09,-4.30,38.99,-6.48,-0.52,23.04,3.96,0.97,5.72
5,-13,-441,-239,-437,3918,0.75,-0.78,-30.84,-2.39,-4.37,39.18,-6.48,-0.52,23.16,3.97,0.82,4.85
6,-15,-390,-230,-463,3898,0.71,-0.80,-30.14,-2.30,-4.63,38.98,-6.47,-0.52,23.28,3.96,0.87,4.35
5,-8,-321,-71,-546,3900,0.67,-0.77,-29.08,-0.71,-5.46,39.00,-6.48,-0.52,23.40,4.00,0.72,3.67
-5,-11,-306,-54,-582,3900,0.57,-0.76,-28.04,-0.54,-5.82,39.00,-6.50,-0.53,23.51,4.23,0.78,3.46
1,-3,-275,-69,-520,3900,0.52,-0.70,-26.91,-0.69,-5.20,39.00,-6.50,-0.53,23.61,4.13,0.60,3.10
14,0,-269,-27,-527,3962,0.55,-0.63,-25.86,-0.27,-5.27,39.62,-6.51,-0.53,23.72,3.86,0.52,2.95
6,2,-234,74,-578,3957,0.53,-0.55,-24.70,0.74,-5.78,39.57,-6.53,-0.55,23.81,4.04,0.47,2.56
12,8,-224,41,-589,3865,0.55,-0.45,-23.60,0.41,-5.89,38.65,-6.54,-0.56,23.91,3.92,0.33,2.38
10,4,-205,-9,-562,3936,0.56,-0.38,-22.49,-0.09,-5.62,39.36,-6.56,-0.57,24.00,3.97,0.40,2.12
-1,10,-208,-57,-581,3871,0.50,-0.28,-21.51,-0.57,-5.81,38.71,-6.57,-0.57,24.08,4.22,0.25,2.06
6,2,-236,-32,-424,3934,0.48,-0.24,-20.80,-0.32,-4.24,39.34,-6.56,-0.56,24.16,4.08,0.40,2.24
5,2,-239,11,-448,3895,0.47,-0.20,-20.18,0.11,-4.48,38.95,-6.56,-0.55,24.24,4.10,0.38,2.21
2,1,-251,-44,-432,3935,0.43,-0.18,-19.69,-0.44,-4.32,39.35,-6.55,-0.55,24.32,4.16,0.39,2.26
8,-4,-248,-32,-385,3946,0.44,-0.18,-19.23,-0.32,-3.85,39.46,-6.53,-0.54,24.40,4.03,0.49,2.20
5,-7,-239,-61,-446,3933,0.42,-0.21,-18.77,-0.61,-4.46,39.33,-6.53,-0.53,24.47,4.09,0.55,2.08
9,-5,-239,-53,-415,3897,0.44,-0.22,-18.35,-0.53,-4.15,38.97,-6.52,-0.52,24.55,4.00,0.51,2.04
1,-5,-235,-105,-367,3905,0.40,-0.23,-17.95,-1.05,-3.67,39.05,-6.51,-0.52,24.62,4.17,0.51,1.97
4,-8,-235,-121,-355,3974,0.38,-0.25,-17.59,-1.21,-3.55,39.74,-6.50,-0.51,24.69,4.10,0.57,1.94
2,-8,-213,-43,-459,3947,0.36,-0.28,-17.13,-0.43,-4.59,39.47,-6.50,-0.50,24.75,4.15,0.57,1.71
5,-9,-216,-8,-444,3862,0.35,-0.30,-16.73,-0.08,-4.44,38.62,-6.50,-0.49,24.82,4.09,0.59,1.70
5,-8,-211,43,-394,3881,0.35,-0.32,-16.35,0.43,-3.94,38.81,-6.48,-0.50,24.89,4.08,0.58,1.62
4,-5,-208,39,-460,3958,0.34,-0.32,-15.98,0.39,-4.60,39.58,-6.50,-0.52,24.95,4.11,0.53,1.56
5,-1,-196,-3,-479,3913,0.33,-0.29,-15.58,-0.03,-4.79,39.13,-6.51,-0.51,25.01,4.10,0.44,1.42
3,-3,-190,-4,-448,3923,0.32,-0.28,-15.18,-0.04,-4.48,39.23,-6.50,-0.50,25.07,4.14,0.47,1.34
2,0,-196,-23,-434,3919,0.30,-0.26,-14.86,-0.23,-4.34,39.19,-6.50,-0.49,25.13,4.17,0.40,1.36
3,-3,-200,-13,-397,3909,0.29,-0.25,-14.59,-0.13,-3.97,39.09,-6.48,-0.49,25.19,4.14,0.45,1.37
10,-6,-205,-42,-401,3897,0.32,-0.26,-14.38,-0.42,-4.01,38.97,-6.47,-0.48,25.24,3.98,0.51,1.39
3,-1,-209,-66,-474,3894,0.31,-0.24,-14.22,-0.66,-4.74,38.94,-6.48,-0.47,25.30,4.13,0.40,1.41
9,7,-267,432,-377,3857,0.33,-0.17,-14.43,4.32,-3.77,38.57,-6.47,-0.49,25.36,4.00,0.23,1.91
7,-2,-303,374,-423,3943,0.34,-0.17,-14.83,3.74,-4.23,39.43,-6.47,-0.52,25.42,4.03,0.43,2.25
13,1,-394,10,-356,3930,0.39,-0.15,-15.75,0.10,-3.56,39.30,-6.45,-0.52,25.48,3.89,0.36,3.09
6,-8,-424,-95,-401,3873,0.38,-0.18,-16.76,-0.95,-4.01,38.73,-6.44,-0.51,25.55,4.03,0.55,3.42
20,-4,-410,-320,-449,3837,0.47,-0.19,-17.59,-3.20,-4.49,38.37,-6.44,-0.50,25.62,3.72,0.46,3.36
-7,-14,-386,-310,-516,4043,0.38,-0.25,-18.18,-3.10,-5.16,40.43,-6.44,-0.50,25.69,4.29,0.68,3.20
8,-1,-306,-304,-467,3958,0.39,-0.23,-18.23,-3.04,-4.67,39.58,-6.44,-0.49,25.76,3.98,0.40,2.53
-2,-9,-283,-302,-553,3914,0.34,-0.27,-18.13,-3.02,-5.53,39.14,-6.44,-0.48,25.83,4.20,0.57,2.32
7,-7,-204,-181,-398,3920,0.35,-0.28,-17.57,-1.81,-3.98,39.20,-6.44,-0.47,25.90,4.01,0.53,1.60
1,0,-158,-180,-454,3880,0.32,-0.25,-16.77,-1.80,-4.54,38.80,-6.44,-0.46,25.97,4.14,0.37,1.14
-1,0,-30,-60,-477,3911,0.28,-0.23,-15.28,-0.60,-4.77,39.11,-6.44,-0.45,26.03,4.20,0.36,-0.07
-1,-1,-19,-45,-457,3928,0.25,-0.21,-13.87,-0.45,-4.57,39.28,-6.44,-0.44,26.08,4.21,0.37,-0.28
-1,-1,-1,-47,-431,3911,0.22,-0.20,-12.49,-0.47,-4.31,39.11,-6.44,-0.43,26.13,4.21,0.36,-0.55
0,1,-4,-44,-442,3895,0.19,-0.17,-11.26,-0.44,-4.42,38.95,-6.44,-0.41,26.18,4.20,0.30,-0.62
2,2,5,-44,-496,3915,0.19,-0.14,-10.11,-0.44,-4.96,39.15,-6.45,-0.40,26.22,4.17,0.26,-0.80
-5,0,0,-62,-457,3918,0.14,-0.13,-9.09,-0.62,-4.57,39.18,-6.45,-0.39,26.26,4.32,0.29,-0.84
-3,0,2,-72,-454,3926,0.11,-0.11,-8.17,-0.72,-4.54,39.26,-6.45,-0.38,26.29,4.29,0.28,-0.93
-2,2,-2,-91,-431,3938,0.08,-0.09,-7.37,-0.91,-4.31,39.38,-6.45,-0.36,26.32,4.28,0.22,-0.96
-1,0,-28,-16,-463,3904,0.07,-0.08,-6.80,-0.16,-4.63,39.04,-6.46,-0.35,26.34,4.26,0.25,-0.79
4,-1,-34,16,-451,3889,0.09,-0.08,-6.33,0.16,-4.51,38.89,-6.47,-0.34,26.37,4.17,0.27,-0.78
1,-1,26,-109,-255,3973,0.08,-0.08,-5.54,-1.09,-2.55,39.73,-6.46,-0.33,26.39,4.22,0.26,-1.35
-4,-8,16,-59,-232,3997,0.05,-0.12,-4.89,-0.59,-2.32,39.97,-6.44,-0.33,26.41,4.32,0.41,-1.32
-2,4,-8,-172,-249,3881,0.03,-0.08,-4.45,-1.72,-2.49,38.81,-6.43,-0.32,26.43,4.27,0.15,-1.16
1,-4,-57,-161,-343,3917,0.04,-0.10,-4.35,-1.61,-3.43,39.17,-6.42,-0.31,26.45,4.21,0.31,-0.75
8,3,-174,-138,-493,3840,0.08,-0.07,-4.98,-1.38,-4.93,38.40,-6.42,-0.29,26.47,4.06,0.15,0.29
-3,-12,-202,-152,-589,3870,0.05,-0.14,-5.71,-1.52,-5.89,38.70,-6.44,-0.28,26.49,4.29,0.47,0.59
6,-2,-258,-62,-602,3920,0.09,-0.14,-6.71,-0.62,-6.02,39.20,-6.45,-0.28,26.51,4.11,0.26,1.14
5,-10,-263,-45,-580,3901,0.11,-0.18,-7.65,-0.45,-5.80,39.01,-6.47,-0.27,26.54,4.14,0.43,1.26
2,-2,-257,8,-456,3877,0.11,-0.18,-8.45,0.08,-4.56,38.77,-6.48,-0.27,26.58,4.21,0.27,1.27
4,-8,-243,45,-479,3920,0.12,-0.21,-9.09,0.45,-4.79,39.20,-6.50,-0.28,26.61,4.17,0.41,1.20
7,-4,-208,49,-529,3949,0.15,-0.21,-9.45,0.49,-5.29,39.49,-6.51,-0.30,26.65,4.11,0.33,0.93
14,1,-187,45,-543,3907,0.22,-0.18,-9.64,0.45,-5.43,39.07,-6.53,-0.30,26.69,3.96,0.23,0.77
-2,-7,-185,142,-544,3904,0.19,-0.21,-9.81,1.42,-5.44,39.04,-6.54,-0.32,26.73,4.31,0.41,0.76
1,-7,-207,52,-417,3897,0.18,-0.23,-10.09,0.52,-4.17,38.97,-6.53,-0.34,26.77,4.24,0.43,0.97
5,-4,-180,-58,-459,3891,0.19,-0.23,-10.18,-0.58,-4.59,38.91,-6.53,-0.33,26.81,4.16,0.36,0.74
0,-7,-171,-27,-535,3926,0.17,-0.25,-10.20,-0.27,-5.35,39.26,-6.54,-0.33,26.85,4.27,0.43,0.67
6,-5,-194,-126,-309,3903,0.19,-0.26,-10.37,-1.26,-3.09,39.03,-6.53,-0.32,26.89,4.14,0.38,0.87
6,-11,-164,-131,-365,3903,0.21,-0.30,-10.33,-1.31,-3.65,39.03,-6.52,-0.31,26.93,4.12,0.51,0.61
0,2,-145,-54,-467,3869,0.19,-0.26,-10.18,-0.54,-4.67,38.69,-6.52,-0.30,26.97,4.26,0.23,0.44
0,-4,-150,-38,-424,3949,0.17,-0.25,-10.08,-0.38,-4.24,39.49,-6.52,-0.29,27.01,4.25,0.34,0.47
5,-3,-189,-11,-395,3886,0.18,-0.25,-10.22,-0.11,-3.95,38.86,-6.50,-0.28,27.05,4.14,0.31,0.81
4,-5,-187,-19,-417,3903,0.19,-0.25,-10.34,-0.19,-4.17,39.03,-6.49,-0.27,27.09,4.15,0.35,0.80
4,0,-151,-92,-456,3914,0.19,-0.23,-10.23,-0.92,-4.56,39.14,-6.49,-0.26,27.13,4.15,0.23,0.48
1,-6,-146,-35,-494,3928,0.18,-0.24,-10.10,-0.35,-4.94,39.28,-6.50,-0.25,27.17,4.22,0.35,0.43
3,-4,-171,-53,-445,3903,0.18,-0.24,-10.13,-0.53,-4.45,39.03,-6.50,-0.24,27.21,4.18,0.31,0.64
5,-5,-177,-49,-458,3946,0.19,-0.25,-10.20,-0.49,-4.58,39.46,-6.50,-0.23,27.25,4.14,0.32,0.69
3,-5,-186,-100,-459,3917,0.19,-0.25,-10.31,-1.00,-4.59,39.17,-6.50,-0.21,27.29,4.18,0.31,0.77
4,-6,-180,-81,-438,3918,0.20,-0.27,-10.38,-0.81,-4.38,39.18,-6.50,-0.20,27.34,4.15,0.33,0.73
-5,-5,-177,-1,-480,3925,0.15,-0.27,-10.42,-0.01,-4.80,39.25,-6.51,-0.20,27.38,4.36,0.31,0.70
-2,-8,-196,30,-494,3875,0.12,-0.29,-10.57,0.30,-4.94,38.75,-6.53,-0.21,27.42,4.32,0.38,0.87
7,-7,-206,41,-409,3911,0.15,-0.30,-10.77,0.41,-4.09,39.11,-6.52,-0.23,27.46,4.12,0.38,0.97
4,-8,-211,42,-446,3905,0.16,-0.32,-10.98,0.42,-4.46,39.05,-6.52,-0.25,27.51,4.17,0.42,1.03
7,-10,-242,-21,-190,3992,0.19,-0.35,-11.36,-0.21,-1.90,39.92,-6.50,-0.26,27.55,4.09,0.47,1.32
1,-8,-231,51,-247,3915,0.17,-0.37,-11.63,0.51,-2.47,39.15,-6.48,-0.27,27.60,4.21,0.44,1.24
8,-14,-287,-237,-609,4016,0.21,-0.41,-12.22,-2.37,-6.09,40.16,-6.49,-0.26,27.64,4.06,0.57,1.76
3,-16,-266,-230,-499,3962,0.20,-0.47,-12.62,-2.30,-4.99,39.62,-6.49,-0.25,27.69,4.17,0.62,1.62
6,-16,-218,20,-691,3868,0.22,-0.52,-12.69,0.20,-6.91,38.68,-6.51,-0.25,27.74,4.11,0.64,1.21
9,-14,-236,-3,-498,3883,0.25,-0.55,-12.86,-0.03,-4.98,38.83,-6.52,-0.26,27.80,4.05,0.61,1.37
-4,-2,-215,119,-356,3944,0.20,-0.51,-12.89,1.19,-3.56,39.44,-6.51,-0.28,27.85,4.32,0.36,1.20
0,-5,-248,196,-332,3980,0.18,-0.49,-13.11,1.96,-3.32,39.80,-6.50,-0.30,27.90,4.24,0.43,1.49
-6,0,-325,57,-151,3969,0.13,-0.44,-13.78,0.57,-1.51,39.69,-6.48,-0.31,27.95,4.36,0.33,2.19
3,-4,-351,77,-158,3915,0.13,-0.42,-14.54,0.77,-1.58,39.15,-6.46,-0.32,28.01,4.17,0.41,2.47
9,-9,-447,-97,-383,3939,0.17,-0.43,-15.82,-0.97,-3.83,39.39,-6.45,-0.32,28.07,4.03,0.51,3.39
5,-12,-425,-85,-410,3914,0.19,-0.46,-16.83,-0.85,-4.10,39.14,-6.44,-0.31,28.14,4.10,0.57,3.28
16,1,-391,-168,-517,3816,0.27,-0.41,-17.53,-1.68,-5.17,38.16,-6.45,-0.30,28.21,3.86,0.29,3.04
11,-12,-379,-133,-597,3933,0.31,-0.44,-18.09,-1.33,-5.97,39.33,-6.46,-0.30,28.28,3.96,0.56,2.98
1,-5,-361,-69,-571,3951,0.28,-0.43,-18.48,-0.69,-5.71,39.51,-6.47,-0.30,28.35,4.17,0.41,2.86
0,0,-364,-59,-508,3873,0.25,-0.39,-18.85,-0.59,-5.08,38.73,-6.48,-0.29,28.43,4.21,0.30,2.91
9,-7,-353,-151,-523,3902,0.28,-0.39,-19.12,-1.51,-5.23,39.02,-6.49,-0.29,28.51,4.02,0.44,2.83
5,-8,-340,-192,-581,3904,0.29,-0.40,-19.28,-1.92,-5.81,39.04,-6.50,-0.28,28.58,4.11,0.46,2.73
6,-10,-325,-180,-741,3924,0.29,-0.42,-19.34,-1.80,-7.41,39.24,-6.51,-0.28,28.66,4.10,0.50,2.60
7,-18,-318,-128,-691,3920,0.31,-0.49,-19.34,-1.28,-6.91,39.20,-6.53,-0.28,28.73,4.08,0.69,2.54
9,-8,-281,-15,-418,3855,0.33,-0.49,-19.12,-0.15,-4.18,38.55,-6.51,-0.28,28.81,4.03,0.48,2.20
6,-15,-265,-18,-447,4004,0.33,-0.53,-18.83,-0.18,-4.47,40.04,-6.51,-0.27,28.89,4.08,0.63,2.04
5,-8,-271,-33,-268,3983,0.33,-0.53,-18.60,-0.33,-2.68,39.83,-6.49,-0.28,28.96,4.09,0.49,2.07
0,-5,-265,-35,-365,3939,0.30,-0.51,-18.35,-0.35,-3.65,39.39,-6.47,-0.28,29.03,4.19,0.42,1.99
4,-6,-295,-36,-290,3917,0.29,-0.49,-18.32,-0.36,-2.90,39.17,-6.45,-0.28,29.10,4.10,0.44,2.24
2,-2,-291,-32,-329,3966,0.28,-0.45,-18.26,-0.32,-3.29,39.66,-6.43,-0.28,29.18,4.13,0.35,2.20
9,7,-332,-11,-267,3996,0.30,-0.37,-18.46,-0.11,-2.67,39.96,-6.41,-0.29,29.25,3.97,0.15,2.56
13,-6,-353,-12,-240,3937,0.35,-0.37,-18.77,-0.12,-2.40,39.37,-6.40,-0.30,29.32,3.86,0.42,2.75
11,3,-411,-201,-451,3939,0.38,-0.31,-19.40,-2.01,-4.51,39.39,-6.39,-0.29,29.40,3.89,0.21,3.29
7,-12,-403,-126,-443,4023,0.39,-0.35,-19.92,-1.26,-4.43,40.23,-6.39,-0.28,29.48,3.97,0.53,3.26
15,-9,-445,-28,-449,3937,0.44,-0.37,-20.64,-0.28,-4.49,39.37,-6.39,-0.27,29.56,3.79,0.46,3.67
9,-7,-460,-149,-389,3911,0.45,-0.38,-21.38,-1.49,-3.89,39.11,-6.38,-0.27,29.65,3.91,0.42,3.85
5,-2,-448,44,-394,3889,0.44,-0.35,-21.98,0.44,-3.94,38.89,-6.37,-0.29,29.73,3.98,0.33,3.79
6,1,-453,56,-515,3940,0.43,-0.31,-22.54,0.56,-5.15,39.40,-6.38,-0.31,29.82,3.97,0.27,3.88
15,-13,-493,-47,-426,3873,0.48,-0.36,-23.30,-0.47,-4.26,38.73,-6.38,-0.30,29.92,3.77,0.56,4.27
14,-11,-496,-75,-375,3876,0.52,-0.39,-23.99,-0.75,-3.75,38.76,-6.36,-0.30,30.01,3.78,0.53,4.35
8,-7,-518,11,-329,3910,0.51,-0.39,-24.75,0.11,-3.29,39.10,-6.34,-0.31,30.11,3.88,0.45,4.59
13,-12,-535,-17,-354,3922,0.54,-0.43,-25.54,-0.17,-3.54,39.22,-6.32,-0.31,30.21,3.76,0.57,4.79
14,-19,-592,-110,-434,3880,0.57,-0.50,-26.60,-1.10,-4.34,38.80,-6.32,-0.31,30.32,3.73,0.73,5.35
7,-3,-596,-199,-443,3880,0.56,-0.47,-27.57,-1.99,-4.43,38.80,-6.32,-0.30,30.43,3.88,0.39,5.46
3,-15,-542,28,-362,3932,0.52,-0.51,-28.12,0.28,-3.62,39.32,-6.30,-0.32,30.54,3.96,0.66,5.04
4,-7,-545,32,-441,3811,0.49,-0.51,-28.63,0.32,-4.41,38.11,-6.31,-0.34,30.65,3.95,0.51,5.10
19,-12,-606,-211,-450,4001,0.56,-0.53,-29.47,-2.11,-4.50,40.01,-6.31,-0.34,30.77,3.63,0.61,5.68
5,-21,-594,-193,-461,3954,0.53,-0.60,-30.14,-1.93,-4.61,39.54,-6.31,-0.34,30.89,3.92,0.81,5.62
12,-11,-536,-99,-311,3890,0.55,-0.61,-30.40,-0.99,-3.11,38.90,-6.29,-0.34,31.01,3.76,0.61,5.15
8,-3,-514,-83,-420,3939,0.55,-0.57,-30.49,-0.83,-4.20,39.39,-6.29,-0.34,31.13,3.84,0.44,4.96
19,-11,-550,41,-406,3937,0.61,-0.58,-30.80,0.41,-4.06,39.37,-6.27,-0.36,31.25,3.59,0.62,5.28
15,-6,-535,-61,-293,3938,0.64,-0.56,-30.98,-0.61,-2.93,39.38,-6.25,-0.37,31.38,3.65,0.52,5.16
17,-8,-512,-177,-553,3875,0.68,-0.55,-31.01,-1.77,-5.53,38.75,-6.26,-0.37,31.50,3.60,0.56,4.96
12,-13,-520,-168,-638,3905,0.68,-0.57,-31.08,-1.68,-6.38,39.05,-6.27,-0.37,31.62,3.71,0.67,5.03
6,-19,-513,-258,-477,3806,0.65,-0.63,-31.10,-2.58,-4.77,38.06,-6.27,-0.37,31.74,3.84,0.80,4.96
-6,-33,-473,-204,-587,3989,0.55,-0.77,-30.88,-2.04,-5.87,39.89,-6.28,-0.37,31.87,4.11,1.13,4.60
8,-18,-461,-119,-523,3946,0.54,-0.80,-30.60,-1.19,-5.23,39.46,-6.28,-0.37,31.99,3.83,0.83,4.47
2,-12,-448,-79,-501,3824,0.50,-0.80,-30.27,-0.79,-5.01,38.24,-6.29,-0.37,32.11,3.97,0.71,4.32
9,-5,-398,-51,-446,3847,0.51,-0.75,-29.67,-0.51,-4.46,38.47,-6.29,-0.37,32.23,3.83,0.55,3.85
1,-15,-395,-39,-442,3900,0.46,-0.76,-29.12,-0.39,-4.42,39.00,-6.29,-0.37,32.34,4.01,0.76,3.77
6,-11,-351,66,-343,3948,0.45,-0.75,-28.35,0.66,-3.43,39.48,-6.27,-0.39,32.45,3.90,0.69,3.33
9,-4,-346,42,-399,3894,0.46,-0.70,-27.62,0.42,-3.99,38.94,-6.26,-0.42,32.56,3.82,0.55,3.22
7,-12,-370,-149,-361,3898,0.46,-0.71,-27.12,-1.49,-3.61,38.98,-6.25,-0.41,32.67,3.85,0.71,3.37
6,-10,-372,-127,-377,3893,0.45,-0.70,-26.67,-1.27,-3.77,38.93,-6.24,-0.41,32.78,3.87,0.66,3.35
7,-5,-344,-160,-465,3917,0.45,-0.66,-26.10,-1.60,-4.65,39.17,-6.24,-0.41,32.88,3.85,0.55,3.06
0,-10,-349,-85,-421,3882,0.40,-0.65,-25.62,-0.85,-4.21,38.82,-6.24,-0.40,32.98,4.01,0.65,3.06
8,-5,-452,-16,-285,3905,0.41,-0.62,-25.82,-0.16,-2.85,39.05,-6.22,-0.41,33.08,3.83,0.54,3.94
9,-17,-467,81,-158,4013,0.42,-0.66,-26.09,0.81,-1.58,40.13,-6.20,-0.43,33.19,3.79,0.81,4.08
7,-21,-388,140,-506,3996,0.43,-0.72,-25.84,1.40,-5.06,39.96,-6.20,-0.46,33.29,3.84,0.93,3.39
-2,-13,-345,167,-512,3774,0.37,-0.73,-25.36,1.67,-5.12,37.74,-6.21,-0.49,33.39,4.04,0.78,2.98
-4,-13,-315,-50,-486,3883,0.31,-0.74,-24.75,-0.50,-4.86,38.83,-6.22,-0.49,33.49,4.10,0.79,2.67
-6,-18,-323,-43,-428,3839,0.24,-0.77,-24.24,-0.43,-4.28,38.39,-6.22,-0.48,33.59,4.16,0.89,2.69
-1,-22,-314,-76,-395,3908,0.21,-0.83,-23.74,-0.76,-3.95,39.08,-6.21,-0.48,33.68,4.06,0.99,2.56
14,0,-301,-185,-621,4039,0.28,-0.75,-23.20,-1.85,-6.21,40.39,-6.22,-0.48,33.77,3.75,0.52,2.41
0,-8,-297,64,-332,3951,0.25,-0.72,-22.69,0.64,-3.32,39.51,-6.21,-0.49,33.86,4.03,0.68,2.32
4,-4,-289,6,-270,3842,0.25,-0.67,-22.18,0.06,-2.70,38.42,-6.19,-0.50,33.95,3.93,0.60,2.21
6,6,-306,21,-329,3885,0.26,-0.57,-21.83,0.21,-3.29,38.85,-6.17,-0.51,34.04,3.88,0.37,2.32
14,5,-327,-87,-317,3878,0.32,-0.48,-21.64,-0.87,-3.17,38.78,-6.15,-0.51,34.12,3.69,0.37,2.48
-1,-6,-394,-154,-470,3791,0.28,-0.47,-21.88,-1.54,-4.70,37.91,-6.16,-0.50,34.21,4.01,0.58,3.06
7,-14,-422,-100,-413,3891,0.30,-0.51,-22.27,-1.00,-4.13,38.91,-6.15,-0.50,34.30,3.84,0.75,3.32
14,-6,-365,9,-560,3960,0.35,-0.49,-22.27,0.09,-5.60,39.60,-6.17,-0.50,34.39,3.69,0.59,2.84
15,-6,-373,3,-553,3943,0.41,-0.48,-22.32,0.03,-5.53,39.43,-6.18,-0.51,34.47,3.67,0.59,2.90
19,-6,-418,-236,-330,3978,0.48,-0.47,-22.63,-2.36,-3.30,39.78,-6.18,-0.51,34.56,3.56,0.58,3.30
12,-10,-423,-200,-310,3962,0.51,-0.48,-22.95,-2.00,-3.10,39.62,-6.16,-0.50,34.65,3.69,0.67,3.37
0,-24,-555,-50,-236,3907,0.46,-0.58,-24.04,-0.50,-2.36,39.07,-6.14,-0.51,34.75,3.93,0.98,4.57
12,-21,-621,22,-142,3939,0.48,-0.65,-25.43,0.22,-1.42,39.39,-6.12,-0.52,34.85,3.67,0.95,5.23
