gyroADC_X,gyroADC_Y,gyroADC_Z,accADC_X,accADC_Y,accADC_Z,GyroX,GyroY,GyroZ,AccX,AccY,AccZ,roll_IMU,pitch_IMU,yaw_IMU,roll_PID,pitch_PID,yaw_PID
3,7,2,-13,-313,3930,0.13,0.23,-1.54,-0.13,-3.13,39.30,-4.19,-0.70,81.00,2.66,0.26,-2.49
6,8,5,15,-337,3969,0.16,0.25,-1.36,0.15,-3.37,39.69,-4.20,-0.69,81.01,2.61,0.23,-2.51
8,6,10,-12,-306,3929,0.19,0.27,-1.16,-0.12,-3.06,39.29,-4.20,-0.67,81.01,2.56,0.25,-2.55
8,7,9,-4,-299,3904,0.22,0.28,-0.99,-0.04,-2.99,39.04,-4.21,-0.66,81.02,2.55,0.21,-2.54
-1,6,7,43,-267,3947,0.19,0.29,-0.85,0.43,-2.67,39.47,-4.19,-0.65,81.02,2.73,0.23,-2.51
-4,5,8,-17,-294,3884,0.15,0.29,-0.72,-0.17,-2.94,38.84,-4.19,-0.63,81.02,2.81,0.24,-2.52
-2,5,11,-30,-278,3908,0.12,0.29,-0.58,-0.30,-2.78,39.08,-4.19,-0.61,81.03,2.77,0.22,-2.54
1,11,11,-52,-317,3922,0.12,0.33,-0.45,-0.52,-3.17,39.22,-4.19,-0.60,81.03,2.72,0.08,-2.54
2,11,11,-46,-331,3937,0.12,0.37,-0.34,-0.46,-3.31,39.37,-4.20,-0.58,81.03,2.70,0.06,-2.53
0,5,12,-43,-318,3912,0.10,0.36,-0.23,-0.43,-3.18,39.12,-4.21,-0.56,81.03,2.75,0.17,-2.54
1,5,10,-37,-319,3918,0.10,0.35,-0.15,-0.37,-3.19,39.18,-4.21,-0.54,81.03,2.73,0.16,-2.52
4,7,2,-18,-292,3893,0.11,0.36,-0.12,-0.18,-2.92,38.93,-4.21,-0.52,81.03,2.67,0.10,-2.45
2,7,-1,-1,-281,3902,0.12,0.37,-0.12,-0.01,-2.81,39.02,-4.21,-0.50,81.03,2.71,0.09,-2.43
2,9,-5,7,-313,3947,0.12,0.39,-0.13,0.07,-3.13,39.47,-4.22,-0.49,81.03,2.71,0.03,-2.39
3,9,-2,-1,-320,3938,0.12,0.40,-0.13,-0.01,-3.20,39.38,-4.23,-0.47,81.03,2.70,0.02,-2.42
2,6,5,-9,-320,3921,0.12,0.40,-0.09,-0.09,-3.20,39.21,-4.24,-0.45,81.03,2.73,0.07,-2.48
2,4,6,-11,-325,3927,0.12,0.38,-0.04,-0.11,-3.25,39.27,-4.25,-0.44,81.03,2.73,0.10,-2.48
1,3,4,-52,-324,3916,0.12,0.36,-0.01,-0.52,-3.24,39.16,-4.26,-0.42,81.03,2.76,0.12,-2.47
0,-12,-6,-20,-222,3946,0.10,0.25,-0.05,-0.20,-2.22,39.46,-4.24,-0.41,81.03,2.77,0.44,-2.38
-4,-6,-40,-44,-389,3938,0.07,0.19,-0.29,-0.44,-3.89,39.38,-4.26,-0.40,81.04,2.87,0.33,-2.10
-3,-3,-32,-64,-385,3930,0.04,0.15,-0.46,-0.64,-3.85,39.30,-4.27,-0.38,81.04,2.87,0.27,-2.17
0,-1,-9,-2,-310,3910,0.04,0.13,-0.46,-0.02,-3.10,39.10,-4.28,-0.37,81.04,2.81,0.23,-2.37
0,-2,-6,-33,-317,3912,0.04,0.11,-0.45,-0.33,-3.17,39.12,-4.29,-0.35,81.04,2.82,0.24,-2.39
2,-1,-9,-42,-337,3924,0.04,0.09,-0.46,-0.42,-3.37,39.24,-4.30,-0.34,81.04,2.78,0.22,-2.37
2,-3,-9,-10,-321,3939,0.05,0.06,-0.47,-0.10,-3.21,39.39,-4.31,-0.32,81.04,2.79,0.26,-2.37
-1,-3,-6,-75,-340,3943,0.04,0.04,-0.46,-0.75,-3.40,39.43,-4.32,-0.30,81.05,2.86,0.25,-2.39
-2,-3,-6,-69,-339,3931,0.02,0.02,-0.45,-0.69,-3.39,39.31,-4.32,-0.29,81.05,2.89,0.25,-2.39
-4,-5,-7,5,-336,3928,-0.00,-0.02,-0.45,0.05,-3.36,39.28,-4.34,-0.28,81.05,2.95,0.29,-2.39
-5,-6,-8,-6,-322,3927,-0.03,-0.05,-0.45,-0.06,-3.22,39.27,-4.35,-0.27,81.05,2.98,0.31,-2.38
-1,-3,-12,-42,-289,3910,-0.04,-0.06,-0.48,-0.42,-2.89,39.10,-4.35,-0.25,81.05,2.90,0.24,-2.34
-1,-1,-12,-42,-283,3912,-0.04,-0.06,-0.51,-0.42,-2.83,39.12,-4.35,-0.23,81.06,2.90,0.19,-2.34
1,1,-6,-27,-301,3939,-0.03,-0.05,-0.49,-0.27,-3.01,39.39,-4.35,-0.21,81.06,2.86,0.14,-2.40
1,1,-6,-30,-312,3939,-0.02,-0.04,-0.48,-0.30,-3.12,39.39,-4.35,-0.20,81.06,2.86,0.12,-2.39
0,0,-4,-15,-322,3926,-0.02,-0.04,-0.46,-0.15,-3.22,39.26,-4.36,-0.18,81.06,2.89,0.13,-2.41
-1,0,-2,-24,-316,3937,-0.02,-0.03,-0.42,-0.24,-3.16,39.37,-4.37,-0.17,81.06,2.91,0.12,-2.43
-4,-1,-1,-14,-305,3931,-0.04,-0.04,-0.39,-0.14,-3.05,39.31,-4.37,-0.15,81.06,2.98,0.13,-2.43
-3,-1,-1,0,-305,3921,-0.06,-0.04,-0.35,0.00,-3.05,39.21,-4.38,-0.13,81.07,2.97,0.12,-2.43
1,0,-2,-7,-309,3925,-0.05,-0.03,-0.33,-0.07,-3.09,39.25,-4.39,-0.12,81.07,2.89,0.09,-2.42
1,0,-1,-8,-313,3929,-0.04,-0.03,-0.30,-0.08,-3.13,39.29,-4.40,-0.10,81.07,2.89,0.08,-2.43
3,0,-4,-9,-310,3919,-0.01,-0.03,-0.30,-0.09,-3.10,39.19,-4.41,-0.09,81.07,2.85,0.06,-2.41
4,0,-8,-22,-309,3912,0.01,-0.02,-0.32,-0.22,-3.09,39.12,-4.42,-0.07,81.07,2.83,0.05,-2.37
4,2,-7,-15,-315,3931,0.04,-0.01,-0.33,-0.15,-3.15,39.31,-4.42,-0.05,81.07,2.83,-0.00,-2.38
3,2,-5,-13,-313,3936,0.05,0.00,-0.33,-0.13,-3.13,39.36,-4.43,-0.04,81.07,2.85,-0.02,-2.40
-14,13,3,52,-263,3830,-0.04,0.08,-0.27,0.52,-2.63,38.30,-4.42,-0.05,81.07,3.21,-0.25,-2.47
-6,9,5,-9,-305,3907,-0.07,0.13,-0.22,-0.09,-3.05,39.07,-4.43,-0.03,81.07,3.06,-0.20,-2.48
0,0,6,7,-250,3954,-0.07,0.12,-0.16,0.07,-2.50,39.54,-4.41,-0.03,81.08,2.93,-0.01,-2.49
0,-3,-10,9,-249,3909,-0.06,0.09,-0.20,0.09,-2.49,39.09,-4.39,-0.04,81.08,2.91,0.06,-2.35
-3,-4,-2,-38,-379,3923,-0.07,0.05,-0.20,-0.38,-3.79,39.23,-4.41,-0.03,81.08,2.99,0.08,-2.42
-3,-4,1,-78,-365,3912,-0.08,0.02,-0.17,-0.78,-3.65,39.12,-4.42,-0.01,81.08,3.00,0.08,-2.45
-2,-1,-3,-50,-341,3909,-0.09,0.01,-0.17,-0.50,-3.41,39.09,-4.43,0.00,81.08,2.99,0.02,-2.41
-3,-1,-5,-37,-336,3915,-0.10,0.01,-0.18,-0.37,-3.36,39.15,-4.44,0.02,81.08,3.02,0.01,-2.40
-2,-4,-12,6,-326,3917,-0.10,-0.02,-0.24,0.06,-3.26,39.17,-4.46,0.01,81.08,3.01,0.08,-2.34
1,-6,-12,0,-343,3883,-0.08,-0.05,-0.29,0.00,-3.43,38.83,-4.48,0.01,81.08,2.96,0.13,-2.34
-1,-7,-14,-18,-346,3920,-0.08,-0.09,-0.35,-0.18,-3.46,39.20,-4.50,0.02,81.08,3.01,0.16,-2.32
-2,-3,-18,50,-395,3947,-0.08,-0.10,-0.42,0.50,-3.95,39.47,-4.51,0.01,81.08,3.04,0.08,-2.29
4,-4,-67,-27,-327,3890,-0.05,-0.11,-0.79,-0.27,-3.27,38.90,-4.52,0.02,81.09,2.92,0.10,-1.89
1,-7,-76,4,-346,3897,-0.04,-0.15,-1.17,0.04,-3.46,38.97,-4.54,0.02,81.09,2.99,0.17,-1.82
-5,-7,-82,-55,-378,3913,-0.07,-0.17,-1.55,-0.55,-3.78,39.13,-4.56,0.03,81.10,3.13,0.17,-1.78
-3,-5,-73,-51,-369,3926,-0.08,-0.19,-1.84,-0.51,-3.69,39.26,-4.57,0.04,81.11,3.10,0.13,-1.87
1,1,-48,-66,-307,3919,-0.06,-0.16,-1.95,-0.66,-3.07,39.19,-4.57,0.05,81.11,3.01,-0.01,-2.08
-2,0,-51,-53,-280,3918,-0.07,-0.15,-2.07,-0.53,-2.80,39.18,-4.56,0.07,81.12,3.07,-0.01,-2.06
-1,-2,-67,46,-298,3931,-0.07,-0.14,-2.27,0.46,-2.98,39.31,-4.55,0.05,81.13,3.04,0.05,-1.93
-1,-5,-71,36,-308,3918,-0.07,-0.16,-2.48,0.36,-3.08,39.18,-4.55,0.03,81.14,3.04,0.13,-1.90
-4,-9,-74,-74,-242,3956,-0.09,-0.20,-2.68,-0.74,-2.42,39.56,-4.54,0.04,81.15,3.10,0.21,-1.89
1,-1,-38,-104,-247,3947,-0.07,-0.18,-2.64,-1.04,-2.47,39.47,-4.53,0.05,81.16,2.99,0.03,-2.19
2,1,-5,-18,-248,3918,-0.05,-0.16,-2.41,-0.18,-2.48,39.18,-4.51,0.06,81.17,2.95,-0.01,-2.46
1,1,-1,-14,-261,3910,-0.04,-0.14,-2.18,-0.14,-2.61,39.10,-4.49,0.06,81.18,2.96,-0.02,-2.49
0,-2,3,-24,-309,3909,-0.04,-0.14,-1.94,-0.24,-3.09,39.09,-4.50,0.08,81.19,2.98,0.03,-2.52
1,-1,4,-22,-318,3915,-0.03,-0.13,-1.72,-0.22,-3.18,39.15,-4.51,0.09,81.19,2.96,-0.01,-2.52
-3,0,1,-9,-333,3916,-0.04,-0.12,-1.54,-0.09,-3.33,39.16,-4.52,0.09,81.20,3.06,-0.03,-2.49
-3,-1,-2,-14,-338,3921,-0.06,-0.11,-1.40,-0.14,-3.38,39.21,-4.54,0.10,81.21,3.07,-0.01,-2.46
0,-3,-5,-25,-317,3914,-0.05,-0.12,-1.29,-0.25,-3.17,39.14,-4.55,0.11,81.21,3.02,0.02,-2.43
2,-2,-5,-6,-311,3918,-0.03,-0.12,-1.19,-0.06,-3.11,39.18,-4.54,0.10,81.22,2.97,0.01,-2.43
-1,2,-11,13,-324,3934,-0.04,-0.09,-1.14,0.13,-3.24,39.34,-4.55,0.08,81.22,3.03,-0.07,-2.38
0,1,-5,10,-301,3926,-0.03,-0.08,-1.06,0.10,-3.01,39.26,-4.54,0.06,81.22,3.01,-0.04,-2.42
0,2,0,-20,-318,3925,-0.03,-0.06,-0.95,-0.20,-3.18,39.25,-4.55,0.08,81.23,3.01,-0.08,-2.46
1,2,-1,-23,-318,3918,-0.02,-0.04,-0.86,-0.23,-3.18,39.18,-4.55,0.10,81.23,2.99,-0.09,-2.45
0,1,4,-18,-314,3915,-0.02,-0.03,-0.75,-0.18,-3.14,39.15,-4.56,0.11,81.23,3.01,-0.09,-2.49
0,1,5,-24,-303,3906,-0.02,-0.02,-0.65,-0.24,-3.03,39.06,-4.55,0.13,81.24,3.01,-0.10,-2.50
-1,-1,7,-16,-311,3911,-0.02,-0.03,-0.54,-0.16,-3.11,39.11,-4.55,0.15,81.24,3.03,-0.07,-2.51
-2,-1,5,-12,-312,3922,-0.03,-0.03,-0.45,-0.12,-3.12,39.22,-4.55,0.17,81.24,3.05,-0.08,-2.49
-4,-2,1,-7,-305,3921,-0.05,-0.04,-0.40,-0.07,-3.05,39.21,-4.53,0.16,81.24,3.09,-0.05,-2.46
-3,-3,-1,-6,-310,3933,-0.07,-0.05,-0.37,-0.06,-3.10,39.33,-4.53,0.14,81.24,3.07,-0.02,-2.44
1,-1,5,2,-344,3922,-0.05,-0.05,-0.30,0.02,-3.44,39.22,-4.54,0.13,81.25,2.99,-0.05,-2.49
-1,3,16,-14,-322,3925,-0.05,-0.03,-0.17,-0.14,-3.22,39.25,-4.56,0.14,81.25,3.05,-0.15,-2.58
2,-2,12,4,-349,3913,-0.04,-0.04,-0.08,0.04,-3.49,39.13,-4.58,0.13,81.25,2.99,-0.04,-2.54
-2,-2,19,44,-339,3910,-0.04,-0.05,0.04,0.44,-3.39,39.10,-4.59,0.12,81.25,3.08,-0.02,-2.60
-1,0,6,-32,-308,3921,-0.05,-0.04,0.07,-0.32,-3.08,39.21,-4.58,0.13,81.25,3.06,-0.08,-2.49
-3,-2,5,-22,-321,3934,-0.06,-0.05,0.10,-0.22,-3.21,39.34,-4.59,0.15,81.25,3.11,-0.05,-2.48
0,-3,29,60,-402,3940,-0.05,-0.06,0.26,0.60,-4.02,39.40,-4.60,0.14,81.24,3.05,-0.01,-2.68
-1,-7,54,87,-462,3891,-0.05,-0.10,0.57,0.87,-4.62,38.91,-4.62,0.13,81.24,3.08,0.08,-2.88
-11,-5,141,-21,-506,3857,-0.12,-0.12,1.37,-0.21,-5.06,38.57,-4.64,0.13,81.24,3.32,0.05,-3.59
-27,5,164,-24,-390,3841,-0.27,-0.08,2.23,-0.24,-3.90,38.41,-4.66,0.13,81.23,3.70,-0.17,-3.76
-6,-10,111,-158,-313,3918,-0.28,-0.13,2.69,-1.58,-3.13,39.18,-4.66,0.15,81.22,3.27,0.14,-3.30
4,-12,94,-71,-399,3894,-0.23,-0.19,2.99,-0.71,-3.99,38.94,-4.67,0.16,81.21,3.06,0.19,-3.15
-38,11,159,24,-385,3764,-0.44,-0.11,3.66,0.24,-3.85,37.64,-4.69,0.16,81.19,3.99,-0.30,-3.68
-8,-5,158,-13,-220,4025,-0.44,-0.13,4.26,-0.13,-2.20,40.25,-4.68,0.16,81.17,3.37,0.03,-3.65
6,5,81,-43,-264,3939,-0.36,-0.08,4.33,-0.43,-2.64,39.39,-4.66,0.17,81.16,3.05,-0.19,-3.00
3,5,75,19,-305,3912,-0.31,-0.04,4.35,0.19,-3.05,39.12,-4.65,0.15,81.14,3.09,-0.19,-2.94
6,8,56,76,-40,3903,-0.24,0.01,4.26,0.76,-0.40,39.03,-4.64,0.15,81.12,3.00,-0.26,-2.79
15,7,29,23,-128,3942,-0.12,0.05,4.01,0.23,-1.28,39.42,-4.62,0.15,81.11,2.78,-0.25,-2.56
7,5,9,1,-292,3939,-0.07,0.08,3.66,0.01,-2.92,39.39,-4.60,0.14,81.09,2.91,-0.22,-2.40
7,6,12,0,-300,3948,-0.02,0.11,3.37,0.00,-3.00,39.48,-4.59,0.13,81.08,2.89,-0.24,-2.44
2,4,26,-3,-314,3921,-0.00,0.12,3.19,-0.03,-3.14,39.21,-4.59,0.12,81.06,2.99,-0.19,-2.56
0,4,32,-10,-290,3895,-0.00,0.13,3.07,-0.10,-2.90,38.95,-4.57,0.12,81.05,3.02,-0.20,-2.61
-7,2,76,50,-419,3930,-0.05,0.13,3.23,0.50,-4.19,39.30,-4.58,0.11,81.04,3.18,-0.15,-2.98
-12,4,106,94,-477,3938,-0.12,0.14,3.55,0.94,-4.77,39.38,-4.60,0.11,81.03,3.31,-0.19,-3.23
-9,1,191,126,-456,3951,-0.16,0.13,4.36,1.26,-4.56,39.51,-4.61,0.09,81.01,3.27,-0.12,-3.92
0,3,216,94,-378,3910,-0.14,0.14,5.24,0.94,-3.78,39.10,-4.62,0.08,80.99,3.09,-0.15,-4.11
5,7,249,-24,-264,3882,-0.10,0.17,6.24,-0.24,-2.64,38.82,-4.61,0.09,80.96,2.97,-0.25,-4.36
0,10,256,35,-305,3896,-0.09,0.21,7.17,0.35,-3.05,38.96,-4.60,0.08,80.93,3.06,-0.31,-4.39
-3,-11,312,-54,-156,3884,-0.10,0.12,8.36,-0.54,-1.56,38.84,-4.59,0.08,80.90,3.11,0.13,-4.83
-5,-7,314,-22,-362,3864,-0.12,0.07,9.44,-0.22,-3.62,38.64,-4.60,0.09,80.86,3.17,0.06,-4.81
0,18,347,189,-332,4019,-0.11,0.17,10.61,1.89,-3.32,40.19,-4.60,0.08,80.82,3.07,-0.46,-5.06
-5,6,454,252,-363,3805,-0.13,0.19,12.32,2.52,-3.63,38.05,-4.61,0.07,80.77,3.18,-0.22,-5.91
-9,1,542,61,-365,3956,-0.17,0.18,14.39,0.61,-3.65,39.56,-4.62,0.06,80.71,3.28,-0.11,-6.60
-8,1,526,12,-363,3956,-0.20,0.17,16.16,0.12,-3.63,39.56,-4.64,0.06,80.65,3.28,-0.10,-6.41
-4,0,403,-143,-166,3969,-0.20,0.15,17.01,-1.43,-1.66,39.69,-4.63,0.07,80.58,3.19,-0.09,-5.34
2,-11,362,-168,-113,3899,-0.17,0.07,17.51,-1.68,-1.13,38.99,-4.61,0.09,80.51,3.05,0.15,-4.98
-7,1,214,-170,-359,3930,-0.20,0.07,17.07,-1.70,-3.59,39.30,-4.62,0.11,80.44,3.24,-0.11,-3.73
1,-3,190,-112,-312,3955,-0.17,0.04,16.52,-1.12,-3.12,39.55,-4.62,0.14,80.38,3.07,-0.04,-3.54
-8,3,158,-109,-410,3879,-0.20,0.06,15.83,-1.09,-4.10,38.79,-4.63,0.16,80.32,3.27,-0.18,-3.29
-4,4,148,-133,-392,3934,-0.21,0.07,15.15,-1.33,-3.92,39.34,-4.64,0.18,80.26,3.20,-0.22,-3.22
2,6,82,-60,-292,3937,-0.17,0.10,14.14,-0.60,-2.92,39.37,-4.63,0.20,80.20,3.06,-0.28,-2.69
1,1,54,-45,-287,3910,-0.15,0.10,13.05,-0.45,-2.87,39.10,-4.62,0.22,80.15,3.07,-0.19,-2.48
0,1,36,-25,-347,3939,-0.14,0.10,11.97,-0.25,-3.47,39.39,-4.64,0.23,80.10,3.10,-0.20,-2.36
4,-1,36,-53,-371,3909,-0.10,0.08,10.99,-0.53,-3.71,39.09,-4.65,0.24,80.06,3.02,-0.16,-2.39
-2,-3,54,8,-363,3918,-0.10,0.05,10.22,0.08,-3.63,39.18,-4.67,0.24,80.02,3.15,-0.11,-2.56
-3,-4,68,18,-370,3928,-0.11,0.02,9.61,0.18,-3.70,39.28,-4.68,0.23,79.98,3.18,-0.08,-2.70
-3,-1,58,-92,-210,3923,-0.12,0.02,9.01,-0.92,-2.10,39.23,-4.67,0.24,79.94,3.17,-0.14,-2.63
-2,1,43,-71,-217,3912,-0.12,0.02,8.37,-0.71,-2.17,39.12,-4.65,0.25,79.91,3.14,-0.19,-2.52
-2,0,32,-15,-324,3955,-0.12,0.02,7.73,-0.15,-3.24,39.55,-4.66,0.24,79.88,3.15,-0.16,-2.44
0,-3,35,11,-343,3948,-0.11,-0.00,7.17,0.11,-3.43,39.48,-4.68,0.23,79.85,3.11,-0.09,-2.48
-2,-5,51,39,-328,3918,-0.11,-0.03,6.76,0.39,-3.28,39.18,-4.68,0.21,79.82,3.16,-0.03,-2.63
-3,-3,52,6,-316,3909,-0.11,-0.05,6.40,0.06,-3.16,39.09,-4.68,0.20,79.80,3.18,-0.06,-2.65
-1,1,17,-46,-279,3926,-0.11,-0.04,5.87,-0.46,-2.79,39.26,-4.66,0.21,79.77,3.13,-0.15,-2.37
1,3,7,-31,-286,3927,-0.09,-0.01,5.32,-0.31,-2.86,39.27,-4.65,0.22,79.75,3.07,-0.20,-2.30
2,3,1,-21,-310,3931,-0.07,0.01,4.80,-0.21,-3.10,39.31,-4.63,0.23,79.73,3.03,-0.22,-2.26
1,3,0,-19,-315,3934,-0.06,0.02,4.32,-0.19,-3.15,39.34,-4.62,0.24,79.71,3.04,-0.23,-2.27
0,3,3,-13,-319,3926,-0.05,0.04,3.90,-0.13,-3.19,39.26,-4.63,0.23,79.70,3.07,-0.22,-2.30
0,2,3,-14,-313,3926,-0.05,0.05,3.53,-0.14,-3.13,39.26,-4.61,0.22,79.68,3.05,-0.20,-2.31
-1,1,9,-7,-327,3916,-0.05,0.05,3.23,-0.07,-3.27,39.16,-4.62,0.21,79.67,3.08,-0.18,-2.37
-4,-2,19,52,-364,3936,-0.07,0.03,3.03,0.52,-3.64,39.36,-4.63,0.20,79.66,3.16,-0.10,-2.46
-6,1,121,118,-468,3909,-0.10,0.03,3.46,1.18,-4.68,39.09,-4.65,0.19,79.65,3.22,-0.16,-3.31
0,0,189,71,-499,3909,-0.09,0.03,4.27,0.71,-4.99,39.09,-4.66,0.18,79.63,3.10,-0.13,-3.87
-8,-6,234,-53,-419,3943,-0.13,-0.01,5.27,-0.53,-4.19,39.43,-4.68,0.19,79.61,3.29,-0.00,-4.22
-26,6,238,-5,-295,3844,-0.27,0.03,6.19,-0.05,-2.95,38.44,-4.67,0.19,79.58,3.68,-0.25,-4.22
-20,-7,231,22,-318,3916,-0.37,-0.02,6.98,0.22,-3.18,39.16,-4.67,0.17,79.56,3.59,0.03,-4.14
-17,0,214,-34,-178,3925,-0.44,-0.02,7.59,-0.34,-1.78,39.25,-4.65,0.18,79.53,3.53,-0.11,-3.98
4,0,116,-39,-291,3918,-0.37,-0.01,7.54,-0.39,-2.91,39.18,-4.64,0.19,79.50,3.08,-0.12,-3.15
-3,-4,103,-104,-225,3949,-0.35,-0.04,7.41,-1.04,-2.25,39.49,-4.63,0.21,79.47,3.21,-0.05,-3.04
-2,0,122,94,-442,3902,-0.33,-0.03,7.42,0.94,-4.42,39.02,-4.64,0.20,79.44,3.19,-0.12,-3.20
-7,10,162,48,-443,3926,-0.34,0.03,7.66,0.48,-4.43,39.26,-4.66,0.19,79.41,3.31,-0.34,-3.53
1,14,243,73,-395,3894,-0.30,0.11,8.38,0.73,-3.95,38.94,-4.67,0.18,79.37,3.14,-0.44,-4.20
0,-4,271,-73,-258,3925,-0.27,0.08,9.19,-0.73,-2.58,39.25,-4.66,0.20,79.34,3.15,-0.07,-4.41
-4,-5,246,-73,-276,3912,-0.26,0.04,9.78,-0.73,-2.76,39.12,-4.65,0.22,79.30,3.22,-0.05,-4.18
4,5,253,-68,-352,3906,-0.21,0.07,10.34,-0.68,-3.52,39.06,-4.66,0.23,79.26,3.05,-0.27,-4.22
0,-2,251,-34,-271,3930,-0.19,0.05,10.84,-0.34,-2.71,39.30,-4.64,0.24,79.21,3.12,-0.13,-4.19
-7,3,254,24,-370,3921,-0.22,0.06,11.30,0.24,-3.70,39.21,-4.66,0.24,79.17,3.28,-0.23,-4.20
2,-4,241,-63,-251,3926,-0.18,0.03,11.64,-0.63,-2.51,39.26,-4.64,0.25,79.12,3.07,-0.09,-4.08
-7,0,229,-22,-317,3924,-0.21,0.03,11.88,-0.22,-3.17,39.24,-4.64,0.27,79.07,3.26,-0.19,-3.97
3,4,226,-90,-267,3978,-0.17,0.05,12.07,-0.90,-2.67,39.78,-4.63,0.29,79.03,3.04,-0.29,-3.94
-6,4,201,-141,-288,3868,-0.19,0.07,12.09,-1.41,-2.88,38.68,-4.62,0.31,78.98,3.23,-0.31,-3.72
-1,1,145,-69,-407,3894,-0.17,0.07,11.76,-0.69,-4.07,38.94,-4.64,0.33,78.93,3.13,-0.25,-3.26
-20,4,165,68,-478,3809,-0.28,0.09,11.59,0.68,-4.78,38.09,-4.66,0.32,78.88,3.56,-0.32,-3.43
-1,9,128,-31,-227,3919,-0.26,0.13,11.21,-0.31,-2.27,39.19,-4.64,0.33,78.84,3.15,-0.43,-3.13
8,5,90,59,-181,3906,-0.18,0.15,10.64,0.59,-1.81,39.06,-4.63,0.32,78.80,2.94,-0.35,-2.82
6,1,11,68,-257,3931,-0.13,0.14,9.64,0.68,-2.57,39.31,-4.62,0.31,78.76,2.96,-0.26,-2.18
7,2,2,38,-273,3931,-0.07,0.14,8.69,0.38,-2.73,39.31,-4.61,0.30,78.72,2.92,-0.28,-2.13
5,1,23,81,-346,3941,-0.03,0.13,7.96,0.81,-3.46,39.41,-4.61,0.28,78.69,2.95,-0.24,-2.33
1,-1,44,105,-340,3943,-0.03,0.11,7.44,1.05,-3.40,39.43,-4.61,0.27,78.66,3.03,-0.19,-2.52
5,5,81,20,-335,3931,0.01,0.13,7.19,0.20,-3.35,39.31,-4.62,0.26,78.63,2.95,-0.31,-2.84
4,9,86,35,-319,3888,0.03,0.17,6.99,0.35,-3.19,38.88,-4.62,0.24,78.61,2.96,-0.39,-2.88
-4,2,133,84,-404,3917,0.00,0.17,7.10,0.84,-4.04,39.17,-4.63,0.23,78.58,3.14,-0.24,-3.28
1,-6,153,-10,-274,3861,0.01,0.11,7.33,-0.10,-2.74,38.61,-4.62,0.23,78.55,3.02,-0.06,-3.44
0,-7,133,-95,-327,3927,0.01,0.06,7.41,-0.95,-3.27,39.27,-4.62,0.25,78.52,3.05,-0.04,-3.27
-6,-1,135,-26,-344,3916,-0.03,0.05,7.49,-0.26,-3.44,39.16,-4.64,0.26,78.49,3.19,-0.16,-3.28
1,-1,123,-39,-280,3926,-0.02,0.04,7.49,-0.39,-2.80,39.26,-4.62,0.27,78.46,3.03,-0.17,-3.18
-1,1,122,28,-315,3907,-0.02,0.04,7.49,0.28,-3.15,39.07,-4.62,0.25,78.43,3.08,-0.20,-3.17
1,0,127,49,-284,3915,-0.02,0.04,7.51,0.49,-2.84,39.15,-4.61,0.24,78.40,3.03,-0.17,-3.21
-2,4,139,110,-279,3924,-0.03,0.06,7.61,1.10,-2.79,39.24,-4.61,0.23,78.37,3.09,-0.25,-3.31
-4,-1,171,74,-284,3939,-0.05,0.04,7.89,0.74,-2.84,39.39,-4.60,0.21,78.34,3.13,-0.13,-3.57
-10,-6,166,-46,-307,3860,-0.10,0.00,8.11,-0.46,-3.07,38.60,-4.60,0.23,78.31,3.27,-0.03,-3.52
1,5,145,3,-278,4008,-0.09,0.03,8.19,0.03,-2.78,40.08,-4.58,0.23,78.27,3.03,-0.26,-3.34
3,2,153,102,-290,3966,-0.06,0.04,8.30,1.02,-2.90,39.66,-4.58,0.21,78.24,2.98,-0.19,-3.40
-20,-9,264,151,-531,3903,-0.18,-0.02,9.08,1.51,-5.31,39.03,-4.59,0.20,78.20,3.49,0.05,-4.32
-5,-12,294,154,-507,3976,-0.19,-0.09,9.97,1.54,-5.07,39.76,-4.61,0.19,78.16,3.19,0.14,-4.55
-8,-15,390,27,-343,3956,-0.22,-0.17,11.35,0.27,-3.43,39.56,-4.62,0.18,78.12,3.27,0.23,-5.32
-4,-6,401,-86,-339,3918,-0.22,-0.19,12.66,-0.86,-3.39,39.18,-4.62,0.20,78.07,3.19,0.04,-5.37
-16,-1,395,-211,-369,3800,-0.30,-0.18,13.80,-2.11,-3.69,38.00,-4.63,0.22,78.01,3.46,-0.08,-5.29
-9,-6,388,-248,-261,3937,-0.32,-0.20,14.79,-2.48,-2.61,39.37,-4.63,0.25,77.95,3.32,0.01,-5.20
-2,-3,343,-121,-356,3958,-0.30,-0.19,15.40,-1.21,-3.56,39.58,-4.63,0.27,77.89,3.18,-0.06,-4.80
-8,-8,342,-90,-346,3891,-0.32,-0.22,15.95,-0.90,-3.46,38.91,-4.64,0.29,77.83,3.31,0.03,-4.77
-7,5,356,-134,-228,3965,-0.33,-0.17,16.53,-1.34,-2.28,39.65,-4.63,0.31,77.76,3.29,-0.26,-4.87
-9,4,339,-156,-215,3911,-0.35,-0.13,16.94,-1.56,-2.15,39.11,-4.62,0.33,77.70,3.33,-0.26,-4.71
7,3,330,-87,-182,3971,-0.28,-0.10,17.26,-0.87,-1.82,39.71,-4.60,0.34,77.63,2.97,-0.26,-4.63
-4,14,330,-115,-197,3940,-0.27,-0.00,17.55,-1.15,-1.97,39.40,-4.59,0.36,77.56,3.19,-0.52,-4.62
-9,-1,414,49,-408,3911,-0.30,-0.01,18.32,0.49,-4.08,39.11,-4.61,0.35,77.48,3.30,-0.21,-5.30
-8,-8,466,88,-345,4040,-0.32,-0.06,19.33,0.88,-3.45,40.40,-4.61,0.34,77.41,3.29,-0.05,-5.71
-70,-65,639,111,-454,3955,-0.71,-0.45,21.29,1.11,-4.54,39.55,-4.62,0.33,77.32,4.67,1.23,-7.12
-134,-94,675,-25,-373,3773,-1.46,-0.98,23.28,-0.25,-3.73,37.73,-4.65,0.34,77.23,6.19,1.96,-7.36
-93,-82,741,23,-344,4071,-1.88,-1.38,25.47,0.23,-3.44,40.71,-4.66,0.32,77.13,5.48,1.83,-7.86
-63,-46,725,-21,-311,3970,-2.08,-1.52,27.35,-0.21,-3.11,39.70,-4.65,0.32,77.02,4.92,1.14,-7.66
-18,-5,595,-158,-305,3933,-1.98,-1.40,28.24,-1.58,-3.05,39.33,-4.65,0.34,76.90,3.98,0.26,-6.53
-8,11,491,-219,-296,3908,-1.83,-1.19,28.41,-2.19,-2.96,39.08,-4.66,0.37,76.79,3.74,-0.14,-5.64
0,10,226,-166,-268,3924,-1.65,-1.01,26.95,-1.66,-2.68,39.24,-4.66,0.39,76.68,3.52,-0.18,-3.44
3,12,157,-154,-258,3946,-1.46,-0.84,25.21,-1.54,-2.58,39.46,-4.66,0.41,76.58,3.41,-0.29,-2.90
6,13,51,-20,-355,3916,-1.28,-0.68,23.00,-0.20,-3.55,39.16,-4.68,0.41,76.49,3.31,-0.35,-2.06
7,11,43,-35,-380,3908,-1.11,-0.54,20.97,-0.35,-3.80,39.08,-4.70,0.42,76.41,3.26,-0.35,-2.05
1,7,71,-31,-429,3941,-0.99,-0.44,19.30,-0.31,-4.29,39.41,-4.72,0.42,76.33,3.37,-0.30,-2.33
-2,7,94,-4,-433,3891,-0.91,-0.36,17.95,-0.04,-4.33,38.91,-4.74,0.42,76.26,3.42,-0.32,-2.57
-3,4,245,48,-520,3954,-0.83,-0.30,17.65,0.48,-5.20,39.54,-4.76,0.42,76.19,3.43,-0.28,-3.85
-5,2,269,-34,-456,3935,-0.78,-0.25,17.52,-0.34,-4.56,39.35,-4.78,0.43,76.12,3.47,-0.25,-4.06
-7,5,346,-137,-338,3884,-0.75,-0.20,17.88,-1.37,-3.38,38.84,-4.79,0.45,76.05,3.51,-0.34,-4.70
-3,13,347,-102,-198,3927,-0.69,-0.10,18.21,-1.02,-1.98,39.27,-4.77,0.46,75.97,3.40,-0.54,-4.69
-10,13,323,-69,-330,3839,-0.68,-0.01,18.36,-0.69,-3.30,38.39,-4.78,0.49,75.90,3.54,-0.58,-4.48
-1,16,341,-35,-285,3963,-0.62,0.09,18.60,-0.35,-2.85,39.63,-4.76,0.49,75.83,3.33,-0.68,-4.63
-5,9,352,-32,-402,3917,-0.59,0.13,18.89,-0.32,-4.02,39.17,-4.78,0.50,75.75,3.42,-0.55,-4.71
-9,18,390,49,-304,3915,-0.58,0.23,19.38,0.49,-3.04,39.15,-4.78,0.49,75.67,3.50,-0.75,-5.01
-25,-3,476,2,-494,3919,-0.68,0.19,20.35,0.02,-4.94,39.19,-4.80,0.49,75.59,3.86,-0.32,-5.71
-16,4,502,92,-488,4003,-0.71,0.19,21.37,0.92,-4.88,40.03,-4.82,0.49,75.51,3.70,-0.46,-5.90
-17,7,578,117,-448,3905,-0.74,0.22,22.76,1.17,-4.48,39.05,-4.83,0.48,75.42,3.74,-0.52,-6.50
-19,-5,604,197,-393,3927,-0.78,0.17,24.17,1.97,-3.93,39.27,-4.84,0.48,75.32,3.79,-0.26,-6.68
-20,4,699,325,-417,3895,-0.83,0.17,26.02,3.25,-4.17,38.95,-4.84,0.47,75.22,3.83,-0.44,-7.43
-22,-4,755,334,-342,3869,-0.88,0.13,28.02,3.34,-3.42,38.69,-4.85,0.46,75.11,3.89,-0.26,-7.84
-13,-4,857,70,-333,3947,-0.87,0.09,30.45,0.70,-3.33,39.47,-4.85,0.45,74.98,3.70,-0.24,-8.63
-31,-16,873,76,-168,3921,-0.97,-0.01,32.73,0.76,-1.68,39.21,-4.84,0.45,74.85,4.09,0.03,-8.70
-32,6,803,-231,-117,3815,-1.07,0.03,34.35,-2.31,-1.17,38.15,-4.83,0.48,74.72,4.13,-0.44,-8.05
-8,9,761,-243,-139,3948,-1.01,0.08,35.56,-2.43,-1.39,39.48,-4.82,0.50,74.57,3.62,-0.54,-7.66
-9,3,559,-320,-163,3927,-0.97,0.09,35.41,-3.20,-1.63,39.27,-4.81,0.53,74.43,3.62,-0.43,-5.95
-4,15,497,-248,-216,3909,-0.89,0.17,34.90,-2.48,-2.16,39.09,-4.80,0.56,74.29,3.50,-0.72,-5.43
-7,25,372,-86,-386,3912,-0.85,0.31,33.68,-0.86,-3.86,39.12,-4.82,0.58,74.16,3.55,-0.98,-4.40
-2,19,348,-36,-459,3928,-0.77,0.39,32.44,-0.36,-4.59,39.28,-4.84,0.59,74.03,3.45,-0.89,-4.23
-3,14,331,126,-477,3879,-0.71,0.44,31.21,1.26,-4.77,38.79,-4.85,0.59,73.91,3.46,-0.80,-4.12
3,12,333,161,-493,3953,-0.63,0.47,30.12,1.61,-4.93,39.53,-4.87,0.59,73.79,3.32,-0.76,-4.16
-3,9,376,158,-478,3907,-0.58,0.48,29.40,1.58,-4.78,39.07,-4.88,0.59,73.67,3.44,-0.70,-4.55
-3,13,381,-22,-377,3933,-0.54,0.51,28.79,-0.22,-3.77,39.33,-4.90,0.59,73.56,3.44,-0.79,-4.60
0,17,415,-34,-343,3975,-0.49,0.56,28.44,-0.34,-3.43,39.75,-4.90,0.59,73.44,3.37,-0.89,-4.90
-8,12,416,13,-314,3887,-0.49,0.58,28.13,0.13,-3.14,38.87,-4.90,0.58,73.33,3.53,-0.79,-4.91
0,6,417,38,-244,3915,-0.44,0.56,27.86,0.38,-2.44,39.15,-4.88,0.58,73.22,3.34,-0.66,-4.92
-3,13,432,-17,-286,3896,-0.41,0.58,27.71,-0.17,-2.86,38.96,-4.87,0.59,73.11,3.39,-0.81,-5.05
-5,4,472,-83,-291,3927,-0.40,0.55,27.82,-0.83,-2.91,39.27,-4.86,0.61,73.00,3.42,-0.63,-5.39
0,13,492,-124,-296,3953,-0.36,0.57,28.04,-1.24,-2.96,39.53,-4.85,0.64,72.89,3.30,-0.84,-5.54
-16,10,585,-78,-426,3834,-0.42,0.57,28.80,-0.78,-4.26,38.34,-4.87,0.66,72.77,3.65,-0.79,-6.31
-4,18,634,-161,-357,3936,-0.41,0.63,29.79,-1.61,-3.57,39.36,-4.87,0.69,72.65,3.41,-0.99,-6.69
-19,1,692,-63,-349,3908,-0.48,0.57,31.03,-0.63,-3.49,39.08,-4.88,0.71,72.53,3.74,-0.65,-7.14
-14,1,685,-44,-316,3945,-0.52,0.52,32.11,-0.44,-3.16,39.45,-4.87,0.72,72.40,3.64,-0.64,-7.05
-12,-6,635,-160,-338,3874,-0.54,0.43,32.77,-1.60,-3.38,38.74,-4.87,0.75,72.27,3.60,-0.49,-6.60
-27,-13,612,-42,-324,3978,-0.65,0.31,33.23,-0.42,-3.24,39.78,-4.85,0.75,72.14,3.93,-0.32,-6.39
-26,-14,469,-57,-138,3870,-0.74,0.19,32.77,-0.57,-1.38,38.70,-4.84,0.77,72.01,3.92,-0.27,-5.19
-13,-6,431,1,-175,3864,-0.75,0.14,32.12,0.01,-1.75,38.64,-4.82,0.77,71.88,3.65,-0.42,-4.88
1,9,310,-117,-316,3914,-0.67,0.18,30.80,-1.17,-3.16,39.14,-4.82,0.80,71.76,3.34,-0.76,-3.89
6,2,294,-137,-319,3882,-0.56,0.17,29.51,-1.37,-3.19,38.82,-4.82,0.83,71.64,3.21,-0.64,-3.79
-4,3,296,-79,-534,3973,-0.53,0.17,28.37,-0.79,-5.34,39.73,-4.83,0.84,71.53,3.42,-0.66,-3.83
-19,-2,331,-41,-535,3816,-0.59,0.14,27.55,-0.41,-5.35,38.16,-4.85,0.85,71.42,3.75,-0.56,-4.15
0,-4,430,-149,-619,3911,-0.54,0.10,27.42,-1.49,-6.19,39.11,-4.87,0.87,71.31,3.36,-0.52,-4.99
3,-3,468,-133,-557,3845,-0.46,0.08,27.53,-1.33,-5.57,38.45,-4.89,0.88,71.20,3.29,-0.54,-5.31
-10,11,605,-220,-439,3930,-0.48,0.14,28.47,-2.20,-4.39,39.30,-4.90,0.91,71.09,3.57,-0.86,-6.44
-12,13,634,-175,-426,3739,-0.50,0.20,29.49,-1.75,-4.26,37.39,-4.91,0.93,70.97,3.62,-0.93,-6.65
-34,0,693,-131,-365,3950,-0.66,0.18,30.77,-1.31,-3.65,39.50,-4.92,0.96,70.85,4.12,-0.68,-7.11
-6,20,704,-163,-442,3957,-0.63,0.29,31.98,-1.63,-4.42,39.57,-4.93,0.98,70.72,3.55,-1.13,-7.16
1,21,606,-111,-293,3965,-0.56,0.38,32.48,-1.11,-2.93,39.65,-4.92,1.01,70.59,3.38,-1.20,-6.31
-1,16,565,-85,-175,3922,-0.51,0.44,32.68,-0.85,-1.75,39.22,-4.90,1.02,70.46,3.39,-1.12,-5.96
12,10,422,110,-212,3885,-0.39,0.46,31.99,1.10,-2.12,38.85,-4.89,1.02,70.33,3.09,-1.00,-4.76
13,12,393,37,-241,3923,-0.27,0.49,31.19,0.37,-2.41,39.23,-4.88,1.02,70.21,3.03,-1.05,-4.53
-2,10,245,-98,-144,3894,-0.25,0.50,29.56,-0.98,-1.44,38.94,-4.86,1.03,70.09,3.32,-1.02,-3.32
5,-1,186,-135,-142,3872,-0.20,0.44,27.74,-1.35,-1.42,38.72,-4.84,1.05,69.98,3.15,-0.79,-2.87
-9,-2,66,109,-194,3853,-0.23,0.39,25.37,1.09,-1.94,38.53,-4.83,1.05,69.88,3.43,-0.76,-1.92
-5,-3,52,171,-227,4006,-0.24,0.33,23.15,1.71,-2.27,40.06,-4.82,1.04,69.79,3.35,-0.72,-1.87
-13,-14,107,224,-319,3944,-0.30,0.21,21.49,2.24,-3.19,39.44,-4.82,1.03,69.70,3.52,-0.45,-2.38
-12,-16,116,143,-357,3965,-0.34,0.09,20.05,1.43,-3.57,39.65,-4.82,1.02,69.62,3.52,-0.37,-2.49
-15,-11,145,49,-417,3888,-0.40,0.02,18.93,0.49,-4.17,38.88,-4.83,1.01,69.54,3.60,-0.45,-2.77
-12,-12,150,21,-410,3864,-0.43,-0.06,17.95,0.21,-4.10,38.64,-4.84,1.00,69.47,3.56,-0.40,-2.84
-4,2,131,86,-391,3921,-0.41,-0.04,16.95,0.86,-3.91,39.21,-4.85,0.99,69.41,3.39,-0.68,-2.70
4,7,124,135,-403,3918,-0.35,0.01,16.01,1.35,-4.03,39.18,-4.86,0.98,69.34,3.22,-0.79,-2.67
2,10,168,34,-469,3933,-0.30,0.07,15.44,0.34,-4.69,39.33,-4.87,0.97,69.28,3.26,-0.86,-3.06
-2,4,182,7,-422,3895,-0.28,0.08,15.00,0.07,-4.22,38.95,-4.89,0.97,69.22,3.34,-0.74,-3.19
6,5,174,37,-287,3903,-0.22,0.11,14.56,0.37,-2.87,39.03,-4.88,0.96,69.16,3.16,-0.76,-3.13
2,7,163,28,-293,3901,-0.18,0.14,14.10,0.28,-2.93,39.01,-4.87,0.94,69.11,3.22,-0.80,-3.05
7,7,147,-3,-271,4083,-0.12,0.17,13.59,-0.03,-2.71,40.83,-4.86,0.94,69.05,3.10,-0.81,-2.92
2,13,131,53,-131,3911,-0.10,0.23,13.03,0.53,-1.31,39.11,-4.84,0.93,69.00,3.18,-0.94,-2.80
0,-5,169,103,-277,3905,-0.09,0.18,12.76,1.03,-2.77,39.05,-4.83,0.92,68.95,3.21,-0.55,-3.13
-3,2,199,87,-286,3923,-0.10,0.17,12.70,0.87,-2.86,39.23,-4.83,0.91,68.90,3.27,-0.69,-3.39
-2,10,356,149,-263,3966,-0.10,0.21,13.60,1.49,-2.63,39.66,-4.82,0.90,68.84,3.25,-0.85,-4.69
-6,0,439,120,-284,3864,-0.13,0.19,14.92,1.20,-2.84,38.64,-4.82,0.89,68.79,3.34,-0.64,-5.35
-13,8,461,-75,-363,3929,-0.19,0.22,16.24,-0.75,-3.63,39.29,-4.83,0.90,68.72,3.51,-0.82,-5.50
-12,-7,449,-144,-254,3929,-0.25,0.16,17.35,-1.44,-2.54,39.29,-4.82,0.92,68.65,3.49,-0.51,-5.36
-6,-12,386,-144,-347,3927,-0.26,0.07,17.97,-1.44,-3.47,39.27,-4.82,0.94,68.58,3.38,-0.40,-4.81
-15,-10,354,-200,-388,3911,-0.32,0.00,18.33,-2.00,-3.88,39.11,-4.83,0.97,68.51,3.58,-0.43,-4.52
-3,7,221,-158,-333,3912,-0.31,0.04,17.85,-1.58,-3.33,39.12,-4.83,0.99,68.44,3.33,-0.81,-3.41
-1,10,189,-156,-344,3919,-0.29,0.10,17.22,-1.56,-3.44,39.19,-4.83,1.01,68.37,3.29,-0.90,-3.15
-1,5,180,47,-483,3935,-0.26,0.12,16.59,0.47,-4.83,39.35,-4.85,1.01,68.30,3.29,-0.80,-3.09
2,1,185,76,-575,3948,-0.22,0.11,16.06,0.76,-5.75,39.48,-4.86,1.01,68.24,3.23,-0.72,-3.15
-4,-6,198,-10,-553,3952,-0.23,0.07,15.66,-0.10,-5.53,39.52,-4.88,1.01,68.18,3.37,-0.56,-3.27
1,-6,236,40,-402,3856,-0.20,0.02,15.54,0.40,-4.02,38.56,-4.89,1.00,68.11,3.26,-0.54,-3.59
-9,0,305,91,-364,3929,-0.23,0.02,15.84,0.91,-3.64,39.29,-4.89,0.98,68.05,3.48,-0.66,-4.17
-7,-1,343,46,-394,3876,-0.25,0.01,16.35,0.46,-3.94,38.76,-4.90,0.97,67.99,3.45,-0.63,-4.47
-13,7,395,-32,-330,3870,-0.31,0.05,17.13,-0.32,-3.30,38.70,-4.90,0.96,67.92,3.58,-0.79,-4.89
-5,20,403,-91,-174,3944,-0.31,0.17,17.87,-0.91,-1.74,39.44,-4.88,0.97,67.85,3.41,-1.09,-4.93
-1,8,388,-116,-194,3893,-0.28,0.20,18.45,-1.16,-1.94,38.93,-4.87,0.98,67.77,3.31,-0.87,-4.79
-15,-9,369,-50,-248,3935,-0.35,0.13,18.86,-0.50,-2.48,39.35,-4.85,0.99,67.70,3.60,-0.50,-4.61
-29,-4,388,-17,-340,3940,-0.49,0.09,19.34,-0.17,-3.40,39.40,-4.85,0.98,67.62,3.92,-0.59,-4.76
5,5,411,-37,-457,3948,-0.41,0.11,19.91,-0.37,-4.57,39.48,-4.87,0.98,67.54,3.22,-0.78,-4.93
-27,-8,480,-122,-578,3890,-0.53,0.05,20.85,-1.22,-5.78,38.90,-4.89,0.99,67.46,3.92,-0.51,-5.49
-16,-3,534,-283,-362,3867,-0.58,0.03,22.02,-2.83,-3.62,38.67,-4.89,1.02,67.37,3.71,-0.62,-5.91
-7,17,607,-225,-449,3896,-0.56,0.13,23.52,-2.25,-4.49,38.96,-4.90,1.04,67.28,3.53,-1.07,-6.48
-1,13,630,-193,-477,3909,-0.51,0.20,25.01,-1.93,-4.77,39.09,-4.92,1.06,67.18,3.41,-1.02,-6.63
-9,1,621,-59,-445,3933,-0.52,0.18,26.30,-0.59,-4.45,39.33,-4.94,1.07,67.07,3.58,-0.77,-6.51
-19,12,613,-65,-438,3954,-0.58,0.24,27.41,-0.65,-4.38,39.54,-4.95,1.08,66.96,3.81,-1.02,-6.41
-11,-1,549,-9,-338,4049,-0.59,0.21,28.02,-0.09,-3.38,40.49,-4.95,1.07,66.85,3.65,-0.74,-5.85
-1,-13,533,57,-444,3948,-0.54,0.11,28.47,0.57,-4.44,39.48,-4.96,1.06,66.74,3.44,-0.47,-5.70
-9,-18,480,-26,-526,3902,-0.54,-0.01,28.55,-0.26,-5.26,39.02,-4.98,1.07,66.63,3.62,-0.34,-5.24
-14,-13,459,57,-515,3876,-0.57,-0.09,28.49,0.57,-5.15,38.76,-4.99,1.07,66.51,3.74,-0.42,-5.06
-6,1,385,10,-343,3920,-0.55,-0.08,27.99,0.10,-3.43,39.20,-5.00,1.06,66.40,3.57,-0.70,-4.45
-8,1,379,-19,-242,3838,-0.54,-0.06,27.50,-0.19,-2.42,38.38,-4.98,1.06,66.29,3.60,-0.70,-4.41
-14,8,368,-22,-188,3903,-0.57,-0.01,27.00,-0.22,-1.88,39.03,-4.96,1.06,66.18,3.72,-0.86,-4.32
-9,17,342,-32,-242,3956,-0.57,0.10,26.39,-0.32,-2.42,39.56,-4.95,1.07,66.08,3.60,-1.08,-4.12
-5,9,296,136,-266,3953,-0.54,0.14,25.55,1.36,-2.66,39.53,-4.94,1.06,65.98,3.51,-0.92,-3.75
-5,14,307,60,-366,3879,-0.52,0.21,24.87,0.60,-3.66,38.79,-4.94,1.05,65.88,3.51,-1.04,-3.86
-4,0,351,111,-265,4005,-0.49,0.19,24.52,1.11,-2.65,40.05,-4.94,1.04,65.78,3.47,-0.74,-4.24
4,8,361,93,-220,3855,-0.42,0.22,24.27,0.93,-2.20,38.55,-4.93,1.04,65.68,3.28,-0.91,-4.33
4,-3,387,-32,-292,3809,-0.35,0.18,24.21,-0.32,-2.92,38.09,-4.91,1.03,65.59,3.26,-0.67,-4.55
-7,-1,380,-14,-322,4006,-0.36,0.16,24.10,-0.14,-3.22,40.06,-4.91,1.02,65.49,3.48,-0.70,-4.49
-9,-9,391,95,-281,3890,-0.38,0.09,24.08,0.95,-2.81,38.90,-4.90,1.02,65.39,3.52,-0.51,-4.58
-17,4,381,60,-196,3916,-0.45,0.10,24.00,0.60,-1.96,39.16,-4.89,1.01,65.30,3.69,-0.78,-4.49
-3,8,341,-107,-273,4059,-0.42,0.14,23.68,-1.07,-2.73,40.59,-4.87,1.03,65.20,3.39,-0.88,-4.16
-3,-5,342,-96,-286,3843,-0.40,0.10,23.39,-0.96,-2.86,38.43,-4.86,1.05,65.11,3.37,-0.62,-4.17
-5,12,303,-80,-290,3855,-0.39,0.16,22.90,-0.80,-2.90,38.55,-4.84,1.06,65.02,3.40,-0.99,-3.86
3,10,282,-60,-356,3981,-0.33,0.20,22.33,-0.60,-3.56,39.81,-4.85,1.06,64.93,3.23,-0.96,-3.69
-2,1,279,-129,-400,3998,-0.31,0.19,21.80,-1.29,-4.00,39.98,-4.87,1.08,64.84,3.34,-0.78,-3.68
-3,9,289,-233,-405,3940,-0.30,0.23,21.38,-2.33,-4.05,39.40,-4.87,1.10,64.76,3.36,-0.97,-3.77
-20,8,331,22,-425,3959,-0.39,0.25,21.27,0.22,-4.25,39.59,-4.88,1.10,64.67,3.74,-0.96,-4.13
-14,2,332,16,-410,3952,-0.43,0.24,21.16,0.16,-4.10,39.52,-4.90,1.09,64.59,3.63,-0.83,-4.14
-1,17,416,-43,-267,3852,-0.40,0.32,21.59,-0.43,-2.67,38.52,-4.88,1.09,64.50,3.35,-1.15,-4.84
-17,15,457,29,-360,4009,-0.46,0.38,22.21,0.29,-3.60,40.09,-4.88,1.08,64.41,3.69,-1.12,-5.16
-11,3,568,43,-463,4007,-0.48,0.36,23.46,0.43,-4.63,40.07,-4.90,1.08,64.32,3.59,-0.87,-6.06
-17,-12,586,70,-532,3898,-0.54,0.25,24.69,0.70,-5.32,38.98,-4.91,1.08,64.22,3.73,-0.54,-6.18
-14,-23,535,50,-546,3848,-0.57,0.08,25.48,0.50,-5.46,38.48,-4.93,1.08,64.12,3.69,-0.27,-5.72
-3,-4,499,-123,-442,4047,-0.53,0.05,25.98,-1.23,-4.42,40.47,-4.94,1.09,64.02,3.47,-0.66,-5.40
0,-89,403,-223,-332,3883,-0.48,-0.50,25.84,-2.23,-3.32,38.83,-4.94,1.12,63.92,3.39,1.21,-4.59
-12,-56,398,-185,-349,3875,-0.50,-0.79,25.68,-1.85,-3.49,38.75,-4.95,1.14,63.81,3.65,0.60,-4.54
-12,-9,408,-217,-599,3899,-0.53,-0.76,25.60,-2.17,-5.99,38.99,-4.96,1.16,63.71,3.66,-0.37,-4.63
-4,-8,442,-190,-632,3959,-0.50,-0.74,25.74,-1.90,-6.32,39.59,-4.98,1.17,63.61,3.50,-0.41,-4.91
-34,-12,724,-82,-665,3819,-0.66,-0.74,27.58,-0.82,-6.65,38.19,-5.00,1.18,63.50,4.17,-0.33,-7.24
-13,3,845,-67,-609,3961,-0.67,-0.64,29.98,-0.67,-6.09,39.61,-5.02,1.18,63.38,3.76,-0.67,-8.19
-32,24,962,-69,-139,3866,-0.80,-0.43,32.85,-0.69,-1.39,38.66,-5.00,1.19,63.25,4.17,-1.16,-9.10
6,32,935,46,22,4051,-0.68,-0.19,35.27,0.46,0.22,40.51,-4.98,1.20,63.11,3.35,-1.39,-8.80
-19,9,683,161,138,3969,-0.73,-0.12,35.91,1.61,1.38,39.69,-4.96,1.20,62.96,3.86,-0.94,-6.64
-9,17,610,180,146,3924,-0.71,-0.00,36.04,1.80,1.46,39.24,-4.95,1.21,62.82,3.64,-1.14,-6.01
-7,-12,466,163,-112,3907,-0.68,-0.08,35.28,1.63,-1.12,39.07,-4.93,1.20,62.68,3.59,-0.53,-4.81
-6,-11,434,66,-124,3940,-0.65,-0.14,34.40,0.66,-1.24,39.40,-4.92,1.21,62.54,3.55,-0.53,-4.56
-12,0,398,-99,-294,3912,-0.66,-0.12,33.38,-0.99,-2.94,39.12,-4.90,1.22,62.41,3.66,-0.77,-4.28
-11,2,429,-75,-254,3866,-0.66,-0.10,32.66,-0.75,-2.54,38.66,-4.88,1.23,62.28,3.63,-0.83,-4.56
-10,20,536,-159,-431,3941,-0.66,0.03,32.67,-1.59,-4.31,39.41,-4.90,1.25,62.15,3.61,-1.24,-5.46
-6,15,575,-116,-499,3914,-0.63,0.12,32.91,-1.16,-4.99,39.14,-4.92,1.27,62.02,3.54,-1.18,-5.78
0,1,561,43,-518,3942,-0.56,0.12,33.04,0.43,-5.18,39.42,-4.93,1.27,61.89,3.41,-0.89,-5.66
-1,5,534,45,-434,3969,-0.51,0.13,32.99,0.45,-4.34,39.69,-4.94,1.27,61.75,3.42,-0.97,-5.42
-5,3,520,22,-304,3870,-0.49,0.14,32.86,0.22,-3.04,38.70,-4.93,1.26,61.62,3.49,-0.93,-5.30
-36,-2,526,-11,-207,3786,-0.66,0.11,32.79,-0.11,-2.07,37.86,-4.92,1.26,61.49,4.16,-0.82,-5.35
-17,13,449,19,-284,3947,-0.70,0.18,32.25,0.19,-2.84,39.47,-4.91,1.26,61.36,3.78,-1.14,-4.71
-8,-2,426,141,-359,3851,-0.68,0.15,31.62,1.41,-3.59,38.51,-4.91,1.25,61.24,3.59,-0.83,-4.53
-20,-1,395,68,-331,3836,-0.73,0.13,30.87,0.68,-3.31,38.36,-4.91,1.25,61.11,3.85,-0.84,-4.29
1,7,392,44,-302,3972,-0.65,0.16,30.17,0.44,-3.02,39.72,-4.91,1.24,60.99,3.40,-1.00,-4.28
-7,0,404,-21,-309,3918,-0.63,0.14,29.62,-0.21,-3.09,39.18,-4.90,1.23,60.88,3.55,-0.85,-4.39
-10,3,407,-115,-285,3914,-0.63,0.15,29.14,-1.15,-2.85,39.14,-4.88,1.25,60.76,3.60,-0.93,-4.43
-6,9,397,-98,-411,3950,-0.60,0.19,28.65,-0.98,-4.11,39.50,-4.90,1.27,60.65,3.52,-1.07,-4.36
-10,17,389,-170,-375,3940,-0.60,0.27,28.16,-1.70,-3.75,39.40,-4.91,1.29,60.53,3.61,-1.27,-4.30
-1,12,396,17,-379,3896,-0.55,0.32,27.76,0.17,-3.79,38.96,-4.92,1.29,60.42,3.41,-1.18,-4.37
-5,10,403,39,-432,3851,-0.52,0.35,27.44,0.39,-4.32,38.51,-4.93,1.28,60.31,3.50,-1.15,-4.43
-2,7,425,-20,-362,3884,-0.48,0.36,27.29,-0.20,-3.62,38.84,-4.93,1.28,60.21,3.43,-1.08,-4.62
-21,11,424,-61,-376,3849,-0.56,0.39,27.15,-0.61,-3.76,38.49,-4.95,1.28,60.10,3.85,-1.17,-4.61
-3,12,329,-50,-396,3924,-0.53,0.42,26.44,-0.50,-3.96,39.24,-4.96,1.28,59.99,3.48,-1.20,-3.82
-2,11,304,-29,-417,3929,-0.49,0.45,25.65,-0.29,-4.17,39.29,-4.98,1.28,59.89,3.46,-1.19,-3.63
-3,2,234,37,-374,3934,-0.46,0.41,24.51,0.37,-3.74,39.34,-4.98,1.27,59.79,3.47,-0.99,-3.07
1,5,202,63,-422,3931,-0.40,0.40,23.29,0.63,-4.22,39.31,-4.99,1.26,59.70,3.38,-1.05,-2.83
1,3,247,105,-492,3946,-0.36,0.38,22.47,1.05,-4.92,39.46,-5.00,1.26,59.61,3.38,-1.00,-3.23
-2,8,254,54,-488,3990,-0.33,0.39,21.77,0.54,-4.88,39.90,-5.01,1.26,59.53,3.44,-1.10,-3.31
-12,0,330,136,-468,3939,-0.37,0.35,21.61,1.36,-4.68,39.39,-5.02,1.25,59.44,3.66,-0.92,-3.95
-3,0,356,245,-522,3871,-0.35,0.32,21.62,2.45,-5.22,38.71,-5.03,1.24,59.35,3.48,-0.91,-4.17
-17,2,468,158,-574,3915,-0.42,0.30,22.31,1.58,-5.74,39.15,-5.04,1.24,59.27,3.79,-0.94,-5.10
-13,9,501,132,-543,3949,-0.46,0.32,23.14,1.32,-5.43,39.49,-5.05,1.23,59.17,3.73,-1.08,-5.35
-7,-3,634,113,-541,3845,-0.46,0.27,24.69,1.13,-5.41,38.45,-5.07,1.23,59.08,3.61,-0.82,-6.43
-20,5,673,29,-491,3822,-0.53,0.28,26.33,0.29,-4.91,38.22,-5.08,1.23,58.97,3.91,-0.99,-6.71
-16,22,733,-200,-464,3966,-0.58,0.38,28.17,-2.00,-4.64,39.66,-5.09,1.25,58.86,3.84,-1.38,-7.16
-18,20,758,-316,-368,3807,-0.63,0.47,29.97,-3.16,-3.68,38.07,-5.10,1.28,58.74,3.90,-1.38,-7.32
7,37,690,-92,-420,3883,-0.52,0.65,31.18,-0.92,-4.20,38.83,-5.11,1.30,58.62,3.38,-1.79,-6.70
9,38,652,0,-353,3907,-0.42,0.81,32.04,0.00,-3.53,39.07,-5.11,1.30,58.49,3.31,-1.85,-6.35
2,33,541,-47,-193,3881,-0.36,0.93,32.14,-0.47,-1.93,38.81,-5.09,1.31,58.36,3.42,-1.79,-5.41
1,26,528,-24,-174,3931,-0.32,1.00,32.15,-0.24,-1.74,39.31,-5.08,1.32,58.23,3.42,-1.67,-5.29
-3,18,523,-112,-105,3924,-0.31,1.01,32.12,-1.12,-1.05,39.24,-5.06,1.33,58.10,3.48,-1.52,-5.25
-2,38,528,-162,-103,3987,-0.29,1.14,32.13,-1.62,-1.03,39.87,-5.04,1.35,57.98,3.44,-1.98,-5.28
5,21,456,-72,-127,4095,-0.23,1.15,31.70,-0.72,-1.27,40.95,-5.02,1.37,57.85,3.27,-1.64,-4.68
0,10,409,9,-165,3954,-0.21,1.10,31.02,0.09,-1.65,39.54,-5.00,1.37,57.73,3.35,-1.41,-4.30
-14,17,392,-127,-358,3844,-0.27,1.09,30.31,-1.27,-3.58,38.44,-5.01,1.40,57.61,3.66,-1.57,-4.17
1,15,401,-209,-392,3892,-0.24,1.07,29.73,-2.09,-3.92,38.92,-5.01,1.43,57.49,3.35,-1.54,-4.26
6,5,436,-227,-383,3884,-0.18,1.00,29.41,-2.27,-3.83,38.84,-5.01,1.47,57.37,3.24,-1.34,-4.57
1,10,447,-231,-376,3855,-0.15,0.96,29.20,-2.31,-3.76,38.55,-5.02,1.50,57.26,3.33,-1.45,-4.66
-3,13,495,-112,-401,3924,-0.16,0.94,29.30,-1.12,-4.01,39.24,-5.03,1.51,57.14,3.43,-1.52,-5.06
-4,13,511,-136,-347,3935,-0.17,0.93,29.49,-1.36,-3.47,39.35,-5.03,1.55,57.02,3.45,-1.54,-5.19
-13,-2,515,4,-403,3906,-0.23,0.82,29.68,0.04,-4.03,39.06,-5.04,1.54,56.90,3.65,-1.20,-5.21
-16,5,519,-39,-385,3930,-0.30,0.77,29.88,-0.39,-3.85,39.30,-5.04,1.54,56.79,3.74,-1.33,-5.24
-13,-5,551,-22,-421,3937,-0.35,0.66,30.25,-0.22,-4.21,39.37,-5.05,1.54,56.67,3.70,-1.10,-5.49
-10,-4,579,25,-383,3886,-0.38,0.57,30.76,0.25,-3.83,38.86,-5.06,1.54,56.54,3.64,-1.09,-5.71
-17,8,658,12,-364,3913,-0.44,0.56,31.70,0.12,-3.64,39.13,-5.06,1.53,56.42,3.81,-1.33,-6.35
-14,0,676,-23,-307,3870,-0.48,0.51,32.65,-0.23,-3.07,38.70,-5.05,1.53,56.29,3.75,-1.15,-6.47
6,30,690,-111,-171,3956,-0.40,0.64,33.59,-1.11,-1.71,39.56,-5.03,1.54,56.15,3.31,-1.80,-6.56
-5,37,671,-114,-262,3961,-0.39,0.80,34.33,-1.14,-2.62,39.61,-5.01,1.56,56.02,3.51,-2.00,-6.37
-1,29,617,19,-139,3954,-0.36,0.90,34.66,0.19,-1.39,39.54,-4.99,1.57,55.88,3.41,-1.87,-5.90
-1,24,591,64,-162,3926,-0.33,0.95,34.80,0.64,-1.62,39.26,-4.98,1.57,55.74,3.39,-1.78,-5.67
-12,18,494,77,-378,3870,-0.37,0.97,34.33,0.77,-3.78,38.70,-4.98,1.57,55.60,3.63,-1.67,-4.86
-1,15,489,-18,-346,4021,-0.34,0.96,33.88,-0.18,-3.46,40.21,-4.97,1.57,55.47,3.40,-1.60,-4.83
-1,15,451,-16,-246,3843,-0.31,0.96,33.24,-0.16,-2.46,38.43,-4.96,1.57,55.34,3.38,-1.60,-4.52
-11,11,469,143,-320,3805,-0.35,0.93,32.78,1.43,-3.20,38.05,-4.96,1.56,55.21,3.59,-1.51,-4.68
-5,3,436,155,-390,3898,-0.34,0.86,32.16,1.55,-3.90,38.98,-4.96,1.56,55.08,3.47,-1.32,-4.42
-7,13,419,1,-405,3972,-0.35,0.85,31.50,0.01,-4.05,39.72,-4.96,1.56,54.95,3.51,-1.53,-4.29
-2,13,397,60,-371,3904,-0.33,0.84,30.77,0.60,-3.71,39.04,-4.97,1.56,54.83,3.41,-1.52,-4.12
-1,19,391,47,-400,3965,-0.30,0.88,30.08,0.47,-4.00,39.65,-4.97,1.55,54.71,3.38,-1.65,-4.08
1,17,332,97,-530,3863,-0.26,0.89,29.10,0.97,-5.30,38.63,-4.98,1.55,54.60,3.34,-1.61,-3.61
-4,25,322,90,-546,3900,-0.26,0.95,28.15,0.90,-5.46,39.00,-4.99,1.55,54.48,3.45,-1.79,-3.55
-2,133,303,-131,-285,3776,-0.25,1.67,27.19,-1.31,-2.85,37.76,-4.97,1.58,54.38,3.39,-4.20,-3.41
15,100,291,-132,-204,3935,-0.13,2.11,26.24,-1.32,-2.04,39.35,-4.95,1.60,54.27,3.00,-3.67,-3.34
12,54,269,-213,-341,4083,-0.05,2.23,25.26,-2.13,-3.41,40.83,-4.95,1.64,54.17,3.03,-2.79,-3.17
8,39,269,-103,-317,3790,0.01,2.25,24.37,-1.03,-3.17,37.90,-4.93,1.64,54.07,3.09,-2.49,-3.20
-6,21,271,2,-307,3983,-0.03,2.15,23.59,0.02,-3.07,39.83,-4.92,1.64,53.98,3.38,-2.10,-3.23
12,26,253,-70,-304,3949,0.05,2.09,22.77,-0.70,-3.04,39.49,-4.91,1.65,53.89,2.98,-2.19,-3.10
2,1,237,-65,-326,3936,0.05,1.89,21.94,-0.65,-3.26,39.36,-4.90,1.64,53.80,3.18,-1.62,-2.99
-6,-5,240,-50,-358,3957,0.01,1.67,21.21,-0.50,-3.58,39.57,-4.90,1.64,53.72,3.35,-1.44,-3.03
-11,-13,205,-189,-226,3898,-0.06,1.42,20.34,-1.89,-2.26,38.98,-4.89,1.66,53.64,3.46,-1.22,-2.76
-11,-11,189,-221,-263,3880,-0.12,1.21,19.46,-2.21,-2.63,38.80,-4.87,1.69,53.56,3.47,-1.22,-2.65
-5,-2,189,-202,-411,3952,-0.14,1.08,18.67,-2.02,-4.11,39.52,-4.88,1.71,53.49,3.36,-1.39,-2.67
-7,-4,177,-182,-308,3942,-0.17,0.95,17.88,-1.82,-3.08,39.42,-4.88,1.74,53.42,3.41,-1.33,-2.59
-12,-12,135,-76,-299,3920,-0.22,0.78,16.92,-0.76,-2.99,39.20,-4.86,1.74,53.35,3.51,-1.11,-2.26
-16,-1,155,-75,-369,3967,-0.30,0.70,16.17,-0.75,-3.69,39.67,-4.87,1.73,53.28,3.62,-1.31,-2.44
0,-11,172,-73,-167,3866,-0.27,0.56,15.60,-0.73,-1.67,38.66,-4.85,1.73,53.22,3.28,-1.07,-2.60
-7,1,216,-83,-319,3964,-0.28,0.51,15.36,-0.83,-3.19,39.64,-4.85,1.72,53.16,3.42,-1.30,-2.98
-5,5,473,14,-478,3940,-0.29,0.49,16.71,0.14,-4.78,39.40,-4.86,1.72,53.10,3.39,-1.37,-5.12
-9,6,518,55,-472,3899,-0.31,0.48,18.20,0.55,-4.72,38.99,-4.87,1.71,53.02,3.48,-1.38,-5.45
-4,4,483,-78,-349,3855,-0.31,0.45,19.32,-0.78,-3.49,38.55,-4.88,1.70,52.95,3.38,-1.33,-5.12
-15,9,451,-224,-420,3939,-0.37,0.46,20.14,-2.24,-4.20,39.39,-4.89,1.73,52.87,3.63,-1.45,-4.83
-3,11,327,-114,-331,3941,-0.35,0.48,20.12,-1.14,-3.31,39.41,-4.87,1.72,52.79,3.37,-1.49,-3.77
1,14,313,-92,-308,3969,-0.31,0.52,20.02,-0.92,-3.08,39.69,-4.86,1.72,52.71,3.27,-1.56,-3.65
-8,5,337,3,-209,3919,-0.33,0.50,20.07,0.03,-2.09,39.19,-4.84,1.72,52.63,3.45,-1.37,-3.85
2,1,361,79,-229,3921,-0.28,0.46,20.27,0.79,-2.29,39.21,-4.83,1.71,52.54,3.23,-1.27,-4.05
-10,5,423,-50,-535,3909,-0.31,0.44,20.82,-0.50,-5.35,39.09,-4.85,1.71,52.46,3.49,-1.35,-4.56
-9,11,442,-84,-582,3934,-0.34,0.46,21.44,-0.84,-5.82,39.34,-4.87,1.72,52.38,3.49,-1.48,-4.70
-17,21,448,-129,-559,3925,-0.41,0.55,22.03,-1.29,-5.59,39.25,-4.88,1.73,52.29,3.68,-1.72,-4.73
-3,26,445,-236,-502,3981,-0.38,0.65,22.54,-2.36,-5.02,39.81,-4.90,1.75,52.20,3.40,-1.86,-4.69
2,14,457,-11,-304,3923,-0.33,0.67,23.07,-0.11,-3.04,39.23,-4.89,1.74,52.11,3.28,-1.62,-4.77
-2,13,465,23,-372,3901,-0.31,0.68,23.60,0.23,-3.72,39.01,-4.89,1.74,52.02,3.36,-1.60,-4.82
-8,3,479,-27,-410,3940,-0.33,0.63,24.16,-0.27,-4.10,39.40,-4.90,1.73,51.92,3.49,-1.38,-4.92
-6,0,476,-15,-437,3953,-0.33,0.57,24.65,-0.15,-4.37,39.53,-4.91,1.73,51.82,3.46,-1.30,-4.88
0,16,489,-147,-396,3857,-0.30,0.61,25.17,-1.47,-3.96,38.57,-4.93,1.75,51.72,3.34,-1.64,-4.97
-3,2,475,-88,-323,3908,-0.29,0.56,25.55,-0.88,-3.23,39.08,-4.92,1.74,51.62,3.39,-1.34,-4.83
1,1,424,9,-367,3947,-0.25,0.51,25.58,0.09,-3.67,39.47,-4.92,1.73,51.52,3.30,-1.30,-4.40
-15,12,456,-14,-501,3896,-0.32,0.53,25.80,-0.14,-5.01,38.96,-4.94,1.74,51.42,3.65,-1.53,-4.66
-14,19,537,-88,-397,3919,-0.37,0.60,26.50,-0.88,-3.97,39.19,-4.95,1.74,51.31,3.65,-1.70,-5.32
-8,16,537,-108,-403,3946,-0.38,0.63,27.12,-1.08,-4.03,39.46,-4.97,1.75,51.20,3.55,-1.65,-5.30
-6,9,525,-56,-241,3838,-0.38,0.63,27.61,-0.56,-2.41,38.38,-4.95,1.75,51.09,3.49,-1.51,-5.18
-1,4,529,75,-220,4003,-0.35,0.59,28.08,0.75,-2.20,40.03,-4.94,1.75,50.98,3.37,-1.39,-5.20
-10,4,563,66,-234,3961,-0.38,0.55,28.71,0.66,-2.34,39.61,-4.93,1.74,50.87,3.56,-1.38,-5.47
-9,3,565,37,-183,3880,-0.39,0.52,29.28,0.37,-1.83,38.80,-4.91,1.74,50.75,3.53,-1.35,-5.46
-17,-3,623,-89,-355,3921,-0.46,0.45,30.15,-0.89,-3.55,39.21,-4.92,1.74,50.63,3.72,-1.21,-5.93
-6,16,641,-65,-342,3986,-0.45,0.50,31.05,-0.65,-3.42,39.86,-4.92,1.73,50.51,3.49,-1.60,-6.05
-11,18,664,-203,-487,3979,-0.47,0.56,31.99,-2.03,-4.87,39.79,-4.93,1.75,50.38,3.61,-1.68,-6.21
-15,20,647,-162,-451,3835,-0.52,0.62,32.74,-1.62,-4.51,38.35,-4.95,1.77,50.25,3.71,-1.75,-6.04
-5,7,597,87,-373,3950,-0.49,0.61,33.11,0.87,-3.73,39.50,-4.95,1.77,50.12,3.50,-1.48,-5.60
-9,5,577,74,-343,3955,-0.50,0.58,33.32,0.74,-3.43,39.55,-4.94,1.76,49.99,3.58,-1.42,-5.43
-14,-6,470,-29,-429,3926,-0.54,0.48,32.85,-0.29,-4.29,39.26,-4.95,1.76,49.86,3.70,-1.17,-4.53
-8,1,433,-79,-452,3917,-0.53,0.44,32.21,-0.79,-4.52,39.17,-4.97,1.77,49.73,3.59,-1.31,-4.23
0,10,379,-102,-267,3877,-0.48,0.46,31.30,-1.02,-2.67,38.77,-4.95,1.78,49.60,3.40,-1.50,-3.79
-11,9,387,-53,-360,3903,-0.50,0.47,30.53,-0.53,-3.60,39.03,-4.95,1.77,49.48,3.63,-1.48,-3.88
-1,14,357,-116,-367,3928,-0.45,0.50,29.66,-1.16,-3.67,39.28,-4.97,1.78,49.36,3.42,-1.60,-3.65
-5,8,352,-69,-327,3871,-0.44,0.50,28.84,-0.69,-3.27,38.71,-4.97,1.78,49.25,3.50,-1.47,-3.63
-9,10,371,-20,-397,3905,-0.45,0.51,28.22,-0.20,-3.97,39.05,-4.97,1.77,49.14,3.59,-1.51,-3.80
-4,8,385,-141,-420,3902,-0.43,0.51,27.74,-1.41,-4.20,39.02,-4.99,1.79,49.03,3.49,-1.48,-3.93
-14,5,441,-190,-448,3874,-0.47,0.49,27.66,-1.90,-4.48,38.74,-5.00,1.81,48.92,3.71,-1.43,-4.40
2,20,458,-179,-368,3987,-0.41,0.56,27.69,-1.79,-3.68,39.87,-5.01,1.84,48.81,3.38,-1.77,-4.54
1,26,504,-204,-485,3918,-0.36,0.67,27.99,-2.04,-4.85,39.18,-5.02,1.86,48.70,3.39,-1.94,-4.92
-2,19,504,-212,-438,3941,-0.34,0.71,28.27,-2.12,-4.38,39.41,-5.03,1.88,48.58,3.45,-1.83,-4.91
-7,10,454,-72,-360,3934,-0.35,0.70,28.21,-0.72,-3.60,39.34,-5.03,1.88,48.47,3.56,-1.64,-4.49
-5,8,430,-12,-281,3955,-0.34,0.68,28.01,-0.12,-2.81,39.55,-5.02,1.88,48.36,3.51,-1.59,-4.28
-18,-6,372,-17,-348,3955,-0.42,0.58,27.48,-0.17,-3.48,39.55,-5.02,1.87,48.25,3.79,-1.27,-3.81
-6,-6,369,-76,-371,3915,-0.41,0.48,26.98,-0.76,-3.71,39.15,-5.03,1.86,48.14,3.55,-1.24,-3.79
-7,-5,373,-125,-284,3903,-0.42,0.40,26.56,-1.25,-2.84,39.03,-5.01,1.88,48.04,3.56,-1.25,-3.83
-3,0,342,-133,-359,3916,-0.39,0.36,25.99,-1.33,-3.59,39.16,-5.02,1.89,47.93,3.48,-1.35,-3.58
-4,5,294,-38,-368,3930,-0.38,0.36,25.18,-0.38,-3.68,39.30,-5.03,1.88,47.83,3.50,-1.44,-3.20
-8,4,284,-16,-337,3887,-0.39,0.35,24.40,-0.16,-3.37,38.87,-5.02,1.87,47.74,3.58,-1.41,-3.13
0,17,331,59,-463,3890,-0.35,0.42,23.98,0.59,-4.63,38.90,-5.03,1.87,47.64,3.42,-1.69,-3.54
9,23,360,-27,-354,3944,-0.26,0.51,23.78,-0.27,-3.54,39.44,-5.03,1.86,47.55,3.21,-1.84,-3.79
18,22,465,-85,-407,3932,-0.12,0.60,24.24,-0.85,-4.07,39.32,-5.04,1.86,47.45,3.00,-1.84,-4.66
6,16,488,-6,-306,3981,-0.08,0.64,24.79,-0.06,-3.06,39.81,-5.03,1.86,47.35,3.22,-1.72,-4.84
-1,12,455,-162,-375,3901,-0.07,0.64,25.08,-1.62,-3.75,39.01,-5.04,1.88,47.25,3.37,-1.66,-4.55
-11,9,435,-87,-356,3858,-0.13,0.64,25.23,-0.87,-3.56,38.58,-5.05,1.87,47.15,3.59,-1.59,-4.37
-5,5,387,-34,-365,3889,-0.15,0.60,25.07,-0.34,-3.65,38.89,-5.05,1.87,47.05,3.47,-1.50,-3.97
-10,6,399,-28,-365,3956,-0.20,0.58,24.99,-0.28,-3.65,39.56,-5.05,1.86,46.95,3.59,-1.51,-4.07
-16,-12,381,-118,-355,3874,-0.27,0.45,24.82,-1.18,-3.55,38.74,-5.06,1.86,46.86,3.74,-1.11,-3.92
-7,0,398,-57,-349,3903,-0.29,0.40,24.77,-0.57,-3.49,39.03,-5.06,1.85,46.76,3.56,-1.33,-4.06
-10,3,497,45,-376,3966,-0.32,0.38,25.32,0.45,-3.76,39.66,-5.06,1.85,46.66,3.63,-1.38,-4.88
1,15,524,4,-373,3940,-0.28,0.43,25.98,0.04,-3.73,39.40,-5.06,1.84,46.55,3.40,-1.64,-5.09
-13,8,632,-51,-349,3893,-0.33,0.44,27.24,-0.51,-3.49,38.93,-5.06,1.83,46.45,3.70,-1.49,-5.96
-10,-3,643,-2,-376,3912,-0.36,0.38,28.44,-0.02,-3.76,39.12,-5.06,1.83,46.33,3.64,-1.25,-6.02
4,17,635,-64,-365,3907,-0.30,0.44,29.47,-0.64,-3.65,39.07,-5.07,1.82,46.22,3.34,-1.67,-5.91
2,8,638,-35,-380,3906,-0.26,0.45,30.41,-0.35,-3.80,39.06,-5.07,1.82,46.09,3.38,-1.48,-5.91
-6,10,629,-45,-400,3925,-0.27,0.46,31.21,-0.45,-4.00,39.25,-5.08,1.81,45.97,3.55,-1.53,-5.81
-10,9,618,-44,-408,3902,-0.30,0.47,31.86,-0.44,-4.08,39.02,-5.09,1.81,45.84,3.64,-1.51,-5.69
-7,7,582,-44,-497,3950,-0.32,0.47,32.22,-0.44,-4.97,39.50,-5.10,1.82,45.72,3.59,-1.47,-5.37
-18,2,577,-19,-439,3907,-0.39,0.43,32.52,-0.19,-4.39,39.07,-5.11,1.82,45.59,3.84,-1.36,-5.32
-12,4,562,-27,-393,3915,-0.43,0.41,32.70,-0.27,-3.93,39.15,-5.11,1.81,45.46,3.73,-1.39,-5.18
-17,-3,567,34,-363,3903,-0.49,0.35,32.89,0.34,-3.63,39.03,-5.11,1.81,45.33,3.85,-1.23,-5.21
-23,-3,598,-77,-253,3850,-0.58,0.30,33.24,-0.77,-2.53,38.50,-5.09,1.81,45.19,3.99,-1.22,-5.46
-6,0,595,-82,-201,3987,-0.56,0.27,33.55,-0.82,-2.01,39.87,-5.07,1.82,45.06,3.62,-1.27,-5.42
-11,9,581,-115,-175,3932,-0.57,0.30,33.74,-1.15,-1.75,39.32,-5.05,1.83,44.92,3.71,-1.47,-5.30
-6,1,575,-92,-142,3953,-0.55,0.27,33.87,-0.92,-1.42,39.53,-5.03,1.84,44.79,3.59,-1.31,-5.24
-9,12,628,-98,-341,3892,-0.55,0.32,34.32,-0.98,-3.41,38.92,-5.03,1.84,44.65,3.65,-1.54,-5.67
-2,17,675,-57,-319,3929,-0.51,0.39,35.00,-0.57,-3.19,39.29,-5.02,1.83,44.51,3.49,-1.66,-6.04
-16,12,802,32,-386,3886,-0.55,0.43,36.39,0.32,-3.86,38.86,-5.02,1.83,44.37,3.79,-1.57,-7.07
-16,3,839,43,-374,3894,-0.60,0.40,37.87,0.43,-3.74,38.94,-5.02,1.83,44.22,3.80,-1.38,-7.34
-12,7,940,-52,-470,3899,-0.61,0.40,39.82,-0.52,-4.70,38.99,-5.04,1.83,44.06,3.74,-1.46,-8.14
-21,18,954,-105,-561,3867,-0.68,0.47,41.66,-1.05,-5.61,38.67,-5.05,1.85,43.89,3.95,-1.72,-8.20
-13,14,930,-163,-464,3836,-0.69,0.51,43.16,-1.63,-4.64,38.36,-5.07,1.87,43.72,3.80,-1.66,-7.94
-2,12,930,-99,-495,3888,-0.63,0.53,44.52,-0.99,-4.95,38.88,-5.08,1.89,43.55,3.57,-1.63,-7.90
-12,23,896,-13,-376,3927,-0.64,0.62,45.53,-0.13,-3.76,39.27,-5.08,1.89,43.36,3.77,-1.88,-7.58
-21,16,887,-18,-440,3940,-0.71,0.66,46.39,-0.18,-4.40,39.40,-5.09,1.89,43.18,3.98,-1.75,-7.47
-15,12,842,-160,-327,3909,-0.73,0.66,46.89,-1.60,-3.27,39.09,-5.08,1.93,42.99,3.85,-1.70,-7.07
-18,9,813,-48,-346,3862,-0.76,0.65,47.16,-0.48,-3.46,38.62,-5.08,1.93,42.81,3.92,-1.63,-6.81
0,12,693,-131,-320,3866,-0.69,0.66,46.67,-1.31,-3.20,38.66,-5.05,1.95,42.62,3.52,-1.71,-5.80
-8,8,649,-157,-364,3920,-0.67,0.64,45.96,-1.57,-3.64,39.20,-5.06,1.98,42.44,3.68,-1.64,-5.44
0,16,407,-173,-409,3878,-0.60,0.68,43.85,-1.73,-4.09,38.78,-5.07,2.01,42.26,3.51,-1.83,-3.45
6,18,334,-186,-473,3900,-0.50,0.72,41.50,-1.86,-4.73,39.00,-5.09,2.03,42.10,3.37,-1.90,-2.89
3,5,62,-154,-452,3921,-0.44,0.68,37.73,-1.54,-4.52,39.21,-5.10,2.05,41.95,3.42,-1.64,-0.69
0,4,39,-86,-425,3906,-0.39,0.63,34.19,-0.86,-4.25,39.06,-5.11,2.05,41.81,3.48,-1.61,-0.60
-4,3,5,-66,-409,3916,-0.38,0.59,30.81,-0.66,-4.09,39.16,-5.12,2.05,41.69,3.56,-1.58,-0.40
-5,2,2,-76,-395,3922,-0.37,0.54,27.74,-0.76,-3.95,39.22,-5.13,2.05,41.58,3.59,-1.54,-0.46
-3,0,5,-68,-388,3922,-0.35,0.49,24.99,-0.68,-3.88,39.22,-5.13,2.04,41.48,3.55,-1.48,-0.56
-3,-5,8,-70,-386,3942,-0.33,0.41,22.54,-0.70,-3.86,39.42,-5.14,2.04,41.39,3.54,-1.35,-0.66
-11,-11,22,-73,-411,3923,-0.37,0.30,20.42,-0.73,-4.11,39.23,-5.15,2.03,41.31,3.72,-1.20,-0.84
0,-6,30,-139,-384,3903,-0.33,0.23,18.56,-1.39,-3.84,39.03,-5.17,2.04,41.24,3.50,-1.29,-0.95
-7,1,109,-25,-423,3901,-0.34,0.22,17.37,-0.25,-4.23,39.01,-5.18,2.03,41.17,3.65,-1.42,-1.66
-3,7,150,-5,-410,3921,-0.32,0.24,16.55,-0.05,-4.10,39.21,-5.18,2.02,41.10,3.57,-1.54,-2.03
-3,11,239,0,-496,3885,-0.31,0.28,16.35,0.00,-4.96,38.85,-5.19,2.01,41.04,3.57,-1.63,-2.78
-6,7,240,-26,-451,3934,-0.32,0.30,16.18,-0.26,-4.51,39.34,-5.20,2.01,40.97,3.64,-1.55,-2.80
0,8,170,-49,-458,3914,-0.28,0.31,15.60,-0.49,-4.58,39.14,-5.22,2.00,40.91,3.52,-1.57,-2.22
-1,10,155,-44,-424,3877,-0.26,0.34,14.99,-0.44,-4.24,38.77,-5.23,1.99,40.85,3.54,-1.61,-2.11
2,7,115,-31,-337,3900,-0.22,0.35,14.19,-0.31,-3.37,39.00,-5.22,1.98,40.80,3.47,-1.55,-1.79
1,8,106,11,-329,3899,-0.20,0.37,13.42,0.11,-3.29,38.99,-5.22,1.97,40.74,3.48,-1.56,-1.73
3,12,123,20,-377,3883,-0.16,0.40,12.83,0.20,-3.77,38.83,-5.22,1.96,40.69,3.43,-1.65,-1.89
4,12,149,2,-444,3942,-0.12,0.44,12.45,0.02,-4.44,39.42,-5.23,1.95,40.64,3.40,-1.65,-2.12
7,11,188,-30,-367,3970,-0.06,0.46,12.35,-0.30,-3.67,39.70,-5.23,1.94,40.59,3.32,-1.63,-2.45
1,13,198,-32,-380,3910,-0.05,0.49,12.33,-0.32,-3.80,39.10,-5.23,1.93,40.55,3.45,-1.67,-2.54
0,11,228,-36,-415,3896,-0.05,0.51,12.48,-0.36,-4.15,38.96,-5.24,1.92,40.50,3.47,-1.63,-2.79
-2,6,235,-35,-453,3938,-0.05,0.50,12.67,-0.35,-4.53,39.38,-5.25,1.91,40.45,3.52,-1.52,-2.84
-8,14,262,-79,-502,3948,-0.10,0.53,13.00,-0.79,-5.02,39.48,-5.26,1.91,40.40,3.66,-1.69,-3.06
4,3,241,-165,-454,4032,-0.06,0.50,13.17,-1.65,-4.54,40.32,-5.28,1.92,40.34,3.42,-1.47,-2.87
-4,6,203,-49,-388,3879,-0.08,0.48,13.09,-0.49,-3.88,38.79,-5.29,1.91,40.29,3.59,-1.52,-2.55
-1,5,218,-67,-360,3872,-0.08,0.47,13.11,-0.67,-3.60,38.72,-5.28,1.90,40.24,3.53,-1.48,-2.68
-2,7,198,-129,-322,3953,-0.08,0.46,13.01,-1.29,-3.22,39.53,-5.26,1.91,40.19,3.54,-1.53,-2.51
8,-1,181,-192,-360,3865,-0.03,0.41,12.81,-1.92,-3.60,38.65,-5.26,1.93,40.14,3.32,-1.37,-2.37
-2,4,146,-61,-336,3933,-0.04,0.39,12.42,-0.61,-3.36,39.33,-5.26,1.92,40.09,3.52,-1.46,-2.08
-3,4,150,-44,-320,3943,-0.05,0.38,12.09,-0.44,-3.20,39.43,-5.25,1.91,40.04,3.54,-1.45,-2.12
-4,3,165,-54,-393,3926,-0.07,0.36,11.89,-0.54,-3.93,39.26,-5.25,1.90,39.99,3.57,-1.41,-2.25
-8,0,173,-41,-409,3891,-0.11,0.32,11.76,-0.41,-4.09,38.91,-5.26,1.89,39.95,3.67,-1.33,-2.32
-3,-4,154,-197,-348,3933,-0.12,0.27,11.52,-1.97,-3.48,39.33,-5.26,1.91,39.90,3.56,-1.25,-2.17
-3,0,140,-173,-355,3916,-0.13,0.24,11.22,-1.73,-3.55,39.16,-5.25,1.94,39.85,3.56,-1.34,-2.06
-2,5,128,-142,-313,3899,-0.12,0.25,10.88,-1.42,-3.13,38.99,-5.23,1.94,39.81,3.53,-1.45,-1.96
-1,3,117,-129,-290,3931,-0.12,0.24,10.51,-1.29,-2.90,39.31,-5.21,1.95,39.77,3.49,-1.41,-1.88
-3,4,82,-112,-337,3937,-0.12,0.24,9.96,-1.12,-3.37,39.37,-5.20,1.94,39.73,3.53,-1.43,-1.60
0,2,91,-106,-311,3924,-0.11,0.23,9.52,-1.06,-3.11,39.24,-5.18,1.93,39.69,3.45,-1.38,-1.69
-6,-9,145,-61,-221,3970,-0.14,0.15,9.45,-0.61,-2.21,39.70,-5.17,1.93,39.65,3.57,-1.13,-2.15
-8,-9,156,-75,-204,3944,-0.17,0.08,9.46,-0.75,-2.04,39.44,-5.15,1.93,39.61,3.61,-1.11,-2.24
-13,-10,179,-97,-334,3903,-0.23,0.01,9.60,-0.97,-3.34,39.03,-5.14,1.91,39.57,3.72,-1.06,-2.43
-9,-12,170,-92,-353,3931,-0.27,-0.06,9.68,-0.92,-3.53,39.31,-5.14,1.90,39.54,3.65,-0.99,-2.35
-10,-21,130,-60,-489,3914,-0.30,-0.18,9.50,-0.60,-4.89,39.14,-5.16,1.89,39.50,3.69,-0.77,-2.01
-7,-18,115,-65,-488,3896,-0.31,-0.28,9.26,-0.65,-4.88,38.96,-5.17,1.89,39.46,3.64,-0.80,-1.89
8,-102,27,-12,-527,4049,-0.23,-0.87,8.49,-0.12,-5.27,40.49,-5.19,1.88,39.43,3.32,1.07,-1.17
3,-62,15,17,-533,3854,-0.19,-1.16,7.74,0.17,-5.33,38.54,-5.20,1.86,39.40,3.42,0.35,-1.09
-1,-13,7,-40,-401,3913,-0.18,-1.12,7.01,-0.40,-4.01,39.13,-5.21,1.84,39.37,3.51,-0.65,-1.04
3,-9,3,-40,-409,3907,-0.14,-1.07,6.32,-0.40,-4.09,39.07,-5.22,1.83,39.34,3.42,-0.73,-1.02
-2,-1,8,-45,-252,3913,-0.14,-0.97,5.74,-0.45,-2.52,39.13,-5.20,1.81,39.32,3.51,-0.91,-1.08
1,2,6,-40,-187,3929,-0.12,-0.86,5.20,-0.40,-1.87,39.29,-5.19,1.80,39.30,3.44,-1.00,-1.08
-2,1,7,-77,-185,3892,-0.12,-0.77,4.72,-0.77,-1.85,38.92,-5.17,1.80,39.28,3.49,-1.00,-1.10
-3,-6,13,-117,-230,3920,-0.13,-0.73,4.33,-1.17,-2.30,39.20,-5.15,1.80,39.26,3.50,-0.87,-1.16
-2,4,49,-58,-334,3934,-0.13,-0.63,4.20,-0.58,-3.34,39.34,-5.15,1.78,39.24,3.47,-1.08,-1.47
-1,3,56,-78,-379,3916,-0.12,-0.55,4.12,-0.78,-3.79,39.16,-5.16,1.76,39.23,3.46,-1.07,-1.53
6,4,61,-47,-574,3910,-0.07,-0.47,4.08,-0.47,-5.74,39.10,-5.17,1.76,39.21,3.31,-1.11,-1.58
1,6,48,-31,-665,3911,-0.06,-0.39,3.96,-0.31,-6.65,39.11,-5.19,1.75,39.20,3.42,-1.17,-1.47
-5,0,12,-65,-529,3917,-0.08,-0.35,3.64,-0.65,-5.29,39.17,-5.21,1.74,39.18,3.56,-1.06,-1.17
-3,1,7,-69,-442,3933,-0.09,-0.31,3.32,-0.69,-4.42,39.33,-5.22,1.73,39.17,3.53,-1.08,-1.14
0,1,5,-61,-420,3923,-0.08,-0.27,3.02,-0.61,-4.20,39.23,-5.24,1.72,39.16,3.48,-1.08,-1.13
2,1,4,-34,-422,3933,-0.06,-0.24,2.74,-0.34,-4.22,39.33,-5.25,1.71,39.15,3.44,-1.08,-1.13
3,0,5,-79,-362,3917,-0.04,-0.21,2.50,-0.79,-3.62,39.17,-5.25,1.69,39.14,3.41,-1.06,-1.14
4,0,0,-66,-387,3920,-0.01,-0.19,2.25,-0.66,-3.87,39.20,-5.26,1.67,39.13,3.39,-1.05,-1.11
3,4,5,0,-384,3950,0.01,-0.15,2.05,0.00,-3.84,39.50,-5.26,1.65,39.12,3.41,-1.13,-1.16
0,7,8,28,-397,3880,0.01,-0.09,1.90,0.28,-3.97,38.80,-5.26,1.64,39.11,3.47,-1.20,-1.19
3,7,38,-37,-437,3893,0.03,-0.04,1.94,-0.37,-4.37,38.93,-5.28,1.63,39.11,3.41,-1.20,-1.44
1,12,57,-45,-466,3876,0.03,0.04,2.09,-0.45,-4.66,38.76,-5.29,1.62,39.10,3.46,-1.32,-1.60
-3,68,101,48,-495,3807,0.01,0.45,2.50,0.48,-4.95,38.07,-5.30,1.61,39.09,3.56,-2.57,-1.96
-10,96,141,80,-519,3901,-0.05,0.99,3.11,0.80,-5.19,39.01,-5.32,1.60,39.08,3.73,-3.28,-2.28
0,47,192,-6,-470,3971,-0.05,1.18,3.97,-0.06,-4.70,39.71,-5.33,1.59,39.06,3.53,-2.33,-2.68
9,38,200,-40,-431,3942,0.01,1.29,4.79,-0.40,-4.31,39.42,-5.34,1.58,39.04,3.34,-2.17,-2.73
4,14,200,-63,-427,3944,0.03,1.25,5.53,-0.63,-4.27,39.44,-5.35,1.58,39.02,3.44,-1.67,-2.71
11,18,198,-57,-420,3906,0.10,1.23,6.19,-0.57,-4.20,39.06,-5.37,1.57,39.00,3.29,-1.74,-2.67
13,12,239,-34,-499,3936,0.17,1.18,7.03,-0.34,-4.99,39.36,-5.38,1.57,38.97,3.24,-1.60,-2.99
2,7,231,-38,-511,3870,0.16,1.11,7.73,-0.38,-5.11,38.70,-5.40,1.57,38.94,3.48,-1.48,-2.90
-3,9,191,-82,-443,3944,0.13,1.05,8.13,-0.82,-4.43,39.44,-5.41,1.57,38.91,3.60,-1.51,-2.55
-4,6,213,-75,-322,3954,0.09,0.98,8.61,-0.75,-3.22,39.54,-5.39,1.57,38.88,3.62,-1.43,-2.72
-3,15,274,-60,-437,3902,0.06,0.98,9.42,-0.60,-4.37,39.02,-5.41,1.57,38.84,3.61,-1.60,-3.21
-1,12,278,-83,-435,3916,0.05,0.95,10.18,-0.83,-4.35,39.16,-5.42,1.57,38.80,3.59,-1.54,-3.23
4,10,252,-79,-425,3917,0.07,0.92,10.70,-0.79,-4.25,39.17,-5.44,1.57,38.76,3.49,-1.49,-2.99
-5,2,243,-81,-461,3905,0.03,0.84,11.11,-0.81,-4.61,39.05,-5.45,1.57,38.71,3.69,-1.30,-2.90
4,9,214,-102,-472,3960,0.05,0.81,11.30,-1.02,-4.72,39.60,-5.47,1.57,38.67,3.51,-1.44,-2.65
-3,3,205,-50,-451,3888,0.03,0.75,11.42,-0.50,-4.51,38.88,-5.48,1.57,38.62,3.67,-1.30,-2.57
-1,1,174,-73,-383,3916,0.02,0.68,11.34,-0.73,-3.83,39.16,-5.49,1.56,38.58,3.64,-1.23,-2.30
5,19,188,-121,-336,3910,0.05,0.73,11.35,-1.21,-3.36,39.10,-5.47,1.57,38.53,3.49,-1.62,-2.42
-5,0,185,-127,-392,3922,0.01,0.65,11.35,-1.27,-3.92,39.22,-5.48,1.59,38.49,3.71,-1.23,-2.39
-6,1,154,-130,-332,3936,-0.02,0.59,11.15,-1.30,-3.32,39.36,-5.46,1.61,38.45,3.73,-1.24,-2.14
-3,1,143,-120,-314,3974,-0.04,0.54,10.91,-1.20,-3.14,39.74,-5.44,1.62,38.40,3.66,-1.23,-2.05
-7,10,145,-102,-328,3874,-0.08,0.55,10.70,-1.02,-3.28,38.74,-5.42,1.62,38.36,3.74,-1.42,-2.07
-1,4,134,-82,-411,3880,-0.08,0.52,10.45,-0.82,-4.11,38.80,-5.44,1.62,38.32,3.63,-1.29,-1.98
0,4,128,-79,-484,3925,-0.07,0.49,10.19,-0.79,-4.84,39.25,-5.45,1.62,38.28,3.62,-1.28,-1.94
-3,5,136,-79,-420,3938,-0.08,0.47,10.00,-0.79,-4.20,39.38,-5.47,1.61,38.24,3.69,-1.29,-2.01
-2,2,134,-80,-423,3921,-0.08,0.44,9.81,-0.80,-4.23,39.21,-5.48,1.61,38.20,3.68,-1.22,-2.00
3,1,133,-82,-398,3954,-0.06,0.40,9.64,-0.82,-3.98,39.54,-5.49,1.60,38.16,3.58,-1.18,-1.99
-3,1,133,-62,-408,3881,-0.07,0.37,9.49,-0.62,-4.08,38.81,-5.50,1.59,38.12,3.71,-1.17,-2.00
-5,4,146,-120,-329,3884,-0.09,0.35,9.43,-1.20,-3.29,38.84,-5.48,1.60,38.09,3.75,-1.23,-2.11
-3,0,150,-110,-373,3930,-0.10,0.32,9.40,-1.10,-3.73,39.30,-5.46,1.60,38.05,3.70,-1.14,-2.14
-4,5,182,-38,-316,3904,-0.12,0.32,9.57,-0.38,-3.16,39.04,-5.45,1.59,38.01,3.71,-1.24,-2.41
-6,-1,185,-62,-320,3916,-0.14,0.28,9.75,-0.62,-3.20,39.16,-5.44,1.58,37.97,3.75,-1.10,-2.42
-4,3,180,-88,-281,3907,-0.15,0.27,9.87,-0.88,-2.81,39.07,-5.42,1.59,37.93,3.70,-1.18,-2.38
-6,7,176,-89,-287,3885,-0.17,0.28,9.96,-0.89,-2.87,38.85,-5.40,1.59,37.89,3.73,-1.27,-2.34
2,8,128,-89,-357,3918,-0.14,0.31,9.74,-0.89,-3.57,39.18,-5.39,1.58,37.85,3.56,-1.29,-1.94
0,7,116,-75,-388,3892,-0.13,0.32,9.47,-0.75,-3.88,38.92,-5.40,1.56,37.82,3.60,-1.26,-1.84
3,3,48,-109,-202,3947,-0.10,0.30,8.82,-1.09,-2.02,39.47,-5.38,1.57,37.78,3.52,-1.18,-1.29
3,1,28,-58,-198,3925,-0.07,0.28,8.11,-0.58,-1.98,39.25,-5.36,1.57,37.75,3.50,-1.13,-1.14
6,-1,9,-62,-356,3913,-0.03,0.25,7.35,-0.62,-3.56,39.13,-5.36,1.55,37.72,3.42,-1.07,-1.00
3,-2,8,-59,-390,3922,-0.01,0.21,6.67,-0.59,-3.90,39.22,-5.37,1.54,37.69,3.48,-1.03,-1.01
-2,-8,36,-12,-354,3925,-0.02,0.14,6.22,-0.12,-3.54,39.25,-5.36,1.53,37.67,3.58,-0.88,-1.26
0,3,57,49,-392,3948,-0.02,0.14,5.94,0.49,-3.92,39.48,-5.36,1.51,37.64,3.54,-1.10,-1.44
3,12,136,-144,-416,3942,0.00,0.20,6.18,-1.44,-4.16,39.42,-5.38,1.53,37.62,3.49,-1.31,-2.10
-4,3,148,-87,-408,3914,-0.02,0.20,6.46,-0.87,-4.08,39.14,-5.39,1.52,37.59,3.65,-1.12,-2.19
-1,9,205,-68,-502,3921,-0.02,0.24,7.07,-0.68,-5.02,39.21,-5.41,1.52,37.57,3.60,-1.25,-2.66
1,10,212,-86,-483,3917,-0.02,0.27,7.66,-0.86,-4.83,39.17,-5.43,1.52,37.54,3.57,-1.28,-2.70
-5,3,198,-70,-491,3931,-0.04,0.26,8.10,-0.70,-4.91,39.31,-5.44,1.52,37.50,3.71,-1.14,-2.57
-3,10,181,-102,-450,3957,-0.06,0.30,8.39,-1.02,-4.50,39.57,-5.46,1.52,37.47,3.68,-1.29,-2.42
-5,8,166,-51,-464,3889,-0.08,0.32,8.57,-0.51,-4.64,38.89,-5.48,1.52,37.44,3.74,-1.25,-2.28
-6,4,188,-55,-441,3891,-0.11,0.31,8.86,-0.55,-4.41,38.91,-5.49,1.51,37.40,3.78,-1.16,-2.46
-6,10,256,-57,-427,3914,-0.14,0.34,9.53,-0.57,-4.27,39.14,-5.50,1.51,37.37,3.79,-1.29,-3.01
-3,8,253,-76,-345,3948,-0.14,0.35,10.12,-0.76,-3.45,39.48,-5.49,1.50,37.33,3.72,-1.25,-2.97
6,5,132,-144,-290,3942,-0.09,0.35,9.91,-1.44,-2.90,39.42,-5.47,1.51,37.29,3.51,-1.19,-1.95
2,2,120,-51,-350,3892,-0.07,0.33,9.66,-0.51,-3.50,38.92,-5.46,1.50,37.25,3.58,-1.12,-1.86
-1,1,217,-36,-439,3923,-0.07,0.30,10.01,-0.36,-4.39,39.23,-5.48,1.49,37.21,3.65,-1.09,-2.67
-1,9,218,-60,-429,3922,-0.07,0.33,10.34,-0.60,-4.29,39.22,-5.49,1.49,37.17,3.66,-1.25,-2.66
-3,5,162,-73,-388,3920,-0.08,0.32,10.30,-0.73,-3.88,39.20,-5.50,1.47,37.13,3.71,-1.16,-2.19
-1,7,153,-54,-394,3925,-0.08,0.33,10.20,-0.54,-3.94,39.25,-5.50,1.46,37.09,3.67,-1.20,-2.11
-3,9,168,-59,-427,3915,-0.09,0.36,10.20,-0.59,-4.27,39.15,-5.51,1.46,37.05,3.72,-1.24,-2.24
-4,7,166,-70,-400,3921,-0.10,0.36,10.20,-0.70,-4.00,39.21,-5.52,1.45,37.01,3.76,-1.20,-2.22
-4,8,146,-2,-350,3901,-0.12,0.37,10.07,-0.02,-3.50,39.01,-5.52,1.43,36.97,3.76,-1.21,-2.06
0,15,132,-48,-356,3972,-0.11,0.43,9.87,-0.48,-3.56,39.72,-5.51,1.42,36.93,3.67,-1.36,-1.94
-1,23,138,-59,-474,3893,-0.10,0.53,9.72,-0.59,-4.74,38.93,-5.53,1.42,36.89,3.70,-1.55,-1.99
10,23,144,-129,-513,3962,-0.03,0.61,9.63,-1.29,-5.13,39.62,-5.54,1.43,36.85,3.46,-1.58,-2.05
-2,15,140,-13,-456,3897,-0.04,0.64,9.52,-0.13,-4.56,38.97,-5.55,1.42,36.81,3.72,-1.42,-2.02
2,24,157,8,-468,3956,-0.02,0.73,9.52,0.08,-4.68,39.56,-5.56,1.42,36.78,3.64,-1.62,-2.16
-1,8,211,-66,-459,3903,-0.03,0.70,9.86,-0.66,-4.59,39.03,-5.58,1.42,36.74,3.71,-1.29,-2.60
-5,15,225,-86,-499,3895,-0.05,0.72,10.25,-0.86,-4.99,38.95,-5.60,1.42,36.70,3.81,-1.44,-2.71
-1,7,219,-103,-394,3908,-0.06,0.69,10.56,-1.03,-3.94,39.08,-5.61,1.44,36.66,3.74,-1.28,-2.65
5,14,211,-107,-370,4012,-0.02,0.71,10.79,-1.07,-3.70,40.12,-5.59,1.45,36.61,3.60,-1.43,-2.57
-4,19,177,-152,-286,3924,-0.04,0.75,10.79,-1.52,-2.86,39.24,-5.58,1.46,36.57,3.77,-1.56,-2.28
16,15,168,-148,-331,4037,0.06,0.77,10.74,-1.48,-3.31,40.37,-5.56,1.48,36.53,3.33,-1.49,-2.21
-4,-1,166,-148,-415,3905,0.03,0.69,10.67,-1.48,-4.15,39.05,-5.57,1.50,36.48,3.75,-1.16,-2.19
-4,-2,171,-157,-475,3940,0.00,0.61,10.65,-1.57,-4.75,39.40,-5.59,1.52,36.44,3.77,-1.13,-2.23
4,6,186,-116,-617,3920,0.03,0.58,10.72,-1.16,-6.17,39.20,-5.60,1.53,36.40,3.61,-1.29,-2.36
-2,5,195,-119,-609,3847,0.01,0.55,10.84,-1.19,-6.09,38.47,-5.62,1.53,36.36,3.75,-1.27,-2.43
-1,0,209,-79,-555,3883,0.00,0.50,11.03,-0.79,-5.55,38.83,-5.64,1.54,36.31,3.74,-1.15,-2.54
4,2,207,-64,-478,3941,0.03,0.46,11.19,-0.64,-4.78,39.41,-5.65,1.54,36.27,3.64,-1.18,-2.52
-20,-11,213,-45,-321,3881,-0.10,0.35,11.37,-0.45,-3.21,38.81,-5.64,1.53,36.23,4.15,-0.88,-2.56
-16,0,217,37,-210,4090,-0.18,0.31,11.56,0.37,-2.10,40.90,-5.62,1.52,36.18,4.09,-1.09,-2.59
-15,-3,161,-17,-335,3969,-0.26,0.26,11.38,-0.17,-3.35,39.69,-5.61,1.51,36.13,4.08,-1.01,-2.12
-17,-1,181,50,-414,3890,-0.34,0.23,11.35,0.50,-4.14,38.90,-5.62,1.50,36.09,4.14,-1.03,-2.29
-10,2,252,-47,-509,3935,-0.36,0.22,11.75,-0.47,-5.09,39.35,-5.63,1.50,36.04,4.02,-1.09,-2.88
0,-1,256,-87,-370,3947,-0.33,0.19,12.14,-0.87,-3.70,39.47,-5.62,1.49,35.99,3.80,-1.02,-2.90
-3,0,212,5,-440,3976,-0.31,0.17,12.22,0.05,-4.40,39.76,-5.63,1.48,35.95,3.86,-1.03,-2.52
-16,-16,222,35,-454,3859,-0.38,0.06,12.35,0.35,-4.54,38.59,-5.64,1.47,35.90,4.15,-0.66,-2.60
-4,-21,233,-31,-365,3979,-0.37,-0.08,12.54,-0.31,-3.65,39.79,-5.63,1.46,35.85,3.90,-0.51,-2.69
-10,-14,221,-68,-318,3924,-0.39,-0.15,12.63,-0.68,-3.18,39.24,-5.61,1.45,35.80,4.01,-0.63,-2.58
-5,-10,224,-119,-358,3902,-0.38,-0.20,12.73,-1.19,-3.58,39.02,-5.60,1.47,35.74,3.90,-0.71,-2.60
-6,-5,203,-145,-327,3909,-0.38,-0.21,12.70,-1.45,-3.27,39.09,-5.59,1.49,35.69,3.91,-0.82,-2.42
-7,-4,137,-75,-226,3881,-0.38,-0.21,12.26,-0.75,-2.26,38.81,-5.57,1.49,35.64,3.92,-0.84,-1.88
-2,1,124,-84,-187,3965,-0.36,-0.19,11.79,-0.84,-1.87,39.65,-5.55,1.49,35.60,3.80,-0.95,-1.78
-2,-7,91,-66,-209,3924,-0.33,-0.21,11.17,-0.66,-2.09,39.24,-5.53,1.49,35.55,3.78,-0.78,-1.51
-3,-7,77,-58,-191,3928,-0.32,-0.23,10.52,-0.58,-1.91,39.28,-5.51,1.49,35.51,3.79,-0.78,-1.41
-3,-17,30,-62,-312,3922,-0.31,-0.31,9.65,-0.62,-3.12,39.22,-5.50,1.48,35.47,3.77,-0.55,-1.04
-6,-18,23,-30,-343,3933,-0.31,-0.39,8.83,-0.30,-3.43,39.33,-5.49,1.47,35.43,3.83,-0.49,-1.00
-10,-17,32,-56,-435,3931,-0.34,-0.46,8.14,-0.56,-4.35,39.31,-5.51,1.46,35.40,3.93,-0.49,-1.10
-10,-17,35,-34,-409,3920,-0.37,-0.51,7.54,-0.34,-4.09,39.20,-5.51,1.44,35.37,3.94,-0.46,-1.14
-4,-7,13,-81,-413,3898,-0.36,-0.50,6.87,-0.81,-4.13,38.98,-5.53,1.43,35.35,3.83,-0.67,-0.97
-2,-6,1,-144,-387,3898,-0.33,-0.49,6.18,-1.44,-3.87,38.98,-5.54,1.45,35.32,3.79,-0.70,-0.89
0,-5,4,-123,-411,3904,-0.30,-0.47,5.59,-1.23,-4.11,39.04,-5.55,1.46,35.30,3.75,-0.73,-0.93
2,-4,1,-109,-411,3922,-0.26,-0.45,5.04,-1.09,-4.11,39.22,-5.57,1.47,35.28,3.71,-0.76,-0.92
-8,-11,-4,-82,-322,3944,-0.28,-0.47,4.51,-0.82,-3.22,39.44,-5.55,1.46,35.26,3.90,-0.61,-0.89
-9,-21,-6,-68,-330,3956,-0.31,-0.55,4.02,-0.68,-3.30,39.56,-5.54,1.45,35.24,3.92,-0.38,-0.89
-6,-103,-37,-50,-409,3973,-0.31,-1.13,3.39,-0.50,-4.09,39.73,-5.55,1.43,35.23,3.87,1.46,-0.65
-8,-98,-27,-59,-390,3862,-0.33,-1.61,2.89,-0.59,-3.90,38.62,-5.55,1.41,35.22,3.92,1.50,-0.74
-6,-16,-11,-90,-472,3872,-0.33,-1.55,2.53,-0.90,-4.72,38.72,-5.57,1.40,35.21,3.89,-0.18,-0.89
-4,-7,-14,-83,-473,3873,-0.33,-1.44,2.20,-0.83,-4.73,38.73,-5.59,1.40,35.20,3.86,-0.39,-0.87
-2,0,-73,-78,-397,3927,-0.30,-1.29,1.53,-0.78,-3.97,39.27,-5.60,1.38,35.19,3.82,-0.56,-0.39
-3,-1,-73,-13,-434,3905,-0.29,-1.17,0.93,-0.13,-4.34,39.05,-5.62,1.36,35.19,3.85,-0.56,-0.41
-5,0,-92,-52,-371,3942,-0.29,-1.05,0.28,-0.52,-3.71,39.42,-5.61,1.34,35.19,3.88,-0.59,-0.27
-4,-4,-105,-62,-407,3933,-0.29,-0.97,-0.39,-0.62,-4.07,39.33,-5.62,1.32,35.19,3.87,-0.52,-0.18
-4,1,-68,72,-535,3943,-0.28,-0.87,-0.77,0.72,-5.35,39.43,-5.63,1.30,35.19,3.88,-0.64,-0.50
-4,2,-57,137,-602,3934,-0.28,-0.77,-1.04,1.37,-6.02,39.34,-5.65,1.28,35.20,3.89,-0.68,-0.60
4,0,-79,-75,-586,3942,-0.23,-0.69,-1.42,-0.75,-5.86,39.42,-5.67,1.28,35.20,3.72,-0.65,-0.43
5,-5,-75,-115,-556,3962,-0.17,-0.65,-1.73,-1.15,-5.56,39.62,-5.69,1.28,35.21,3.70,-0.56,-0.47
3,-8,-48,-206,-309,3923,-0.14,-0.64,-1.85,-2.06,-3.09,39.23,-5.68,1.29,35.21,3.72,-0.51,-0.70
2,-8,-39,-208,-355,3825,-0.11,-0.62,-1.90,-2.08,-3.55,38.25,-5.67,1.30,35.22,3.73,-0.53,-0.78
1,-8,-45,-133,-513,3900,-0.10,-0.61,-1.99,-1.33,-5.13,39.00,-5.69,1.31,35.23,3.76,-0.53,-0.73
0,-5,-69,-80,-506,3921,-0.09,-0.58,-2.21,-0.80,-5.06,39.21,-5.71,1.30,35.24,3.79,-0.60,-0.54
1,-1,-140,0,-464,3948,-0.07,-0.53,-2.84,0.00,-4.64,39.48,-5.72,1.28,35.25,3.78,-0.68,0.05
9,23,-172,60,-610,4073,-0.01,-0.33,-3.61,0.60,-6.10,40.73,-5.74,1.27,35.27,3.61,-1.21,0.30
6,-9,-274,26,-520,3843,0.03,-0.36,-4.92,0.26,-5.20,38.43,-5.75,1.25,35.28,3.67,-0.55,1.12
-4,-2,-284,129,-549,3817,0.00,-0.33,-6.16,1.29,-5.49,38.17,-5.76,1.24,35.31,3.88,-0.68,1.17
13,-2,-322,143,-306,3888,0.08,-0.31,-7.51,1.43,-3.06,38.88,-5.76,1.21,35.34,3.51,-0.68,1.45
-1,-8,-317,204,-383,3951,0.07,-0.33,-8.69,2.04,-3.83,39.51,-5.76,1.19,35.37,3.80,-0.53,1.37
5,-9,-312,106,-529,3886,0.09,-0.35,-9.72,1.06,-5.29,38.86,-5.77,1.17,35.41,3.68,-0.49,1.30
8,-7,-312,125,-538,3847,0.13,-0.36,-10.66,1.25,-5.38,38.47,-5.78,1.15,35.45,3.62,-0.52,1.27
3,-11,-302,63,-540,3855,0.14,-0.39,-11.43,0.63,-5.40,38.55,-5.79,1.13,35.50,3.72,-0.42,1.16
6,-9,-312,-11,-367,3918,0.16,-0.41,-12.19,-0.11,-3.67,39.18,-5.78,1.11,35.55,3.65,-0.44,1.22
2,0,-292,-142,-359,3844,0.15,-0.36,-12.75,-1.42,-3.59,38.44,-5.78,1.12,35.60,3.73,-0.64,1.04
4,-2,-284,-157,-308,3999,0.16,-0.34,-13.21,-1.57,-3.08,39.99,-5.76,1.12,35.65,3.68,-0.61,0.95
0,4,-277,-145,-259,3935,0.15,-0.28,-13.58,-1.45,-2.59,39.35,-5.75,1.13,35.70,3.75,-0.75,0.88
16,-3,-277,-96,-257,3967,0.23,-0.27,-13.91,-0.96,-2.57,39.67,-5.73,1.12,35.76,3.39,-0.60,0.87
8,-3,-274,-147,-283,3912,0.26,-0.26,-14.19,-1.47,-2.83,39.12,-5.71,1.12,35.82,3.54,-0.61,0.84
6,0,-257,-134,-294,3858,0.27,-0.24,-14.34,-1.34,-2.94,38.58,-5.70,1.13,35.87,3.57,-0.68,0.69
2,2,-177,-116,-327,3965,0.25,-0.20,-13.99,-1.16,-3.27,39.65,-5.68,1.13,35.93,3.64,-0.73,0.02
2,0,-160,-123,-251,3946,0.24,-0.18,-13.56,-1.23,-2.51,39.46,-5.67,1.13,35.98,3.63,-0.70,-0.12
2,-1,-97,-256,-221,3920,0.23,-0.17,-12.80,-2.56,-2.21,39.20,-5.65,1.14,36.03,3.63,-0.68,-0.63
3,-1,-64,-219,-229,3893,0.22,-0.16,-11.91,-2.19,-2.29,38.93,-5.64,1.14,36.08,3.60,-0.69,-0.88
-1,0,-14,-281,-315,3897,0.19,-0.14,-10.80,-2.81,-3.15,38.97,-5.63,1.16,36.12,3.69,-0.72,-1.28
2,4,-8,-189,-370,3915,0.19,-0.10,-9.77,-1.89,-3.70,39.15,-5.63,1.17,36.16,3.63,-0.83,-1.30
-1,-1,0,-83,-415,3914,0.16,-0.10,-8.79,-0.83,-4.15,39.14,-5.65,1.17,36.20,3.70,-0.72,-1.34
-2,-1,0,-69,-398,3926,0.13,-0.10,-7.92,-0.69,-3.98,39.26,-5.66,1.15,36.23,3.74,-0.71,-1.32
-1,-6,8,-47,-435,3939,0.11,-0.12,-7.08,-0.47,-4.35,39.39,-5.68,1.14,36.26,3.74,-0.59,-1.36
-2,-8,11,-53,-417,3927,0.09,-0.16,-6.30,-0.53,-4.17,39.27,-5.69,1.12,36.28,3.77,-0.53,-1.36
-1,-6,20,-59,-394,3937,0.08,-0.18,-5.55,-0.59,-3.94,39.37,-5.69,1.10,36.30,3.76,-0.55,-1.42
0,-4,28,-79,-407,3912,0.07,-0.19,-4.82,-0.79,-4.07,39.12,-5.71,1.10,36.32,3.75,-0.59,-1.47
-5,-6,58,-35,-382,3896,0.03,-0.20,-3.99,-0.35,-3.82,38.96,-5.71,1.08,36.34,3.86,-0.54,-1.70
-8,-5,69,-67,-449,3895,-0.02,-0.21,-3.17,-0.67,-4.49,38.95,-5.72,1.08,36.35,3.95,-0.55,-1.77
10,14,92,-34,-456,3908,0.04,-0.11,-2.29,-0.34,-4.56,39.08,-5.74,1.07,36.36,3.57,-0.96,-1.94
8,7,98,-43,-437,3904,0.09,-0.05,-1.46,-0.43,-4.37,39.04,-5.76,1.05,36.37,3.61,-0.82,-1.96
5,5,71,-111,-402,3914,0.11,-0.02,-0.88,-1.11,-4.02,39.14,-5.76,1.07,36.37,3.67,-0.80,-1.72
2,-5,89,-196,-502,3903,0.11,-0.05,-0.25,-1.96,-5.02,39.03,-5.77,1.09,36.37,3.74,-0.60,-1.85
3,11,160,-163,-369,3915,0.12,0.02,0.75,-1.63,-3.69,39.15,-5.76,1.10,36.37,3.71,-0.96,-2.42
-2,-3,159,-153,-395,3968,0.09,0.00,1.64,-1.53,-3.95,39.68,-5.76,1.12,36.36,3.82,-0.68,-2.39
-1,-3,150,-49,-523,3917,0.08,-0.01,2.39,-0.49,-5.23,39.17,-5.78,1.12,36.35,3.81,-0.67,-2.29
-6,1,170,-102,-572,3857,0.03,-0.01,3.19,-1.02,-5.72,38.57,-5.80,1.12,36.34,3.94,-0.76,-2.44
-10,5,208,-19,-458,3880,-0.03,0.02,4.14,-0.19,-4.58,38.80,-5.81,1.11,36.32,4.05,-0.84,-2.73
-5,6,220,2,-477,3954,-0.06,0.06,5.07,0.02,-4.77,39.54,-5.82,1.10,36.30,3.96,-0.86,-2.81
-4,0,225,56,-545,3921,-0.08,0.05,5.94,0.56,-5.45,39.21,-5.84,1.09,36.28,3.95,-0.73,-2.82
-2,12,247,83,-672,3834,-0.08,0.12,6.85,0.83,-6.72,38.34,-5.85,1.09,36.25,3.93,-0.99,-2.98
-3,7,252,19,-388,3888,-0.09,0.15,7.70,0.19,-3.88,38.88,-5.85,1.07,36.22,3.95,-0.89,-3.00
-5,12,266,-51,-426,3869,-0.11,0.21,8.55,-0.51,-4.26,38.69,-5.86,1.06,36.19,4.00,-1.00,-3.09
-5,4,299,-5,-233,3985,-0.13,0.21,9.52,-0.05,-2.33,39.85,-5.85,1.06,36.15,4.00,-0.84,-3.34
-2,9,296,-78,-362,3855,-0.13,0.25,10.38,-0.78,-3.62,38.55,-5.83,1.07,36.11,3.92,-0.96,-3.29
-7,18,373,-72,-485,3854,-0.16,0.33,11.61,-0.72,-4.85,38.54,-5.85,1.08,36.06,4.05,-1.17,-3.91
2,6,366,30,-133,4018,-0.13,0.33,12.68,0.30,-1.33,40.18,-5.83,1.08,36.01,3.84,-0.92,-3.81
-13,19,393,-121,-501,3889,-0.20,0.42,13.81,-1.21,-5.01,38.89,-5.85,1.09,35.96,4.18,-1.22,-4.01
-12,14,429,-71,-371,3974,-0.25,0.46,15.05,-0.71,-3.71,39.74,-5.83,1.10,35.90,4.16,-1.13,-4.28
-1,7,294,-181,-536,3812,-0.23,0.46,15.34,-1.81,-5.36,38.12,-5.84,1.12,35.84,3.94,-1.00,-3.12
-6,7,296,-162,-736,4004,-0.25,0.45,15.61,-1.62,-7.36,40.04,-5.86,1.13,35.78,4.06,-1.01,-3.13
-4,11,331,-47,-410,3963,-0.25,0.48,16.07,-0.47,-4.10,39.63,-5.86,1.12,35.71,4.02,-1.09,-3.41
-6,9,323,-72,-393,3930,-0.26,0.48,16.43,-0.72,-3.93,39.30,-5.84,1.12,35.65,4.05,-1.05,-3.33
-7,5,332,-112,-307,3911,-0.27,0.47,16.81,-1.12,-3.07,39.11,-5.83,1.14,35.58,4.06,-0.98,-3.39
-9,-1,324,-103,-300,3962,-0.30,0.41,17.11,-1.03,-3.00,39.62,-5.81,1.15,35.51,4.10,-0.85,-3.32
-1,14,388,-82,-262,3905,-0.28,0.46,17.76,-0.82,-2.62,39.05,-5.79,1.16,35.44,3.92,-1.17,-3.84
-9,8,396,-127,-300,3927,-0.31,0.46,18.40,-1.27,-3.00,39.27,-5.77,1.17,35.37,4.08,-1.06,-3.88
-9,6,377,-162,-351,3901,-0.33,0.45,18.86,-1.62,-3.51,39.01,-5.77,1.20,35.29,4.08,-1.04,-3.71
-9,5,384,-177,-332,3963,-0.35,0.44,19.32,-1.77,-3.32,39.63,-5.75,1.22,35.22,4.08,-1.03,-3.75
-5,13,372,-196,-389,3909,-0.35,0.47,19.66,-1.96,-3.89,39.09,-5.75,1.25,35.14,3.99,-1.22,-3.64
-7,10,387,-153,-426,3891,-0.35,0.49,20.05,-1.53,-4.26,38.91,-5.76,1.28,35.06,4.04,-1.18,-3.75
-1,8,360,-71,-406,3903,-0.33,0.49,20.24,-0.71,-4.06,39.03,-5.77,1.27,34.98,3.92,-1.14,-3.51
-2,3,334,-70,-507,3969,-0.31,0.46,20.26,-0.70,-5.07,39.69,-5.79,1.28,34.90,3.94,-1.03,-3.29
0,0,283,16,-407,3901,-0.27,0.41,19.96,0.16,-4.07,39.01,-5.79,1.27,34.82,3.90,-0.95,-2.87
-6,0,274,-4,-440,3911,-0.28,0.37,19.63,-0.04,-4.40,39.11,-5.80,1.27,34.74,4.03,-0.94,-2.80
-13,0,265,-55,-390,3938,-0.33,0.33,19.29,-0.55,-3.90,39.38,-5.79,1.26,34.66,4.18,-0.92,-2.73
-7,10,264,-88,-391,3967,-0.34,0.36,18.97,-0.88,-3.91,39.67,-5.77,1.27,34.59,4.05,-1.14,-2.73
-5,10,278,-129,-561,3842,-0.34,0.38,18.77,-1.29,-5.61,38.42,-5.79,1.28,34.52,4.02,-1.15,-2.85
-7,15,309,-208,-509,3948,-0.35,0.44,18.77,-2.08,-5.09,39.48,-5.80,1.30,34.44,4.07,-1.28,-3.11
-2,10,362,-90,-386,3869,-0.33,0.46,19.11,-0.90,-3.86,38.69,-5.79,1.32,34.36,3.95,-1.20,-3.55
-2,17,412,-75,-331,3943,-0.31,0.51,19.71,-0.75,-3.31,39.43,-5.77,1.32,34.29,3.93,-1.36,-3.95
-1,26,516,-62,-272,3944,-0.28,0.62,20.88,-0.62,-2.72,39.44,-5.75,1.33,34.20,3.89,-1.58,-4.79
-8,12,509,-100,-296,3939,-0.30,0.63,21.90,-1.00,-2.96,39.39,-5.73,1.34,34.12,4.03,-1.30,-4.70
-9,11,503,-94,-473,3915,-0.33,0.64,22.78,-0.94,-4.73,39.15,-5.75,1.35,34.03,4.06,-1.29,-4.62
-3,13,496,-89,-467,3888,-0.31,0.65,23.53,-0.89,-4.67,38.88,-5.76,1.37,33.93,3.95,-1.34,-4.54
-1,15,439,-55,-595,4121,-0.29,0.68,23.85,-0.55,-5.95,41.21,-5.78,1.37,33.84,3.91,-1.40,-4.05
-15,1,424,-52,-519,3901,-0.35,0.62,24.05,-0.52,-5.19,39.01,-5.80,1.38,33.74,4.23,-1.10,-3.91
-22,23,419,-15,-548,3764,-0.45,0.69,24.20,-0.15,-5.48,37.64,-5.81,1.38,33.65,4.41,-1.57,-3.86
13,5,438,25,-498,3980,-0.32,0.66,24.46,0.25,-4.98,39.80,-5.82,1.38,33.55,3.67,-1.19,-4.01
-7,10,387,-38,-314,3898,-0.34,0.65,24.37,-0.38,-3.14,38.98,-5.81,1.38,33.45,4.07,-1.29,-3.58
-12,9,376,-75,-334,3977,-0.37,0.64,24.23,-0.75,-3.34,39.77,-5.79,1.39,33.36,4.17,-1.28,-3.49
-10,6,380,-20,-324,3903,-0.40,0.61,24.12,-0.20,-3.24,39.03,-5.78,1.39,33.26,4.12,-1.21,-3.52
-4,11,388,-17,-351,3934,-0.38,0.62,24.08,-0.17,-3.51,39.34,-5.77,1.39,33.16,3.99,-1.31,-3.59
-13,7,416,10,-309,3933,-0.42,0.60,24.21,0.10,-3.09,39.33,-5.75,1.38,33.07,4.18,-1.22,-3.82
-6,12,425,9,-286,3890,-0.42,0.61,24.38,0.09,-2.86,38.90,-5.74,1.38,32.97,4.02,-1.32,-3.89
1,5,434,-78,-412,3933,-0.37,0.58,24.59,-0.78,-4.12,39.33,-5.75,1.38,32.87,3.88,-1.17,-3.95
-4,6,431,-83,-423,3902,-0.36,0.56,24.76,-0.83,-4.23,39.02,-5.77,1.39,32.78,3.99,-1.19,-3.92
-7,-3,400,-114,-496,3977,-0.36,0.49,24.72,-1.14,-4.96,39.77,-5.78,1.40,32.68,4.06,-1.00,-3.66
-7,1,365,-126,-591,3880,-0.37,0.44,24.48,-1.26,-5.91,38.80,-5.80,1.42,32.58,4.07,-1.08,-3.36
-3,3,302,-50,-521,3866,-0.35,0.42,23.87,-0.50,-5.21,38.66,-5.82,1.42,32.49,4.00,-1.11,-2.84
-7,3,301,-45,-477,3905,-0.36,0.39,23.32,-0.45,-4.77,39.05,-5.83,1.42,32.39,4.09,-1.11,-2.85
-3,10,303,-96,-329,3890,-0.34,0.42,22.84,-0.96,-3.29,38.90,-5.81,1.43,32.30,3.99,-1.26,-2.88
-4,3,304,-24,-295,3982,-0.33,0.39,22.41,-0.24,-2.95,39.82,-5.80,1.43,32.21,4.00,-1.12,-2.89
-7,12,367,-9,-295,3911,-0.34,0.43,22.41,-0.09,-2.95,39.11,-5.78,1.43,32.12,4.05,-1.31,-3.43
-2,11,390,-88,-256,3916,-0.32,0.45,22.54,-0.88,-2.56,39.16,-5.76,1.44,32.03,3.93,-1.30,-3.61
-6,10,394,-74,-403,3975,-0.32,0.47,22.69,-0.74,-4.03,39.75,-5.76,1.44,31.94,4.01,-1.28,-3.64
1,7,381,-81,-423,3991,-0.29,0.46,22.75,-0.81,-4.23,39.91,-5.78,1.43,31.85,3.87,-1.21,-3.53
-11,5,374,-80,-392,3949,-0.32,0.45,22.75,-0.80,-3.92,39.49,-5.77,1.43,31.76,4.12,-1.17,-3.46
-10,13,380,-59,-409,3865,-0.35,0.48,22.80,-0.59,-4.09,38.65,-5.77,1.42,31.67,4.11,-1.33,-3.51
3,17,384,-70,-377,3918,-0.30,0.54,22.86,-0.70,-3.77,39.18,-5.76,1.42,31.58,3.82,-1.43,-3.54
-8,8,376,-102,-408,3946,-0.32,0.53,22.87,-1.02,-4.08,39.46,-5.78,1.44,31.49,4.06,-1.26,-3.47
-6,6,373,-68,-393,3964,-0.32,0.52,22.86,-0.68,-3.93,39.64,-5.77,1.43,31.40,4.02,-1.21,-3.44
-2,11,375,-82,-376,3911,-0.30,0.53,22.86,-0.82,-3.76,39.11,-5.76,1.43,31.31,3.92,-1.31,-3.46
-11,4,399,-64,-386,3939,-0.34,0.50,23.01,-0.64,-3.86,39.39,-5.75,1.42,31.22,4.11,-1.16,-3.65
-2,5,390,-5,-318,3920,-0.32,0.48,23.08,-0.05,-3.18,39.20,-5.74,1.42,31.13,3.92,-1.17,-3.57
-2,18,454,-26,-444,3900,-0.30,0.54,23.55,-0.26,-4.44,39.00,-5.75,1.42,31.03,3.92,-1.45,-4.10
-7,12,453,-50,-414,3997,-0.31,0.56,23.95,-0.50,-4.14,39.97,-5.75,1.41,30.94,4.02,-1.33,-4.07
-6,16,449,-101,-446,3954,-0.32,0.60,24.30,-1.01,-4.46,39.54,-5.77,1.42,30.84,4.02,-1.43,-4.03
-3,20,453,-67,-442,3863,-0.30,0.67,24.63,-0.67,-4.42,38.63,-5.78,1.43,30.74,3.96,-1.53,-4.05
-10,15,441,-46,-487,3918,-0.33,0.69,24.86,-0.46,-4.87,39.18,-5.80,1.43,30.65,4.12,-1.44,-3.94
-8,18,439,-27,-478,3889,-0.35,0.73,25.05,-0.27,-4.78,38.89,-5.81,1.43,30.55,4.09,-1.51,-3.91
-4,12,432,-19,-444,3920,-0.34,0.73,25.18,-0.19,-4.44,39.20,-5.82,1.43,30.45,4.01,-1.39,-3.85
-7,8,420,-32,-434,3904,-0.35,0.71,25.22,-0.32,-4.34,39.04,-5.83,1.43,30.35,4.08,-1.30,-3.74
-2,13,404,-13,-443,3901,-0.33,0.72,25.17,-0.13,-4.43,39.01,-5.83,1.42,30.25,3.98,-1.40,-3.60
-6,3,405,-27,-452,3946,-0.33,0.66,25.12,-0.27,-4.52,39.46,-5.84,1.42,30.15,4.07,-1.18,-3.61
-5,7,397,3,-410,3965,-0.33,0.64,25.03,0.03,-4.10,39.65,-5.84,1.42,30.05,4.05,-1.25,-3.54
1,6,391,-56,-469,3934,-0.29,0.61,24.91,-0.56,-4.69,39.34,-5.86,1.42,29.95,3.92,-1.23,-3.49
-11,2,393,12,-455,3957,-0.33,0.56,24.82,0.12,-4.55,39.57,-5.86,1.41,29.85,4.18,-1.13,-3.51
-11,5,398,-57,-492,3836,-0.36,0.54,24.76,-0.57,-4.92,38.36,-5.88,1.42,29.75,4.20,-1.19,-3.55
-1,11,408,-59,-399,3815,-0.33,0.55,24.78,-0.59,-3.99,38.15,-5.88,1.41,29.66,3.99,-1.31,-3.63
-8,2,423,-21,-399,3919,-0.35,0.51,24.88,-0.21,-3.99,39.19,-5.88,1.41,29.56,4.14,-1.11,-3.75
2,10,440,-20,-414,3946,-0.30,0.52,25.08,-0.20,-4.14,39.46,-5.88,1.40,29.46,3.92,-1.27,-3.89
-20,-1,452,21,-441,3958,-0.39,0.46,25.32,0.21,-4.41,39.58,-5.88,1.40,29.36,4.40,-1.03,-3.98
-13,-2,480,-69,-505,3994,-0.43,0.40,25.72,-0.69,-5.05,39.94,-5.90,1.40,29.26,4.28,-1.00,-4.20
-10,6,466,-73,-540,3850,-0.45,0.40,25.99,-0.73,-5.40,38.50,-5.92,1.41,29.15,4.23,-1.16,-4.07
-10,7,450,-85,-546,3877,-0.47,0.40,26.14,-0.85,-5.46,38.77,-5.94,1.42,29.05,4.25,-1.19,-3.93
-8,14,447,-83,-510,3863,-0.47,0.45,26.25,-0.83,-5.10,38.63,-5.95,1.43,28.95,4.22,-1.35,-3.90
-8,12,413,-60,-572,3808,-0.47,0.47,26.14,-0.60,-5.72,38.08,-5.97,1.44,28.84,4.23,-1.33,-3.61
-1,20,432,-66,-379,3941,-0.43,0.55,26.16,-0.66,-3.79,39.41,-5.96,1.44,28.74,4.07,-1.51,-3.77
2,12,431,-92,-350,3961,-0.37,0.57,26.18,-0.92,-3.50,39.61,-5.94,1.45,28.63,3.98,-1.36,-3.75
-4,-3,428,-34,-347,3948,-0.36,0.49,26.17,-0.34,-3.47,39.48,-5.92,1.45,28.53,4.09,-1.03,-3.73
-5,9,486,-275,-323,3899,-0.36,0.50,26.52,-2.75,-3.23,38.99,-5.91,1.48,28.42,4.10,-1.30,-4.20
-6,6,493,-269,-356,3896,-0.36,0.49,26.87,-2.69,-3.56,38.96,-5.91,1.51,28.32,4.12,-1.25,-4.25
-9,4,516,-45,-374,3925,-0.38,0.46,27.33,-0.45,-3.74,39.25,-5.90,1.51,28.21,4.18,-1.20,-4.43
-4,14,515,-51,-418,3910,-0.36,0.50,27.74,-0.51,-4.18,39.10,-5.90,1.51,28.10,4.07,-1.42,-4.40
-7,16,521,26,-427,3903,-0.37,0.55,28.15,0.26,-4.27,39.03,-5.90,1.50,27.99,4.14,-1.47,-4.44
-14,14,527,-14,-442,3896,-0.42,0.58,28.55,-0.14,-4.42,38.96,-5.91,1.50,27.87,4.30,-1.43,-4.48
2,13,491,-81,-358,3928,-0.36,0.60,28.69,-0.81,-3.58,39.28,-5.89,1.51,27.76,3.95,-1.42,-4.16
-2,15,499,-55,-389,3917,-0.34,0.63,28.86,-0.55,-3.89,39.17,-5.88,1.50,27.64,4.02,-1.47,-4.22
0,9,484,-47,-437,3902,-0.31,0.62,28.93,-0.47,-4.37,39.02,-5.89,1.50,27.53,3.97,-1.34,-4.09
-12,8,503,-47,-436,3895,-0.35,0.61,29.10,-0.47,-4.36,38.95,-5.90,1.50,27.41,4.23,-1.32,-4.24
-6,12,503,-122,-395,3903,-0.35,0.62,29.26,-1.22,-3.95,39.03,-5.89,1.53,27.30,4.11,-1.42,-4.24
-17,4,490,-121,-377,3903,-0.42,0.58,29.32,-1.21,-3.77,39.03,-5.87,1.56,27.18,4.34,-1.27,-4.12
-5,5,456,-91,-460,3941,-0.41,0.56,29.17,-0.91,-4.60,39.41,-5.89,1.56,27.07,4.10,-1.29,-3.83
-5,7,460,-114,-458,3930,-0.40,0.54,29.06,-1.14,-4.58,39.30,-5.91,1.58,26.95,4.11,-1.33,-3.87
-8,6,446,-129,-430,3960,-0.41,0.53,28.88,-1.29,-4.30,39.60,-5.92,1.61,26.84,4.18,-1.33,-3.75
-4,5,436,-51,-356,3909,-0.39,0.50,28.65,-0.51,-3.56,39.09,-5.90,1.61,26.72,4.08,-1.30,-3.67
-9,11,438,-113,-425,3887,-0.41,0.52,28.46,-1.13,-4.25,38.87,-5.92,1.62,26.61,4.20,-1.44,-3.69
-10,7,438,-89,-415,3979,-0.43,0.51,28.28,-0.89,-4.15,39.79,-5.92,1.62,26.50,4.23,-1.35,-3.69
-3,19,441,-98,-516,3846,-0.40,0.58,28.14,-0.98,-5.16,38.46,-5.94,1.63,26.39,4.09,-1.62,-3.71
-4,19,434,-133,-488,3929,-0.39,0.63,27.98,-1.33,-4.88,39.29,-5.95,1.65,26.27,4.12,-1.65,-3.66
-13,0,338,-127,-524,3985,-0.43,0.57,27.24,-1.27,-5.24,39.85,-5.97,1.67,26.17,4.32,-1.25,-2.86
-17,4,382,-86,-693,3807,-0.49,0.54,26.85,-0.86,-6.93,38.07,-5.99,1.68,26.06,4.43,-1.33,-3.24
-8,17,424,-104,-393,3941,-0.49,0.59,26.75,-1.04,-3.93,39.41,-5.97,1.68,25.95,4.24,-1.62,-3.60
2,17,404,-8,-256,3894,-0.43,0.63,26.54,-0.08,-2.56,38.94,-5.95,1.68,25.85,4.01,-1.63,-3.43
-12,29,379,11,-467,3868,-0.46,0.75,26.20,0.11,-4.67,38.68,-5.96,1.68,25.75,4.30,-1.90,-3.23
-5,26,390,-49,-371,3959,-0.44,0.83,25.96,-0.49,-3.71,39.59,-5.95,1.68,25.64,4.15,-1.86,-3.32
-5,10,385,-38,-396,3905,-0.43,0.81,25.71,-0.38,-3.96,39.05,-5.95,1.68,25.54,4.14,-1.53,-3.29
-15,11,394,-30,-499,3857,-0.48,0.79,25.54,-0.30,-4.99,38.57,-5.96,1.68,25.44,4.37,-1.55,-3.36
-6,10,376,-49,-413,3920,-0.47,0.78,25.28,-0.49,-4.13,39.20,-5.96,1.67,25.34,4.18,-1.52,-3.22
-2,14,375,-25,-433,3911,-0.43,0.78,25.04,-0.25,-4.33,39.11,-5.96,1.67,25.24,4.09,-1.60,-3.21
-3,8,358,-42,-434,3893,-0.41,0.75,24.72,-0.42,-4.34,38.93,-5.97,1.66,25.14,4.11,-1.47,-3.07
-6,3,345,-88,-469,3909,-0.40,0.70,24.35,-0.88,-4.69,39.09,-5.98,1.67,25.05,4.18,-1.35,-2.97
-3,6,320,31,-364,3906,-0.38,0.66,23.87,0.31,-3.64,39.06,-5.98,1.67,24.95,4.11,-1.40,-2.77
-6,1,308,-35,-393,3946,-0.38,0.60,23.36,-0.35,-3.93,39.46,-5.97,1.66,24.86,4.17,-1.28,-2.68
-11,3,281,15,-465,3902,-0.41,0.56,22.74,0.15,-4.65,39.02,-5.98,1.65,24.77,4.28,-1.31,-2.47
-6,-2,256,108,-367,3931,-0.40,0.49,22.03,1.08,-3.67,39.31,-5.97,1.65,24.68,4.17,-1.18,-2.27
-10,-3,186,-47,-518,3892,-0.42,0.43,20.96,-0.47,-5.18,38.92,-5.99,1.65,24.60,4.27,-1.14,-1.71
2,-18,156,-13,-186,4023,-0.37,0.27,19.81,-0.13,-1.86,40.23,-5.97,1.65,24.52,4.00,-0.80,-1.48
0,-17,61,3,-449,3893,-0.33,0.14,18.21,0.03,-4.49,38.93,-5.98,1.64,24.45,4.04,-0.78,-0.72
1,-6,58,96,-544,3851,-0.29,0.09,16.74,0.96,-5.44,38.51,-5.99,1.63,24.38,4.01,-0.98,-0.74
-4,25,129,-89,-410,3932,-0.29,0.23,15.85,-0.89,-4.10,39.32,-5.98,1.62,24.32,4.11,-1.64,-1.36
-4,12,118,-161,-303,3985,-0.28,0.28,14.99,-1.61,-3.03,39.85,-5.97,1.64,24.26,4.10,-1.40,-1.29
-5,-9,48,-106,-419,3900,-0.29,0.20,13.78,-1.06,-4.19,39.00,-5.98,1.64,24.20,4.13,-0.95,-0.73
-3,-4,41,-61,-460,3879,-0.28,0.16,12.65,-0.61,-4.60,38.79,-5.99,1.63,24.15,4.09,-1.04,-0.71
1,3,57,-30,-475,3911,-0.24,0.16,11.73,-0.30,-4.75,39.11,-6.01,1.62,24.11,4.01,-1.17,-0.87
2,5,68,-55,-452,3915,-0.21,0.17,10.98,-0.55,-4.52,39.15,-6.02,1.61,24.06,3.99,-1.21,-0.98
-1,-4,102,-138,-397,3914,-0.19,0.13,10.50,-1.38,-3.97,39.14,-6.01,1.63,24.02,4.04,-1.03,-1.28
0,0,114,-105,-450,3903,-0.17,0.12,10.15,-1.05,-4.50,39.03,-6.02,1.63,23.98,4.02,-1.11,-1.39
-3,10,180,-118,-523,3871,-0.17,0.17,10.23,-1.18,-5.23,38.71,-6.04,1.64,23.94,4.10,-1.33,-1.95
-1,12,222,-57,-461,3953,-0.16,0.22,10.56,-0.57,-4.61,39.53,-6.05,1.63,23.90,4.06,-1.38,-2.29
-3,7,248,-110,-551,3902,-0.16,0.24,11.02,-1.10,-5.51,39.02,-6.07,1.63,23.86,4.11,-1.29,-2.50
3,19,281,-39,-537,3882,-0.13,0.34,11.63,-0.39,-5.37,38.82,-6.08,1.63,23.81,3.99,-1.55,-2.76
2,12,348,-247,-410,3902,-0.10,0.38,12.59,-2.47,-4.10,39.02,-6.08,1.66,23.76,4.00,-1.44,-3.30
-5,7,344,-276,-385,3939,-0.12,0.38,13.43,-2.76,-3.85,39.39,-6.08,1.68,23.71,4.15,-1.36,-3.24
-12,-5,327,-42,-486,3952,-0.19,0.31,14.08,-0.42,-4.86,39.52,-6.09,1.68,23.65,4.31,-1.09,-3.07
0,12,337,-4,-477,3849,-0.17,0.35,14.73,-0.04,-4.77,38.49,-6.10,1.67,23.59,4.07,-1.44,-3.14
-1,0,340,-108,-402,3918,-0.16,0.32,15.33,-1.08,-4.02,39.18,-6.08,1.67,23.53,4.08,-1.19,-3.14
-3,3,354,-66,-454,3935,-0.16,0.31,15.96,-0.66,-4.54,39.35,-6.09,1.66,23.47,4.12,-1.24,-3.24
-2,18,372,-136,-510,3886,-0.16,0.38,16.63,-1.36,-5.10,38.86,-6.11,1.67,23.40,4.11,-1.58,-3.37
-6,1,368,-107,-407,3993,-0.18,0.35,17.21,-1.07,-4.07,39.93,-6.09,1.67,23.33,4.19,-1.22,-3.32
1,-5,355,7,-380,3967,-0.15,0.29,17.66,0.07,-3.80,39.67,-6.08,1.67,23.26,4.03,-1.08,-3.20
-7,0,336,-91,-508,3901,-0.18,0.26,17.94,-0.91,-5.08,39.01,-6.10,1.67,23.19,4.22,-1.17,-3.02
0,16,373,-108,-419,3916,-0.16,0.33,18.42,-1.08,-4.19,39.16,-6.10,1.66,23.12,4.07,-1.51,-3.32
-11,-1,359,-9,-465,3894,-0.21,0.29,18.77,-0.09,-4.65,38.94,-6.10,1.65,23.05,4.31,-1.15,-3.19
5,17,365,-86,-346,3937,-0.16,0.37,19.12,-0.86,-3.46,39.37,-6.09,1.66,22.97,3.96,-1.54,-3.23
-10,5,345,-175,-465,3908,-0.21,0.36,19.31,-1.75,-4.65,39.08,-6.10,1.68,22.89,4.28,-1.31,-3.05
-6,16,351,4,-375,3961,-0.22,0.42,19.52,0.04,-3.75,39.61,-6.09,1.67,22.82,4.20,-1.54,-3.09
-1,7,356,-54,-372,3896,-0.21,0.42,19.74,-0.54,-3.72,38.96,-6.07,1.67,22.74,4.09,-1.36,-3.13
-22,13,317,-90,-587,3871,-0.32,0.46,19.70,-0.90,-5.87,38.71,-6.09,1.68,22.66,4.56,-1.50,-2.80
-2,12,319,-62,-531,3888,-0.30,0.49,19.68,-0.62,-5.31,38.88,-6.11,1.68,22.58,4.15,-1.48,-2.81
2,0,264,-36,-435,3922,-0.26,0.44,19.32,-0.36,-4.35,39.22,-6.11,1.67,22.50,4.06,-1.22,-2.35
-3,3,267,-80,-481,3881,-0.25,0.41,19.02,-0.80,-4.81,38.81,-6.12,1.67,22.43,4.17,-1.28,-2.39
-2,-3,275,-70,-467,4006,-0.24,0.35,18.79,-0.70,-4.67,40.06,-6.13,1.67,22.36,4.15,-1.14,-2.46
-4,7,292,-50,-454,3807,-0.24,0.36,18.69,-0.50,-4.54,38.07,-6.14,1.66,22.28,4.20,-1.34,-2.60
-4,-9,287,-4,-396,3943,-0.24,0.27,18.58,-0.04,-3.96,39.43,-6.14,1.65,22.21,4.20,-0.98,-2.56
-3,1,297,20,-492,3839,-0.23,0.25,18.53,0.20,-4.92,38.39,-6.15,1.65,22.13,4.18,-1.17,-2.64
1,6,317,-27,-425,3923,-0.20,0.26,18.61,-0.27,-4.25,39.23,-6.15,1.64,22.06,4.09,-1.27,-2.81
-2,12,307,-13,-421,3901,-0.20,0.31,18.62,-0.13,-4.21,39.01,-6.14,1.63,21.99,4.15,-1.40,-2.72
-8,1,293,-95,-487,3938,-0.22,0.28,18.55,-0.95,-4.87,39.38,-6.16,1.63,21.91,4.29,-1.17,-2.60
-7,4,300,-67,-473,3919,-0.24,0.28,18.52,-0.67,-4.73,39.19,-6.17,1.63,21.84,4.28,-1.23,-2.66
-5,12,336,-9,-465,3879,-0.25,0.32,18.72,-0.09,-4.65,38.79,-6.18,1.62,21.77,4.25,-1.40,-2.96
-1,8,330,1,-453,3967,-0.23,0.34,18.86,0.01,-4.53,39.67,-6.18,1.61,21.69,4.16,-1.32,-2.90
-8,7,306,-111,-440,3856,-0.26,0.35,18.84,-1.11,-4.40,38.56,-6.20,1.62,21.62,4.32,-1.31,-2.70
0,13,312,-102,-442,3883,-0.23,0.39,18.86,-1.02,-4.42,38.83,-6.22,1.63,21.54,4.17,-1.44,-2.74
-4,-1,281,-55,-489,3872,-0.23,0.35,18.69,-0.55,-4.89,38.72,-6.23,1.62,21.47,4.26,-1.15,-2.48
-8,3,291,-49,-554,3906,-0.26,0.33,18.59,-0.49,-5.54,39.06,-6.24,1.63,21.40,4.35,-1.22,-2.57
-10,-5,291,-132,-450,3879,-0.29,0.27,18.51,-1.32,-4.50,38.79,-6.26,1.65,21.32,4.41,-1.06,-2.57
-2,5,292,-77,-427,3945,-0.28,0.27,18.44,-0.77,-4.27,39.45,-6.25,1.64,21.25,4.24,-1.26,-2.58
-2,6,287,24,-440,3978,-0.26,0.28,18.35,0.24,-4.40,39.78,-6.25,1.63,21.18,4.24,-1.27,-2.54
-4,1,283,-26,-415,3913,-0.26,0.26,18.24,-0.26,-4.15,39.13,-6.25,1.62,21.10,4.28,-1.16,-2.50
-5,13,293,-65,-492,3875,-0.26,0.31,18.20,-0.65,-4.92,38.75,-6.26,1.62,21.03,4.31,-1.42,-2.59
-8,6,315,-70,-462,3938,-0.29,0.32,18.30,-0.70,-4.62,39.38,-6.27,1.61,20.96,4.38,-1.27,-2.77
-11,0,327,-149,-518,3896,-0.32,0.29,18.47,-1.49,-5.18,38.96,-6.29,1.63,20.89,4.46,-1.15,-2.86
-4,9,343,-159,-465,3876,-0.32,0.31,18.71,-1.59,-4.65,38.76,-6.30,1.65,20.81,4.32,-1.36,-2.99
-6,11,349,35,-432,3994,-0.32,0.35,18.97,0.35,-4.32,39.94,-6.30,1.64,20.74,4.37,-1.40,-3.03
-6,14,355,11,-382,3981,-0.33,0.40,19.24,0.11,-3.82,39.81,-6.29,1.64,20.66,4.36,-1.47,-3.07
-8,1,311,-81,-438,3925,-0.34,0.36,19.21,-0.81,-4.38,39.25,-6.29,1.63,20.58,4.41,-1.19,-2.70
-10,18,319,-12,-535,3913,-0.37,0.44,19.24,-0.12,-5.35,39.13,-6.30,1.63,20.51,4.46,-1.56,-2.76
2,12,319,-99,-473,3871,-0.32,0.47,19.26,-0.99,-4.73,38.71,-6.32,1.63,20.43,4.22,-1.45,-2.76
-8,10,327,-132,-502,3879,-0.34,0.48,19.33,-1.32,-5.02,38.79,-6.34,1.65,20.36,4.44,-1.42,-2.82
-1,9,335,-67,-459,3900,-0.31,0.49,19.44,-0.67,-4.59,39.00,-6.34,1.64,20.28,4.29,-1.40,-2.89
1,9,344,21,-445,3885,-0.27,0.49,19.59,0.21,-4.45,38.85,-6.35,1.63,20.20,4.24,-1.40,-2.95
-9,-1,343,-34,-483,3854,-0.30,0.44,19.73,-0.34,-4.83,38.54,-6.35,1.63,20.12,4.46,-1.18,-2.94
-8,19,367,-97,-420,3889,-0.32,0.51,19.99,-0.97,-4.20,38.89,-6.34,1.63,20.04,4.43,-1.60,-3.13
-4,3,352,-2,-451,3912,-0.31,0.48,20.14,-0.02,-4.51,39.12,-6.34,1.62,19.96,4.35,-1.26,-3.00
-4,7,349,-33,-453,3899,-0.30,0.47,20.26,-0.33,-4.53,38.99,-6.35,1.61,19.88,4.35,-1.34,-2.97
-9,-6,336,-7,-356,3998,-0.33,0.39,20.28,-0.07,-3.56,39.98,-6.33,1.61,19.80,4.45,-1.05,-2.85
-2,14,315,-94,-397,3846,-0.31,0.44,20.17,-0.94,-3.97,38.46,-6.32,1.61,19.72,4.29,-1.47,-2.68
-6,-1,268,-101,-379,3945,-0.31,0.39,19.79,-1.01,-3.79,39.45,-6.30,1.62,19.64,4.36,-1.15,-2.29
-3,3,255,13,-421,3881,-0.30,0.37,19.37,0.13,-4.21,38.81,-6.30,1.61,19.57,4.30,-1.22,-2.19
-3,7,236,78,-431,3909,-0.29,0.37,18.87,0.78,-4.31,39.09,-6.29,1.60,19.49,4.29,-1.30,-2.04
-4,6,233,7,-420,3954,-0.28,0.37,18.40,0.07,-4.20,39.54,-6.29,1.59,19.42,4.31,-1.27,-2.02
1,9,206,-41,-483,3912,-0.25,0.39,17.82,-0.41,-4.83,39.12,-6.30,1.59,19.35,4.21,-1.34,-1.81
-2,12,221,-96,-506,3865,-0.24,0.42,17.39,-0.96,-5.06,38.65,-6.32,1.59,19.28,4.28,-1.41,-1.95
-5,0,230,-58,-487,3844,-0.24,0.38,17.05,-0.58,-4.87,38.44,-6.33,1.59,19.21,4.35,-1.15,-2.03
-1,8,239,-40,-438,3930,-0.23,0.39,16.80,-0.40,-4.38,39.30,-6.33,1.58,19.15,4.26,-1.31,-2.11
-2,9,258,-71,-540,3916,-0.22,0.41,16.70,-0.71,-5.40,39.16,-6.35,1.59,19.08,4.29,-1.34,-2.28
-3,13,278,-138,-491,3912,-0.21,0.45,16.72,-1.38,-4.91,39.12,-6.36,1.60,19.01,4.32,-1.44,-2.44
-2,2,316,21,-503,3921,-0.20,0.41,16.98,0.21,-5.03,39.21,-6.37,1.60,18.95,4.30,-1.21,-2.76
-11,9,334,-114,-531,3871,-0.25,0.43,17.32,-1.14,-5.31,38.71,-6.39,1.61,18.88,4.51,-1.36,-2.90
-4,22,360,-33,-449,3833,-0.25,0.52,17.78,-0.33,-4.49,38.33,-6.39,1.60,18.81,4.37,-1.64,-3.10
-4,11,378,-56,-484,4091,-0.25,0.53,18.31,-0.56,-4.84,40.91,-6.40,1.59,18.74,4.37,-1.42,-3.24
-7,-14,388,-32,-333,3985,-0.27,0.40,18.85,-0.32,-3.33,39.85,-6.38,1.59,18.66,4.43,-0.87,-3.30
-13,12,376,-172,-524,3740,-0.32,0.43,19.25,-1.72,-5.24,37.40,-6.40,1.61,18.59,4.57,-1.42,-3.19
-3,1,431,66,-393,3917,-0.31,0.39,19.96,0.66,-3.93,39.17,-6.39,1.60,18.51,4.36,-1.19,-3.63
1,11,437,-105,-532,3941,-0.27,0.42,20.63,-1.05,-5.32,39.41,-6.41,1.61,18.42,4.28,-1.40,-3.66
-2,11,481,-17,-389,3944,-0.25,0.44,21.50,-0.17,-3.89,39.44,-6.40,1.61,18.34,4.33,-1.41,-4.00
-4,8,494,7,-498,3880,-0.25,0.45,22.36,0.07,-4.98,38.80,-6.40,1.60,18.25,4.38,-1.34,-4.09
-20,-5,496,-57,-420,3984,-0.35,0.37,23.15,-0.57,-4.20,39.84,-6.39,1.60,18.16,4.72,-1.06,-4.08
-3,6,496,-56,-403,3861,-0.33,0.37,23.86,-0.56,-4.03,38.61,-6.38,1.60,18.06,4.37,-1.28,-4.05
-4,12,514,-13,-444,3921,-0.32,0.41,24.61,-0.13,-4.44,39.21,-6.38,1.59,17.97,4.38,-1.41,-4.18
-2,20,518,-25,-358,3913,-0.30,0.49,25.31,-0.25,-3.58,39.13,-6.37,1.59,17.87,4.33,-1.59,-4.19
-8,8,476,-58,-446,3913,-0.32,0.49,25.68,-0.58,-4.46,39.13,-6.37,1.59,17.76,4.46,-1.34,-3.82
-11,-17,445,37,-225,4079,-0.36,0.34,25.83,0.37,-2.25,40.79,-6.35,1.59,17.66,4.52,-0.79,-3.55
3,11,425,-95,-520,4020,-0.30,0.37,25.84,-0.95,-5.20,40.20,-6.37,1.60,17.56,4.23,-1.38,-3.38
-7,5,410,-110,-494,3836,-0.32,0.36,25.76,-1.10,-4.94,38.36,-6.39,1.61,17.46,4.44,-1.26,-3.25
-6,7,344,-132,-553,3840,-0.32,0.37,25.28,-1.32,-5.53,38.40,-6.40,1.63,17.36,4.44,-1.32,-2.70
-20,25,336,-139,-514,3776,-0.41,0.49,24.80,-1.39,-5.14,37.76,-6.42,1.65,17.26,4.76,-1.73,-2.65
-2,8,308,-4,-455,3831,-0.38,0.49,24.20,-0.04,-4.55,38.31,-6.42,1.64,17.16,4.38,-1.38,-2.43
2,7,302,-43,-547,3976,-0.33,0.48,23.62,-0.43,-5.47,39.76,-6.44,1.64,17.07,4.30,-1.36,-2.39
5,6,311,-41,-547,3929,-0.27,0.47,23.16,-0.41,-5.47,39.29,-6.45,1.64,16.98,4.23,-1.33,-2.48
6,7,311,28,-465,3923,-0.20,0.46,22.74,0.28,-4.65,39.23,-6.45,1.64,16.89,4.19,-1.35,-2.48
-7,20,281,-99,-462,3893,-0.23,0.54,22.18,-0.99,-4.62,38.93,-6.46,1.64,16.80,4.47,-1.64,-2.24
-8,2,270,-19,-362,3990,-0.25,0.50,21.61,-0.19,-3.62,39.90,-6.45,1.64,16.71,4.49,-1.26,-2.16
-10,7,229,-5,-498,3765,-0.29,0.49,20.84,-0.05,-4.98,37.65,-6.46,1.64,16.63,4.55,-1.36,-1.84
-5,19,224,-84,-578,3849,-0.29,0.56,20.13,-0.84,-5.78,38.49,-6.48,1.64,16.55,4.46,-1.62,-1.81
3,4,232,-41,-356,4016,-0.24,0.53,19.53,-0.41,-3.56,40.16,-6.46,1.64,16.48,4.27,-1.31,-1.90
2,3,209,-81,-389,3867,-0.21,0.49,18.85,-0.81,-3.89,38.67,-6.44,1.64,16.40,4.27,-1.28,-1.72
-5,-5,180,172,-352,4067,-0.22,0.41,18.06,1.72,-3.52,40.67,-6.44,1.64,16.33,4.41,-1.09,-1.49
-1,-6,178,38,-356,3926,-0.20,0.33,17.34,0.38,-3.56,39.26,-6.43,1.63,16.26,4.32,-1.04,-1.49
-3,3,197,-20,-558,3872,-0.20,0.32,16.81,-0.20,-5.58,38.72,-6.44,1.63,16.19,4.37,-1.22,-1.67
-10,4,230,0,-506,3958,-0.24,0.31,16.53,0.00,-5.06,39.58,-6.45,1.62,16.13,4.52,-1.24,-1.95
-9,-6,227,-59,-468,3913,-0.27,0.24,16.26,-0.59,-4.68,39.13,-6.45,1.61,16.06,4.52,-1.01,-1.94
-10,-2,232,13,-545,3832,-0.30,0.21,16.05,0.13,-5.45,38.32,-6.47,1.61,16.00,4.55,-1.08,-1.98
-6,3,304,-108,-492,3888,-0.31,0.21,16.30,-1.08,-4.92,38.88,-6.48,1.61,15.94,4.49,-1.18,-2.58
-1,11,318,-38,-368,3890,-0.29,0.25,16.61,-0.38,-3.68,38.90,-6.47,1.61,15.87,4.37,-1.35,-2.69
-4,-4,215,10,-435,3986,-0.28,0.20,16.26,0.10,-4.35,39.86,-6.47,1.60,15.80,4.43,-1.03,-1.83
2,3,202,-75,-433,3877,-0.24,0.20,15.87,-0.75,-4.33,38.77,-6.46,1.59,15.74,4.29,-1.16,-1.73
-6,1,229,-53,-466,3965,-0.25,0.19,15.68,-0.53,-4.66,39.65,-6.47,1.58,15.68,4.46,-1.11,-1.96
-4,1,228,-86,-476,3861,-0.25,0.17,15.50,-0.86,-4.76,38.61,-6.48,1.58,15.62,4.43,-1.11,-1.95
1,-2,234,-64,-418,3945,-0.22,0.14,15.38,-0.64,-4.18,39.45,-6.47,1.57,15.56,4.31,-1.04,-2.00
-3,-6,236,-88,-493,3913,-0.22,0.09,15.28,-0.88,-4.93,39.13,-6.49,1.57,15.50,4.40,-0.94,-2.02
1,11,316,-93,-571,3821,-0.19,0.15,15.68,-0.93,-5.71,38.21,-6.50,1.58,15.43,4.32,-1.31,-2.69
-9,11,334,49,-450,4026,-0.23,0.20,16.15,0.49,-4.50,40.26,-6.50,1.57,15.37,4.54,-1.31,-2.82
-12,1,347,83,-393,4135,-0.28,0.19,16.65,0.83,-3.93,41.35,-6.50,1.56,15.30,4.61,-1.10,-2.92
-15,-16,338,-109,-478,3844,-0.34,0.07,17.05,-1.09,-4.78,38.44,-6.51,1.57,15.24,4.70,-0.73,-2.83
-6,19,412,-77,-422,3951,-0.34,0.18,17.86,-0.77,-4.22,39.51,-6.50,1.56,15.17,4.51,-1.47,-3.43
-11,-13,385,19,-419,3877,-0.38,0.08,18.42,0.19,-4.19,38.77,-6.50,1.55,15.09,4.61,-0.78,-3.18
-12,-8,395,-131,-535,3745,-0.41,0.03,18.99,-1.31,-5.35,37.45,-6.51,1.57,15.02,4.66,-0.88,-3.25
-1,18,411,-99,-570,3881,-0.38,0.13,19.59,-0.99,-5.70,38.81,-6.53,1.58,14.94,4.43,-1.44,-3.36
-7,10,457,14,-454,4129,-0.38,0.18,20.42,0.14,-4.54,41.29,-6.53,1.57,14.86,4.55,-1.29,-3.73
-10,1,455,-25,-365,3859,-0.40,0.17,21.16,-0.25,-3.65,38.59,-6.51,1.56,14.77,4.61,-1.10,-3.69
-4,15,489,-139,-471,3855,-0.39,0.24,22.02,-1.39,-4.71,38.55,-6.53,1.59,14.69,4.49,-1.42,-3.95
-16,7,502,-79,-511,3885,-0.45,0.26,22.88,-0.79,-5.11,38.85,-6.54,1.59,14.60,4.77,-1.26,-4.03
-15,20,490,-199,-579,3922,-0.49,0.36,23.58,-1.99,-5.79,39.22,-6.56,1.62,14.50,4.77,-1.57,-3.91
-12,13,496,-54,-521,3953,-0.52,0.40,24.25,-0.54,-5.21,39.53,-6.57,1.62,14.41,4.72,-1.44,-3.93
-11,19,489,-49,-675,3889,-0.53,0.48,24.81,-0.49,-6.75,38.89,-6.59,1.62,14.31,4.72,-1.59,-3.86
-1,26,487,-9,-545,3913,-0.49,0.59,25.30,-0.09,-5.45,39.13,-6.60,1.62,14.21,4.51,-1.76,-3.82
-8,16,441,-67,-474,3968,-0.49,0.63,25.46,-0.67,-4.74,39.68,-6.60,1.62,14.11,4.65,-1.57,-3.42
-6,5,435,11,-390,4011,-0.47,0.59,25.57,0.11,-3.90,40.11,-6.59,1.62,14.01,4.60,-1.33,-3.37
4,15,379,-106,-455,3924,-0.40,0.63,25.32,-1.06,-4.55,39.24,-6.60,1.62,13.91,4.38,-1.54,-2.90
-10,12,383,-140,-448,3860,-0.42,0.64,25.13,-1.40,-4.48,38.60,-6.60,1.65,13.81,4.67,-1.51,-2.93
-1,6,353,-34,-290,3980,-0.39,0.61,24.77,-0.34,-2.90,39.80,-6.58,1.65,13.71,4.47,-1.38,-2.69
-9,3,344,-94,-411,3877,-0.40,0.57,24.39,-0.94,-4.11,38.77,-6.56,1.66,13.61,4.62,-1.31,-2.62
-6,4,354,16,-479,3883,-0.40,0.54,24.11,0.16,-4.79,38.83,-6.56,1.65,13.52,4.56,-1.32,-2.71
-4,1,346,73,-512,3995,-0.38,0.49,23.81,0.73,-5.12,39.95,-6.57,1.65,13.42,4.52,-1.24,-2.65
-8,5,378,15,-526,3917,-0.39,0.47,23.73,0.15,-5.26,39.17,-6.58,1.65,13.33,4.61,-1.32,-2.92
0,4,360,-4,-350,3907,-0.35,0.45,23.56,-0.04,-3.50,39.07,-6.56,1.65,13.24,4.43,-1.29,-2.77
3,8,304,-79,-484,3986,-0.30,0.45,23.06,-0.79,-4.84,39.86,-6.57,1.64,13.14,4.36,-1.37,-2.30
0,15,329,22,-562,3813,-0.27,0.50,22.76,0.22,-5.62,38.13,-6.58,1.64,13.05,4.42,-1.52,-2.52
-7,10,258,-123,-540,3865,-0.29,0.51,22.05,-1.23,-5.40,38.65,-6.60,1.66,12.97,4.58,-1.44,-1.94
-9,14,278,-47,-544,3916,-0.31,0.54,21.54,-0.47,-5.44,39.16,-6.61,1.66,12.88,4.63,-1.53,-2.12
-2,4,291,-5,-434,3960,-0.29,0.51,21.17,-0.05,-4.34,39.60,-6.61,1.65,12.80,4.48,-1.31,-2.24
-5,-4,270,27,-346,3910,-0.29,0.44,20.70,0.27,-3.46,39.10,-6.59,1.65,12.72,4.53,-1.13,-2.07
-5,12,242,-100,-562,3834,-0.30,0.47,20.10,-1.00,-5.62,38.34,-6.61,1.66,12.64,4.55,-1.47,-1.85
0,16,259,-1,-451,3919,-0.27,0.52,19.67,-0.01,-4.51,39.19,-6.61,1.65,12.56,4.44,-1.56,-2.00
-3,1,240,-54,-444,3907,-0.26,0.47,19.17,-0.54,-4.44,39.07,-6.61,1.64,12.48,4.49,-1.23,-1.85
-5,1,253,27,-489,3946,-0.26,0.43,18.80,0.27,-4.89,39.46,-6.61,1.64,12.41,4.54,-1.22,-1.97
-3,12,297,-17,-561,3994,-0.25,0.46,18.73,-0.17,-5.61,39.94,-6.62,1.63,12.33,4.50,-1.45,-2.35
-5,-5,304,38,-527,3949,-0.26,0.38,18.71,0.38,-5.27,39.49,-6.63,1.63,12.26,4.55,-1.08,-2.40
-10,5,313,-158,-469,3808,-0.29,0.38,18.75,-1.58,-4.69,38.08,-6.64,1.65,12.19,4.66,-1.29,-2.48
5,22,320,-87,-347,3974,-0.23,0.47,18.82,-0.87,-3.47,39.74,-6.62,1.66,12.11,4.33,-1.67,-2.53
-3,5,315,16,-503,4012,-0.23,0.46,18.86,0.16,-5.03,40.12,-6.62,1.65,12.04,4.49,-1.32,-2.48
-5,-11,307,24,-458,3880,-0.24,0.34,18.85,0.24,-4.58,38.80,-6.62,1.64,11.96,4.54,-0.95,-2.42
-4,15,298,-105,-595,3792,-0.24,0.40,18.78,-1.05,-5.95,37.92,-6.64,1.65,11.89,4.53,-1.51,-2.34
-8,19,325,-17,-509,3969,-0.26,0.48,18.89,-0.17,-5.09,39.69,-6.64,1.65,11.81,4.62,-1.60,-2.56
-12,2,351,27,-392,4012,-0.31,0.44,19.14,0.27,-3.92,40.12,-6.63,1.64,11.74,4.71,-1.24,-2.77
-7,9,332,-34,-489,3874,-0.32,0.45,19.25,-0.34,-4.89,38.74,-6.64,1.64,11.66,4.61,-1.39,-2.61
-6,11,334,-48,-547,3883,-0.33,0.47,19.36,-0.48,-5.47,38.83,-6.66,1.64,11.58,4.60,-1.43,-2.62
-8,5,337,3,-457,3910,-0.34,0.46,19.48,0.03,-4.57,39.10,-6.65,1.63,11.51,4.65,-1.30,-2.64
3,10,333,11,-452,4021,-0.29,0.47,19.57,0.11,-4.52,40.21,-6.65,1.62,11.43,4.41,-1.40,-2.60
-2,6,335,-74,-515,3877,-0.27,0.46,19.65,-0.74,-5.15,38.77,-6.67,1.62,11.35,4.51,-1.32,-2.61
-3,14,324,-138,-320,3934,-0.26,0.50,19.66,-1.38,-3.20,39.34,-6.65,1.64,11.27,4.52,-1.50,-2.52
1,6,300,-13,-312,3952,-0.23,0.49,19.53,-0.13,-3.12,39.52,-6.63,1.64,11.20,4.42,-1.34,-2.31
-5,25,336,-159,-479,3934,-0.24,0.59,19.62,-1.59,-4.79,39.34,-6.64,1.67,11.12,4.55,-1.77,-2.61
-7,11,333,-87,-422,3943,-0.26,0.60,19.69,-0.87,-4.22,39.43,-6.62,1.67,11.04,4.58,-1.49,-2.58
4,14,291,-60,-395,3880,-0.21,0.62,19.50,-0.60,-3.95,38.80,-6.61,1.67,10.96,4.34,-1.55,-2.23
4,11,278,-56,-473,3890,-0.16,0.63,19.24,-0.56,-4.73,38.90,-6.61,1.66,10.89,4.33,-1.49,-2.13
-8,-3,294,24,-403,3953,-0.19,0.55,19.11,0.24,-4.03,39.53,-6.60,1.65,10.81,4.57,-1.18,-2.26
1,2,287,-46,-487,3876,-0.17,0.51,18.95,-0.46,-4.87,38.76,-6.61,1.65,10.74,4.39,-1.27,-2.21
-8,8,306,-18,-444,4054,-0.20,0.50,18.92,-0.18,-4.44,40.54,-6.61,1.64,10.66,4.58,-1.38,-2.37
3,3,288,-31,-455,3859,-0.16,0.47,18.79,-0.31,-4.55,38.59,-6.61,1.63,10.59,4.34,-1.27,-2.21
3,-1,251,-59,-380,3829,-0.13,0.42,18.44,-0.59,-3.80,38.29,-6.59,1.63,10.51,4.32,-1.17,-1.91
-6,10,232,-5,-517,3855,-0.15,0.44,18.01,-0.05,-5.17,38.55,-6.60,1.63,10.44,4.52,-1.40,-1.76
1,9,265,125,-514,3905,-0.13,0.45,17.83,1.25,-5.14,39.05,-6.60,1.62,10.37,4.37,-1.37,-2.04
-14,-2,267,97,-524,3886,-0.20,0.39,17.67,0.97,-5.24,38.86,-6.61,1.61,10.30,4.70,-1.13,-2.06
-1,6,294,3,-459,3901,-0.19,0.39,17.70,0.03,-4.59,39.01,-6.61,1.60,10.23,4.43,-1.29,-2.29
2,-5,249,-58,-167,4019,-0.16,0.32,17.45,-0.58,-1.67,40.19,-6.59,1.61,10.16,4.35,-1.05,-1.91
-1,21,254,-19,-596,3951,-0.15,0.42,17.25,-0.19,-5.96,39.51,-6.60,1.61,10.09,4.42,-1.60,-1.96
-9,0,267,125,-477,4019,-0.19,0.37,17.16,1.25,-4.77,40.19,-6.60,1.60,10.03,4.59,-1.16,-2.07
-10,-7,266,56,-483,3932,-0.23,0.29,17.06,0.56,-4.83,39.32,-6.60,1.59,9.96,4.62,-0.99,-2.06
-3,1,249,7,-425,3933,-0.23,0.27,16.88,0.07,-4.25,39.33,-6.60,1.58,9.89,4.48,-1.14,-1.92
-2,10,184,-48,-472,3897,-0.22,0.30,16.31,-0.48,-4.72,38.97,-6.60,1.57,9.83,4.46,-1.32,-1.38
-8,1,174,-20,-342,3986,-0.24,0.28,15.74,-0.20,-3.42,39.86,-6.59,1.57,9.76,4.58,-1.13,-1.31
-3,4,126,-41,-500,3900,-0.24,0.28,14.94,-0.41,-5.00,39.00,-6.60,1.56,9.70,4.48,-1.19,-0.93
-1,1,133,4,-434,3970,-0.22,0.26,14.25,0.04,-4.34,39.70,-6.59,1.55,9.65,4.43,-1.12,-1.00
-5,3,133,-37,-475,4004,-0.23,0.25,13.64,-0.37,-4.75,40.04,-6.60,1.54,9.59,4.52,-1.15,-1.02
-4,2,131,-22,-489,3827,-0.23,0.24,13.07,-0.22,-4.89,38.27,-6.60,1.53,9.54,4.50,-1.12,-1.02
-1,-7,103,-4,-463,3871,-0.21,0.17,12.40,-0.04,-4.63,38.71,-6.61,1.52,9.49,4.44,-0.91,-0.80
0,0,100,-12,-526,3874,-0.19,0.15,11.77,-0.12,-5.26,38.74,-6.62,1.51,9.45,4.42,-1.04,-0.79
-2,-2,130,-11,-410,3939,-0.18,0.12,11.38,-0.11,-4.10,39.39,-6.61,1.50,9.40,4.45,-0.99,-1.05
-3,-4,119,-25,-435,3896,-0.18,0.09,10.97,-0.25,-4.35,38.96,-6.60,1.49,9.36,4.47,-0.93,-0.97
-4,-2,109,-27,-411,3901,-0.19,0.07,10.54,-0.27,-4.11,39.01,-6.60,1.48,9.32,4.49,-0.95,-0.90
3,8,100,-25,-455,3881,-0.15,0.11,10.09,-0.25,-4.55,38.81,-6.60,1.47,9.28,4.33,-1.16,-0.83
2,1,62,-96,-282,3943,-0.13,0.10,9.46,-0.96,-2.82,39.43,-6.58,1.47,9.24,4.34,-1.02,-0.53
4,2,36,-130,-273,3914,-0.09,0.11,8.74,-1.30,-2.73,39.14,-6.56,1.48,9.20,4.27,-1.05,-0.33
2,9,-11,12,-406,3951,-0.07,0.15,7.80,0.12,-4.06,39.51,-6.55,1.47,9.17,4.30,-1.19,0.04
-1,6,-40,-7,-426,3900,-0.07,0.17,6.77,-0.07,-4.26,39.00,-6.55,1.45,9.14,4.36,-1.13,0.26
-4,-5,-96,24,-463,3964,-0.08,0.12,5.51,0.24,-4.63,39.64,-6.55,1.44,9.12,4.43,-0.88,0.70
-2,-11,-112,37,-443,3938,-0.09,0.04,4.27,0.37,-4.43,39.38,-6.55,1.42,9.11,4.39,-0.73,0.80
8,-12,-183,-6,-448,3898,-0.03,-0.03,2.73,-0.06,-4.48,38.98,-6.55,1.40,9.09,4.17,-0.67,1.36
9,0,-197,-86,-515,3885,0.03,-0.03,1.26,-0.86,-5.15,38.85,-6.57,1.40,9.09,4.14,-0.92,1.43
4,5,-150,-107,-437,3889,0.05,0.00,0.22,-1.07,-4.37,38.89,-6.55,1.41,9.09,4.23,-1.04,1.00
4,5,-146,-89,-462,3960,0.07,0.03,-0.70,-0.89,-4.62,39.60,-6.56,1.40,9.09,4.23,-1.03,0.94
4,15,-66,-106,-485,3924,0.09,0.12,-1.03,-1.06,-4.85,39.24,-6.58,1.40,9.10,4.24,-1.27,0.26
6,16,-60,-85,-427,3923,0.11,0.21,-1.29,-0.85,-4.27,39.23,-6.56,1.40,9.10,4.18,-1.30,0.20
4,13,-79,-30,-405,3937,0.13,0.27,-1.65,-0.30,-4.05,39.37,-6.55,1.38,9.11,4.21,-1.25,0.35
3,16,-97,-48,-446,3898,0.13,0.34,-2.07,-0.48,-4.46,38.98,-6.55,1.36,9.12,4.23,-1.32,0.49
5,5,-116,-31,-401,3902,0.15,0.33,-2.57,-0.31,-4.01,39.02,-6.54,1.35,9.13,4.17,-1.08,0.63
5,1,-126,-49,-411,3916,0.17,0.31,-3.08,-0.49,-4.11,39.16,-6.53,1.34,9.14,4.16,-0.99,0.70
4,3,-133,-25,-413,3913,0.17,0.29,-3.59,-0.25,-4.13,39.13,-6.52,1.32,9.15,4.17,-1.01,0.75
8,0,-142,27,-438,3917,0.20,0.26,-4.09,0.27,-4.38,39.17,-6.52,1.30,9.17,4.08,-0.93,0.81
2,-7,-110,-7,-549,3912,0.20,0.20,-4.36,-0.07,-5.49,39.12,-6.53,1.29,9.19,4.22,-0.76,0.53
4,-7,-95,29,-545,3922,0.20,0.13,-4.50,0.29,-5.45,39.22,-6.54,1.27,9.20,4.18,-0.73,0.40
-1,-10,-95,-30,-405,3948,0.17,0.06,-4.63,-0.30,-4.05,39.48,-6.53,1.26,9.22,4.28,-0.64,0.39
1,-12,-121,-17,-338,3938,0.16,-0.02,-4.90,-0.17,-3.38,39.38,-6.51,1.24,9.24,4.23,-0.57,0.61
5,-10,-216,-9,-421,3895,0.18,-0.08,-5.73,-0.09,-4.21,38.95,-6.51,1.22,9.26,4.15,-0.58,1.39
5,0,-234,55,-437,3955,0.19,-0.07,-6.59,0.55,-4.37,39.55,-6.51,1.20,9.29,4.14,-0.77,1.51
1,-2,-93,-118,-706,3888,0.18,-0.08,-6.49,-1.18,-7.06,38.88,-6.52,1.20,9.32,4.24,-0.73,0.32
-7,-3,-16,10,-796,3777,0.12,-0.09,-5.94,0.10,-7.96,37.77,-6.54,1.19,9.34,4.43,-0.70,-0.32
0,1,92,-2,-542,3940,0.11,-0.07,-4.79,-0.02,-5.42,39.40,-6.56,1.18,9.36,4.30,-0.78,-1.20
-11,6,136,-133,-597,3916,0.03,-0.03,-3.48,-1.33,-5.97,39.16,-6.57,1.18,9.37,4.55,-0.90,-1.53
-8,6,201,24,-539,3858,-0.02,0.01,-1.90,0.24,-5.39,38.58,-6.59,1.17,9.38,4.52,-0.90,-2.04
-7,16,202,-16,-533,3935,-0.06,0.11,-0.48,-0.16,-5.33,39.35,-6.60,1.16,9.38,4.52,-1.12,-2.01
-6,14,166,-62,-460,3920,-0.09,0.18,0.58,-0.62,-4.60,39.20,-6.61,1.14,9.38,4.51,-1.09,-1.67
-7,11,157,17,-435,3938,-0.13,0.23,1.48,0.17,-4.35,39.38,-6.60,1.12,9.38,4.54,-1.03,-1.57
-6,12,169,8,-499,3932,-0.15,0.28,2.36,0.08,-4.99,39.32,-6.61,1.11,9.37,4.53,-1.05,-1.64
-3,10,170,30,-494,3912,-0.15,0.31,3.16,0.30,-4.94,39.12,-6.62,1.10,9.36,4.47,-1.01,-1.63
-6,9,171,-83,-449,3950,-0.18,0.34,3.89,-0.83,-4.49,39.50,-6.60,1.11,9.34,4.53,-1.01,-1.62
-5,3,179,-35,-447,3962,-0.19,0.32,4.59,-0.35,-4.47,39.62,-6.60,1.10,9.32,4.51,-0.87,-1.66
-3,0,179,17,-480,3928,-0.19,0.29,5.22,0.17,-4.80,39.28,-6.61,1.08,9.30,4.47,-0.79,-1.64
-4,5,175,-2,-493,3829,-0.19,0.29,5.77,-0.02,-4.93,38.29,-6.62,1.07,9.28,4.50,-0.89,-1.59
-2,3,182,-84,-513,3893,-0.19,0.28,6.30,-0.84,-5.13,38.93,-6.63,1.08,9.25,4.47,-0.85,-1.64
-4,0,193,17,-501,3904,-0.19,0.25,6.85,0.17,-5.01,39.04,-6.64,1.07,9.23,4.52,-0.77,-1.71
-5,-12,154,-103,-492,3911,-0.20,0.15,7.10,-1.03,-4.92,39.11,-6.66,1.08,9.20,4.55,-0.51,-1.38
-6,-10,160,-56,-498,3916,-0.22,0.08,7.37,-0.56,-4.98,39.16,-6.67,1.08,9.17,4.59,-0.53,-1.42
3,-10,176,-23,-433,3916,-0.18,0.01,7.71,-0.23,-4.33,39.16,-6.67,1.06,9.14,4.39,-0.50,-1.54
-5,0,186,-93,-521,3884,-0.19,0.01,8.07,-0.93,-5.21,38.84,-6.68,1.07,9.11,4.57,-0.71,-1.62
0,9,230,-94,-467,3981,-0.17,0.06,8.67,-0.94,-4.67,39.81,-6.68,1.10,9.07,4.46,-0.92,-1.97
-3,-2,222,-134,-411,3886,-0.17,0.04,9.15,-1.34,-4.11,38.86,-6.67,1.12,9.04,4.51,-0.71,-1.89
0,13,221,16,-471,3892,-0.16,0.12,9.59,0.16,-4.71,38.92,-6.68,1.10,9.00,4.45,-1.02,-1.87
3,4,211,34,-329,4013,-0.12,0.13,9.92,0.34,-3.29,40.13,-6.66,1.10,8.96,4.37,-0.84,-1.77
0,11,185,-60,-497,3917,-0.11,0.19,10.05,-0.60,-4.97,39.17,-6.68,1.09,8.92,4.44,-1.00,-1.54
-3,10,213,-123,-552,3893,-0.12,0.23,10.35,-1.23,-5.52,38.93,-6.69,1.11,8.88,4.51,-1.00,-1.77
-1,1,227,-2,-413,3856,-0.11,0.21,10.70,-0.02,-4.13,38.56,-6.69,1.10,8.84,4.46,-0.80,-1.88
0,-2,226,90,-398,3935,-0.10,0.18,11.01,0.90,-3.98,39.35,-6.68,1.09,8.79,4.44,-0.73,-1.86
6,-8,266,-91,-470,3899,-0.05,0.11,11.53,-0.91,-4.70,38.99,-6.69,1.11,8.75,4.31,-0.60,-2.18
3,-3,255,1,-491,3939,-0.03,0.08,11.93,0.01,-4.91,39.39,-6.70,1.10,8.70,4.37,-0.68,-2.08
-2,7,253,-90,-508,3936,-0.04,0.12,12.28,-0.90,-5.08,39.36,-6.71,1.11,8.65,4.48,-0.90,-2.05
-7,6,254,-105,-527,3902,-0.08,0.14,12.60,-1.05,-5.27,39.02,-6.73,1.12,8.60,4.60,-0.90,-2.05
-4,1,256,-44,-501,3961,-0.09,0.13,12.90,-0.44,-5.01,39.61,-6.74,1.11,8.55,4.56,-0.79,-2.05
-5,10,261,-15,-501,3849,-0.12,0.18,13.20,-0.15,-5.01,38.49,-6.75,1.11,8.50,4.59,-0.98,-2.08
-6,9,267,25,-437,3994,-0.14,0.22,13.51,0.25,-4.37,39.94,-6.74,1.10,8.44,4.61,-0.97,-2.13
0,6,249,-38,-403,3912,-0.13,0.23,13.68,-0.38,-4.03,39.12,-6.73,1.09,8.39,4.48,-0.91,-1.97
-4,16,236,-62,-496,3940,-0.14,0.31,13.75,-0.62,-4.96,39.40,-6.74,1.09,8.34,4.57,-1.13,-1.85
-1,7,232,-49,-445,3917,-0.13,0.32,13.79,-0.49,-4.45,39.17,-6.73,1.09,8.28,4.50,-0.95,-1.82
-3,0,169,59,-371,3927,-0.14,0.29,13.44,0.59,-3.71,39.27,-6.72,1.08,8.23,4.53,-0.79,-1.29
2,23,176,-66,-481,3889,-0.11,0.40,13.17,-0.66,-4.81,38.89,-6.74,1.08,8.18,4.44,-1.29,-1.36
1,-5,143,-26,-418,3949,-0.09,0.33,12.73,-0.26,-4.18,39.49,-6.73,1.08,8.12,4.44,-0.70,-1.09
-3,-7,141,-10,-459,3845,-0.10,0.25,12.32,-0.10,-4.59,38.45,-6.73,1.06,8.08,4.53,-0.63,-1.08
-8,-4,132,58,-404,3953,-0.14,0.20,11.89,0.58,-4.04,39.53,-6.72,1.05,8.03,4.64,-0.67,-1.02
-9,-5,124,12,-475,3838,-0.18,0.15,11.46,0.12,-4.75,38.38,-6.72,1.04,7.98,4.67,-0.63,-0.96
-7,3,138,39,-470,3934,-0.21,0.16,11.15,0.39,-4.70,39.34,-6.72,1.03,7.94,4.64,-0.78,-1.09
-5,5,143,36,-475,3936,-0.22,0.17,10.91,0.36,-4.75,39.36,-6.73,1.02,7.90,4.60,-0.82,-1.13
-3,0,147,-13,-435,3898,-0.21,0.15,10.72,-0.13,-4.35,38.98,-6.72,1.01,7.85,4.55,-0.71,-1.17
-4,-1,135,19,-449,3920,-0.22,0.13,10.47,0.19,-4.49,39.20,-6.72,0.99,7.81,4.57,-0.67,-1.08
-1,-1,152,32,-473,3929,-0.20,0.11,10.35,0.32,-4.73,39.29,-6.72,0.98,7.77,4.51,-0.66,-1.22
-2,-1,158,-3,-501,3933,-0.19,0.10,10.28,-0.03,-5.01,39.33,-6.73,0.97,7.73,4.53,-0.65,-1.27
-7,-7,151,-54,-462,3857,-0.22,0.04,10.17,-0.54,-4.62,38.57,-6.74,0.96,7.69,4.65,-0.50,-1.22
-6,4,157,-20,-491,3897,-0.23,0.06,10.11,-0.20,-4.91,38.97,-6.75,0.95,7.65,4.64,-0.72,-1.27
-2,5,150,-12,-456,3956,-0.22,0.09,10.01,-0.12,-4.56,39.56,-6.74,0.94,7.61,4.55,-0.74,-1.21
-6,-5,153,-15,-454,3902,-0.23,0.05,9.95,-0.15,-4.54,39.02,-6.74,0.92,7.57,4.64,-0.52,-1.24
-4,-3,133,21,-383,3903,-0.24,0.02,9.76,0.21,-3.83,39.03,-6.73,0.91,7.53,4.59,-0.55,-1.07
0,-5,102,5,-368,3939,-0.21,-0.01,9.41,0.05,-3.68,39.39,-6.72,0.91,7.49,4.49,-0.50,-0.82
-1,-8,76,-15,-495,3869,-0.20,-0.06,8.93,-0.15,-4.95,38.69,-6.73,0.90,7.46,4.51,-0.41,-0.61
-5,-4,86,-50,-538,3870,-0.21,-0.07,8.56,-0.50,-5.38,38.70,-6.75,0.90,7.42,4.61,-0.49,-0.70
-1,-5,128,3,-431,3996,-0.19,-0.10,8.49,0.03,-4.31,39.96,-6.74,0.89,7.39,4.52,-0.46,-1.06
-2,-13,103,-52,-397,3885,-0.19,-0.17,8.27,-0.52,-3.97,38.85,-6.72,0.89,7.36,4.53,-0.28,-0.85
-3,-3,90,-39,-505,3896,-0.19,-0.17,7.99,-0.39,-5.05,38.96,-6.73,0.88,7.33,4.56,-0.48,-0.75
-5,3,97,-19,-465,3898,-0.20,-0.13,7.78,-0.19,-4.65,38.98,-6.74,0.87,7.30,4.60,-0.60,-0.82
0,0,57,-35,-450,3918,-0.18,-0.12,7.35,-0.35,-4.50,39.18,-6.73,0.85,7.27,4.49,-0.53,-0.49
-1,-1,56,-55,-463,3930,-0.17,-0.11,6.96,-0.55,-4.63,39.30,-6.73,0.84,7.24,4.50,-0.50,-0.49
-3,-1,84,-22,-521,3915,-0.17,-0.11,6.77,-0.22,-5.21,39.15,-6.74,0.83,7.21,4.56,-0.50,-0.73
-6,-4,100,-23,-520,3923,-0.19,-0.12,6.71,-0.23,-5.20,39.23,-6.76,0.83,7.18,4.63,-0.43,-0.87
-5,7,118,-39,-526,3862,-0.20,-0.07,6.76,-0.39,-5.26,38.62,-6.78,0.82,7.16,4.63,-0.67,-1.02
-7,5,125,-51,-511,3955,-0.22,-0.03,6.84,-0.51,-5.11,39.55,-6.79,0.82,7.13,4.69,-0.64,-1.08
0,5,117,-13,-539,3863,-0.20,0.00,6.87,-0.13,-5.39,38.63,-6.81,0.82,7.10,4.55,-0.64,-1.01
-8,21,140,-8,-511,3856,-0.23,0.13,7.04,-0.08,-5.11,38.56,-6.82,0.81,7.08,4.73,-1.00,-1.20
1,-3,134,-35,-475,3919,-0.20,0.10,7.15,-0.35,-4.75,39.19,-6.83,0.80,7.05,4.54,-0.49,-1.14
1,-9,128,-67,-379,3998,-0.17,0.03,7.22,-0.67,-3.79,39.98,-6.81,0.80,7.02,4.52,-0.36,-1.09
-3,0,117,24,-563,3901,-0.17,0.03,7.21,0.24,-5.63,39.01,-6.83,0.79,6.99,4.61,-0.53,-0.99
-7,2,137,18,-589,3874,-0.20,0.04,7.32,0.18,-5.89,38.74,-6.84,0.79,6.96,4.71,-0.57,-1.16
-3,-6,144,-53,-414,3860,-0.20,-0.00,7.47,-0.53,-4.14,38.60,-6.83,0.79,6.93,4.62,-0.40,-1.21
-3,0,136,-45,-457,3900,-0.20,-0.00,7.55,-0.45,-4.57,39.00,-6.81,0.78,6.90,4.61,-0.52,-1.14
-2,0,140,-21,-447,3952,-0.19,-0.00,7.65,-0.21,-4.47,39.52,-6.80,0.77,6.87,4.58,-0.51,-1.17
-4,-1,138,-20,-433,3885,-0.19,-0.01,7.73,-0.20,-4.33,38.85,-6.79,0.76,6.84,4.62,-0.48,-1.15
-1,3,133,-46,-507,3902,-0.18,0.01,7.77,-0.46,-5.07,39.02,-6.81,0.76,6.81,4.56,-0.57,-1.11
0,-5,140,6,-387,3914,-0.16,-0.02,7.84,0.06,-3.87,39.14,-6.79,0.76,6.78,4.53,-0.39,-1.16
0,15,182,68,-424,3923,-0.15,0.07,8.17,0.68,-4.24,39.23,-6.79,0.74,6.75,4.52,-0.82,-1.51
3,18,184,66,-443,3909,-0.11,0.18,8.48,0.66,-4.43,39.09,-6.78,0.73,6.71,4.45,-0.90,-1.52
-2,1,157,-88,-442,3906,-0.11,0.17,8.59,-0.88,-4.42,39.06,-6.77,0.75,6.68,4.54,-0.56,-1.28
-3,2,150,-57,-437,3926,-0.12,0.16,8.64,-0.57,-4.37,39.26,-6.76,0.76,6.64,4.55,-0.58,-1.22
-1,4,139,-23,-461,3906,-0.12,0.17,8.63,-0.23,-4.61,39.06,-6.76,0.74,6.61,4.51,-0.62,-1.13
-3,8,138,-73,-456,3916,-0.12,0.20,8.60,-0.73,-4.56,39.16,-6.75,0.77,6.58,4.55,-0.72,-1.12
-2,-1,95,-67,-443,3904,-0.12,0.17,8.32,-0.67,-4.43,39.04,-6.74,0.78,6.54,4.52,-0.54,-0.76
-2,-1,82,-58,-449,3917,-0.12,0.15,7.99,-0.58,-4.49,39.17,-6.72,0.79,6.51,4.51,-0.54,-0.66
0,1,44,-43,-450,3907,-0.11,0.14,7.46,-0.43,-4.50,39.07,-6.71,0.78,6.48,4.46,-0.58,-0.35
2,5,34,-63,-470,3915,-0.09,0.16,6.92,-0.63,-4.70,39.15,-6.72,0.80,6.45,4.42,-0.67,-0.28
2,9,34,-25,-464,3914,-0.07,0.20,6.44,-0.25,-4.64,39.14,-6.72,0.78,6.43,4.41,-0.75,-0.29
1,8,33,-37,-469,3918,-0.05,0.23,6.00,-0.37,-4.69,39.18,-6.73,0.77,6.40,4.43,-0.73,-0.30
-1,2,39,-20,-474,3906,-0.05,0.22,5.63,-0.20,-4.74,39.06,-6.73,0.76,6.38,4.48,-0.60,-0.36
-1,1,40,-14,-464,3910,-0.05,0.20,5.31,-0.14,-4.64,39.10,-6.74,0.74,6.36,4.48,-0.57,-0.38
1,-2,38,-11,-466,3898,-0.04,0.17,5.01,-0.11,-4.66,38.98,-6.74,0.73,6.34,4.44,-0.49,-0.37
1,-2,36,-10,-461,3914,-0.03,0.14,4.73,-0.10,-4.61,39.14,-6.74,0.71,6.32,4.44,-0.47,-0.36
-1,-3,37,-24,-472,3920,-0.04,0.11,4.49,-0.24,-4.72,39.20,-6.74,0.70,6.30,4.48,-0.43,-0.37
-2,-2,37,-30,-481,3900,-0.04,0.08,4.26,-0.30,-4.81,39.00,-6.76,0.69,6.29,4.51,-0.44,-0.38
-1,2,58,-14,-488,3896,-0.05,0.09,4.19,-0.14,-4.88,38.96,-6.77,0.68,6.27,4.50,-0.51,-0.56
1,0,54,-11,-447,3914,-0.04,0.08,4.10,-0.11,-4.47,39.14,-6.76,0.66,6.26,4.45,-0.46,-0.53
3,0,36,-25,-458,3926,-0.01,0.07,3.91,-0.25,-4.58,39.26,-6.75,0.65,6.24,4.40,-0.45,-0.38
2,1,33,-24,-465,3910,0.00,0.07,3.72,-0.24,-4.65,39.10,-6.76,0.63,6.23,4.42,-0.46,-0.36
1,2,22,4,-471,3925,0.01,0.08,3.48,0.04,-4.71,39.25,-6.76,0.61,6.21,4.44,-0.47,-0.27
1,1,15,11,-474,3914,0.01,0.07,3.23,0.11,-4.74,39.14,-6.76,0.60,6.20,4.44,-0.43,-0.22
-1,0,5,-13,-485,3917,0.00,0.07,2.93,-0.13,-4.85,39.17,-6.77,0.58,6.19,4.49,-0.40,-0.14
-1,-1,4,-18,-489,3915,-0.00,0.05,2.66,-0.18,-4.89,39.15,-6.78,0.57,6.18,4.50,-0.37,-0.14
-1,-5,7,-27,-487,3916,-0.01,0.02,2.44,-0.27,-4.87,39.16,-6.80,0.56,6.17,4.51,-0.28,-0.17
-1,-2,9,-32,-484,3906,-0.01,0.00,2.25,-0.32,-4.84,39.06,-6.82,0.56,6.16,4.52,-0.33,-0.20
-1,-3,24,-24,-493,3904,-0.02,-0.01,2.17,-0.24,-4.93,39.04,-6.83,0.55,6.15,4.54,-0.30,-0.33
-2,-4,24,-4,-469,3916,-0.03,-0.04,2.10,-0.04,-4.69,39.16,-6.83,0.53,6.14,4.56,-0.26,-0.33
-3,-5,28,5,-481,3911,-0.04,-0.06,2.06,0.05,-4.81,39.11,-6.84,0.52,6.13,4.59,-0.22,-0.36
-2,-6,27,-23,-443,3926,-0.05,-0.09,2.02,-0.23,-4.43,39.26,-6.82,0.51,6.13,4.56,-0.19,-0.35
1,-5,6,-24,-463,3915,-0.04,-0.12,1.86,-0.24,-4.63,39.15,-6.81,0.49,6.12,4.49,-0.19,-0.18
2,-3,4,-27,-467,3919,-0.02,-0.12,1.69,-0.27,-4.67,39.19,-6.81,0.48,6.11,4.46,-0.22,-0.17
0,-1,-1,-19,-468,3919,-0.02,-0.12,1.52,-0.19,-4.68,39.19,-6.81,0.46,6.10,4.50,-0.25,-0.13
-1,-1,0,-22,-471,3927,-0.03,-0.11,1.37,-0.22,-4.71,39.27,-6.81,0.44,6.10,4.52,-0.24,-0.14
2,-2,1,-4,-480,3913,-0.01,-0.11,1.24,-0.04,-4.80,39.13,-6.82,0.42,6.09,4.47,-0.21,-0.16
0,-2,2,-5,-469,3903,-0.01,-0.11,1.12,-0.05,-4.69,39.03,-6.82,0.41,6.09,4.51,-0.20,-0.17
-1,-2,4,-17,-476,3898,-0.01,-0.11,1.04,-0.17,-4.76,38.98,-6.84,0.39,6.09,4.54,-0.19,-0.19
0,-4,5,-23,-476,3901,-0.01,-0.13,0.96,-0.23,-4.76,39.01,-6.85,0.38,6.08,4.53,-0.14,-0.20
-1,-4,9,-35,-477,3919,-0.02,-0.14,0.92,-0.35,-4.77,39.19,-6.86,0.40,6.08,4.55,-0.14,-0.23
0,-4,9,-30,-478,3921,-0.02,-0.15,0.88,-0.30,-4.78,39.21,-6.88,0.41,6.07,4.55,-0.15,-0.23
0,-5,9,-19,-481,3927,-0.01,-0.16,0.85,-0.19,-4.81,39.27,-6.89,0.39,6.07,4.55,-0.11,-0.23
-1,-5,9,1,-466,3958,-0.02,-0.18,0.82,0.01,-4.66,39.58,-6.88,0.37,6.07,4.57,-0.10,-0.23
-2,-3,11,-39,-475,3917,-0.03,-0.18,0.81,-0.39,-4.75,39.17,-6.89,0.39,6.06,4.59,-0.15,-0.25
-1,-1,11,-37,-481,3911,-0.03,-0.17,0.79,-0.37,-4.81,39.11,-6.90,0.41,6.06,4.58,-0.20,-0.25
-3,-2,23,-20,-466,3915,-0.05,-0.16,0.85,-0.20,-4.66,39.15,-6.89,0.39,6.06,4.62,-0.17,-0.35
-2,-1,20,-26,-466,3906,-0.06,-0.15,0.89,-0.26,-4.66,39.06,-6.87,0.39,6.05,4.59,-0.19,-0.33
5,7,23,17,-419,3935,-0.02,-0.09,0.94,0.17,-4.19,39.35,-6.85,0.38,6.05,4.43,-0.37,-0.35
2,11,47,52,-390,3904,-0.01,-0.02,1.13,0.52,-3.90,39.04,-6.84,0.37,6.05,4.48,-0.46,-0.55
-5,15,114,11,-451,3927,-0.04,0.08,1.72,0.11,-4.51,39.27,-6.83,0.35,6.04,4.62,-0.56,-1.10
-1,9,115,-18,-470,3906,-0.04,0.12,2.25,-0.18,-4.70,39.06,-6.84,0.33,6.03,4.54,-0.44,-1.09
3,-1,94,-32,-463,3903,-0.02,0.10,2.59,-0.32,-4.63,39.03,-6.83,0.35,6.02,4.45,-0.24,-0.90
3,-1,101,-9,-457,3939,0.00,0.09,2.95,-0.09,-4.57,39.39,-6.82,0.34,6.01,4.44,-0.23,-0.95
10,7,119,-25,-484,3883,0.06,0.12,3.38,-0.25,-4.84,38.83,-6.83,0.34,5.99,4.29,-0.40,-1.09
6,7,117,-74,-590,3861,0.09,0.15,3.76,-0.74,-5.90,38.61,-6.85,0.35,5.98,4.37,-0.42,-1.06
0,-9,71,-43,-508,3944,0.09,0.08,3.81,-0.43,-5.08,39.44,-6.87,0.36,5.97,4.51,-0.08,-0.67
0,-8,65,-56,-483,3955,0.08,0.03,3.83,-0.56,-4.83,39.55,-6.87,0.38,5.95,4.51,-0.10,-0.62
0,0,52,-27,-477,3929,0.07,0.02,3.76,-0.27,-4.77,39.29,-6.89,0.39,5.94,4.53,-0.26,-0.51
-2,0,45,-36,-516,3911,0.05,0.02,3.66,-0.36,-5.16,39.11,-6.91,0.39,5.92,4.58,-0.27,-0.45
-2,0,38,-33,-533,3888,0.03,0.02,3.53,-0.33,-5.33,38.88,-6.92,0.40,5.91,4.60,-0.27,-0.40
-1,6,47,-32,-554,3884,0.02,0.05,3.46,-0.32,-5.54,38.84,-6.94,0.40,5.89,4.60,-0.40,-0.47
1,-2,62,-40,-420,3923,0.03,0.04,3.49,-0.40,-4.20,39.23,-6.92,0.41,5.88,4.54,-0.24,-0.60
2,1,50,-46,-433,3914,0.04,0.04,3.45,-0.46,-4.33,39.14,-6.91,0.42,5.87,4.51,-0.30,-0.50
1,4,30,-22,-444,3924,0.04,0.06,3.29,-0.22,-4.44,39.24,-6.89,0.41,5.85,4.52,-0.37,-0.33
1,4,28,-8,-456,3922,0.04,0.08,3.13,-0.08,-4.56,39.22,-6.88,0.40,5.84,4.51,-0.37,-0.32
0,-2,26,-31,-468,3913,0.04,0.06,2.98,-0.31,-4.68,39.13,-6.86,0.42,5.83,4.52,-0.25,-0.31
-1,-1,27,-29,-463,3916,0.03,0.05,2.84,-0.29,-4.63,39.16,-6.84,0.42,5.82,4.53,-0.27,-0.32
-2,10,46,31,-540,3919,0.01,0.10,2.84,0.31,-5.40,39.19,-6.86,0.41,5.81,4.56,-0.50,-0.48
1,7,54,50,-534,3882,0.02,0.13,2.88,0.50,-5.34,38.82,-6.87,0.40,5.79,4.51,-0.44,-0.55
-1,14,110,5,-575,3927,0.01,0.21,3.27,0.05,-5.75,39.27,-6.89,0.39,5.78,4.56,-0.60,-1.01
-5,2,124,44,-525,3929,-0.02,0.20,3.70,0.44,-5.25,39.29,-6.90,0.38,5.77,4.66,-0.35,-1.12
-3,-12,113,-19,-398,3989,-0.04,0.10,4.02,-0.19,-3.98,39.89,-6.88,0.38,5.75,4.61,-0.04,-1.01
1,-8,101,-16,-452,3843,-0.03,0.05,4.23,-0.16,-4.52,38.43,-6.86,0.37,5.73,4.52,-0.09,-0.91
2,-4,93,-74,-391,3933,-0.01,0.02,4.37,-0.74,-3.91,39.33,-6.85,0.38,5.72,4.48,-0.18,-0.83
-3,-2,86,-54,-404,3926,-0.03,0.00,4.46,-0.54,-4.04,39.26,-6.83,0.39,5.70,4.58,-0.22,-0.77
2,12,82,-30,-431,3935,-0.01,0.08,4.52,-0.30,-4.31,39.35,-6.81,0.40,5.68,4.46,-0.53,-0.73
2,10,72,-56,-424,3928,-0.00,0.13,4.50,-0.56,-4.24,39.28,-6.80,0.41,5.66,4.45,-0.51,-0.65
-1,3,22,-40,-408,3932,-0.01,0.13,4.19,-0.40,-4.08,39.32,-6.78,0.41,5.65,4.50,-0.37,-0.23
-2,6,-1,-26,-414,3871,-0.02,0.16,3.76,-0.26,-4.14,38.71,-6.76,0.42,5.63,4.51,-0.44,-0.05
-1,8,-24,35,-472,3908,-0.02,0.19,3.24,0.35,-4.72,39.08,-6.76,0.40,5.62,4.49,-0.48,0.13
-1,6,-30,23,-455,3919,-0.03,0.21,2.73,0.23,-4.55,39.19,-6.76,0.38,5.61,4.49,-0.43,0.16
1,9,-50,34,-417,3920,-0.02,0.24,2.15,0.34,-4.17,39.20,-6.75,0.37,5.60,4.44,-0.49,0.32
-1,9,-59,28,-387,3916,-0.02,0.27,1.58,0.28,-3.87,39.16,-6.74,0.36,5.59,4.47,-0.50,0.38
3,4,-107,-19,-456,3916,-0.00,0.27,0.77,-0.19,-4.56,39.16,-6.72,0.35,5.59,4.38,-0.39,0.76
7,7,-122,12,-407,3917,0.04,0.29,-0.05,0.12,-4.07,39.17,-6.71,0.34,5.59,4.27,-0.45,0.86
1,0,-146,40,-511,3876,0.04,0.26,-0.94,0.40,-5.11,38.76,-6.72,0.33,5.59,4.40,-0.29,1.04
3,5,-151,40,-510,3869,0.06,0.26,-1.77,0.40,-5.10,38.69,-6.73,0.32,5.60,4.37,-0.38,1.06
-1,6,-171,-79,-552,3895,0.05,0.27,-2.63,-0.79,-5.52,38.95,-6.75,0.33,5.61,4.46,-0.41,1.20
2,-4,-176,17,-436,3946,0.05,0.22,-3.44,0.17,-4.36,39.46,-6.73,0.31,5.63,4.39,-0.18,1.22
-1,-1,-230,52,-465,3897,0.04,0.19,-4.50,0.52,-4.65,38.97,-6.74,0.29,5.64,4.45,-0.22,1.65
-8,7,-223,-38,-661,3843,-0.01,0.22,-5.41,-0.38,-6.61,38.43,-6.75,0.29,5.67,4.62,-0.39,1.56
4,-7,-254,-3,-399,3910,0.01,0.15,-6.42,-0.03,-3.99,39.10,-6.74,0.28,5.69,4.36,-0.09,1.80
1,-4,-286,-1,-430,3913,0.02,0.11,-7.52,-0.01,-4.30,39.13,-6.72,0.27,5.72,4.41,-0.13,2.03
1,6,-300,-5,-480,3890,0.02,0.14,-8.60,-0.05,-4.80,38.90,-6.74,0.26,5.75,4.42,-0.33,2.12
-1,-5,-306,56,-492,3929,0.01,0.09,-9.61,0.56,-4.92,39.29,-6.74,0.24,5.79,4.47,-0.08,2.14
13,-8,-321,-3,-385,3927,0.09,0.04,-10.60,-0.03,-3.85,39.27,-6.72,0.23,5.84,4.15,0.00,2.24
6,-4,-323,13,-465,3878,0.12,0.01,-11.51,0.13,-4.65,38.78,-6.73,0.21,5.88,4.29,-0.06,2.23
4,0,-310,-21,-479,3843,0.13,0.01,-12.25,-0.21,-4.79,38.43,-6.75,0.20,5.93,4.33,-0.14,2.09
3,-6,-307,54,-384,3920,0.14,-0.03,-12.90,0.54,-3.84,39.20,-6.73,0.19,5.98,4.34,0.01,2.05
7,0,-309,-60,-476,3816,0.17,-0.03,-13.50,-0.60,-4.76,38.16,-6.74,0.20,6.03,4.26,-0.12,2.05
2,-4,-316,-31,-500,3921,0.16,-0.05,-14.07,-0.31,-5.00,39.21,-6.76,0.20,6.09,4.37,-0.04,2.09
7,-12,-314,-63,-399,3942,0.19,-0.12,-14.58,-0.63,-3.99,39.42,-6.74,0.20,6.15,4.26,0.14,2.05
11,-2,-322,11,-426,3831,0.24,-0.12,-15.09,0.11,-4.26,38.31,-6.73,0.18,6.21,4.15,-0.05,2.11
4,-2,-267,-86,-452,4016,0.24,-0.12,-15.21,-0.86,-4.52,40.16,-6.72,0.19,6.27,4.29,-0.05,1.63
0,-20,-261,1,-390,3898,0.21,-0.23,-15.28,0.01,-3.90,38.98,-6.70,0.18,6.33,4.36,0.35,1.58
4,7,-285,-96,-370,3907,0.22,-0.16,-15.49,-0.96,-3.70,39.07,-6.69,0.18,6.39,4.27,-0.22,1.78
4,-3,-270,-146,-526,3998,0.22,-0.17,-15.59,-1.46,-5.26,39.98,-6.69,0.19,6.45,4.28,-0.02,1.64
1,-3,-234,-8,-510,3867,0.20,-0.17,-15.46,-0.08,-5.10,38.67,-6.71,0.18,6.51,4.35,-0.01,1.34
3,-4,-235,-68,-499,3940,0.20,-0.17,-15.34,-0.68,-4.99,39.40,-6.72,0.19,6.57,4.32,0.00,1.35
0,-1,-225,-28,-501,3889,0.18,-0.16,-15.18,-0.28,-5.01,38.89,-6.74,0.19,6.63,4.40,-0.06,1.27
5,5,-224,-20,-512,3904,0.19,-0.12,-15.03,-0.20,-5.12,39.04,-6.76,0.18,6.69,4.30,-0.19,1.26
-1,-6,-194,-55,-509,3968,0.17,-0.14,-14.71,-0.55,-5.09,39.68,-6.77,0.19,6.75,4.44,0.04,1.02
1,-8,-203,57,-466,3843,0.16,-0.18,-14.48,0.57,-4.66,38.43,-6.77,0.16,6.81,4.40,0.10,1.10
4,-5,-205,-47,-414,3941,0.17,-0.19,-14.28,-0.47,-4.14,39.41,-6.75,0.17,6.87,4.33,0.04,1.12
