gyroADC_X,gyroADC_Y,gyroADC_Z,accADC_X,accADC_Y,accADC_Z,GyroX,GyroY,GyroZ,AccX,AccY,AccZ,roll_IMU,pitch_IMU,yaw_IMU,roll_PID,pitch_PID,yaw_PID
1,0,-7,-23,-323,3915,0.21,0.16,-0.31,-0.23,-3.23,39.15,-3.84,-0.77,114.64,2.45,0.47,-10.05
-3,-4,-7,-26,-317,3929,0.17,0.12,-0.32,-0.26,-3.17,39.29,-3.84,-0.76,114.64,2.55,0.55,-10.06
-3,-3,-6,-21,-308,3917,0.14,0.09,-0.33,-0.21,-3.08,39.17,-3.85,-0.74,114.64,2.57,0.53,-10.15
-3,-1,-5,-27,-315,3933,0.10,0.07,-0.32,-0.27,-3.15,39.33,-3.86,-0.73,114.64,2.58,0.48,-10.23
-4,-1,-3,-20,-304,3914,0.07,0.06,-0.31,-0.20,-3.04,39.14,-3.87,-0.71,114.64,2.62,0.47,-10.39
-3,0,-3,-19,-312,3918,0.04,0.05,-0.30,-0.19,-3.12,39.18,-3.88,-0.69,114.64,2.61,0.44,-10.38
-3,0,-5,-32,-316,3918,0.02,0.05,-0.30,-0.32,-3.16,39.18,-3.89,-0.68,114.65,2.62,0.44,-10.21
-1,0,-8,-31,-309,3921,0.01,0.04,-0.32,-0.31,-3.09,39.21,-3.90,-0.66,114.65,2.59,0.43,-9.97
1,1,-4,-33,-306,3926,0.02,0.05,-0.31,-0.33,-3.06,39.26,-3.91,-0.65,114.65,2.55,0.39,-10.31
0,1,-4,-36,-313,3936,0.02,0.05,-0.30,-0.36,-3.13,39.36,-3.92,-0.63,114.65,2.58,0.38,-10.30
0,2,-1,-26,-315,3912,0.01,0.05,-0.28,-0.26,-3.15,39.12,-3.93,-0.62,114.65,2.59,0.35,-10.53
-1,2,-2,-28,-317,3915,0.01,0.06,-0.26,-0.28,-3.17,39.15,-3.94,-0.60,114.65,2.62,0.34,-10.43
-1,0,-1,-28,-327,3911,0.00,0.05,-0.24,-0.28,-3.27,39.11,-3.95,-0.59,114.65,2.63,0.37,-10.49
-1,0,-3,-30,-323,3913,-0.01,0.05,-0.24,-0.30,-3.23,39.13,-3.96,-0.57,114.65,2.64,0.36,-10.31
-2,-1,-4,-25,-326,3924,-0.02,0.04,-0.24,-0.25,-3.26,39.24,-3.97,-0.56,114.65,2.67,0.38,-10.23
-2,-2,-4,-27,-324,3920,-0.03,0.02,-0.24,-0.27,-3.24,39.20,-3.98,-0.54,114.65,2.68,0.39,-10.23
-1,-1,-4,-17,-319,3924,-0.03,0.01,-0.24,-0.17,-3.19,39.24,-4.00,-0.53,114.66,2.67,0.37,-10.23
-1,-2,-4,-22,-316,3920,-0.03,0.00,-0.24,-0.22,-3.16,39.20,-4.01,-0.51,114.66,2.67,0.38,-10.23
-2,-1,-3,-22,-303,3928,-0.04,-0.01,-0.23,-0.22,-3.03,39.28,-4.01,-0.50,114.66,2.70,0.35,-10.31
-2,-1,-2,-22,-316,3927,-0.05,-0.01,-0.22,-0.22,-3.16,39.27,-4.03,-0.48,114.66,2.71,0.34,-10.38
-4,-1,-3,-29,-323,3924,-0.07,-0.02,-0.22,-0.29,-3.23,39.24,-4.04,-0.47,114.66,2.76,0.33,-10.30
-4,-1,-4,-37,-317,3920,-0.09,-0.02,-0.22,-0.37,-3.17,39.20,-4.05,-0.45,114.66,2.78,0.32,-10.21
0,3,-2,-39,-307,3941,-0.08,-0.00,-0.21,-0.39,-3.07,39.41,-4.05,-0.44,114.66,2.70,0.23,-10.37
2,4,-5,-33,-315,3921,-0.06,0.02,-0.22,-0.33,-3.15,39.21,-4.06,-0.42,114.66,2.66,0.19,-10.13
-3,2,-7,-43,-359,3910,-0.07,0.03,-0.24,-0.43,-3.59,39.10,-4.08,-0.41,114.66,2.77,0.22,-9.98
-5,2,-3,-62,-343,3949,-0.09,0.04,-0.24,-0.62,-3.43,39.49,-4.09,-0.39,114.66,2.83,0.21,-10.31
-1,1,-6,-34,-314,3936,-0.09,0.04,-0.25,-0.34,-3.14,39.36,-4.10,-0.38,114.66,2.75,0.22,-10.07
2,1,-7,-41,-310,3932,-0.07,0.05,-0.27,-0.41,-3.10,39.32,-4.10,-0.36,114.66,2.69,0.20,-10.01
3,1,-5,-38,-309,3919,-0.04,0.05,-0.27,-0.38,-3.09,39.19,-4.11,-0.34,114.67,2.66,0.19,-10.18
3,1,-5,-36,-313,3920,-0.02,0.05,-0.27,-0.36,-3.13,39.20,-4.12,-0.33,114.67,2.66,0.18,-10.18
1,1,-2,-36,-320,3917,-0.01,0.05,-0.26,-0.36,-3.20,39.17,-4.13,-0.31,114.67,2.71,0.17,-10.42
0,0,-3,-32,-313,3911,-0.01,0.05,-0.25,-0.32,-3.13,39.11,-4.14,-0.29,114.67,2.74,0.18,-10.33
0,0,-5,-29,-315,3921,-0.01,0.04,-0.26,-0.29,-3.15,39.21,-4.15,-0.28,114.67,2.74,0.17,-10.17
-1,-1,-4,-30,-317,3928,-0.02,0.03,-0.26,-0.30,-3.17,39.28,-4.16,-0.26,114.67,2.77,0.19,-10.25
0,1,-2,-35,-308,3930,-0.01,0.03,-0.24,-0.35,-3.08,39.30,-4.17,-0.25,114.67,2.75,0.13,-10.41
0,2,-3,-32,-302,3921,-0.01,0.04,-0.24,-0.32,-3.02,39.21,-4.17,-0.23,114.67,2.76,0.10,-10.31
2,3,-6,-23,-311,3933,0.00,0.06,-0.25,-0.23,-3.11,39.33,-4.18,-0.21,114.67,2.72,0.06,-10.07
2,2,-5,-30,-311,3932,0.01,0.06,-0.25,-0.30,-3.11,39.32,-4.19,-0.20,114.67,2.72,0.07,-10.17
1,2,-8,-11,-326,3909,0.02,0.07,-0.28,-0.11,-3.26,39.09,-4.21,-0.19,114.68,2.75,0.06,-9.94
-1,0,-7,-19,-321,3926,0.01,0.06,-0.29,-0.19,-3.21,39.26,-4.22,-0.17,114.68,2.80,0.10,-10.04
-8,-3,-10,-56,-340,3917,-0.04,0.04,-0.32,-0.56,-3.40,39.17,-4.23,-0.16,114.68,2.97,0.16,-9.82
-8,-3,-8,-20,-330,3941,-0.08,0.02,-0.34,-0.20,-3.30,39.41,-4.24,-0.15,114.68,2.99,0.15,-10.00
-3,0,-3,-23,-309,3927,-0.09,0.01,-0.33,-0.23,-3.09,39.27,-4.25,-0.13,114.68,2.89,0.08,-10.41
-3,-1,-5,-37,-307,3918,-0.10,0.01,-0.32,-0.37,-3.07,39.18,-4.26,-0.11,114.68,2.90,0.09,-10.24
-5,0,-10,-58,-320,3931,-0.12,0.01,-0.35,-0.58,-3.20,39.31,-4.27,-0.10,114.68,2.95,0.06,-9.84
-3,1,-12,-44,-325,3940,-0.13,0.01,-0.39,-0.44,-3.25,39.40,-4.28,-0.08,114.68,2.92,0.03,-9.72
0,0,-6,-31,-318,3928,-0.12,0.01,-0.39,-0.31,-3.18,39.28,-4.29,-0.07,114.69,2.86,0.04,-10.22
0,0,-5,-35,-317,3926,-0.10,0.01,-0.38,-0.35,-3.17,39.26,-4.30,-0.05,114.69,2.87,0.03,-10.30
2,2,-4,-31,-316,3936,-0.08,0.02,-0.37,-0.31,-3.16,39.36,-4.31,-0.03,114.69,2.82,-0.02,-10.37
2,2,-4,-33,-313,3936,-0.06,0.03,-0.35,-0.33,-3.13,39.36,-4.32,-0.02,114.69,2.82,-0.04,-10.36
1,2,-3,-31,-317,3931,-0.05,0.04,-0.34,-0.31,-3.17,39.31,-4.33,-0.00,114.69,2.85,-0.05,-10.42
1,3,-5,-24,-316,3922,-0.04,0.05,-0.33,-0.24,-3.16,39.22,-4.34,0.01,114.69,2.85,-0.08,-10.25
6,6,-9,-25,-309,3934,0.00,0.09,-0.35,-0.25,-3.09,39.34,-4.34,0.03,114.69,2.74,-0.16,-9.93
8,7,-9,-21,-314,3940,0.05,0.12,-0.37,-0.21,-3.14,39.40,-4.36,0.04,114.70,2.70,-0.20,-9.95
9,4,-4,-10,-311,3928,0.10,0.13,-0.36,-0.10,-3.11,39.28,-4.37,0.05,114.70,2.67,-0.15,-10.36
9,4,0,-28,-320,3928,0.15,0.14,-0.33,-0.28,-3.20,39.28,-4.38,0.07,114.70,2.67,-0.17,-10.67
7,6,-9,-46,-292,3915,0.17,0.17,-0.35,-0.46,-2.92,39.15,-4.38,0.09,114.70,2.70,-0.22,-9.93
7,4,-13,-64,-327,3919,0.20,0.17,-0.39,-0.64,-3.27,39.19,-4.38,0.10,114.70,2.70,-0.20,-9.63
1,-3,-37,32,-195,3902,0.19,0.14,-0.58,0.32,-1.95,39.02,-4.37,0.10,114.70,2.81,-0.04,-7.80
1,-1,-56,10,-224,3887,0.17,0.12,-0.86,0.10,-2.24,38.87,-4.35,0.09,114.71,2.80,-0.07,-6.49
-4,2,-25,-38,-433,3930,0.13,0.12,-0.93,-0.38,-4.33,39.30,-4.37,0.10,114.71,2.93,-0.14,-9.18
-4,-2,-3,-65,-426,3934,0.09,0.09,-0.85,-0.65,-4.26,39.34,-4.38,0.11,114.72,2.95,-0.06,-10.97
-3,1,5,-76,-343,3919,0.07,0.09,-0.74,-0.76,-3.43,39.19,-4.39,0.12,114.72,2.94,-0.13,-11.53
-3,2,3,-59,-329,3922,0.04,0.09,-0.65,-0.59,-3.29,39.22,-4.40,0.14,114.72,2.95,-0.16,-11.26
-4,0,-1,-29,-322,3907,0.01,0.08,-0.59,-0.29,-3.22,39.07,-4.41,0.15,114.72,2.99,-0.12,-10.86
-5,-1,-1,-30,-326,3912,-0.02,0.07,-0.53,-0.30,-3.26,39.12,-4.43,0.16,114.73,3.03,-0.11,-10.80
-3,3,0,14,-351,3901,-0.04,0.08,-0.48,0.14,-3.51,39.01,-4.44,0.15,114.73,3.00,-0.19,-10.83
-5,-1,4,2,-319,3902,-0.06,0.07,-0.41,0.02,-3.19,39.02,-4.46,0.14,114.73,3.06,-0.09,-11.09
-7,-6,10,7,-349,3914,-0.10,0.02,-0.31,0.07,-3.49,39.14,-4.48,0.14,114.73,3.12,0.03,-11.50
-6,-3,18,11,-338,3931,-0.13,0.00,-0.17,0.11,-3.38,39.31,-4.49,0.13,114.73,3.12,-0.02,-12.03
-2,-2,1,-47,-303,3934,-0.13,-0.01,-0.14,-0.47,-3.03,39.34,-4.49,0.14,114.73,3.04,-0.05,-10.56
0,0,-3,-46,-310,3935,-0.11,-0.01,-0.15,-0.46,-3.10,39.35,-4.49,0.16,114.73,2.99,-0.10,-10.23
-2,-1,-6,-32,-325,3923,-0.11,-0.01,-0.17,-0.32,-3.25,39.23,-4.50,0.18,114.73,3.04,-0.09,-10.00
-3,-2,-6,-31,-319,3924,-0.12,-0.02,-0.19,-0.31,-3.19,39.24,-4.51,0.19,114.73,3.07,-0.08,-10.02
-4,-2,-5,-35,-309,3923,-0.13,-0.03,-0.20,-0.35,-3.09,39.23,-4.51,0.21,114.73,3.09,-0.09,-10.11
-2,1,-5,-35,-306,3940,-0.13,-0.02,-0.21,-0.35,-3.06,39.40,-4.51,0.23,114.74,3.05,-0.16,-10.12
-3,-2,-7,-27,-325,3914,-0.14,-0.03,-0.23,-0.27,-3.25,39.14,-4.52,0.24,114.74,3.08,-0.11,-9.98
-2,-1,-6,-17,-341,3910,-0.14,-0.04,-0.25,-0.17,-3.41,39.10,-4.54,0.24,114.74,3.08,-0.13,-10.08
-3,-2,-2,-38,-321,3913,-0.14,-0.05,-0.23,-0.38,-3.21,39.13,-4.55,0.26,114.74,3.10,-0.12,-10.40
-3,-2,-2,-35,-319,3926,-0.14,-0.05,-0.22,-0.35,-3.19,39.26,-4.56,0.27,114.74,3.11,-0.12,-10.39
-1,0,10,-4,-335,3922,-0.14,-0.05,-0.14,-0.04,-3.35,39.22,-4.57,0.26,114.74,3.08,-0.16,-11.32
-2,-3,20,5,-333,3923,-0.13,-0.06,-0.00,0.05,-3.33,39.23,-4.59,0.25,114.74,3.10,-0.09,-12.02
-4,-7,50,-2,-351,3915,-0.15,-0.10,0.30,-0.02,-3.51,39.15,-4.60,0.24,114.74,3.16,0.01,-14.24
-6,-9,56,-26,-326,3931,-0.17,-0.14,0.61,-0.26,-3.26,39.31,-4.62,0.25,114.74,3.21,0.06,-14.42
-4,-7,27,-100,-271,3937,-0.18,-0.17,0.72,-1.00,-2.71,39.37,-4.61,0.27,114.73,3.17,0.01,-11.86
-2,-4,14,-110,-281,3930,-0.17,-0.18,0.73,-1.10,-2.81,39.30,-4.60,0.28,114.73,3.12,-0.06,-10.74
-2,-1,-1,-42,-315,3939,-0.17,-0.17,0.65,-0.42,-3.15,39.39,-4.60,0.30,114.73,3.12,-0.13,-9.55
-2,-1,-3,-36,-314,3943,-0.16,-0.16,0.57,-0.36,-3.14,39.43,-4.60,0.32,114.73,3.12,-0.15,-9.47
-1,0,0,-29,-318,3928,-0.15,-0.14,0.51,-0.29,-3.18,39.28,-4.60,0.34,114.72,3.10,-0.18,-9.79
-1,0,0,-23,-324,3934,-0.14,-0.13,0.46,-0.23,-3.24,39.34,-4.62,0.34,114.72,3.11,-0.19,-9.84
-1,0,-2,-18,-327,3912,-0.13,-0.11,0.40,-0.18,-3.27,39.12,-4.64,0.33,114.72,3.12,-0.19,-9.73
-1,-2,1,-15,-321,3926,-0.13,-0.11,0.37,-0.15,-3.21,39.26,-4.65,0.31,114.72,3.12,-0.13,-10.02
3,4,11,-20,-314,3913,-0.10,-0.08,0.40,-0.20,-3.14,39.13,-4.63,0.30,114.72,3.02,-0.26,-10.84
-1,-1,9,-18,-341,3914,-0.09,-0.08,0.41,-0.18,-3.41,39.14,-4.65,0.30,114.72,3.11,-0.16,-10.65
-4,3,39,15,-385,3916,-0.11,-0.05,0.61,0.15,-3.85,39.16,-4.66,0.29,114.71,3.19,-0.24,-12.99
-11,1,59,22,-408,3960,-0.16,-0.04,0.91,0.22,-4.08,39.60,-4.68,0.29,114.71,3.36,-0.20,-14.37
-13,-11,94,-54,-326,3924,-0.23,-0.10,1.39,-0.54,-3.26,39.24,-4.68,0.30,114.70,3.42,0.05,-16.82
-12,-9,88,-46,-300,3929,-0.28,-0.15,1.79,-0.46,-3.00,39.29,-4.67,0.32,114.70,3.40,0.01,-15.89
-7,-8,70,-69,-266,3934,-0.29,-0.18,2.04,-0.69,-2.66,39.34,-4.66,0.33,114.69,3.30,-0.01,-14.11
-4,-9,48,-103,-240,3924,-0.29,-0.22,2.13,-1.03,-2.40,39.24,-4.65,0.34,114.68,3.23,0.02,-12.15
7,6,2,-33,-292,3924,-0.22,-0.16,1.93,-0.33,-2.92,39.24,-4.63,0.35,114.67,2.97,-0.31,-8.46
10,7,0,-32,-301,3923,-0.13,-0.10,1.73,-0.32,-3.01,39.23,-4.62,0.36,114.66,2.88,-0.35,-8.50
13,9,-1,-35,-302,3926,-0.04,-0.04,1.55,-0.35,-3.02,39.26,-4.60,0.37,114.66,2.78,-0.42,-8.60
17,12,3,-43,-301,3939,0.07,0.04,1.42,-0.43,-3.01,39.39,-4.59,0.38,114.65,2.66,-0.51,-9.08
11,9,6,-9,-333,3921,0.13,0.09,1.31,-0.09,-3.33,39.21,-4.60,0.37,114.65,2.78,-0.45,-9.45
9,8,4,-16,-344,3916,0.17,0.13,1.20,-0.16,-3.44,39.16,-4.62,0.36,114.64,2.82,-0.44,-9.39
4,4,9,-22,-335,3921,0.18,0.14,1.14,-0.22,-3.35,39.21,-4.64,0.36,114.64,2.93,-0.36,-9.88
2,4,8,-32,-334,3907,0.17,0.15,1.07,-0.32,-3.34,39.07,-4.65,0.37,114.63,2.98,-0.37,-9.86
0,2,0,-21,-324,3927,0.15,0.15,0.97,-0.21,-3.24,39.27,-4.66,0.36,114.63,3.04,-0.32,-9.30
0,1,-1,-28,-324,3936,0.14,0.14,0.86,-0.28,-3.24,39.36,-4.68,0.37,114.63,3.05,-0.31,-9.32
0,4,8,11,-319,3900,0.13,0.15,0.83,0.11,-3.19,39.00,-4.67,0.36,114.62,3.05,-0.36,-10.12
0,-1,8,-38,-317,3922,0.11,0.13,0.79,-0.38,-3.17,39.22,-4.67,0.37,114.62,3.05,-0.26,-10.16
-2,2,50,116,-450,3941,0.09,0.13,1.02,1.16,-4.50,39.41,-4.68,0.36,114.62,3.11,-0.31,-13.48
-2,6,101,165,-454,3932,0.07,0.15,1.53,1.65,-4.54,39.32,-4.69,0.35,114.61,3.12,-0.39,-17.26
-3,-9,154,-57,-320,3908,0.04,0.08,2.32,-0.57,-3.20,39.08,-4.69,0.37,114.60,3.15,-0.08,-20.00
-3,-3,146,-77,-309,3911,0.02,0.06,2.98,-0.77,-3.09,39.11,-4.69,0.39,114.59,3.15,-0.21,-19.55
-5,2,166,-5,-363,3932,-0.01,0.06,3.69,-0.05,-3.63,39.32,-4.70,0.38,114.58,3.21,-0.31,-20.00
-4,1,182,17,-350,3909,-0.04,0.06,4.43,0.17,-3.50,39.09,-4.71,0.37,114.56,3.20,-0.28,-20.00
-7,9,221,-8,-281,3985,-0.07,0.11,5.34,-0.08,-2.81,39.85,-4.70,0.36,114.54,3.26,-0.45,-20.00
-9,-3,210,-24,-252,3883,-0.12,0.08,6.09,-0.24,-2.52,38.83,-4.68,0.36,114.51,3.30,-0.20,-20.00
4,2,111,-116,-260,3940,-0.09,0.09,6.15,-1.16,-2.60,39.40,-4.67,0.38,114.49,3.02,-0.32,-13.23
8,7,91,-46,-302,3931,-0.03,0.12,6.09,-0.46,-3.02,39.31,-4.66,0.40,114.46,2.92,-0.44,-11.60
-2,12,159,67,-442,3956,-0.04,0.18,6.45,0.67,-4.42,39.56,-4.67,0.39,114.44,3.13,-0.55,-16.97
-10,5,182,73,-344,3845,-0.09,0.19,6.92,0.73,-3.44,38.45,-4.67,0.37,114.41,3.31,-0.40,-18.43
-8,-13,150,-69,-213,3893,-0.13,0.09,7.14,-0.69,-2.13,38.93,-4.66,0.38,114.38,3.27,-0.01,-15.48
-5,-17,113,-109,-194,3862,-0.15,-0.02,7.12,-1.09,-1.94,38.62,-4.64,0.40,114.35,3.21,0.09,-12.37
-6,-2,25,-93,-292,3949,-0.17,-0.03,6.56,-0.93,-2.92,39.49,-4.64,0.41,114.33,3.23,-0.23,-5.50
-6,1,15,-67,-301,3949,-0.19,-0.02,5.99,-0.67,-3.01,39.49,-4.63,0.43,114.30,3.23,-0.30,-5.25
-4,6,17,-3,-329,3932,-0.20,0.02,5.50,-0.03,-3.29,39.32,-4.64,0.42,114.28,3.20,-0.40,-5.94
-1,6,29,13,-352,3930,-0.18,0.05,5.13,0.13,-3.52,39.30,-4.65,0.41,114.26,3.14,-0.40,-7.34
-3,0,84,30,-385,3940,-0.18,0.05,5.12,0.30,-3.85,39.40,-4.66,0.39,114.24,3.19,-0.27,-12.00
-12,-8,138,93,-417,3923,-0.24,-0.01,5.45,0.93,-4.17,39.23,-4.68,0.38,114.22,3.39,-0.09,-16.23
10,-1,75,-94,-319,3921,-0.15,-0.01,5.37,-0.94,-3.19,39.21,-4.68,0.40,114.20,2.92,-0.24,-10.98
4,6,81,-81,-248,3894,-0.11,0.03,5.32,-0.81,-2.48,38.94,-4.66,0.42,114.18,3.03,-0.40,-11.53
0,-4,67,-72,-294,3928,-0.10,-0.00,5.20,-0.72,-2.94,39.28,-4.65,0.43,114.16,3.10,-0.20,-10.48
-2,2,79,-32,-311,3916,-0.10,0.01,5.16,-0.32,-3.11,39.16,-4.63,0.44,114.13,3.13,-0.33,-11.53
-5,4,109,6,-353,3940,-0.12,0.04,5.31,0.06,-3.53,39.40,-4.65,0.43,114.11,3.20,-0.37,-13.91
-4,-2,120,35,-330,3909,-0.14,0.02,5.51,0.35,-3.30,39.09,-4.65,0.41,114.09,3.19,-0.24,-14.63
-5,-4,113,-77,-191,3893,-0.15,-0.01,5.65,-0.77,-1.91,38.93,-4.63,0.42,114.07,3.20,-0.19,-13.89
-4,-13,88,-114,-221,3930,-0.16,-0.09,5.62,-1.14,-2.21,39.30,-4.62,0.43,114.05,3.18,0.00,-11.80
-2,-3,58,-73,-317,3937,-0.16,-0.10,5.41,-0.73,-3.17,39.37,-4.62,0.45,114.02,3.13,-0.21,-9.48
-2,1,60,-47,-344,3946,-0.15,-0.08,5.24,-0.47,-3.44,39.46,-4.64,0.46,114.00,3.14,-0.31,-9.83
-3,-1,62,-64,-272,3921,-0.16,-0.08,5.09,-0.64,-2.72,39.21,-4.62,0.48,113.98,3.15,-0.27,-10.15
-2,-3,39,-98,-250,3914,-0.15,-0.09,4.82,-0.98,-2.50,39.14,-4.61,0.49,113.96,3.13,-0.24,-8.48
1,4,8,-39,-307,3935,-0.13,-0.06,4.39,-0.39,-3.07,39.35,-4.59,0.50,113.95,3.05,-0.40,-6.31
2,4,8,-31,-317,3921,-0.11,-0.03,4.00,-0.31,-3.17,39.21,-4.60,0.49,113.93,3.03,-0.39,-6.72
1,4,36,17,-368,3915,-0.09,0.00,3.82,0.17,-3.68,39.15,-4.62,0.47,113.92,3.05,-0.39,-9.28
2,4,52,11,-350,3951,-0.07,0.03,3.75,0.11,-3.50,39.51,-4.63,0.46,113.90,3.03,-0.39,-10.71
3,0,90,7,-353,3930,-0.04,0.02,3.93,0.07,-3.53,39.30,-4.64,0.45,113.89,3.01,-0.30,-13.74
2,-2,98,9,-355,3916,-0.03,0.01,4.13,0.09,-3.55,39.16,-4.65,0.44,113.87,3.04,-0.25,-14.20
-5,5,141,-21,-306,3918,-0.05,0.04,4.58,-0.21,-3.06,39.18,-4.64,0.43,113.85,3.18,-0.39,-17.37
17,13,172,-177,-167,3946,0.05,0.11,5.17,-1.77,-1.67,39.46,-4.62,0.44,113.83,2.69,-0.59,-19.37
-24,-23,343,-22,-277,3968,-0.10,-0.04,6.75,-0.22,-2.77,39.68,-4.61,0.44,113.80,3.55,0.19,-20.00
-38,-29,324,85,-418,3936,-0.32,-0.21,8.05,0.85,-4.18,39.36,-4.62,0.43,113.77,3.91,0.36,-20.00
-38,-41,85,-112,-290,3942,-0.52,-0.44,7.76,-1.12,-2.90,39.42,-4.62,0.45,113.74,3.96,0.66,-9.27
-34,-40,54,-103,-262,3938,-0.67,-0.64,7.31,-1.03,-2.62,39.38,-4.61,0.46,113.71,3.92,0.68,-7.11
-39,-44,24,-37,-307,3931,-0.85,-0.84,6.73,-0.37,-3.07,39.31,-4.59,0.47,113.68,4.06,0.82,-5.18
-42,-45,23,-12,-322,3918,-1.02,-1.03,6.20,-0.12,-3.22,39.18,-4.60,0.45,113.66,4.17,0.90,-5.65
-46,-47,23,-1,-366,3912,-1.20,-1.22,5.72,-0.01,-3.66,39.12,-4.62,0.44,113.63,4.31,1.00,-6.16
-42,-47,27,5,-347,3923,-1.33,-1.38,5.31,0.05,-3.47,39.23,-4.64,0.42,113.61,4.28,1.06,-6.92
-63,-62,50,30,-371,3900,-1.58,-1.62,5.08,0.30,-3.71,39.00,-4.66,0.40,113.59,4.79,1.44,-9.11
-54,-50,75,55,-425,3916,-1.75,-1.77,5.03,0.55,-4.25,39.16,-4.68,0.38,113.57,4.67,1.24,-11.28
-7,-5,168,-102,-544,3986,-1.62,-1.62,5.55,-1.02,-5.44,39.86,-4.70,0.39,113.55,3.69,0.29,-18.60
-8,-1,205,-52,-489,3970,-1.51,-1.46,6.25,-0.52,-4.89,39.70,-4.73,0.38,113.52,3.69,0.17,-20.00
-29,3,256,206,-271,3901,-1.53,-1.30,7.19,2.06,-2.71,39.01,-4.73,0.36,113.49,4.13,0.05,-20.00
-21,-11,247,219,-309,3887,-1.51,-1.24,7.97,2.19,-3.09,38.87,-4.74,0.34,113.46,3.96,0.33,-20.00
-16,11,277,174,-401,3949,-1.46,-1.05,8.87,1.74,-4.01,39.49,-4.75,0.32,113.43,3.86,-0.15,-20.00
-4,12,295,208,-306,3913,-1.33,-0.87,9.78,2.08,-3.06,39.13,-4.75,0.31,113.39,3.58,-0.21,-20.00
1,5,319,20,-367,3959,-1.20,-0.75,10.75,0.20,-3.67,39.59,-4.77,0.29,113.34,3.45,-0.09,-20.00
-10,-9,321,-38,-233,3879,-1.14,-0.73,11.63,-0.38,-2.33,38.79,-4.75,0.30,113.30,3.65,0.19,-20.00
-9,-5,269,-54,-166,3890,-1.08,-0.69,12.11,-0.54,-1.66,38.90,-4.74,0.30,113.25,3.61,0.09,-20.00
0,3,226,-83,-211,3843,-0.97,-0.60,12.28,-0.83,-2.11,38.43,-4.73,0.31,113.20,3.39,-0.10,-16.41
-1,11,163,-52,-288,3929,-0.88,-0.47,12.04,-0.52,-2.88,39.29,-4.72,0.33,113.15,3.37,-0.31,-11.31
1,13,155,-50,-314,3945,-0.79,-0.35,11.78,-0.50,-3.14,39.45,-4.71,0.35,113.10,3.30,-0.40,-10.90
-8,10,179,34,-398,3931,-0.76,-0.25,11.70,0.34,-3.98,39.31,-4.73,0.34,113.06,3.49,-0.36,-13.02
-3,9,190,48,-394,3948,-0.70,-0.17,11.69,0.48,-3.94,39.48,-4.75,0.33,113.01,3.38,-0.35,-13.96
0,-3,178,-48,-300,3909,-0.63,-0.17,11.60,-0.48,-3.00,39.09,-4.73,0.34,112.97,3.30,-0.12,-13.03
-6,-5,183,-26,-383,3930,-0.60,-0.19,11.56,-0.26,-3.83,39.30,-4.76,0.35,112.92,3.42,-0.08,-13.50
0,-2,175,-19,-338,3908,-0.54,-0.18,11.47,-0.19,-3.38,39.08,-4.77,0.35,112.87,3.30,-0.14,-12.91
0,2,170,-31,-362,3939,-0.49,-0.15,11.36,-0.31,-3.62,39.39,-4.79,0.35,112.83,3.30,-0.23,-12.60
0,12,175,29,-348,3911,-0.44,-0.06,11.29,0.29,-3.48,39.11,-4.80,0.34,112.78,3.29,-0.45,-13.09
-1,7,189,17,-371,3922,-0.40,-0.01,11.32,0.17,-3.71,39.22,-4.82,0.33,112.74,3.31,-0.36,-14.24
-9,4,227,18,-374,3932,-0.42,0.01,11.57,0.18,-3.74,39.32,-4.83,0.32,112.69,3.48,-0.30,-17.19
-4,10,238,44,-398,3925,-0.40,0.07,11.86,0.44,-3.98,39.25,-4.85,0.31,112.65,3.39,-0.43,-17.81
5,6,210,-60,-281,3925,-0.33,0.10,11.96,-0.60,-2.81,39.25,-4.83,0.33,112.60,3.18,-0.37,-15.33
1,5,207,-66,-300,3900,-0.29,0.12,12.03,-0.66,-3.00,39.00,-4.82,0.35,112.55,3.24,-0.36,-15.01
13,17,205,-15,-309,3906,-0.18,0.21,12.07,-0.15,-3.09,39.06,-4.81,0.35,112.50,2.96,-0.63,-14.78
19,26,212,-17,-334,3936,-0.05,0.35,12.16,-0.17,-3.34,39.36,-4.81,0.33,112.45,2.80,-0.84,-15.28
33,44,185,-42,-317,3930,0.16,0.58,12.07,-0.42,-3.17,39.30,-4.80,0.36,112.41,2.45,-1.29,-13.08
36,46,186,-14,-302,3926,0.36,0.81,12.00,-0.14,-3.02,39.26,-4.78,0.36,112.36,2.33,-1.39,-13.24
46,59,256,75,-448,3934,0.61,1.09,12.36,0.75,-4.48,39.34,-4.79,0.35,112.31,2.06,-1.73,-18.78
57,66,291,40,-390,3939,0.89,1.38,12.90,0.40,-3.90,39.39,-4.80,0.35,112.26,1.77,-1.95,-20.00
41,49,338,31,-422,3953,1.05,1.54,13.67,0.31,-4.22,39.53,-4.81,0.35,112.20,2.06,-1.65,-20.00
35,39,337,24,-379,3911,1.16,1.62,14.36,0.24,-3.79,39.11,-4.82,0.35,112.15,2.15,-1.47,-20.00
26,27,336,-65,-260,3907,1.20,1.63,14.97,-0.65,-2.60,39.07,-4.80,0.37,112.09,2.31,-1.24,-20.00
9,16,333,-92,-297,3897,1.14,1.56,15.51,-0.92,-2.97,38.97,-4.79,0.40,112.03,2.67,-1.01,-20.00
-4,-1,284,-110,-238,3933,1.00,1.40,15.69,-1.10,-2.38,39.33,-4.77,0.42,111.96,2.96,-0.64,-17.62
-10,-7,262,-163,-174,3897,0.84,1.22,15.72,-1.63,-1.74,38.97,-4.75,0.44,111.90,3.11,-0.48,-15.72
-29,-18,218,-97,-239,3919,0.58,0.99,15.48,-0.97,-2.39,39.19,-4.74,0.46,111.84,3.56,-0.21,-12.24
-30,-21,196,-117,-226,3917,0.34,0.76,15.12,-1.17,-2.26,39.17,-4.72,0.48,111.78,3.63,-0.10,-10.74
-27,-19,149,-50,-336,3943,0.14,0.57,14.52,-0.50,-3.36,39.43,-4.73,0.51,111.72,3.63,-0.10,-7.39
-26,-18,159,2,-378,3929,-0.03,0.40,14.04,0.02,-3.78,39.29,-4.74,0.50,111.67,3.67,-0.07,-8.74
-32,-22,228,111,-479,3945,-0.22,0.23,14.03,1.11,-4.79,39.45,-4.76,0.49,111.61,3.85,0.06,-14.59
-26,-17,249,85,-434,3945,-0.36,0.10,14.14,0.85,-4.34,39.45,-4.77,0.49,111.56,3.78,-0.00,-16.25
-33,-24,316,88,-459,3890,-0.53,-0.06,14.66,0.88,-4.59,38.90,-4.78,0.48,111.50,3.97,0.19,-20.00
-35,-29,332,89,-341,3908,-0.69,-0.23,15.22,0.89,-3.41,39.08,-4.79,0.46,111.44,4.06,0.35,-20.00
-56,-36,388,58,-399,3911,-0.96,-0.42,16.06,0.58,-3.99,39.11,-4.80,0.45,111.37,4.57,0.55,-20.00
-55,-39,399,58,-370,3921,-1.20,-0.62,16.89,0.58,-3.70,39.21,-4.82,0.44,111.30,4.62,0.67,-20.00
-44,-37,410,19,-347,3910,-1.35,-0.78,17.70,0.19,-3.47,39.10,-4.83,0.43,111.23,4.45,0.69,-20.00
-37,-27,421,-53,-343,3936,-1.44,-0.87,18.50,-0.53,-3.43,39.36,-4.84,0.44,111.16,4.34,0.49,-20.00
-17,-11,429,-7,-373,3927,-1.40,-0.85,19.27,-0.07,-3.73,39.27,-4.86,0.44,111.08,3.93,0.17,-20.00
-8,-5,417,-53,-339,3902,-1.31,-0.80,19.88,-0.53,-3.39,39.02,-4.87,0.46,111.00,3.73,0.02,-20.00
-7,4,417,-44,-336,3906,-1.22,-0.69,20.44,-0.44,-3.36,39.06,-4.88,0.48,110.92,3.69,-0.21,-20.00
-1,16,410,-55,-274,3912,-1.10,-0.52,20.90,-0.55,-2.74,39.12,-4.87,0.49,110.84,3.53,-0.51,-20.00
-9,11,364,-63,-393,3912,-1.05,-0.41,21.03,-0.63,-3.93,39.12,-4.89,0.51,110.75,3.69,-0.45,-18.67
-10,13,366,-70,-271,3902,-1.00,-0.29,21.16,-0.70,-2.71,39.02,-4.87,0.52,110.67,3.69,-0.53,-18.69
-3,10,329,-79,-280,3896,-0.92,-0.20,21.05,-0.79,-2.80,38.96,-4.86,0.54,110.59,3.52,-0.51,-15.67
-5,10,312,-113,-286,3933,-0.86,-0.12,20.85,-1.13,-2.86,39.33,-4.85,0.56,110.50,3.54,-0.54,-14.43
-4,10,262,-76,-259,3906,-0.80,-0.04,20.36,-0.76,-2.59,39.06,-4.84,0.58,110.42,3.49,-0.57,-10.70
1,8,248,-65,-323,3946,-0.71,0.01,19.84,-0.65,-3.23,39.46,-4.84,0.60,110.34,3.37,-0.56,-10.06
1,12,231,-100,-319,3944,-0.64,0.08,19.26,-1.00,-3.19,39.44,-4.83,0.63,110.27,3.34,-0.68,-9.21
4,11,202,-104,-310,3889,-0.55,0.14,18.57,-1.04,-3.10,38.89,-4.83,0.65,110.19,3.25,-0.69,-7.48
-6,40,280,-224,-393,4175,-0.53,0.37,18.42,-2.24,-3.93,41.75,-4.83,0.68,110.12,3.46,-1.36,-14.24
-14,44,322,-95,-88,3975,-0.56,0.60,18.54,-0.95,-0.88,39.75,-4.82,0.69,110.04,3.62,-1.51,-17.66
-57,-10,900,-458,-21,4180,-0.85,0.48,22.18,-4.58,-0.21,41.80,-4.81,0.71,109.96,4.57,-0.40,-20.00
-52,-11,984,-129,-256,3813,-1.09,0.37,25.96,-1.29,-2.56,38.13,-4.80,0.74,109.85,4.52,-0.36,-20.00
42,8,1178,-122,-303,4056,-0.72,0.38,30.55,-1.22,-3.03,40.56,-4.79,0.76,109.73,2.51,-0.77,-20.00
-23,-7,1175,-72,-484,3966,-0.79,0.30,34.66,-0.72,-4.84,39.66,-4.81,0.78,109.59,3.86,-0.45,-20.00
59,-4,996,-3,-329,3904,-0.35,0.24,37.27,-0.03,-3.29,39.04,-4.81,0.77,109.44,2.07,-0.50,-20.00
22,8,962,5,-490,4022,-0.18,0.27,39.41,0.05,-4.90,40.22,-4.83,0.78,109.29,2.79,-0.75,-20.00
4,-10,737,53,-431,3809,-0.14,0.18,39.97,0.53,-4.31,38.09,-4.84,0.78,109.13,3.15,-0.36,-20.00
5,10,665,24,-338,3930,-0.09,0.22,40.03,0.24,-3.38,39.30,-4.84,0.78,108.97,3.12,-0.78,-20.00
-14,4,582,84,-377,3906,-0.17,0.23,39.58,0.84,-3.77,39.06,-4.84,0.78,108.81,3.53,-0.65,-17.43
-4,1,561,89,-299,3931,-0.18,0.21,39.04,0.89,-2.99,39.31,-4.84,0.77,108.66,3.32,-0.59,-16.20
-15,5,511,74,-397,3942,-0.25,0.22,38.25,0.74,-3.97,39.42,-4.84,0.77,108.50,3.57,-0.67,-12.78
-9,1,504,77,-405,3928,-0.28,0.20,37.50,0.77,-4.05,39.28,-4.85,0.77,108.35,3.46,-0.58,-12.97
-14,2,507,-34,-352,3906,-0.34,0.19,36.84,-0.34,-3.52,39.06,-4.86,0.77,108.21,3.59,-0.60,-13.90
-13,3,503,-41,-360,3934,-0.38,0.19,36.23,-0.41,-3.60,39.34,-4.88,0.77,108.06,3.59,-0.62,-14.20
-7,2,375,-71,-423,3882,-0.39,0.19,34.89,-0.71,-4.23,38.82,-4.90,0.79,107.92,3.48,-0.61,-4.75
1,-2,326,-94,-391,3965,-0.34,0.16,33.39,-0.94,-3.91,39.65,-4.91,0.81,107.79,3.32,-0.54,-2.16
0,6,193,-15,-312,3896,-0.31,0.18,31.23,-0.15,-3.12,38.96,-4.90,0.81,107.67,3.32,-0.70,6.84
3,-2,163,-3,-306,3938,-0.26,0.15,29.10,-0.03,-3.06,39.38,-4.89,0.80,107.55,3.24,-0.53,7.15
-7,-3,165,-26,-388,3928,-0.28,0.11,27.20,-0.26,-3.88,39.28,-4.91,0.80,107.44,3.46,-0.50,4.99
-4,-1,169,-28,-382,3918,-0.27,0.10,25.51,-0.28,-3.82,39.18,-4.92,0.80,107.34,3.41,-0.54,2.88
2,2,157,-49,-386,3991,-0.23,0.10,23.92,-0.49,-3.86,39.91,-4.94,0.81,107.25,3.28,-0.60,2.23
6,1,134,-30,-367,3909,-0.17,0.10,22.34,-0.30,-3.67,39.09,-4.95,0.80,107.16,3.20,-0.58,2.53
3,1,77,13,-286,3954,-0.14,0.09,20.58,0.13,-2.86,39.54,-4.94,0.80,107.08,3.24,-0.57,5.51
1,3,65,4,-284,3917,-0.12,0.10,18.92,0.04,-2.84,39.17,-4.93,0.79,107.00,3.27,-0.61,4.78
2,5,42,20,-286,3934,-0.09,0.12,17.28,0.20,-2.86,39.34,-4.92,0.78,106.93,3.23,-0.65,5.01
3,4,41,14,-292,3927,-0.07,0.13,15.80,0.14,-2.92,39.27,-4.91,0.77,106.87,3.20,-0.63,3.55
2,3,52,22,-275,3941,-0.05,0.14,14.54,0.22,-2.75,39.41,-4.89,0.76,106.81,3.20,-0.60,1.29
-4,3,40,74,-260,3920,-0.07,0.14,13.33,0.74,-2.60,39.20,-4.89,0.75,106.76,3.32,-0.60,1.04
-2,0,37,39,-255,3934,-0.07,0.13,12.22,0.39,-2.55,39.34,-4.87,0.75,106.71,3.28,-0.53,0.13
-1,0,31,37,-259,3929,-0.07,0.12,11.19,0.37,-2.59,39.29,-4.86,0.74,106.66,3.25,-0.52,-0.45
2,-1,2,5,-305,3931,-0.05,0.10,10.08,0.05,-3.05,39.31,-4.85,0.72,106.62,3.18,-0.48,0.85
1,0,1,-2,-322,3924,-0.04,0.09,9.08,-0.02,-3.22,39.24,-4.85,0.71,106.59,3.19,-0.49,-0.12
0,2,-1,-32,-335,3932,-0.04,0.09,8.17,-0.32,-3.35,39.32,-4.85,0.69,106.55,3.21,-0.52,-0.91
0,2,0,-28,-343,3940,-0.03,0.09,7.35,-0.28,-3.43,39.40,-4.86,0.68,106.52,3.21,-0.52,-1.85
-2,0,-1,-25,-358,3922,-0.04,0.09,6.61,-0.25,-3.58,39.22,-4.87,0.67,106.50,3.27,-0.47,-2.54
1,-2,-2,-26,-348,3894,-0.03,0.06,5.94,-0.26,-3.48,38.94,-4.88,0.66,106.48,3.21,-0.41,-3.16
2,0,14,-38,-387,3907,-0.02,0.06,5.43,-0.38,-3.87,39.07,-4.90,0.66,106.45,3.20,-0.45,-5.05
2,4,25,-32,-399,3907,-0.00,0.08,5.04,-0.32,-3.99,39.07,-4.92,0.66,106.43,3.20,-0.54,-6.39
1,5,57,-35,-399,3917,0.00,0.10,4.88,-0.35,-3.99,39.17,-4.93,0.66,106.41,3.24,-0.56,-9.27
2,3,68,-46,-381,3916,0.02,0.11,4.81,-0.46,-3.81,39.16,-4.95,0.66,106.40,3.22,-0.52,-10.27
1,2,108,-121,-355,3944,0.02,0.11,4.99,-1.21,-3.55,39.44,-4.96,0.68,106.38,3.24,-0.52,-13.47
-1,4,108,-97,-313,3930,0.01,0.12,5.15,-0.97,-3.13,39.30,-4.95,0.70,106.36,3.28,-0.57,-13.30
-2,4,133,-52,-376,3916,-0.00,0.13,5.44,-0.52,-3.76,39.16,-4.96,0.70,106.33,3.32,-0.58,-15.11
1,5,143,-38,-371,3951,0.00,0.15,5.77,-0.38,-3.71,39.51,-4.98,0.70,106.31,3.27,-0.60,-15.61
0,3,160,-56,-379,3942,0.00,0.15,6.17,-0.56,-3.79,39.42,-5.00,0.70,106.29,3.30,-0.57,-16.63
-4,0,162,-35,-393,3887,-0.02,0.14,6.54,-0.35,-3.93,38.87,-5.02,0.70,106.26,3.40,-0.50,-16.40
-1,0,196,12,-408,3916,-0.02,0.13,7.08,0.12,-4.08,39.16,-5.03,0.69,106.23,3.35,-0.49,-18.71
-5,-2,199,7,-406,3907,-0.05,0.10,7.59,0.07,-4.06,39.07,-5.04,0.68,106.20,3.44,-0.44,-18.43
3,-3,189,-41,-308,3926,-0.03,0.07,7.98,-0.41,-3.08,39.26,-5.02,0.68,106.17,3.26,-0.41,-17.16
-4,7,181,-48,-256,3930,-0.05,0.11,8.29,-0.48,-2.56,39.30,-5.01,0.69,106.14,3.40,-0.63,-16.16
-2,-2,125,-7,-237,3918,-0.06,0.08,8.22,-0.07,-2.37,39.18,-4.99,0.68,106.10,3.35,-0.43,-11.48
-3,-2,112,-5,-272,3900,-0.07,0.06,8.08,-0.05,-2.72,39.00,-4.97,0.68,106.07,3.36,-0.42,-10.53
-7,2,124,1,-421,3951,-0.11,0.07,8.03,0.01,-4.21,39.51,-4.99,0.67,106.04,3.46,-0.50,-11.59
-6,3,132,11,-452,3913,-0.13,0.08,8.03,0.11,-4.52,39.13,-5.00,0.67,106.01,3.46,-0.52,-12.27
-2,-7,129,-36,-347,3918,-0.13,0.03,8.02,-0.36,-3.47,39.18,-5.01,0.65,105.98,3.38,-0.30,-12.03
-3,1,140,-37,-396,3903,-0.14,0.03,8.07,-0.37,-3.96,39.03,-5.03,0.65,105.95,3.42,-0.46,-12.90
4,8,224,-82,-389,3912,-0.10,0.08,8.63,-0.82,-3.89,39.12,-5.04,0.67,105.91,3.27,-0.62,-19.42
-7,1,223,-75,-338,3919,-0.13,0.08,9.13,-0.75,-3.38,39.19,-5.04,0.69,105.87,3.50,-0.50,-18.81
-2,10,214,-16,-315,3861,-0.13,0.13,9.52,-0.16,-3.15,38.61,-5.03,0.68,105.84,3.39,-0.69,-17.63
-3,-1,200,-47,-284,3971,-0.14,0.11,9.79,-0.47,-2.84,39.71,-5.01,0.68,105.80,3.40,-0.46,-16.16
-3,1,162,13,-328,3914,-0.14,0.11,9.80,0.13,-3.28,39.14,-5.01,0.67,105.76,3.40,-0.49,-12.93
-5,-4,160,-14,-351,3921,-0.16,0.07,9.79,-0.14,-3.51,39.21,-5.01,0.65,105.72,3.45,-0.37,-12.76
-2,-2,159,17,-345,3889,-0.15,0.05,9.78,0.17,-3.45,38.89,-5.01,0.64,105.68,3.39,-0.40,-12.68
4,-2,158,2,-387,3939,-0.11,0.03,9.77,0.02,-3.87,39.39,-5.02,0.63,105.64,3.26,-0.38,-12.61
-5,-5,169,-2,-399,3926,-0.13,0.00,9.82,-0.02,-3.99,39.26,-5.04,0.62,105.60,3.46,-0.31,-13.48
-5,1,178,-7,-464,3884,-0.15,0.01,9.93,-0.07,-4.64,38.84,-5.06,0.62,105.56,3.48,-0.43,-14.13
1,8,230,-42,-461,3920,-0.13,0.05,10.34,-0.42,-4.61,39.20,-5.07,0.62,105.52,3.36,-0.59,-18.10
-5,10,243,-26,-349,3904,-0.15,0.11,10.79,-0.26,-3.49,39.04,-5.08,0.61,105.48,3.49,-0.64,-18.72
-2,8,263,39,-302,3904,-0.14,0.15,11.31,0.39,-3.02,39.04,-5.07,0.60,105.43,3.42,-0.60,-19.86
-9,4,277,49,-274,3897,-0.18,0.16,11.87,0.49,-2.74,38.97,-5.06,0.59,105.39,3.57,-0.51,-20.00
5,11,292,-58,-279,3950,-0.14,0.21,12.46,-0.58,-2.79,39.50,-5.04,0.60,105.34,3.26,-0.68,-20.00
-15,-9,291,-38,-293,3918,-0.21,0.13,12.99,-0.38,-2.93,39.18,-5.02,0.60,105.29,3.68,-0.25,-20.00
-12,9,339,-12,-317,3867,-0.27,0.17,13.76,-0.12,-3.17,38.67,-5.01,0.59,105.23,3.62,-0.62,-20.00
-1,6,353,-72,-343,3975,-0.24,0.19,14.54,-0.72,-3.43,39.75,-5.01,0.62,105.17,3.39,-0.58,-20.00
2,5,355,-26,-397,3937,-0.21,0.20,15.25,-0.26,-3.97,39.37,-5.02,0.62,105.11,3.33,-0.57,-20.00
-6,-5,357,-64,-418,3931,-0.22,0.15,15.90,-0.64,-4.18,39.31,-5.04,0.63,105.05,3.51,-0.36,-20.00
-6,-10,379,-90,-316,3934,-0.24,0.08,16.62,-0.90,-3.16,39.34,-5.03,0.65,104.98,3.51,-0.25,-20.00
-6,-6,378,-60,-344,3882,-0.25,0.03,17.27,-0.60,-3.44,38.82,-5.04,0.68,104.91,3.51,-0.33,-20.00
-1,4,354,-52,-352,3950,-0.23,0.05,17.70,-0.52,-3.52,39.50,-5.05,0.70,104.84,3.41,-0.56,-20.00
5,9,347,-45,-372,3903,-0.18,0.10,18.05,-0.45,-3.72,39.03,-5.06,0.70,104.77,3.29,-0.67,-19.83
-3,11,351,-3,-375,3909,-0.18,0.16,18.38,-0.03,-3.75,39.09,-5.07,0.69,104.70,3.46,-0.72,-19.80
-2,9,349,-19,-374,3938,-0.17,0.20,18.67,-0.19,-3.74,39.38,-5.09,0.69,104.62,3.44,-0.69,-19.32
-1,10,336,-12,-248,3922,-0.16,0.24,18.86,-0.12,-2.48,39.22,-5.07,0.69,104.55,3.41,-0.72,-18.02
-8,-1,329,-14,-289,3931,-0.19,0.21,18.98,-0.14,-2.89,39.31,-5.05,0.69,104.47,3.55,-0.49,-17.30
-10,3,353,-26,-390,3935,-0.24,0.21,19.23,-0.26,-3.90,39.35,-5.07,0.69,104.40,3.61,-0.57,-19.05
-4,3,357,-18,-372,3923,-0.24,0.21,19.49,-0.18,-3.72,39.23,-5.08,0.68,104.32,3.50,-0.57,-19.12
3,0,339,-56,-347,3849,-0.19,0.18,19.61,-0.56,-3.47,38.49,-5.09,0.70,104.24,3.35,-0.51,-17.46
9,7,332,-85,-389,3947,-0.12,0.21,19.67,-0.85,-3.89,39.47,-5.10,0.72,104.16,3.22,-0.68,-16.79
-7,6,308,-120,-349,3907,-0.15,0.22,19.58,-1.20,-3.49,39.07,-5.10,0.75,104.09,3.55,-0.68,-14.84
1,5,293,-61,-371,3914,-0.13,0.23,19.41,-0.61,-3.71,39.14,-5.12,0.77,104.01,3.39,-0.67,-13.75
3,9,219,-98,-356,3924,-0.10,0.26,18.81,-0.98,-3.56,39.24,-5.12,0.79,103.93,3.34,-0.78,-8.11
2,13,207,-102,-360,3917,-0.08,0.32,18.19,-1.02,-3.60,39.17,-5.12,0.82,103.86,3.36,-0.89,-7.73
3,8,244,-16,-367,3907,-0.05,0.33,17.86,-0.16,-3.67,39.07,-5.13,0.81,103.79,3.34,-0.79,-11.21
-4,10,262,-17,-412,3911,-0.07,0.36,17.67,-0.17,-4.12,39.11,-5.14,0.81,103.72,3.49,-0.83,-12.93
-9,9,356,-53,-379,3930,-0.12,0.38,18.08,-0.53,-3.79,39.30,-5.16,0.81,103.65,3.62,-0.82,-20.00
-4,16,374,-56,-427,3885,-0.13,0.44,18.55,-0.56,-4.27,38.85,-5.18,0.82,103.58,3.53,-0.99,-20.00
-11,14,402,36,-385,3978,-0.18,0.48,19.15,0.36,-3.85,39.78,-5.18,0.81,103.50,3.69,-0.95,-20.00
-6,11,386,34,-281,3925,-0.20,0.50,19.59,0.34,-2.81,39.25,-5.17,0.81,103.42,3.59,-0.89,-20.00
-4,13,323,12,-345,3835,-0.21,0.53,19.60,0.12,-3.45,38.35,-5.17,0.80,103.34,3.55,-0.94,-16.03
-7,10,301,28,-268,3969,-0.23,0.54,19.47,0.28,-2.68,39.69,-5.15,0.79,103.27,3.61,-0.87,-14.29
1,9,259,24,-265,3903,-0.20,0.54,19.11,0.24,-2.65,39.03,-5.14,0.79,103.19,3.43,-0.85,-11.11
0,12,257,0,-261,3950,-0.18,0.56,18.76,0.00,-2.61,39.50,-5.12,0.79,103.11,3.43,-0.92,-11.30
-3,21,279,1,-316,3892,-0.18,0.63,18.59,0.01,-3.16,38.92,-5.11,0.78,103.04,3.49,-1.12,-13.34
-11,5,290,18,-337,3963,-0.23,0.60,18.50,0.18,-3.37,39.63,-5.11,0.78,102.97,3.66,-0.78,-14.36
2,5,245,-77,-304,3812,-0.19,0.57,18.14,-0.77,-3.04,38.12,-5.10,0.79,102.90,3.38,-0.78,-10.91
-6,1,247,-70,-350,3910,-0.21,0.52,17.84,-0.70,-3.50,39.10,-5.10,0.82,102.82,3.54,-0.70,-11.40
-7,11,265,-21,-219,3990,-0.23,0.53,17.67,-0.21,-2.19,39.90,-5.08,0.83,102.75,3.56,-0.91,-13.10
5,6,255,-50,-248,3884,-0.18,0.52,17.46,-0.50,-2.48,38.84,-5.06,0.83,102.68,3.29,-0.81,-12.46
-1,9,234,-51,-264,3894,-0.17,0.52,17.14,-0.51,-2.64,38.94,-5.04,0.84,102.62,3.39,-0.88,-11.01
2,9,227,-47,-267,3899,-0.14,0.52,16.81,-0.47,-2.67,38.99,-5.02,0.84,102.55,3.31,-0.88,-10.76
3,7,209,-60,-236,3951,-0.11,0.51,16.40,-0.60,-2.36,39.51,-5.00,0.85,102.48,3.27,-0.85,-9.66
-2,0,195,-63,-255,3900,-0.11,0.46,15.95,-0.63,-2.55,39.00,-4.99,0.86,102.42,3.36,-0.69,-8.94
-5,4,152,8,-290,3934,-0.13,0.44,15.28,0.08,-2.90,39.34,-4.97,0.85,102.36,3.42,-0.76,-6.00
0,5,142,-20,-342,3949,-0.11,0.43,14.62,-0.20,-3.42,39.49,-4.97,0.84,102.30,3.31,-0.77,-5.84
1,2,109,-32,-305,3918,-0.10,0.40,13.83,-0.32,-3.05,39.18,-4.96,0.84,102.25,3.28,-0.70,-3.88
3,-1,107,-25,-312,3925,-0.07,0.35,13.10,-0.25,-3.12,39.25,-4.95,0.83,102.19,3.22,-0.62,-4.47
1,4,128,-2,-358,3903,-0.06,0.34,12.57,-0.02,-3.58,39.03,-4.95,0.82,102.14,3.26,-0.71,-6.81
6,13,174,-28,-347,3921,-0.01,0.39,12.37,-0.28,-3.47,39.21,-4.95,0.81,102.09,3.15,-0.90,-10.90
5,15,293,-26,-280,3938,0.02,0.44,12.92,-0.26,-2.80,39.38,-4.94,0.80,102.04,3.15,-0.96,-20.00
-3,2,302,-43,-249,3953,-0.00,0.41,13.47,-0.43,-2.49,39.53,-4.92,0.81,101.99,3.31,-0.69,-20.00
-2,7,266,-27,-323,3920,-0.01,0.41,13.75,-0.27,-3.23,39.20,-4.91,0.80,101.93,3.29,-0.78,-17.24
-9,6,283,-62,-276,3910,-0.07,0.40,14.10,-0.62,-2.76,39.10,-4.89,0.81,101.88,3.43,-0.77,-18.30
-5,-5,326,0,-290,3936,-0.09,0.33,14.68,0.00,-2.90,39.36,-4.88,0.80,101.82,3.35,-0.52,-20.00
3,7,344,-24,-291,3928,-0.06,0.34,15.31,-0.24,-2.91,39.28,-4.86,0.80,101.76,3.17,-0.76,-20.00
-11,3,364,-3,-349,3892,-0.12,0.33,16.00,-0.03,-3.49,38.92,-4.87,0.79,101.69,3.47,-0.67,-20.00
-8,-5,338,-44,-348,3908,-0.16,0.26,16.46,-0.44,-3.48,39.08,-4.88,0.78,101.63,3.43,-0.49,-20.00
-4,-1,170,-83,-482,3930,-0.17,0.23,15.85,-0.83,-4.82,39.30,-4.90,0.79,101.57,3.36,-0.57,-6.85
-3,3,132,-78,-466,3948,-0.17,0.23,15.07,-0.78,-4.66,39.48,-4.92,0.80,101.51,3.35,-0.65,-4.45
-7,3,133,19,-384,3940,-0.20,0.22,14.38,0.19,-3.84,39.40,-4.93,0.79,101.45,3.45,-0.64,-5.26
-4,11,168,-23,-309,3925,-0.20,0.27,13.96,-0.23,-3.09,39.25,-4.92,0.78,101.39,3.38,-0.81,-8.66
-7,3,304,-35,-307,3896,-0.22,0.26,14.42,-0.35,-3.07,38.96,-4.90,0.78,101.34,3.44,-0.65,-19.69
-10,3,344,-39,-316,3932,-0.26,0.25,15.08,-0.39,-3.16,39.32,-4.89,0.78,101.28,3.50,-0.64,-20.00
-12,-2,355,-42,-330,3892,-0.31,0.21,15.73,-0.42,-3.30,38.92,-4.88,0.76,101.21,3.55,-0.52,-20.00
-11,-4,339,-54,-379,3943,-0.35,0.17,16.23,-0.54,-3.79,39.43,-4.90,0.77,101.15,3.55,-0.47,-20.00
-2,-3,313,-39,-341,3925,-0.32,0.13,16.52,-0.39,-3.41,39.25,-4.91,0.76,101.08,3.37,-0.48,-18.23
-10,3,305,-69,-378,3931,-0.35,0.14,16.72,-0.69,-3.78,39.31,-4.92,0.77,101.02,3.55,-0.61,-17.32
-11,-3,228,-55,-418,3931,-0.38,0.11,16.44,-0.55,-4.18,39.31,-4.94,0.78,100.95,3.59,-0.48,-11.09
-10,2,189,-71,-384,3962,-0.41,0.11,15.95,-0.71,-3.84,39.62,-4.96,0.79,100.89,3.59,-0.59,-8.30
0,5,169,-101,-372,3921,-0.37,0.13,15.39,-1.01,-3.72,39.21,-4.97,0.81,100.83,3.38,-0.67,-7.19
-1,5,177,-74,-345,3932,-0.34,0.14,14.93,-0.74,-3.45,39.32,-4.98,0.84,100.77,3.40,-0.69,-8.35
1,16,272,-67,-387,3876,-0.30,0.23,15.09,-0.67,-3.87,38.76,-4.99,0.85,100.71,3.36,-0.95,-16.22
2,4,295,-56,-343,3994,-0.25,0.23,15.38,-0.56,-3.43,39.94,-4.98,0.84,100.65,3.31,-0.70,-17.85
6,13,378,17,-366,3942,-0.19,0.29,16.15,0.17,-3.66,39.42,-4.98,0.83,100.58,3.22,-0.89,-20.00
5,14,390,34,-345,3969,-0.14,0.34,16.92,0.34,-3.45,39.69,-4.98,0.82,100.51,3.23,-0.92,-20.00
-8,10,449,-42,-344,3928,-0.18,0.37,17.96,-0.42,-3.44,39.28,-4.98,0.81,100.44,3.50,-0.84,-20.00
-2,8,447,-65,-365,3875,-0.17,0.38,18.89,-0.65,-3.65,38.75,-5.00,0.83,100.37,3.39,-0.81,-20.00
4,5,443,-139,-359,3946,-0.13,0.37,19.71,-1.39,-3.59,39.46,-5.00,0.85,100.29,3.26,-0.77,-20.00
-10,2,450,-82,-354,3924,-0.18,0.35,20.48,-0.82,-3.54,39.24,-5.01,0.88,100.21,3.56,-0.71,-20.00
-13,3,401,-38,-349,3950,-0.24,0.33,20.88,-0.38,-3.49,39.50,-5.01,0.87,100.13,3.64,-0.72,-20.00
-7,9,397,-54,-327,3895,-0.26,0.35,21.21,-0.54,-3.27,38.95,-4.99,0.87,100.04,3.51,-0.85,-20.00
-1,5,400,-76,-323,3896,-0.24,0.35,21.53,-0.76,-3.23,38.96,-4.98,0.89,99.95,3.37,-0.79,-20.00
-7,-13,411,14,-403,3938,-0.26,0.23,21.89,0.14,-4.03,39.38,-4.99,0.89,99.87,3.51,-0.38,-20.00
-10,-3,440,-1,-420,3934,-0.29,0.19,22.38,-0.01,-4.20,39.34,-5.01,0.88,99.78,3.59,-0.57,-20.00
2,8,442,-65,-466,3897,-0.25,0.22,22.84,-0.65,-4.66,38.97,-5.02,0.89,99.69,3.34,-0.81,-20.00
-15,3,396,-49,-325,3932,-0.32,0.22,22.97,-0.49,-3.25,39.32,-5.01,0.89,99.60,3.70,-0.71,-18.33
-5,8,380,-36,-359,3928,-0.32,0.25,22.99,-0.36,-3.59,39.28,-5.02,0.89,99.51,3.50,-0.81,-16.94
-6,10,361,-14,-312,3923,-0.32,0.28,22.89,-0.14,-3.12,39.23,-5.01,0.88,99.41,3.51,-0.86,-15.43
6,13,389,-88,-290,3907,-0.25,0.33,22.98,-0.88,-2.90,39.07,-4.99,0.90,99.32,3.24,-0.95,-17.70
-7,15,422,-51,-316,3931,-0.27,0.39,23.25,-0.51,-3.16,39.31,-4.97,0.90,99.23,3.50,-1.01,-20.00
-4,1,408,-46,-309,3962,-0.27,0.36,23.42,-0.46,-3.09,39.62,-4.96,0.90,99.14,3.43,-0.71,-18.83
-6,-2,377,12,-279,3935,-0.28,0.31,23.38,0.12,-2.79,39.35,-4.94,0.90,99.04,3.46,-0.64,-16.24
-9,3,368,-64,-312,3888,-0.30,0.30,23.28,-0.64,-3.12,38.88,-4.93,0.91,98.95,3.52,-0.74,-15.57
0,8,351,-76,-395,3940,-0.27,0.32,23.10,-0.76,-3.95,39.40,-4.94,0.92,98.86,3.34,-0.86,-14.32
-5,8,349,-24,-408,3867,-0.28,0.33,22.92,-0.24,-4.08,38.67,-4.96,0.92,98.77,3.45,-0.86,-14.33
-9,-1,278,-50,-358,3935,-0.30,0.29,22.32,-0.50,-3.58,39.35,-4.97,0.92,98.68,3.55,-0.67,-8.93
-3,5,251,-63,-342,3943,-0.29,0.30,21.62,-0.63,-3.42,39.43,-4.96,0.92,98.59,3.41,-0.79,-7.38
0,4,156,3,-261,3919,-0.26,0.29,20.41,0.03,-2.61,39.19,-4.94,0.92,98.51,3.33,-0.77,-0.60
0,7,130,13,-304,3933,-0.24,0.30,19.16,0.13,-3.04,39.33,-4.93,0.91,98.43,3.32,-0.82,0.30
2,5,116,19,-313,3934,-0.20,0.30,17.95,0.19,-3.13,39.34,-4.93,0.90,98.36,3.27,-0.78,0.22
2,6,133,20,-321,3931,-0.17,0.31,16.97,0.20,-3.21,39.31,-4.92,0.89,98.30,3.25,-0.79,-2.25
2,14,258,-45,-400,3895,-0.14,0.36,16.85,-0.45,-4.00,38.95,-4.94,0.89,98.23,3.26,-0.97,-12.96
-5,5,281,-54,-351,3924,-0.16,0.36,16.87,-0.54,-3.51,39.24,-4.96,0.89,98.16,3.42,-0.79,-14.87
-1,5,302,-96,-343,3912,-0.15,0.35,17.03,-0.96,-3.43,39.12,-4.96,0.91,98.09,3.33,-0.80,-16.48
-1,6,308,-61,-367,3904,-0.14,0.35,17.21,-0.61,-3.67,39.04,-4.98,0.92,98.03,3.34,-0.83,-16.80
2,14,278,-100,-356,3934,-0.11,0.40,17.18,-1.00,-3.56,39.34,-4.98,0.94,97.96,3.28,-1.02,-14.28
-3,10,264,-78,-331,3888,-0.12,0.43,17.07,-0.78,-3.31,38.88,-4.97,0.97,97.89,3.37,-0.96,-13.20
-1,4,227,-51,-333,3917,-0.11,0.41,16.75,-0.51,-3.33,39.17,-4.96,0.96,97.82,3.33,-0.83,-10.40
-6,9,201,-21,-321,3931,-0.14,0.42,16.30,-0.21,-3.21,39.31,-4.95,0.95,97.76,3.43,-0.92,-8.66
-7,5,139,-32,-346,3912,-0.17,0.41,15.52,-0.32,-3.46,39.12,-4.96,0.94,97.70,3.46,-0.83,-4.23
1,2,132,-34,-345,3926,-0.14,0.38,14.77,-0.34,-3.45,39.26,-4.96,0.93,97.64,3.29,-0.76,-4.42
-1,5,225,-110,-320,3913,-0.14,0.37,14.67,-1.10,-3.20,39.13,-4.95,0.95,97.58,3.33,-0.83,-12.40
-3,5,259,-94,-348,3890,-0.14,0.37,14.78,-0.94,-3.48,38.90,-4.96,0.97,97.52,3.37,-0.84,-15.16
1,15,339,-108,-365,3894,-0.12,0.42,15.37,-1.08,-3.65,38.94,-4.97,1.00,97.46,3.29,-1.08,-20.00
-5,14,402,-67,-323,3899,-0.14,0.46,16.29,-0.67,-3.23,38.99,-4.95,1.00,97.39,3.41,-1.07,-20.00
-20,13,440,134,-450,3944,-0.25,0.50,17.34,1.34,-4.50,39.44,-4.96,0.99,97.33,3.75,-1.06,-20.00
-7,27,424,-9,-430,3970,-0.27,0.61,18.19,-0.09,-4.30,39.70,-4.97,0.99,97.25,3.50,-1.37,-20.00
-3,-2,346,-91,-451,3906,-0.26,0.54,18.48,-0.91,-4.51,39.06,-4.99,1.01,97.18,3.42,-0.77,-18.60
-2,1,331,-118,-404,3979,-0.24,0.49,18.66,-1.18,-4.04,39.79,-5.00,1.03,97.11,3.41,-0.83,-17.14
-9,7,389,-162,-375,3915,-0.27,0.48,19.16,-1.62,-3.75,39.15,-5.01,1.05,97.03,3.56,-0.97,-20.00
-12,3,385,-117,-382,3890,-0.32,0.45,19.59,-1.17,-3.82,38.90,-5.02,1.07,96.95,3.65,-0.89,-20.00
0,12,378,-75,-348,3886,-0.29,0.48,19.94,-0.75,-3.48,38.86,-5.04,1.09,96.87,3.40,-1.09,-19.75
0,7,378,-68,-347,3975,-0.26,0.48,20.25,-0.68,-3.47,39.75,-5.03,1.08,96.79,3.39,-0.98,-19.41
4,14,432,-97,-339,3926,-0.21,0.51,20.86,-0.97,-3.39,39.26,-5.02,1.11,96.71,3.29,-1.16,-20.00
-7,6,452,-33,-336,3893,-0.23,0.50,21.53,-0.33,-3.36,38.93,-5.02,1.10,96.62,3.52,-0.98,-20.00
-10,12,434,-46,-385,3878,-0.27,0.52,22.03,-0.46,-3.85,38.78,-5.04,1.10,96.54,3.60,-1.11,-20.00
-2,9,421,-38,-333,3947,-0.25,0.53,22.39,-0.38,-3.33,39.47,-5.03,1.09,96.45,3.43,-1.05,-20.00
0,10,400,-23,-433,3906,-0.23,0.53,22.59,-0.23,-4.33,39.06,-5.04,1.09,96.36,3.39,-1.07,-18.77
5,7,394,-31,-472,3929,-0.18,0.52,22.74,-0.31,-4.72,39.29,-5.06,1.10,96.27,3.29,-1.01,-18.10
-6,9,394,-8,-421,3934,-0.19,0.53,22.87,-0.08,-4.21,39.34,-5.07,1.09,96.18,3.52,-1.05,-17.96
6,8,403,-22,-356,3941,-0.14,0.52,23.04,-0.22,-3.56,39.41,-5.07,1.09,96.09,3.26,-1.02,-18.53
-11,5,394,-109,-386,3890,-0.19,0.50,23.14,-1.09,-3.86,38.90,-5.09,1.11,95.99,3.63,-0.97,-17.66
0,-1,383,-66,-366,3937,-0.17,0.44,23.16,-0.66,-3.66,39.37,-5.10,1.11,95.90,3.41,-0.83,-16.69
-5,9,412,-29,-393,3945,-0.19,0.45,23.36,-0.29,-3.93,39.45,-5.11,1.10,95.81,3.53,-1.04,-18.93
3,11,424,11,-261,3966,-0.15,0.48,23.61,0.11,-2.61,39.66,-5.10,1.10,95.72,3.34,-1.08,-19.68
-7,6,449,-35,-341,3853,-0.18,0.47,23.99,-0.35,-3.41,38.53,-5.09,1.09,95.62,3.55,-0.97,-20.00
3,14,463,-77,-287,3939,-0.14,0.50,24.41,-0.77,-2.87,39.39,-5.07,1.10,95.52,3.33,-1.15,-20.00
-18,4,489,44,-425,3951,-0.24,0.48,24.95,0.44,-4.25,39.51,-5.08,1.10,95.42,3.79,-0.94,-20.00
-19,11,482,-9,-348,3973,-0.33,0.50,25.40,-0.09,-3.48,39.73,-5.08,1.09,95.32,3.83,-1.08,-20.00
-1,8,520,-30,-292,3927,-0.30,0.50,26.03,-0.30,-2.92,39.27,-5.07,1.09,95.22,3.45,-1.02,-20.00
-4,8,528,-38,-319,3903,-0.30,0.50,26.65,-0.38,-3.19,39.03,-5.05,1.09,95.11,3.50,-1.02,-20.00
-3,14,562,-17,-341,3906,-0.28,0.53,27.41,-0.17,-3.41,39.06,-5.05,1.08,95.00,3.47,-1.14,-20.00
0,12,572,-2,-364,3931,-0.26,0.55,28.16,-0.02,-3.64,39.31,-5.06,1.08,94.89,3.41,-1.10,-20.00
-1,14,634,41,-441,3929,-0.24,0.58,29.21,0.41,-4.41,39.29,-5.07,1.07,94.78,3.43,-1.15,-20.00
-6,7,647,40,-383,3925,-0.25,0.57,30.24,0.40,-3.83,39.25,-5.07,1.07,94.65,3.54,-1.00,-20.00
3,4,603,-3,-362,3925,-0.21,0.53,30.89,-0.03,-3.62,39.25,-5.07,1.07,94.53,3.34,-0.93,-20.00
-3,5,576,-29,-321,3936,-0.20,0.51,31.32,-0.29,-3.21,39.36,-5.06,1.06,94.41,3.46,-0.94,-20.00
-2,6,537,18,-310,3928,-0.20,0.50,31.46,0.18,-3.10,39.28,-5.05,1.06,94.28,3.43,-0.96,-20.00
2,13,551,-71,-307,3920,-0.16,0.53,31.68,-0.71,-3.07,39.20,-5.03,1.07,94.16,3.32,-1.12,-20.00
7,15,582,-56,-401,3917,-0.10,0.57,32.06,-0.56,-4.01,39.17,-5.05,1.08,94.03,3.22,-1.17,-20.00
1,13,571,-66,-366,3956,-0.09,0.59,32.34,-0.66,-3.66,39.56,-5.06,1.08,93.90,3.34,-1.14,-20.00
5,5,548,-87,-349,3925,-0.05,0.56,32.44,-0.87,-3.49,39.25,-5.06,1.12,93.77,3.25,-0.99,-20.00
2,11,544,-68,-383,3886,-0.03,0.57,32.52,-0.68,-3.83,38.86,-5.08,1.13,93.64,3.32,-1.12,-20.00
-4,9,485,8,-386,3896,-0.05,0.57,32.23,0.08,-3.86,38.96,-5.08,1.12,93.51,3.45,-1.08,-15.58
-2,1,453,15,-320,3959,-0.06,0.52,31.77,0.15,-3.20,39.59,-5.07,1.12,93.39,3.41,-0.90,-13.34
1,6,348,-55,-286,3892,-0.05,0.50,30.71,-0.55,-2.86,38.92,-5.05,1.13,93.26,3.33,-1.00,-5.54
-7,4,331,-85,-229,3910,-0.09,0.48,29.66,-0.85,-2.29,39.10,-5.03,1.14,93.15,3.49,-0.96,-5.20
-1,7,264,-121,-337,3887,-0.08,0.47,28.30,-1.21,-3.37,38.87,-5.03,1.17,93.03,3.36,-1.04,-0.94
8,5,251,-80,-412,3915,-0.03,0.46,27.01,-0.80,-4.12,39.15,-5.05,1.18,92.93,3.17,-1.01,-1.20
3,5,275,-91,-401,3979,-0.01,0.44,25.98,-0.91,-4.01,39.79,-5.06,1.20,92.82,3.28,-1.01,-4.30
-11,10,288,-56,-427,3880,-0.07,0.46,25.14,-0.56,-4.27,38.80,-5.08,1.20,92.72,3.59,-1.12,-6.27
1,11,331,-78,-445,3929,-0.06,0.48,24.65,-0.78,-4.45,39.29,-5.09,1.21,92.63,3.36,-1.15,-10.43
-6,4,333,-99,-451,3916,-0.09,0.46,24.21,-0.99,-4.51,39.16,-5.11,1.22,92.53,3.52,-1.01,-11.05
2,11,403,-96,-455,3938,-0.07,0.48,24.25,-0.96,-4.55,39.38,-5.13,1.24,92.43,3.36,-1.17,-16.93
-6,4,425,-113,-463,3908,-0.10,0.45,24.42,-1.13,-4.63,39.08,-5.14,1.25,92.34,3.54,-1.03,-18.61
0,13,458,-78,-386,3904,-0.09,0.49,24.77,-0.78,-3.86,39.04,-5.16,1.26,92.24,3.43,-1.23,-20.00
-5,18,467,-88,-320,3918,-0.11,0.55,25.14,-0.88,-3.20,39.18,-5.14,1.27,92.14,3.52,-1.35,-20.00
0,17,481,-171,-432,3890,-0.10,0.60,25.56,-1.71,-4.32,38.90,-5.15,1.29,92.04,3.43,-1.36,-20.00
0,9,480,-151,-395,3912,-0.09,0.59,25.93,-1.51,-3.95,39.12,-5.16,1.32,91.93,3.43,-1.22,-20.00
-14,3,473,-32,-394,3927,-0.17,0.55,26.22,-0.32,-3.94,39.27,-5.17,1.32,91.83,3.74,-1.08,-20.00
-3,7,475,-82,-458,3943,-0.17,0.54,26.50,-0.82,-4.58,39.43,-5.18,1.33,91.73,3.53,-1.17,-20.00
-2,5,484,-119,-372,3933,-0.16,0.52,26.80,-1.19,-3.72,39.33,-5.19,1.36,91.62,3.51,-1.14,-20.00
0,8,497,-64,-392,3902,-0.15,0.51,27.15,-0.64,-3.92,39.02,-5.20,1.36,91.51,3.47,-1.20,-20.00
2,3,532,-89,-328,3886,-0.12,0.48,27.68,-0.89,-3.28,38.86,-5.18,1.37,91.40,3.41,-1.09,-20.00
-11,7,541,-128,-241,3909,-0.17,0.47,28.22,-1.28,-2.41,39.09,-5.16,1.38,91.29,3.68,-1.18,-20.00
-6,13,535,-113,-146,3923,-0.19,0.51,28.66,-1.13,-1.46,39.23,-5.14,1.40,91.17,3.57,-1.32,-20.00
-12,5,517,-126,-195,3934,-0.25,0.49,28.95,-1.26,-1.95,39.34,-5.12,1.41,91.06,3.69,-1.17,-20.00
0,5,432,-100,-405,3929,-0.22,0.47,28.69,-1.00,-4.05,39.29,-5.14,1.43,90.94,3.45,-1.17,-14.58
-3,-5,407,-74,-447,3939,-0.22,0.39,28.30,-0.74,-4.47,39.39,-5.15,1.43,90.83,3.52,-0.95,-12.86
-17,-7,392,-40,-325,3940,-0.30,0.31,27.86,-0.40,-3.25,39.40,-5.14,1.43,90.72,3.82,-0.88,-12.04
-9,1,379,-8,-312,3905,-0.33,0.28,27.39,-0.08,-3.12,39.05,-5.14,1.42,90.61,3.66,-1.04,-11.43
-10,-6,344,-128,-286,3937,-0.35,0.22,26.75,-1.28,-2.86,39.37,-5.12,1.44,90.51,3.68,-0.89,-9.13
-16,-2,352,-116,-281,3888,-0.42,0.19,26.22,-1.16,-2.81,38.88,-5.10,1.45,90.40,3.80,-0.97,-10.35
-6,0,361,-151,-374,3922,-0.41,0.17,25.80,-1.51,-3.74,39.22,-5.11,1.48,90.30,3.60,-1.02,-11.55
-1,-4,363,-151,-366,3895,-0.38,0.13,25.43,-1.51,-3.66,38.95,-5.11,1.51,90.20,3.50,-0.95,-12.09
-11,13,345,-77,-464,3881,-0.41,0.19,24.99,-0.77,-4.64,38.81,-5.13,1.51,90.10,3.72,-1.32,-11.02
-14,3,341,-52,-462,3946,-0.45,0.19,24.58,-0.52,-4.62,39.46,-5.14,1.52,90.00,3.80,-1.11,-11.11
-8,7,359,-128,-383,3892,-0.45,0.21,24.31,-1.28,-3.83,38.92,-5.16,1.54,89.90,3.69,-1.21,-12.91
-10,8,377,-82,-354,3880,-0.47,0.24,24.18,-0.82,-3.54,38.80,-5.16,1.53,89.81,3.74,-1.24,-14.57
1,2,355,-4,-196,3999,-0.42,0.23,23.92,-0.04,-1.96,39.99,-5.14,1.53,89.71,3.49,-1.11,-12.96
-5,1,334,-9,-187,3928,-0.41,0.21,23.57,-0.09,-1.87,39.28,-5.13,1.53,89.62,3.60,-1.09,-11.55
3,3,243,-51,-249,3919,-0.35,0.21,22.69,-0.51,-2.49,39.19,-5.11,1.53,89.53,3.41,-1.13,-4.75
-12,-3,225,-43,-211,3874,-0.39,0.17,21.80,-0.43,-2.11,38.74,-5.09,1.53,89.44,3.71,-0.99,-4.16
-1,6,225,29,-358,3928,-0.35,0.19,20.99,0.29,-3.58,39.28,-5.09,1.52,89.36,3.48,-1.18,-5.00
-6,-1,242,-5,-385,3948,-0.35,0.17,20.37,-0.05,-3.85,39.48,-5.10,1.51,89.27,3.58,-1.02,-7.09
-10,-1,349,20,-596,3908,-0.38,0.14,20.46,0.20,-5.96,39.08,-5.11,1.51,89.19,3.68,-1.01,-16.05
-5,-2,385,56,-613,3899,-0.37,0.12,20.76,0.56,-6.13,38.99,-5.13,1.51,89.11,3.59,-0.99,-18.78
-2,5,513,143,-688,3934,-0.35,0.14,21.82,1.43,-6.88,39.34,-5.14,1.50,89.02,3.53,-1.13,-20.00
-7,1,588,176,-681,3928,-0.36,0.13,23.22,1.76,-6.81,39.28,-5.15,1.50,88.93,3.64,-1.05,-20.00
-26,3,696,93,-526,3858,-0.48,0.13,25.14,0.93,-5.26,38.58,-5.17,1.50,88.83,4.07,-1.09,-20.00
-8,8,713,14,-478,3917,-0.48,0.17,26.98,0.14,-4.78,39.17,-5.18,1.50,88.73,3.71,-1.20,-20.00
-15,-6,682,-238,-314,3873,-0.52,0.12,28.44,-2.38,-3.14,38.73,-5.17,1.52,88.61,3.86,-0.92,-20.00
-2,3,645,-216,-198,3926,-0.48,0.12,29.53,-2.16,-1.98,39.26,-5.16,1.55,88.49,3.58,-1.11,-20.00
-5,9,513,-212,-167,3905,-0.46,0.16,29.71,-2.12,-1.67,39.05,-5.14,1.57,88.38,3.62,-1.26,-20.00
-10,7,476,-214,-139,3930,-0.48,0.19,29.64,-2.14,-1.39,39.30,-5.12,1.59,88.26,3.71,-1.24,-17.06
-8,1,331,-50,-184,3971,-0.48,0.18,28.70,-0.50,-1.84,39.71,-5.10,1.59,88.14,3.66,-1.12,-5.76
-2,3,307,-35,-130,3942,-0.44,0.18,27.70,-0.35,-1.30,39.42,-5.09,1.60,88.03,3.52,-1.16,-4.77
-6,-2,266,-73,-214,3930,-0.44,0.15,26.55,-0.73,-2.14,39.30,-5.07,1.60,87.93,3.58,-1.06,-2.49
-2,-6,247,-79,-331,3902,-0.41,0.10,25.40,-0.79,-3.31,39.02,-5.06,1.59,87.82,3.49,-0.96,-2.08
-12,0,171,-186,-316,3927,-0.44,0.09,23.91,-1.86,-3.16,39.27,-5.05,1.62,87.73,3.70,-1.09,2.79
-15,3,169,-115,-309,3896,-0.49,0.10,22.55,-1.15,-3.09,38.96,-5.03,1.63,87.64,3.76,-1.16,1.53
4,12,182,-111,-438,3896,-0.41,0.16,21.40,-1.11,-4.38,38.96,-5.05,1.64,87.55,3.36,-1.37,-0.77
-3,9,194,-118,-436,3904,-0.39,0.20,20.45,-1.18,-4.36,39.04,-5.07,1.65,87.47,3.51,-1.32,-2.78
5,21,222,-133,-334,3935,-0.32,0.31,19.75,-1.33,-3.34,39.35,-5.05,1.67,87.39,3.32,-1.61,-5.87
8,11,215,-98,-312,3968,-0.24,0.34,19.09,-0.98,-3.12,39.68,-5.04,1.67,87.32,3.23,-1.42,-5.97
2,15,192,-82,-236,3925,-0.20,0.40,18.35,-0.82,-2.36,39.25,-5.02,1.67,87.24,3.33,-1.52,-4.80
1,10,179,-59,-233,3936,-0.18,0.42,17.61,-0.59,-2.33,39.36,-5.00,1.67,87.17,3.33,-1.42,-4.47
-4,3,133,-101,-289,3939,-0.18,0.40,16.66,-1.01,-2.89,39.39,-4.98,1.68,87.11,3.42,-1.28,-1.57
-2,3,103,-66,-301,3917,-0.18,0.38,15.62,-0.66,-3.01,39.17,-4.97,1.67,87.04,3.37,-1.26,-0.11
0,3,128,-95,-312,3923,-0.16,0.36,14.84,-0.95,-3.12,39.23,-4.95,1.66,86.98,3.31,-1.26,-3.05
3,9,171,-85,-340,3933,-0.13,0.38,14.40,-0.85,-3.40,39.33,-4.95,1.65,86.93,3.24,-1.38,-7.15
-2,15,332,-110,-350,3913,-0.13,0.43,14.98,-1.10,-3.50,39.13,-4.97,1.65,86.87,3.35,-1.51,-20.00
1,12,350,-118,-340,3914,-0.11,0.46,15.62,-1.18,-3.40,39.14,-4.96,1.68,86.81,3.29,-1.48,-20.00
-1,14,341,-99,-454,3878,-0.10,0.50,16.14,-0.99,-4.54,38.78,-4.98,1.69,86.74,3.34,-1.53,-19.70
8,13,338,-95,-428,3933,-0.04,0.53,16.59,-0.95,-4.28,39.33,-5.00,1.69,86.68,3.15,-1.52,-18.97
-9,5,326,-62,-461,3963,-0.09,0.51,16.92,-0.62,-4.61,39.63,-5.01,1.69,86.61,3.52,-1.35,-17.60
6,0,305,-63,-428,3911,-0.05,0.46,17.09,-0.63,-4.28,39.11,-5.03,1.69,86.54,3.21,-1.24,-15.64
-6,7,233,-88,-371,3921,-0.08,0.45,16.80,-0.88,-3.71,39.21,-5.04,1.68,86.48,3.47,-1.38,-9.84
0,10,250,-102,-363,3896,-0.07,0.47,16.64,-1.02,-3.63,38.96,-5.05,1.68,86.41,3.35,-1.44,-11.43
-3,6,311,-5,-380,3932,-0.08,0.46,16.88,-0.05,-3.80,39.32,-5.05,1.67,86.34,3.42,-1.35,-16.35
-4,10,315,-46,-435,3940,-0.10,0.47,17.11,-0.46,-4.35,39.40,-5.07,1.67,86.28,3.45,-1.43,-16.44
-11,7,329,-42,-526,3906,-0.16,0.47,17.41,-0.42,-5.26,39.06,-5.08,1.67,86.21,3.62,-1.37,-17.31
-3,8,338,-44,-528,3933,-0.16,0.47,17.73,-0.44,-5.28,39.33,-5.10,1.67,86.14,3.47,-1.39,-17.72
-6,6,407,55,-461,3930,-0.18,0.46,18.44,0.55,-4.61,39.30,-5.11,1.66,86.06,3.54,-1.34,-20.00
-4,7,429,49,-506,3968,-0.19,0.46,19.21,0.49,-5.06,39.68,-5.12,1.66,85.99,3.51,-1.36,-20.00
-12,1,474,58,-504,3920,-0.24,0.42,20.18,0.58,-5.04,39.20,-5.13,1.65,85.91,3.69,-1.22,-20.00
-4,7,494,39,-525,3913,-0.24,0.42,21.18,0.39,-5.25,39.13,-5.14,1.65,85.82,3.54,-1.34,-20.00
-8,-6,504,-12,-446,3952,-0.27,0.34,22.13,-0.12,-4.46,39.52,-5.15,1.64,85.74,3.63,-1.06,-20.00
-1,2,467,-113,-460,3892,-0.25,0.32,22.77,-1.13,-4.60,38.92,-5.17,1.65,85.65,3.50,-1.22,-20.00
-11,2,458,-102,-440,3960,-0.29,0.30,23.29,-1.02,-4.40,39.60,-5.18,1.66,85.55,3.72,-1.22,-20.00
-10,-3,463,-27,-389,3908,-0.32,0.25,23.78,-0.27,-3.89,39.08,-5.19,1.65,85.46,3.72,-1.10,-20.00
-5,4,450,31,-346,3949,-0.32,0.25,24.15,0.31,-3.46,39.49,-5.19,1.64,85.36,3.61,-1.23,-20.00
-12,1,433,7,-313,3941,-0.36,0.23,24.37,0.07,-3.13,39.41,-5.18,1.64,85.27,3.76,-1.16,-18.70
-7,-12,412,-58,-315,3913,-0.37,0.13,24.45,-0.58,-3.15,39.13,-5.17,1.63,85.17,3.65,-0.87,-16.83
3,2,419,-36,-347,3909,-0.31,0.13,24.56,-0.36,-3.47,39.09,-5.16,1.62,85.07,3.43,-1.15,-17.29
-8,-1,446,139,-226,3932,-0.33,0.11,24.83,1.39,-2.26,39.32,-5.15,1.62,84.97,3.65,-1.08,-19.29
-3,-2,442,29,-334,3890,-0.31,0.09,25.04,0.29,-3.34,38.90,-5.15,1.61,84.87,3.55,-1.04,-18.72
-9,-9,441,-78,-338,3870,-0.34,0.03,25.23,-0.78,-3.38,38.70,-5.14,1.60,84.77,3.67,-0.88,-18.43
1,7,443,-82,-325,3944,-0.30,0.07,25.41,-0.82,-3.25,39.44,-5.13,1.60,84.67,3.44,-1.21,-18.40
-2,11,483,-154,-413,3882,-0.28,0.13,25.81,-1.54,-4.13,38.82,-5.14,1.62,84.57,3.51,-1.32,-20.00
-15,6,499,-121,-399,3920,-0.34,0.15,26.27,-1.21,-3.99,39.20,-5.16,1.63,84.46,3.80,-1.24,-20.00
-8,7,519,-48,-352,3872,-0.36,0.18,26.81,-0.48,-3.52,38.72,-5.16,1.62,84.36,3.66,-1.26,-20.00
-5,15,511,-122,-355,3899,-0.35,0.25,27.25,-1.22,-3.55,38.99,-5.16,1.65,84.25,3.60,-1.46,-20.00
-5,13,431,-136,-220,3923,-0.35,0.31,27.15,-1.36,-2.20,39.23,-5.14,1.66,84.14,3.59,-1.45,-15.50
-14,0,405,-105,-196,3908,-0.40,0.28,26.91,-1.05,-1.96,39.08,-5.12,1.67,84.03,3.77,-1.18,-13.54
-8,8,301,-257,-91,3898,-0.41,0.30,26.05,-2.57,-0.91,38.98,-5.10,1.69,83.93,3.64,-1.36,-5.62
5,13,278,-259,-85,3944,-0.34,0.35,25.14,-2.59,-0.85,39.44,-5.08,1.71,83.83,3.35,-1.49,-4.62
3,14,281,-180,-211,3911,-0.28,0.40,24.34,-1.80,-2.11,39.11,-5.07,1.73,83.73,3.36,-1.53,-5.71
-3,17,313,-184,-268,3938,-0.27,0.46,23.82,-1.84,-2.68,39.38,-5.05,1.75,83.63,3.47,-1.63,-8.97
2,21,366,-167,-311,3946,-0.23,0.54,23.67,-1.67,-3.11,39.46,-5.04,1.78,83.54,3.35,-1.75,-13.61
4,17,372,-144,-373,3886,-0.19,0.59,23.57,-1.44,-3.73,38.86,-5.05,1.80,83.45,3.30,-1.69,-14.21
-5,16,410,-56,-410,3919,-0.20,0.63,23.72,-0.56,-4.10,39.19,-5.06,1.80,83.35,3.49,-1.68,-17.27
4,24,423,-73,-382,3919,-0.15,0.71,23.92,-0.73,-3.82,39.19,-5.07,1.79,83.26,3.31,-1.86,-18.14
3,20,475,-77,-463,3906,-0.12,0.76,24.43,-0.77,-4.63,39.06,-5.08,1.80,83.16,3.33,-1.80,-20.00
-1,20,491,-117,-456,3898,-0.11,0.81,24.98,-1.17,-4.56,38.98,-5.10,1.81,83.06,3.42,-1.82,-20.00
1,23,547,-160,-429,3883,-0.10,0.87,25.82,-1.60,-4.29,38.83,-5.11,1.83,82.96,3.38,-1.91,-20.00
-13,21,564,-132,-439,3958,-0.17,0.91,26.68,-1.32,-4.39,39.58,-5.13,1.84,82.85,3.69,-1.89,-20.00
-4,13,546,-194,-475,3859,-0.17,0.90,27.34,-1.94,-4.75,38.59,-5.14,1.86,82.75,3.52,-1.74,-20.00
0,18,508,-114,-536,3972,-0.16,0.92,27.71,-1.14,-5.36,39.72,-5.16,1.88,82.64,3.45,-1.85,-20.00
-2,11,383,-31,-588,3988,-0.15,0.89,27.27,-0.31,-5.88,39.88,-5.17,1.88,82.53,3.49,-1.71,-11.16
1,2,351,28,-488,3916,-0.13,0.82,26.69,0.28,-4.88,39.16,-5.18,1.88,82.42,3.43,-1.50,-9.06
-8,-10,300,-62,-378,3979,-0.17,0.67,25.85,-0.62,-3.78,39.79,-5.18,1.87,82.32,3.63,-1.22,-5.61
-11,-10,292,-80,-393,3921,-0.22,0.55,25.04,-0.80,-3.93,39.21,-5.19,1.87,82.22,3.71,-1.18,-5.77
-1,-7,299,-111,-418,3923,-0.20,0.45,24.36,-1.11,-4.18,39.23,-5.20,1.88,82.13,3.51,-1.22,-7.07
-15,-2,308,-71,-425,3912,-0.27,0.39,23.81,-0.71,-4.25,39.12,-5.22,1.88,82.03,3.82,-1.30,-8.41
-3,22,311,-24,-320,3897,-0.26,0.49,23.32,-0.24,-3.20,38.97,-5.21,1.87,81.94,3.57,-1.81,-9.17
-7,19,307,2,-296,3884,-0.28,0.55,22.86,0.02,-2.96,38.84,-5.20,1.86,81.85,3.65,-1.77,-9.30
0,17,240,35,-339,3932,-0.25,0.60,22.04,0.35,-3.39,39.32,-5.19,1.85,81.76,3.50,-1.73,-4.49
4,13,213,62,-363,3966,-0.20,0.62,21.14,0.62,-3.63,39.66,-5.19,1.85,81.67,3.40,-1.65,-3.14
-1,-3,172,-29,-370,3961,-0.19,0.54,20.07,-0.29,-3.70,39.61,-5.19,1.84,81.60,3.50,-1.30,-0.78
-3,3,170,-24,-374,3880,-0.19,0.50,19.10,-0.24,-3.74,38.80,-5.19,1.83,81.52,3.54,-1.41,-1.63
-1,6,163,-46,-339,3876,-0.18,0.49,18.19,-0.46,-3.39,38.76,-5.19,1.82,81.45,3.49,-1.46,-1.99
-6,4,157,-75,-336,3962,-0.19,0.47,17.32,-0.75,-3.36,39.62,-5.18,1.81,81.38,3.59,-1.40,-2.38
-1,3,126,-104,-336,3934,-0.18,0.44,16.36,-1.04,-3.36,39.34,-5.17,1.80,81.31,3.48,-1.37,-0.77
6,4,122,-66,-315,3942,-0.13,0.42,15.47,-0.66,-3.15,39.42,-5.15,1.80,81.25,3.31,-1.38,-1.36
-11,-5,93,-7,-311,3894,-0.18,0.35,14.49,-0.07,-3.11,38.94,-5.15,1.79,81.19,3.67,-1.17,0.07
-5,-12,80,19,-315,3939,-0.19,0.24,13.53,0.19,-3.15,39.39,-5.14,1.77,81.14,3.55,-0.99,0.16
-6,-8,28,-23,-350,3893,-0.21,0.17,12.35,-0.23,-3.50,38.93,-5.14,1.76,81.09,3.57,-1.05,3.33
-3,-5,15,-43,-359,3906,-0.21,0.12,11.20,-0.43,-3.59,39.06,-5.14,1.75,81.05,3.51,-1.08,3.23
-2,-1,7,-71,-382,3918,-0.20,0.10,10.13,-0.71,-3.82,39.18,-5.15,1.74,81.00,3.49,-1.15,2.78
-1,0,6,-74,-369,3925,-0.19,0.09,9.15,-0.74,-3.69,39.25,-5.16,1.72,80.97,3.47,-1.16,1.84
2,3,2,-73,-381,3925,-0.15,0.10,8.25,-0.73,-3.81,39.25,-5.17,1.71,80.94,3.41,-1.22,1.23
2,3,1,-69,-379,3921,-0.13,0.11,7.43,-0.69,-3.79,39.21,-5.17,1.70,80.91,3.41,-1.21,0.45
2,3,-1,-74,-396,3917,-0.10,0.12,6.68,-0.74,-3.96,39.17,-5.19,1.69,80.88,3.41,-1.21,-0.16
2,5,1,-80,-384,3907,-0.08,0.13,6.02,-0.80,-3.84,39.07,-5.20,1.67,80.86,3.41,-1.24,-1.03
4,5,1,-86,-385,3905,-0.05,0.15,5.42,-0.86,-3.85,39.05,-5.21,1.66,80.84,3.37,-1.24,-1.65
3,8,7,-93,-400,3915,-0.02,0.19,4.92,-0.93,-4.00,39.15,-5.23,1.66,80.82,3.39,-1.31,-2.68
4,5,19,-46,-421,3954,0.00,0.20,4.55,-0.46,-4.21,39.54,-5.24,1.65,80.80,3.37,-1.24,-4.10
4,5,41,-20,-450,3923,0.03,0.21,4.34,-0.20,-4.50,39.23,-5.25,1.64,80.78,3.38,-1.24,-6.17
3,1,111,-67,-408,3929,0.04,0.19,4.58,-0.67,-4.08,39.29,-5.26,1.63,80.76,3.40,-1.15,-11.85
0,1,133,-89,-445,3888,0.04,0.18,4.94,-0.89,-4.45,38.88,-5.28,1.62,80.75,3.47,-1.14,-13.34
2,2,165,-63,-374,3929,0.05,0.17,5.45,-0.63,-3.74,39.29,-5.28,1.61,80.72,3.43,-1.15,-15.51
5,8,151,-99,-331,3934,0.07,0.21,5.83,-0.99,-3.31,39.34,-5.26,1.61,80.70,3.35,-1.28,-13.92
0,12,144,-120,-341,3932,0.07,0.26,6.12,-1.20,-3.41,39.32,-5.25,1.62,80.68,3.44,-1.38,-13.02
4,11,154,-116,-366,3906,0.08,0.30,6.45,-1.16,-3.66,39.06,-5.26,1.63,80.65,3.37,-1.38,-13.52
-2,22,218,-203,-480,3928,0.06,0.40,7.13,-2.03,-4.80,39.28,-5.27,1.65,80.62,3.50,-1.64,-18.21
5,20,238,-143,-493,3924,0.09,0.49,7.87,-1.43,-4.93,39.24,-5.29,1.66,80.59,3.37,-1.63,-19.13
9,10,283,16,-380,3956,0.13,0.50,8.81,0.16,-3.80,39.56,-5.29,1.64,80.56,3.27,-1.42,-20.00
4,8,311,48,-358,3939,0.14,0.50,9.83,0.48,-3.58,39.39,-5.29,1.63,80.52,3.37,-1.37,-20.00
-14,-10,343,99,-267,3934,0.04,0.39,10.94,0.99,-2.67,39.34,-5.28,1.62,80.47,3.76,-0.97,-20.00
-9,-3,361,72,-206,3929,-0.02,0.33,12.05,0.72,-2.06,39.29,-5.27,1.61,80.43,3.66,-1.09,-20.00
-12,-1,453,-136,-231,3882,-0.09,0.29,13.60,-1.36,-2.31,38.82,-5.25,1.62,80.37,3.73,-1.13,-20.00
-2,2,489,-205,-247,3943,-0.09,0.27,15.23,-2.05,-2.47,39.43,-5.23,1.64,80.31,3.52,-1.20,-20.00
-5,14,566,-283,-289,3869,-0.11,0.33,17.16,-2.83,-2.89,38.69,-5.22,1.66,80.24,3.58,-1.47,-20.00
-11,11,573,-168,-268,3859,-0.17,0.37,18.94,-1.68,-2.68,38.59,-5.21,1.68,80.17,3.71,-1.43,-20.00
5,10,562,-46,-359,3850,-0.12,0.39,20.47,-0.46,-3.59,38.50,-5.21,1.67,80.08,3.37,-1.41,-20.00
-1,9,564,-109,-371,3945,-0.11,0.41,21.86,-1.09,-3.71,39.45,-5.22,1.67,80.00,3.50,-1.40,-20.00
-1,11,468,92,-460,3930,-0.11,0.43,22.53,0.92,-4.60,39.30,-5.23,1.67,79.91,3.50,-1.44,-20.00
-3,3,439,65,-456,3945,-0.12,0.41,22.96,0.65,-4.56,39.45,-5.23,1.66,79.82,3.55,-1.27,-20.00
-14,-2,460,-32,-574,3924,-0.19,0.35,23.47,-0.32,-5.74,39.24,-5.25,1.66,79.72,3.80,-1.15,-20.00
-7,3,459,-11,-512,3890,-0.21,0.34,23.92,-0.11,-5.12,38.90,-5.26,1.66,79.63,3.67,-1.25,-20.00
-7,2,473,-33,-540,3935,-0.24,0.32,24.41,-0.33,-5.40,39.35,-5.28,1.67,79.53,3.69,-1.23,-20.00
-12,-4,464,-65,-485,3925,-0.28,0.26,24.80,-0.65,-4.85,39.25,-5.29,1.67,79.44,3.81,-1.09,-20.00
-8,-1,425,-167,-387,3911,-0.31,0.23,24.92,-1.67,-3.87,39.11,-5.30,1.70,79.34,3.74,-1.16,-16.91
-12,-1,402,-189,-358,3898,-0.35,0.20,24.88,-1.89,-3.58,38.98,-5.29,1.72,79.24,3.83,-1.17,-15.00
-3,-3,315,-206,-267,3939,-0.33,0.16,24.31,-2.06,-2.67,39.39,-5.28,1.75,79.14,3.64,-1.13,-8.21
-6,-2,295,-159,-308,3912,-0.33,0.13,23.68,-1.59,-3.08,39.12,-5.26,1.77,79.05,3.69,-1.16,-7.18
-8,-1,274,-54,-272,3965,-0.35,0.11,22.98,-0.54,-2.72,39.65,-5.25,1.76,78.95,3.72,-1.17,-6.12
-7,0,241,15,-349,3910,-0.36,0.10,22.15,0.15,-3.49,39.10,-5.24,1.75,78.86,3.70,-1.19,-4.19
-6,-9,159,-18,-352,3908,-0.36,0.04,20.91,-0.18,-3.52,39.08,-5.24,1.74,78.78,3.68,-0.98,1.45
-1,-5,136,-23,-404,3909,-0.33,0.00,19.65,-0.23,-4.04,39.09,-5.25,1.73,78.70,3.57,-1.04,2.08
-3,0,123,13,-403,3927,-0.31,0.00,18.43,0.13,-4.03,39.27,-5.25,1.72,78.63,3.61,-1.14,1.91
-5,2,135,5,-405,3922,-0.31,0.01,17.41,0.05,-4.05,39.22,-5.26,1.71,78.56,3.66,-1.17,-0.17
-8,6,204,-13,-543,3911,-0.33,0.05,16.92,-0.13,-5.43,39.11,-5.27,1.71,78.49,3.73,-1.26,-6.54
-5,10,210,-41,-519,3937,-0.33,0.11,16.51,-0.41,-5.19,39.37,-5.29,1.71,78.43,3.68,-1.36,-7.47
-5,4,212,-45,-441,3936,-0.33,0.12,16.15,-0.45,-4.41,39.36,-5.30,1.70,78.36,3.69,-1.24,-8.01
-3,0,223,-48,-443,3937,-0.31,0.11,15.89,-0.48,-4.43,39.37,-5.32,1.70,78.30,3.65,-1.15,-9.21
0,0,291,-60,-545,3938,-0.28,0.10,16.08,-0.60,-5.45,39.38,-5.33,1.70,78.24,3.60,-1.15,-14.77
-1,6,319,-106,-542,3926,-0.26,0.12,16.42,-1.06,-5.42,39.26,-5.35,1.70,78.17,3.62,-1.28,-16.78
-7,4,382,-191,-583,3919,-0.28,0.14,17.11,-1.91,-5.83,39.19,-5.37,1.71,78.11,3.76,-1.25,-20.00
-1,2,403,-184,-572,3892,-0.25,0.13,17.85,-1.84,-5.72,38.92,-5.38,1.73,78.04,3.64,-1.22,-20.00
-4,10,417,-179,-543,3925,-0.25,0.18,18.61,-1.79,-5.43,39.25,-5.40,1.74,77.96,3.71,-1.40,-20.00
-4,9,419,-145,-500,3934,-0.25,0.22,19.31,-1.45,-5.00,39.34,-5.41,1.75,77.89,3.72,-1.40,-20.00
-4,10,409,-77,-439,3908,-0.25,0.26,19.87,-0.77,-4.39,39.08,-5.43,1.75,77.81,3.73,-1.43,-20.00
-2,6,400,-46,-395,3923,-0.24,0.27,20.32,-0.46,-3.95,39.23,-5.43,1.74,77.73,3.69,-1.35,-19.49
0,6,342,-15,-411,3909,-0.21,0.28,20.38,-0.15,-4.11,39.09,-5.44,1.73,77.65,3.65,-1.34,-14.51
3,6,325,-21,-363,3973,-0.17,0.29,20.32,-0.21,-3.63,39.73,-5.43,1.73,77.56,3.57,-1.34,-13.12
-5,4,311,-7,-366,3956,-0.19,0.28,20.19,-0.07,-3.66,39.56,-5.43,1.72,77.48,3.74,-1.29,-12.07
-8,4,300,7,-332,3876,-0.22,0.28,20.00,0.07,-3.32,38.76,-5.42,1.71,77.40,3.80,-1.28,-11.33
-4,9,248,-102,-177,3937,-0.22,0.31,19.51,-1.02,-1.77,39.37,-5.40,1.71,77.33,3.71,-1.40,-7.43
-3,6,228,-127,-212,3920,-0.22,0.31,18.95,-1.27,-2.12,39.20,-5.38,1.72,77.25,3.67,-1.34,-6.32
-3,4,184,-43,-250,3925,-0.21,0.31,18.18,-0.43,-2.50,39.25,-5.37,1.72,77.18,3.66,-1.30,-3.40
-2,5,183,17,-308,3922,-0.20,0.31,17.48,0.17,-3.08,39.22,-5.36,1.71,77.11,3.63,-1.32,-4.04
-2,7,224,19,-405,3902,-0.20,0.32,17.10,0.19,-4.05,39.02,-5.36,1.70,77.04,3.63,-1.35,-7.91
-3,6,251,39,-439,3936,-0.19,0.32,16.92,0.39,-4.39,39.36,-5.37,1.69,76.97,3.66,-1.33,-10.38
-6,-1,330,-41,-541,3855,-0.21,0.28,17.24,-0.41,-5.41,38.55,-5.38,1.69,76.90,3.73,-1.18,-16.73
-5,4,354,-24,-571,3905,-0.22,0.28,17.67,-0.24,-5.71,39.05,-5.40,1.69,76.84,3.73,-1.28,-18.30
-12,15,456,-47,-482,3953,-0.27,0.34,18.69,-0.47,-4.82,39.53,-5.41,1.69,76.76,3.89,-1.52,-20.00
-15,7,494,-69,-489,3913,-0.34,0.35,19.83,-0.69,-4.89,39.13,-5.43,1.69,76.68,3.98,-1.36,-20.00
-6,10,503,-144,-371,3948,-0.34,0.38,20.92,-1.44,-3.71,39.48,-5.43,1.72,76.60,3.80,-1.44,-20.00
-6,12,484,-148,-408,3894,-0.34,0.41,21.78,-1.48,-4.08,38.94,-5.44,1.74,76.51,3.80,-1.51,-20.00
-1,11,380,-55,-354,3923,-0.31,0.44,21.92,-0.55,-3.54,39.23,-5.43,1.74,76.43,3.69,-1.49,-15.99
-10,-4,350,-22,-392,3919,-0.34,0.37,21.86,-0.22,-3.92,39.19,-5.43,1.73,76.34,3.88,-1.16,-13.51
-2,-4,264,76,-420,3880,-0.32,0.31,21.29,0.76,-4.20,38.80,-5.44,1.72,76.25,3.72,-1.14,-6.82
-8,-8,259,111,-446,3932,-0.34,0.23,20.74,1.11,-4.46,39.32,-5.44,1.71,76.17,3.85,-1.03,-6.96
-13,-9,193,72,-224,3901,-0.38,0.15,19.84,0.72,-2.24,39.01,-5.43,1.70,76.09,3.95,-0.98,-2.31
-4,-3,187,25,-291,3930,-0.37,0.12,19.00,0.25,-2.91,39.30,-5.42,1.70,76.02,3.76,-1.09,-2.68
-8,-7,200,-64,-350,3914,-0.38,0.06,18.32,-0.64,-3.50,39.14,-5.41,1.69,75.94,3.84,-0.99,-4.49
-13,-2,213,-157,-364,3910,-0.42,0.05,17.79,-1.57,-3.64,39.10,-5.41,1.71,75.87,3.95,-1.10,-6.15
-3,10,230,-161,-393,3950,-0.40,0.10,17.41,-1.61,-3.93,39.50,-5.42,1.74,75.80,3.74,-1.38,-7.98
-5,14,238,-112,-376,3922,-0.39,0.18,17.12,-1.12,-3.76,39.22,-5.42,1.73,75.74,3.79,-1.47,-8.95
-3,14,259,-138,-357,3947,-0.37,0.24,16.99,-1.38,-3.57,39.47,-5.41,1.75,75.67,3.73,-1.50,-10.87
-5,8,258,-144,-365,3971,-0.36,0.27,16.86,-1.44,-3.65,39.71,-5.40,1.77,75.60,3.77,-1.40,-10.91
-7,7,244,-130,-339,3887,-0.37,0.28,16.67,-1.30,-3.39,38.87,-5.38,1.78,75.53,3.80,-1.40,-9.92
-3,3,231,-129,-339,3960,-0.35,0.27,16.41,-1.29,-3.39,39.60,-5.37,1.79,75.47,3.70,-1.32,-9.09
-3,7,186,-107,-354,3939,-0.33,0.29,15.90,-1.07,-3.54,39.39,-5.35,1.79,75.40,3.68,-1.40,-5.80
-5,5,171,-79,-380,3908,-0.33,0.29,15.35,-0.79,-3.80,39.08,-5.36,1.78,75.34,3.73,-1.35,-5.10
-1,10,144,-75,-371,3903,-0.30,0.32,14.70,-0.75,-3.71,39.03,-5.36,1.77,75.29,3.64,-1.46,-3.50
-2,12,149,-37,-392,3898,-0.29,0.36,14.14,-0.37,-3.92,38.98,-5.36,1.76,75.23,3.66,-1.50,-4.51
2,12,166,-101,-378,3921,-0.24,0.40,13.74,-1.01,-3.78,39.21,-5.37,1.75,75.17,3.57,-1.51,-6.37
-2,3,153,-90,-386,3941,-0.23,0.38,13.30,-0.90,-3.86,39.41,-5.38,1.74,75.12,3.65,-1.31,-5.72
1,15,156,-73,-458,3926,-0.20,0.43,12.92,-0.73,-4.58,39.26,-5.39,1.73,75.07,3.60,-1.57,-6.37
-5,16,171,-74,-454,3900,-0.21,0.49,12.67,-0.74,-4.54,39.00,-5.41,1.73,75.02,3.73,-1.60,-7.90
-7,16,223,-54,-493,3935,-0.23,0.54,12.76,-0.54,-4.93,39.35,-5.43,1.73,74.97,3.79,-1.61,-12.20
-3,22,240,-28,-508,3862,-0.23,0.62,12.95,-0.28,-5.08,38.62,-5.44,1.73,74.92,3.71,-1.76,-13.44
-4,18,275,-73,-454,3979,-0.23,0.66,13.33,-0.73,-4.54,39.79,-5.45,1.73,74.87,3.74,-1.69,-16.00
-12,13,290,-67,-423,3917,-0.28,0.68,13.77,-0.67,-4.23,39.17,-5.47,1.72,74.81,3.93,-1.58,-16.81
-4,17,377,-95,-507,3910,-0.28,0.71,14.69,-0.95,-5.07,39.10,-5.48,1.73,74.76,3.78,-1.68,-20.00
-9,13,387,-139,-466,3865,-0.30,0.72,15.58,-1.39,-4.66,38.65,-5.50,1.74,74.69,3.90,-1.61,-20.00
-7,10,427,-80,-439,3922,-0.32,0.71,16.63,-0.80,-4.39,39.22,-5.52,1.74,74.63,3.87,-1.54,-20.00
2,19,439,-87,-372,3946,-0.27,0.76,17.64,-0.87,-3.72,39.46,-5.51,1.73,74.56,3.67,-1.73,-20.00
-2,22,476,-192,-376,3967,-0.26,0.81,18.78,-1.92,-3.76,39.67,-5.51,1.76,74.48,3.75,-1.83,-20.00
-15,7,495,-184,-307,3894,-0.32,0.78,19.92,-1.84,-3.07,38.94,-5.49,1.78,74.41,4.02,-1.53,-20.00
-4,21,560,-165,-310,3917,-0.32,0.83,21.35,-1.65,-3.10,39.17,-5.48,1.80,74.32,3.78,-1.84,-20.00
0,17,585,-148,-311,3940,-0.28,0.85,22.78,-1.48,-3.11,39.40,-5.46,1.82,74.23,3.68,-1.78,-20.00
-5,14,602,-60,-388,3914,-0.29,0.85,24.18,-0.60,-3.88,39.14,-5.46,1.82,74.13,3.78,-1.71,-20.00
-16,15,601,-78,-457,3930,-0.36,0.85,25.42,-0.78,-4.57,39.30,-5.47,1.82,74.03,4.03,-1.74,-20.00
-7,4,523,-28,-424,3908,-0.36,0.79,26.07,-0.28,-4.24,39.08,-5.48,1.82,73.93,3.86,-1.50,-20.00
-20,-3,469,-81,-416,3909,-0.45,0.70,26.33,-0.81,-4.16,39.09,-5.49,1.82,73.83,4.15,-1.33,-18.66
-4,0,395,-75,-317,3982,-0.43,0.63,26.10,-0.75,-3.17,39.82,-5.47,1.82,73.72,3.81,-1.37,-12.62
-16,3,381,-66,-348,3836,-0.48,0.58,25.82,-0.66,-3.48,38.36,-5.47,1.81,73.62,4.07,-1.42,-11.72
-10,5,349,-135,-346,3885,-0.50,0.55,25.36,-1.35,-3.46,38.85,-5.45,1.83,73.52,3.93,-1.46,-9.48
-6,-3,332,-84,-330,3943,-0.48,0.48,24.85,-0.84,-3.30,39.43,-5.43,1.83,73.42,3.84,-1.28,-8.57
-8,-10,276,-17,-262,3930,-0.48,0.37,24.05,-0.17,-2.62,39.30,-5.42,1.83,73.32,3.87,-1.10,-4.66
-9,-7,267,-1,-302,3895,-0.49,0.29,23.27,-0.01,-3.02,38.95,-5.41,1.82,73.23,3.89,-1.14,-4.71
-15,-14,236,-55,-384,3900,-0.53,0.18,22.39,-0.55,-3.84,39.00,-5.41,1.81,73.14,4.02,-0.96,-3.01
-11,-8,228,-34,-320,3877,-0.55,0.11,21.54,-0.34,-3.20,38.77,-5.40,1.81,73.05,3.94,-1.06,-3.21
-10,-6,151,-79,-320,3891,-0.55,0.06,20.31,-0.79,-3.20,38.91,-5.39,1.80,72.97,3.91,-1.08,2.02
-16,-4,136,-88,-377,3885,-0.59,0.03,19.11,-0.88,-3.77,38.85,-5.40,1.79,72.90,4.05,-1.11,2.03
-16,-7,85,-112,-415,3927,-0.63,-0.01,17.71,-1.12,-4.15,39.27,-5.41,1.79,72.83,4.07,-1.04,4.89
-15,-11,61,-40,-368,3954,-0.66,-0.08,16.31,-0.40,-3.68,39.54,-5.41,1.78,72.76,4.06,-0.93,5.46
-14,-60,4,3,-484,3890,-0.68,-0.44,14.71,0.03,-4.84,38.90,-5.43,1.77,72.70,4.05,0.17,8.60
-17,-45,50,67,-345,4037,-0.72,-0.67,13.54,0.67,-3.45,40.37,-5.42,1.76,72.65,4.12,-0.06,3.48
-6,-20,147,-49,-461,3904,-0.68,-0.72,13.08,-0.49,-4.61,39.04,-5.44,1.75,72.60,3.90,-0.55,-5.21
-2,-10,158,-131,-561,3828,-0.63,-0.71,12.74,-1.31,-5.61,38.28,-5.46,1.75,72.55,3.81,-0.76,-6.50
-4,30,146,-171,-574,3850,-0.59,-0.46,12.36,-1.71,-5.74,38.50,-5.48,1.76,72.50,3.86,-1.64,-5.88
-3,38,135,-108,-543,3878,-0.55,-0.18,11.94,-1.08,-5.43,38.78,-5.50,1.76,72.45,3.84,-1.88,-5.38
13,50,93,20,-507,3957,-0.41,0.14,11.32,0.20,-5.07,39.57,-5.51,1.75,72.41,3.48,-2.21,-2.48
8,28,95,-19,-476,4012,-0.32,0.30,10.76,-0.19,-4.76,40.12,-5.52,1.74,72.36,3.57,-1.80,-3.23
10,25,114,-64,-428,3924,-0.23,0.42,10.38,-0.64,-4.28,39.24,-5.53,1.73,72.32,3.51,-1.77,-5.23
5,17,115,-110,-407,3946,-0.18,0.48,10.05,-1.10,-4.07,39.46,-5.55,1.73,72.28,3.61,-1.62,-5.67
-1,-1,54,-308,-208,3927,-0.16,0.43,9.37,-3.08,-2.08,39.27,-5.54,1.75,72.25,3.72,-1.25,-1.21
-2,-3,41,-255,-228,3926,-0.16,0.37,8.68,-2.55,-2.28,39.26,-5.52,1.77,72.21,3.73,-1.21,-0.83
2,-1,10,-101,-372,3922,-0.13,0.32,7.88,-1.01,-3.72,39.22,-5.52,1.76,72.18,3.64,-1.23,0.95
3,0,9,-84,-397,3911,-0.10,0.29,7.14,-0.84,-3.97,39.11,-5.52,1.74,72.15,3.61,-1.23,0.27
4,-1,2,-70,-412,3913,-0.07,0.26,6.44,-0.70,-4.12,39.13,-5.53,1.73,72.13,3.59,-1.19,0.12
4,-4,-1,-76,-428,3932,-0.04,0.21,5.79,-0.76,-4.28,39.32,-5.55,1.72,72.10,3.59,-1.11,-0.31
3,-10,5,-65,-441,3919,-0.01,0.13,5.24,-0.65,-4.41,39.19,-5.56,1.71,72.08,3.61,-0.96,-1.39
1,-10,4,-66,-426,3906,-0.01,0.05,4.74,-0.66,-4.26,39.06,-5.57,1.70,72.06,3.66,-0.93,-1.83
-3,0,8,-67,-403,3923,-0.02,0.05,4.32,-0.67,-4.03,39.23,-5.58,1.69,72.05,3.75,-1.12,-2.62
-2,1,6,-66,-413,3917,-0.03,0.05,3.92,-0.66,-4.13,39.17,-5.59,1.67,72.03,3.74,-1.14,-2.86
0,-1,6,-71,-410,3912,-0.03,0.04,3.57,-0.71,-4.10,39.12,-5.60,1.66,72.02,3.70,-1.08,-3.23
0,0,5,-67,-408,3918,-0.03,0.03,3.24,-0.67,-4.08,39.18,-5.60,1.64,72.01,3.71,-1.09,-3.49
1,1,4,-70,-413,3916,-0.02,0.04,2.94,-0.70,-4.13,39.16,-5.61,1.63,71.99,3.69,-1.10,-3.72
2,2,2,-75,-415,3920,-0.00,0.04,2.66,-0.75,-4.15,39.20,-5.62,1.62,71.98,3.67,-1.12,-3.85
5,-6,3,-130,-440,3881,0.03,0.00,2.41,-1.30,-4.40,38.81,-5.64,1.62,71.97,3.61,-0.95,-4.19
7,-4,11,-150,-430,3958,0.07,-0.02,2.24,-1.50,-4.30,39.58,-5.65,1.64,71.97,3.57,-0.99,-5.05
6,-10,82,-156,-317,3891,0.10,-0.08,2.51,-1.56,-3.17,38.91,-5.64,1.65,71.96,3.57,-0.86,-10.78
-3,-11,103,-119,-274,3930,0.07,-0.14,2.89,-1.19,-2.74,39.30,-5.62,1.65,71.94,3.75,-0.83,-12.16
0,-7,98,-84,-267,3913,0.06,-0.17,3.20,-0.84,-2.67,39.13,-5.60,1.64,71.93,3.68,-0.90,-11.41
-1,-7,94,-90,-327,3945,0.05,-0.19,3.45,-0.90,-3.27,39.45,-5.58,1.64,71.92,3.69,-0.89,-10.80
8,18,68,-9,-403,3984,0.09,-0.06,3.52,-0.09,-4.03,39.84,-5.59,1.62,71.90,3.50,-1.42,-8.52
2,6,62,-17,-477,3927,0.10,-0.02,3.55,-0.17,-4.77,39.27,-5.60,1.61,71.89,3.63,-1.18,-7.99
3,-2,65,40,-605,3937,0.10,-0.03,3.59,0.40,-6.05,39.37,-5.61,1.60,71.87,3.61,-1.01,-8.20
2,-4,62,21,-599,3935,0.11,-0.05,3.61,0.21,-5.99,39.35,-5.63,1.59,71.86,3.64,-0.95,-7.92
5,-13,61,-58,-481,3968,0.13,-0.13,3.62,-0.58,-4.81,39.68,-5.64,1.58,71.85,3.59,-0.75,-7.82
2,-14,69,-116,-467,3963,0.13,-0.20,3.68,-1.16,-4.67,39.63,-5.66,1.59,71.83,3.66,-0.71,-8.44
5,-12,143,-101,-473,3934,0.14,-0.25,4.18,-1.01,-4.73,39.34,-5.68,1.58,71.82,3.60,-0.73,-14.17
5,6,223,-68,-366,3896,0.16,-0.19,5.13,-0.68,-3.66,38.96,-5.67,1.57,71.79,3.59,-1.11,-19.96
5,75,260,-40,-463,3864,0.17,0.29,6.20,-0.40,-4.63,38.64,-5.68,1.56,71.77,3.60,-2.63,-20.00
1,112,273,-16,-446,3849,0.16,0.94,7.24,-0.16,-4.46,38.49,-5.69,1.55,71.74,3.69,-3.56,-20.00
4,17,275,-22,-331,3971,0.17,0.95,8.20,-0.22,-3.31,39.71,-5.68,1.54,71.71,3.62,-1.62,-20.00
12,21,276,-82,-461,3883,0.23,0.98,9.06,-0.82,-4.61,38.83,-5.69,1.55,71.67,3.45,-1.72,-20.00
0,14,299,-142,-422,3893,0.20,0.97,9.98,-1.42,-4.22,38.93,-5.70,1.57,71.64,3.71,-1.58,-20.00
5,9,301,-119,-402,3904,0.21,0.93,10.82,-1.19,-4.02,39.04,-5.71,1.59,71.59,3.61,-1.48,-20.00
-4,2,278,-21,-456,3926,0.17,0.85,11.43,-0.21,-4.56,39.26,-5.72,1.58,71.55,3.81,-1.32,-17.96
0,-4,259,34,-467,3924,0.15,0.74,11.87,0.34,-4.67,39.24,-5.73,1.57,71.50,3.74,-1.16,-15.88
-10,-4,162,-176,-507,3875,0.08,0.64,11.67,-1.76,-5.07,38.75,-5.74,1.59,71.46,3.97,-1.14,-7.87
-11,2,253,-254,-401,3943,0.00,0.59,12.05,-2.54,-4.01,39.43,-5.74,1.61,71.41,4.01,-1.27,-15.18
-9,-5,208,-151,-566,3882,-0.05,0.50,12.11,-1.51,-5.66,38.82,-5.76,1.63,71.36,4.00,-1.11,-11.29
-10,-2,215,-98,-482,3911,-0.11,0.44,12.21,-0.98,-4.82,39.11,-5.77,1.63,71.31,4.04,-1.15,-11.78
-6,6,225,7,-473,3929,-0.14,0.43,12.36,0.07,-4.73,39.29,-5.78,1.62,71.26,3.98,-1.31,-12.46
-9,5,235,-30,-362,3893,-0.18,0.42,12.56,-0.30,-3.62,38.93,-5.78,1.61,71.21,4.04,-1.28,-13.10
-3,-17,198,30,-244,3902,-0.18,0.27,12.51,0.30,-2.44,39.02,-5.76,1.60,71.16,3.91,-0.79,-10.01
-6,-7,205,-20,-433,3927,-0.20,0.20,12.51,-0.20,-4.33,39.27,-5.77,1.59,71.11,3.98,-0.96,-10.60
-3,-5,271,-84,-334,3985,-0.19,0.15,12.91,-0.84,-3.34,39.85,-5.75,1.59,71.06,3.91,-0.99,-15.76
-1,-5,235,-157,-380,3865,-0.18,0.11,13.05,-1.57,-3.80,38.65,-5.75,1.62,71.01,3.86,-0.99,-12.56
-7,-48,186,22,-429,4022,-0.21,-0.20,12.88,0.22,-4.29,40.22,-5.75,1.60,70.96,3.99,-0.03,-8.58
-8,-82,232,126,-427,3930,-0.23,-0.68,13.01,1.26,-4.27,39.30,-5.75,1.59,70.91,4.02,0.81,-12.34
-21,-46,311,-131,-685,3616,-0.34,-0.89,13.61,-1.31,-6.85,36.16,-5.77,1.59,70.85,4.33,0.13,-18.40
-12,-9,336,-102,-505,3842,-0.38,-0.86,14.30,-1.02,-5.05,38.42,-5.79,1.59,70.80,4.17,-0.63,-19.79
-10,-15,273,9,-262,3967,-0.40,-0.86,14.53,0.09,-2.62,39.67,-5.77,1.58,70.74,4.12,-0.50,-14.20
-8,-6,288,31,-313,3928,-0.41,-0.81,14.84,0.31,-3.13,39.28,-5.76,1.57,70.68,4.08,-0.69,-15.14
-1,6,318,6,-308,3929,-0.38,-0.70,15.29,0.06,-3.08,39.29,-5.75,1.56,70.62,3.92,-0.96,-17.20
4,20,347,-107,-443,3931,-0.31,-0.50,15.88,-1.07,-4.43,39.31,-5.77,1.56,70.55,3.81,-1.30,-19.03
-1,20,382,-253,-365,3878,-0.29,-0.33,16.62,-2.53,-3.65,38.78,-5.77,1.59,70.49,3.90,-1.36,-20.00
-3,27,348,-375,-458,3907,-0.28,-0.13,17.08,-3.75,-4.58,39.07,-5.77,1.61,70.42,3.94,-1.57,-17.84
-6,-4,260,-266,-554,3982,-0.29,-0.14,16.96,-2.66,-5.54,39.82,-5.78,1.63,70.35,4.02,-0.95,-10.50
2,0,191,-67,-448,3904,-0.25,-0.13,16.43,-0.67,-4.48,39.04,-5.80,1.62,70.29,3.85,-1.04,-5.21
-12,7,271,-177,-481,3878,-0.29,-0.07,16.44,-1.77,-4.81,38.78,-5.81,1.64,70.22,4.16,-1.20,-11.97
-10,-2,276,-60,-391,3998,-0.33,-0.08,16.48,-0.60,-3.91,39.98,-5.80,1.63,70.16,4.12,-1.01,-12.35
-1,-2,251,106,-387,3951,-0.30,-0.08,16.36,1.06,-3.87,39.51,-5.80,1.62,70.09,3.93,-1.00,-10.35
-9,-5,232,73,-346,3927,-0.32,-0.11,16.14,0.73,-3.46,39.27,-5.80,1.61,70.03,4.10,-0.93,-8.96
5,16,259,-19,-521,3885,-0.26,0.00,16.11,-0.19,-5.21,38.85,-5.81,1.60,69.96,3.80,-1.38,-11.28
-5,14,288,-1,-520,3894,-0.27,0.09,16.25,-0.01,-5.20,38.94,-5.82,1.60,69.90,4.02,-1.36,-13.58
-3,10,285,63,-327,3868,-0.26,0.14,16.37,0.63,-3.27,38.68,-5.82,1.59,69.83,3.97,-1.29,-13.20
3,17,283,-11,-389,3965,-0.21,0.23,16.46,-0.11,-3.89,39.65,-5.81,1.58,69.77,3.83,-1.45,-12.93
4,14,295,-40,-406,3968,-0.17,0.29,16.61,-0.40,-4.06,39.68,-5.81,1.57,69.70,3.80,-1.40,-13.78
1,5,276,-69,-365,3910,-0.14,0.29,16.63,-0.69,-3.65,39.10,-5.80,1.56,69.64,3.85,-1.21,-12.14
-3,2,328,-26,-381,3944,-0.15,0.28,16.97,-0.26,-3.81,39.44,-5.79,1.55,69.57,3.92,-1.14,-16.18
2,13,317,-18,-342,3882,-0.12,0.33,17.21,-0.18,-3.42,38.82,-5.78,1.54,69.50,3.81,-1.37,-15.00
0,16,315,-82,-585,3866,-0.11,0.39,17.41,-0.82,-5.85,38.66,-5.80,1.55,69.43,3.86,-1.45,-14.61
-8,16,351,-95,-564,3896,-0.15,0.45,17.81,-0.95,-5.64,38.96,-5.82,1.56,69.36,4.04,-1.48,-17.23
2,1,298,-126,-312,3967,-0.12,0.41,17.84,-1.26,-3.12,39.67,-5.80,1.57,69.29,3.82,-1.17,-12.69
0,10,295,-167,-479,3837,-0.11,0.43,17.86,-1.67,-4.79,38.37,-5.81,1.59,69.22,3.86,-1.37,-12.42
-2,16,368,-13,-334,4002,-0.11,0.49,18.32,-0.13,-3.34,40.02,-5.80,1.58,69.15,3.90,-1.50,-18.11
-5,-1,354,-5,-291,3964,-0.13,0.43,18.65,-0.05,-2.91,39.64,-5.78,1.58,69.07,3.95,-1.14,-16.58
-10,15,322,-142,-583,3840,-0.18,0.48,18.75,-1.42,-5.83,38.40,-5.80,1.59,69.00,4.08,-1.49,-13.75
-8,10,405,-53,-425,4020,-0.21,0.49,19.34,-0.53,-4.25,40.20,-5.80,1.58,68.92,4.05,-1.38,-20.00
-9,-5,374,-119,-285,3867,-0.24,0.41,19.69,-1.19,-2.85,38.67,-5.78,1.60,68.84,4.07,-1.06,-17.15
-5,9,347,-163,-466,3870,-0.25,0.43,19.84,-1.63,-4.66,38.70,-5.80,1.62,68.76,4.00,-1.37,-14.70
-19,-1,404,-152,-458,3872,-0.34,0.38,20.32,-1.52,-4.58,38.72,-5.81,1.64,68.68,4.31,-1.16,-19.02
-4,19,386,-116,-368,3867,-0.33,0.46,20.64,-1.16,-3.68,38.67,-5.79,1.65,68.60,3.99,-1.60,-17.14
-3,12,400,-152,-462,3882,-0.32,0.48,21.02,-1.52,-4.62,38.82,-5.81,1.67,68.52,3.98,-1.48,-17.93
-15,3,415,-143,-363,3922,-0.38,0.45,21.45,-1.43,-3.63,39.22,-5.79,1.69,68.43,4.23,-1.30,-18.74
-2,19,503,-146,-366,3862,-0.35,0.52,22.37,-1.46,-3.66,38.62,-5.78,1.72,68.34,3.95,-1.66,-20.00
-9,18,509,-172,-281,3960,-0.37,0.58,23.24,-1.72,-2.81,39.60,-5.76,1.74,68.25,4.09,-1.67,-20.00
-5,7,480,-141,-432,3938,-0.36,0.57,23.84,-1.41,-4.32,39.38,-5.78,1.76,68.16,4.01,-1.46,-20.00
-7,25,474,-231,-570,3815,-0.37,0.66,24.35,-2.31,-5.70,38.15,-5.79,1.78,68.06,4.06,-1.86,-20.00
-14,5,454,-71,-391,3977,-0.42,0.63,24.68,-0.71,-3.91,39.77,-5.78,1.77,67.96,4.22,-1.44,-18.59
-4,5,411,47,-425,3935,-0.40,0.59,24.72,0.47,-4.25,39.35,-5.78,1.77,67.86,4.01,-1.43,-14.90
-11,-4,351,-5,-583,3853,-0.43,0.51,24.39,-0.05,-5.83,38.53,-5.80,1.77,67.77,4.17,-1.23,-10.16
-5,23,372,-31,-430,3872,-0.42,0.60,24.22,-0.31,-4.30,38.72,-5.81,1.77,67.67,4.05,-1.80,-12.10
-8,7,318,-71,-494,3897,-0.42,0.58,23.74,-0.71,-4.94,38.97,-5.82,1.77,67.58,4.12,-1.47,-8.03
-6,9,336,3,-399,3903,-0.42,0.58,23.41,0.03,-3.99,39.03,-5.82,1.76,67.48,4.08,-1.50,-9.89
-4,2,305,50,-363,3909,-0.40,0.53,22.93,0.50,-3.63,39.09,-5.81,1.76,67.39,4.03,-1.34,-7.76
-8,17,317,-33,-423,3860,-0.41,0.58,22.57,-0.33,-4.23,38.60,-5.82,1.75,67.30,4.11,-1.66,-9.15
-8,-2,304,85,-392,3909,-0.42,0.51,22.17,0.85,-3.92,39.09,-5.82,1.74,67.22,4.12,-1.25,-8.46
-10,16,319,-49,-523,3839,-0.44,0.56,21.90,-0.49,-5.23,38.39,-5.83,1.75,67.13,4.17,-1.63,-10.01
-6,-5,265,12,-228,4001,-0.43,0.47,21.33,0.12,-2.28,40.01,-5.82,1.75,67.04,4.08,-1.18,-6.03
-8,-17,197,-36,-268,3930,-0.43,0.32,20.40,-0.36,-2.68,39.30,-5.80,1.74,66.96,4.11,-0.89,-1.24
-2,5,180,85,-527,3926,-0.40,0.32,19.45,0.85,-5.27,39.26,-5.81,1.74,66.89,3.99,-1.34,-0.79
3,3,183,133,-517,3901,-0.34,0.31,18.62,1.33,-5.17,39.01,-5.82,1.73,66.81,3.87,-1.29,-1.91
-8,12,213,-113,-448,3862,-0.36,0.35,18.06,-1.13,-4.48,38.62,-5.83,1.74,66.74,4.11,-1.49,-5.04
1,20,213,-97,-467,3879,-0.32,0.44,17.55,-0.97,-4.67,38.79,-5.85,1.74,66.67,3.93,-1.67,-5.56
3,9,177,-101,-345,3955,-0.27,0.45,16.88,-1.01,-3.45,39.55,-5.83,1.74,66.60,3.86,-1.46,-3.22
-1,-3,165,-122,-328,3912,-0.25,0.38,16.20,-1.22,-3.28,39.12,-5.81,1.75,66.54,3.92,-1.20,-2.91
4,6,153,-140,-521,3848,-0.20,0.38,15.51,-1.40,-5.21,38.48,-5.83,1.76,66.48,3.82,-1.39,-2.61
3,14,183,-126,-502,3953,-0.16,0.43,15.08,-1.26,-5.02,39.53,-5.85,1.77,66.42,3.84,-1.57,-5.61
7,17,176,-189,-325,3889,-0.10,0.49,14.64,-1.89,-3.25,38.89,-5.83,1.79,66.36,3.73,-1.66,-5.47
3,10,175,-181,-402,3929,-0.07,0.50,14.25,-1.81,-4.02,39.29,-5.83,1.82,66.30,3.81,-1.54,-5.79
-1,4,135,-86,-418,3951,-0.07,0.48,13.64,-0.86,-4.18,39.51,-5.84,1.81,66.25,3.89,-1.41,-3.03
4,-3,129,-152,-527,3914,-0.04,0.41,13.07,-1.52,-5.27,39.14,-5.85,1.82,66.20,3.79,-1.25,-3.13
-6,-2,180,-65,-345,3926,-0.07,0.36,12.86,-0.65,-3.45,39.26,-5.84,1.81,66.15,4.00,-1.25,-7.66
-3,-1,167,-42,-301,3885,-0.08,0.32,12.59,-0.42,-3.01,38.85,-5.82,1.81,66.10,3.93,-1.26,-6.84
-3,1,176,-50,-461,3897,-0.09,0.29,12.41,-0.50,-4.61,38.97,-5.83,1.80,66.05,3.94,-1.29,-7.79
-5,13,188,-107,-504,3913,-0.11,0.34,12.31,-1.07,-5.04,39.13,-5.85,1.80,66.00,3.99,-1.55,-8.90
-4,7,172,-60,-397,3962,-0.13,0.35,12.13,-0.60,-3.97,39.62,-5.85,1.79,65.95,3.98,-1.42,-7.74
-6,1,183,-65,-456,3862,-0.15,0.32,12.03,-0.65,-4.56,38.62,-5.86,1.79,65.90,4.03,-1.29,-8.77
-2,-1,198,-51,-297,3897,-0.15,0.28,12.04,-0.51,-2.97,38.97,-5.84,1.78,65.86,3.94,-1.23,-10.03
-5,7,206,-56,-438,3889,-0.16,0.30,12.09,-0.56,-4.38,38.89,-5.85,1.77,65.81,4.01,-1.39,-10.65
0,-5,290,7,-353,3912,-0.15,0.24,12.65,0.07,-3.53,39.12,-5.85,1.76,65.76,3.90,-1.12,-17.17
3,18,295,-94,-456,3949,-0.11,0.32,13.18,-0.94,-4.56,39.49,-5.86,1.76,65.71,3.84,-1.61,-17.02
-6,11,270,-98,-500,3907,-0.14,0.36,13.51,-0.98,-5.00,39.07,-5.88,1.76,65.65,4.04,-1.48,-14.56
0,15,279,-114,-461,3954,-0.13,0.41,13.86,-1.14,-4.61,39.54,-5.89,1.77,65.60,3.92,-1.58,-14.94
-3,-4,180,-57,-449,3968,-0.13,0.35,13.58,-0.57,-4.49,39.68,-5.90,1.76,65.54,3.99,-1.17,-6.86
-6,-7,185,-69,-544,3916,-0.15,0.27,13.35,-0.69,-5.44,39.16,-5.92,1.76,65.49,4.07,-1.09,-7.52
1,22,298,-67,-436,3920,-0.13,0.38,13.83,-0.67,-4.36,39.20,-5.93,1.75,65.44,3.93,-1.70,-16.58
1,8,287,-2,-273,3949,-0.11,0.39,14.20,-0.02,-2.73,39.49,-5.91,1.74,65.38,3.91,-1.42,-15.25
-5,-15,217,66,-489,3896,-0.13,0.26,14.10,0.66,-4.89,38.96,-5.92,1.73,65.32,4.04,-0.91,-9.42
-7,-1,227,-21,-555,3890,-0.16,0.23,14.08,-0.21,-5.55,38.90,-5.93,1.73,65.27,4.10,-1.18,-10.29
-3,1,283,-8,-349,3965,-0.16,0.21,14.39,-0.08,-3.49,39.65,-5.92,1.72,65.21,4.01,-1.21,-14.69
-2,3,256,-12,-261,3937,-0.16,0.21,14.52,-0.12,-2.61,39.37,-5.91,1.72,65.15,3.98,-1.25,-12.27
1,18,266,-96,-651,3898,-0.14,0.30,14.69,-0.96,-6.51,38.98,-5.92,1.72,65.10,3.93,-1.58,-12.93
-6,19,291,-97,-589,3943,-0.16,0.38,14.99,-0.97,-5.89,39.43,-5.94,1.73,65.04,4.09,-1.63,-14.72
-3,4,184,-153,-457,3898,-0.16,0.37,14.62,-1.53,-4.57,38.98,-5.95,1.75,64.98,4.04,-1.33,-6.05
1,11,205,-212,-594,3824,-0.14,0.40,14.41,-2.12,-5.94,38.24,-5.97,1.76,64.92,3.96,-1.50,-8.04
-3,-10,124,-21,-298,3982,-0.14,0.30,13.72,-0.21,-2.98,39.82,-5.95,1.76,64.87,4.03,-1.04,-1.90
-8,-3,127,-57,-558,3886,-0.18,0.25,13.12,-0.57,-5.58,38.86,-5.97,1.76,64.82,4.15,-1.17,-2.77
-8,9,170,13,-376,3934,-0.21,0.28,12.85,0.13,-3.76,39.34,-5.96,1.74,64.76,4.16,-1.41,-6.70
-6,7,170,-14,-333,3907,-0.23,0.29,12.60,-0.14,-3.33,39.07,-5.95,1.74,64.71,4.11,-1.37,-6.96
-7,-1,172,-4,-396,3904,-0.25,0.26,12.39,-0.04,-3.96,39.04,-5.95,1.72,64.66,4.14,-1.19,-7.35
-4,-6,178,-27,-453,3953,-0.25,0.20,12.24,-0.27,-4.53,39.53,-5.96,1.71,64.62,4.08,-1.06,-8.01
-2,6,198,-51,-422,3970,-0.23,0.21,12.22,-0.51,-4.22,39.70,-5.96,1.70,64.57,4.04,-1.30,-9.72
-4,-1,189,-109,-396,3913,-0.23,0.19,12.15,-1.09,-3.96,39.13,-5.94,1.70,64.52,4.07,-1.15,-9.02
2,5,182,-99,-490,3923,-0.20,0.20,12.05,-0.99,-4.90,39.23,-5.96,1.70,64.47,3.95,-1.28,-8.54
11,16,179,-124,-529,3968,-0.11,0.28,11.93,-1.24,-5.29,39.68,-5.98,1.71,64.43,3.75,-1.53,-8.40
9,16,156,-50,-476,3925,-0.05,0.35,11.69,-0.50,-4.76,39.25,-5.99,1.70,64.38,3.78,-1.54,-6.70
6,19,176,-82,-554,3879,-0.00,0.43,11.60,-0.82,-5.54,38.79,-6.01,1.70,64.33,3.84,-1.63,-8.49
1,10,185,-168,-328,3964,0.00,0.45,11.57,-1.68,-3.28,39.64,-5.99,1.72,64.29,3.93,-1.46,-9.28
3,2,184,-103,-378,3950,0.02,0.41,11.53,-1.03,-3.78,39.50,-5.97,1.72,64.24,3.87,-1.29,-9.23
-4,0,205,-37,-416,3959,-0.01,0.37,11.63,-0.37,-4.16,39.59,-5.97,1.70,64.20,4.02,-1.23,-10.90
1,8,202,-40,-410,3914,0.00,0.38,11.70,-0.40,-4.10,39.14,-5.97,1.69,64.15,3.92,-1.38,-10.57
-1,4,205,-44,-391,3952,-0.01,0.37,11.78,-0.44,-3.91,39.52,-5.96,1.68,64.10,3.96,-1.29,-10.74
1,-1,186,26,-318,3912,0.00,0.33,11.74,0.26,-3.18,39.12,-5.95,1.67,64.05,3.91,-1.17,-9.17
-2,7,206,-73,-545,3911,-0.01,0.34,11.82,-0.73,-5.45,39.11,-5.97,1.67,64.01,3.98,-1.34,-10.77
-8,13,249,-131,-495,3845,-0.06,0.38,12.16,-1.31,-4.95,38.45,-5.98,1.68,63.96,4.13,-1.48,-14.05
-1,7,236,-149,-359,3915,-0.06,0.39,12.38,-1.49,-3.59,39.15,-5.97,1.70,63.91,3.97,-1.37,-12.71
-2,17,276,-123,-561,3923,-0.07,0.45,12.83,-1.23,-5.61,39.23,-5.98,1.71,63.86,4.01,-1.60,-15.63
3,-2,145,-71,-526,3925,-0.04,0.39,12.43,-0.71,-5.26,39.25,-6.00,1.71,63.81,3.91,-1.19,-4.94
5,-7,147,-69,-566,3930,-0.01,0.31,12.08,-0.69,-5.66,39.30,-6.02,1.71,63.76,3.87,-1.07,-5.47
-9,9,224,-228,-452,3896,-0.06,0.34,12.24,-2.28,-4.52,38.96,-6.02,1.73,63.72,4.17,-1.42,-11.83
0,20,257,-192,-415,4030,-0.05,0.42,12.58,-1.92,-4.15,40.30,-6.02,1.76,63.67,3.99,-1.68,-14.25
4,11,239,-31,-340,3949,-0.02,0.45,12.78,-0.31,-3.40,39.49,-6.00,1.75,63.62,3.89,-1.50,-12.52
-1,4,225,-80,-465,3884,-0.03,0.43,12.88,-0.80,-4.65,38.84,-6.02,1.75,63.56,4.00,-1.35,-11.23
-8,-1,203,-54,-384,3934,-0.07,0.38,12.83,-0.54,-3.84,39.34,-6.01,1.74,63.51,4.15,-1.23,-9.41
-6,9,196,-81,-399,3881,-0.10,0.40,12.74,-0.81,-3.99,38.81,-6.00,1.73,63.46,4.11,-1.43,-8.90
0,-1,165,-33,-429,3924,-0.09,0.35,12.47,-0.33,-4.29,39.24,-6.01,1.71,63.41,3.99,-1.21,-6.55
-2,6,203,-39,-487,3906,-0.10,0.35,12.46,-0.39,-4.87,39.06,-6.02,1.71,63.36,4.04,-1.34,-9.78
-3,7,179,-15,-261,3919,-0.10,0.36,12.31,-0.15,-2.61,39.19,-6.00,1.70,63.32,4.05,-1.36,-7.90
-3,-1,163,6,-267,3917,-0.11,0.32,12.07,0.06,-2.67,39.17,-5.99,1.70,63.27,4.04,-1.19,-6.79
0,1,147,5,-381,3910,-0.10,0.29,11.76,0.05,-3.81,39.10,-5.98,1.69,63.22,3.97,-1.21,-5.76
0,0,157,6,-373,3906,-0.09,0.26,11.54,0.06,-3.73,39.06,-5.97,1.67,63.17,3.97,-1.18,-6.83
2,-1,196,-61,-347,3935,-0.07,0.23,11.58,-0.61,-3.47,39.35,-5.96,1.67,63.13,3.91,-1.14,-10.09
0,-3,193,-92,-404,3928,-0.06,0.19,11.60,-0.92,-4.04,39.28,-5.95,1.66,63.08,3.95,-1.08,-9.81
-1,2,208,-97,-395,3921,-0.06,0.18,11.71,-0.97,-3.95,39.21,-5.94,1.65,63.03,3.96,-1.18,-10.96
-1,5,194,-120,-384,3918,-0.06,0.19,11.72,-1.20,-3.84,39.18,-5.92,1.66,62.99,3.95,-1.25,-9.76
-1,-12,112,-44,-444,3935,-0.06,0.10,11.24,-0.44,-4.44,39.35,-5.93,1.65,62.94,3.95,-0.87,-3.32
2,3,108,64,-356,3946,-0.04,0.11,10.77,0.64,-3.56,39.46,-5.92,1.63,62.90,3.88,-1.17,-3.47
0,6,147,21,-373,3936,-0.04,0.14,10.59,0.21,-3.73,39.36,-5.92,1.62,62.86,3.92,-1.23,-6.96
-3,4,153,12,-386,3939,-0.05,0.15,10.46,0.12,-3.86,39.39,-5.91,1.61,62.82,3.98,-1.18,-7.60
-4,2,172,-20,-427,3887,-0.07,0.14,10.47,-0.20,-4.27,38.87,-5.92,1.60,62.77,4.01,-1.13,-9.20
-8,-1,175,-57,-419,3920,-0.11,0.12,10.49,-0.57,-4.19,39.20,-5.92,1.58,62.73,4.10,-1.06,-9.43
-12,-7,180,-96,-449,3916,-0.18,0.07,10.54,-0.96,-4.49,39.16,-5.94,1.58,62.69,4.21,-0.92,-9.80
-9,-1,175,-137,-515,3880,-0.21,0.06,10.55,-1.37,-5.15,38.80,-5.96,1.59,62.65,4.17,-1.05,-9.36
-8,5,178,-78,-558,3899,-0.24,0.08,10.58,-0.78,-5.58,38.99,-5.97,1.59,62.61,4.17,-1.17,-9.57
-5,12,214,-68,-572,3916,-0.25,0.15,10.83,-0.68,-5.72,39.16,-5.99,1.59,62.57,4.12,-1.34,-12.36
-12,-3,236,-132,-432,3959,-0.30,0.11,11.19,-1.32,-4.32,39.59,-6.00,1.61,62.52,4.29,-1.03,-13.84
-15,-1,199,-141,-447,3933,-0.36,0.10,11.28,-1.41,-4.47,39.33,-6.02,1.63,62.48,4.37,-1.08,-10.61
-5,23,341,-179,-372,3898,-0.35,0.23,12.23,-1.79,-3.72,38.98,-6.01,1.65,62.43,4.16,-1.62,-20.00
-4,22,367,-175,-385,3954,-0.34,0.34,13.25,-1.75,-3.85,39.54,-6.00,1.67,62.38,4.13,-1.64,-20.00
-7,24,387,-140,-582,3945,-0.35,0.45,14.28,-1.40,-5.82,39.45,-6.02,1.69,62.32,4.21,-1.72,-20.00
0,22,399,-86,-495,3927,-0.32,0.54,15.29,-0.86,-4.95,39.27,-6.03,1.69,62.26,4.07,-1.71,-20.00
4,10,371,20,-548,3903,-0.26,0.55,16.02,0.20,-5.48,39.03,-6.04,1.68,62.20,3.98,-1.46,-20.00
7,24,338,-124,-555,3921,-0.19,0.64,16.48,-1.24,-5.55,39.21,-6.06,1.69,62.13,3.91,-1.78,-16.87
-6,8,305,-83,-363,3977,-0.21,0.62,16.70,-0.83,-3.63,39.77,-6.04,1.69,62.06,4.17,-1.45,-13.85
-7,11,319,-106,-367,3969,-0.23,0.63,16.97,-1.06,-3.67,39.69,-6.03,1.70,62.00,4.18,-1.52,-14.74
4,11,332,71,-542,3936,-0.18,0.63,17.30,0.71,-5.42,39.36,-6.03,1.69,61.93,3.95,-1.51,-15.49
8,-4,188,49,-393,3944,-0.12,0.54,16.72,0.49,-3.93,39.44,-6.03,1.69,61.86,3.85,-1.18,-3.89
-5,0,154,-193,-624,3899,-0.13,0.49,15.98,-1.93,-6.24,38.99,-6.05,1.70,61.80,4.13,-1.26,-1.78
-10,12,223,-341,-721,3852,-0.18,0.51,15.75,-3.41,-7.21,38.52,-6.06,1.72,61.74,4.25,-1.52,-7.87
-2,12,301,-167,-158,3875,-0.18,0.54,16.01,-1.67,-1.58,38.75,-6.04,1.73,61.67,4.08,-1.53,-14.20
-9,6,279,-190,-372,3914,-0.21,0.52,16.11,-1.90,-3.72,39.14,-6.03,1.76,61.61,4.22,-1.42,-12.22
-9,5,270,61,-447,3916,-0.25,0.50,16.14,0.61,-4.47,39.16,-6.03,1.75,61.55,4.23,-1.39,-11.42
-9,6,251,-14,-495,3906,-0.28,0.48,16.06,-0.14,-4.95,39.06,-6.04,1.74,61.48,4.25,-1.40,-9.89
-3,-4,233,-10,-352,3920,-0.27,0.41,15.88,-0.10,-3.52,39.20,-6.03,1.73,61.42,4.12,-1.18,-8.55
2,8,234,-69,-385,3885,-0.23,0.42,15.72,-0.69,-3.85,38.85,-6.02,1.73,61.36,4.00,-1.42,-8.80
-2,-3,266,-7,-322,4035,-0.22,0.36,15.77,-0.07,-3.22,40.35,-6.01,1.72,61.29,4.07,-1.17,-11.45
-3,-3,220,-41,-466,3859,-0.21,0.30,15.53,-0.41,-4.66,38.59,-6.02,1.71,61.23,4.09,-1.15,-7.80
-9,5,282,-88,-403,3914,-0.25,0.30,15.70,-0.88,-4.03,39.14,-6.01,1.70,61.17,4.22,-1.31,-12.87
-8,10,283,-54,-397,3897,-0.27,0.34,15.86,-0.54,-3.97,38.97,-6.01,1.69,61.11,4.20,-1.41,-12.78
2,0,205,-38,-486,3886,-0.23,0.30,15.52,-0.38,-4.86,38.86,-6.02,1.69,61.04,4.00,-1.20,-6.52
-4,2,226,-75,-521,3918,-0.23,0.28,15.35,-0.75,-5.21,39.18,-6.04,1.69,60.98,4.13,-1.23,-8.48
3,15,238,-111,-416,3854,-0.19,0.35,15.26,-1.11,-4.16,38.54,-6.05,1.69,60.92,3.99,-1.52,-9.58
-8,14,268,-200,-544,3923,-0.22,0.40,15.37,-2.00,-5.44,39.23,-6.07,1.71,60.86,4.23,-1.52,-12.00
-9,4,239,-94,-525,3883,-0.25,0.38,15.29,-0.94,-5.25,38.83,-6.08,1.71,60.80,4.27,-1.32,-9.62
-3,19,265,-205,-496,3898,-0.25,0.46,15.38,-2.05,-4.96,38.98,-6.10,1.74,60.74,4.15,-1.66,-11.72
-5,10,341,-145,-459,3927,-0.25,0.47,15.92,-1.45,-4.59,39.27,-6.11,1.75,60.68,4.20,-1.49,-17.59
-4,0,328,-101,-430,3929,-0.25,0.43,16.33,-1.01,-4.30,39.29,-6.12,1.75,60.62,4.19,-1.27,-16.05
-5,11,316,-23,-501,3891,-0.26,0.45,16.63,-0.23,-5.01,38.91,-6.13,1.74,60.55,4.22,-1.50,-14.72
-9,3,327,-15,-508,3892,-0.29,0.42,16.96,-0.15,-5.08,38.92,-6.14,1.74,60.48,4.31,-1.32,-15.29
-13,7,355,-155,-530,3945,-0.34,0.43,17.43,-1.55,-5.30,39.45,-6.16,1.75,60.41,4.42,-1.41,-17.16
-13,1,376,-16,-356,3919,-0.38,0.39,17.98,-0.16,-3.56,39.19,-6.15,1.74,60.34,4.42,-1.28,-18.36
-10,20,369,-192,-614,3823,-0.41,0.47,18.43,-1.92,-6.14,38.23,-6.16,1.76,60.27,4.38,-1.70,-17.28
-5,13,394,45,-437,3922,-0.40,0.50,18.99,0.45,-4.37,39.22,-6.16,1.75,60.20,4.28,-1.56,-18.80
6,-12,264,253,-262,3943,-0.32,0.38,18.70,2.53,-2.62,39.43,-6.15,1.75,60.12,4.03,-1.01,-8.09
4,-11,180,201,-355,3945,-0.26,0.28,17.93,2.01,-3.55,39.45,-6.15,1.74,60.05,4.05,-1.00,-1.78
-14,1,160,-266,-698,3825,-0.32,0.25,17.11,-2.66,-6.98,38.25,-6.17,1.75,59.98,4.44,-1.25,-0.94
-17,39,373,-368,-708,3879,-0.39,0.47,17.68,-3.68,-7.08,38.79,-6.18,1.77,59.91,4.53,-2.09,-18.38
-12,8,388,-85,-253,3976,-0.43,0.47,18.28,-0.85,-2.53,39.76,-6.16,1.78,59.84,4.43,-1.47,-19.01
-3,2,340,65,-291,3929,-0.40,0.43,18.52,0.65,-2.91,39.29,-6.15,1.77,59.77,4.23,-1.33,-14.68
-6,4,226,86,-576,3907,-0.40,0.41,18.05,0.86,-5.76,39.07,-6.16,1.77,59.69,4.30,-1.36,-5.52
-2,2,196,28,-540,3957,-0.37,0.39,17.44,0.28,-5.40,39.57,-6.17,1.76,59.62,4.21,-1.31,-3.61
-6,10,190,-173,-512,3865,-0.37,0.41,16.85,-1.73,-5.12,38.65,-6.18,1.78,59.56,4.31,-1.49,-3.71
-4,8,232,-173,-440,3945,-0.36,0.42,16.58,-1.73,-4.40,39.45,-6.19,1.81,59.49,4.26,-1.47,-7.55
-2,16,252,-10,-465,3998,-0.33,0.47,16.46,-0.10,-4.65,39.98,-6.19,1.80,59.43,4.22,-1.64,-9.36
0,11,227,20,-250,3946,-0.30,0.49,16.20,0.20,-2.50,39.46,-6.18,1.80,59.36,4.16,-1.54,-7.52
-3,12,217,-23,-465,3954,-0.29,0.52,15.91,-0.23,-4.65,39.54,-6.18,1.79,59.30,4.22,-1.57,-6.98
-2,17,219,-120,-422,3850,-0.27,0.57,15.65,-1.20,-4.22,38.50,-6.20,1.79,59.24,4.21,-1.68,-7.41
-4,9,260,5,-457,3964,-0.27,0.57,15.67,0.05,-4.57,39.64,-6.20,1.79,59.18,4.25,-1.52,-10.85
-10,4,248,-72,-429,3979,-0.30,0.53,15.62,-0.72,-4.29,39.79,-6.20,1.78,59.11,4.38,-1.40,-9.89
-2,7,225,-100,-448,3904,-0.29,0.52,15.43,-1.00,-4.48,39.04,-6.21,1.77,59.05,4.22,-1.45,-8.13
-1,0,214,-74,-444,3954,-0.26,0.47,15.19,-0.74,-4.44,39.54,-6.22,1.76,58.99,4.20,-1.29,-7.45
-1,8,173,-116,-562,3892,-0.24,0.47,14.73,-1.16,-5.62,38.92,-6.24,1.77,58.94,4.20,-1.46,-4.46
-7,19,215,-243,-618,3888,-0.26,0.54,14.57,-2.43,-6.18,38.88,-6.25,1.79,58.88,4.34,-1.71,-8.18
0,9,170,11,-542,3840,-0.24,0.54,14.15,0.11,-5.42,38.40,-6.26,1.78,58.82,4.20,-1.51,-4.80
-1,18,201,-44,-590,3924,-0.22,0.60,13.96,-0.44,-5.90,39.24,-6.28,1.78,58.77,4.22,-1.71,-7.62
-3,7,209,-21,-347,3921,-0.21,0.58,13.84,-0.21,-3.47,39.21,-6.26,1.78,58.71,4.25,-1.47,-8.42
-2,13,212,-89,-408,3882,-0.21,0.60,13.75,-0.89,-4.08,38.82,-6.25,1.77,58.66,4.22,-1.60,-8.77
-7,-1,236,-41,-371,3928,-0.23,0.54,13.81,-0.41,-3.71,39.28,-6.24,1.76,58.60,4.32,-1.29,-10.73
-3,7,225,-55,-479,3834,-0.22,0.52,13.80,-0.55,-4.79,38.34,-6.25,1.76,58.55,4.25,-1.45,-9.80
-7,2,246,-109,-370,3985,-0.24,0.48,13.92,-1.09,-3.70,39.85,-6.24,1.76,58.49,4.32,-1.34,-11.45
-2,-4,225,-63,-364,3958,-0.23,0.41,13.90,-0.63,-3.64,39.58,-6.22,1.76,58.44,4.21,-1.19,-9.68
-6,6,262,-194,-514,3951,-0.24,0.41,14.11,-1.94,-5.14,39.51,-6.23,1.78,58.38,4.30,-1.41,-12.59
-12,3,286,-166,-492,3890,-0.29,0.38,14.44,-1.66,-4.92,38.90,-6.25,1.80,58.33,4.45,-1.35,-14.27
-11,-1,312,-78,-389,3922,-0.33,0.34,14.90,-0.78,-3.89,39.22,-6.24,1.79,58.27,4.43,-1.25,-15.99
-7,19,325,-96,-373,3846,-0.34,0.42,15.40,-0.96,-3.73,38.46,-6.22,1.79,58.20,4.34,-1.68,-16.56
0,5,314,-40,-422,3943,-0.31,0.41,15.77,-0.40,-4.22,39.43,-6.22,1.78,58.14,4.19,-1.39,-15.23
-6,6,308,-26,-493,3873,-0.31,0.41,16.07,-0.26,-4.93,38.73,-6.23,1.77,58.08,4.32,-1.40,-14.40
-1,5,250,48,-404,3961,-0.29,0.40,15.99,0.48,-4.04,39.61,-6.22,1.76,58.01,4.21,-1.37,-9.57
-5,-1,235,8,-367,3924,-0.29,0.35,15.83,0.08,-3.67,39.24,-6.22,1.76,57.95,4.28,-1.23,-8.46
-4,7,204,5,-369,3884,-0.28,0.36,15.49,0.05,-3.69,38.84,-6.21,1.75,57.89,4.26,-1.39,-6.19
-1,-2,185,78,-313,3958,-0.26,0.31,15.07,0.78,-3.13,39.58,-6.20,1.74,57.83,4.18,-1.19,-5.01
-3,0,94,-48,-406,3937,-0.25,0.28,14.13,-0.48,-4.06,39.37,-6.19,1.73,57.77,4.22,-1.22,1.72
-5,-2,94,-54,-391,3923,-0.26,0.24,13.29,-0.54,-3.91,39.23,-6.18,1.72,57.72,4.25,-1.16,0.84
-14,13,204,-48,-468,3923,-0.32,0.29,13.21,-0.48,-4.68,39.23,-6.19,1.71,57.67,4.46,-1.47,-8.57
-7,7,224,50,-441,3915,-0.33,0.31,13.25,0.50,-4.41,39.15,-6.19,1.70,57.62,4.32,-1.35,-10.21
-7,-11,92,-53,-522,3951,-0.34,0.21,12.49,-0.53,-5.22,39.51,-6.21,1.70,57.57,4.33,-0.95,0.18
-5,-14,60,-25,-483,3917,-0.34,0.10,11.61,-0.25,-4.83,39.17,-6.22,1.69,57.52,4.30,-0.86,1.96
-3,-5,60,-22,-441,3956,-0.32,0.06,10.81,-0.22,-4.41,39.56,-6.22,1.67,57.48,4.25,-1.02,1.13
3,-1,69,28,-401,3938,-0.27,0.05,10.15,0.28,-4.01,39.38,-6.22,1.66,57.44,4.12,-1.09,-0.33
1,-3,141,-60,-455,3890,-0.24,0.03,10.00,-0.60,-4.55,38.90,-6.22,1.65,57.40,4.15,-1.03,-6.59
-7,6,162,-199,-604,3891,-0.26,0.06,9.99,-1.99,-6.04,38.91,-6.24,1.66,57.36,4.33,-1.23,-8.37
0,9,362,30,-341,3987,-0.23,0.11,11.20,0.30,-3.41,39.87,-6.23,1.65,57.31,4.18,-1.30,-20.00
1,10,334,-106,-370,3892,-0.20,0.16,12.11,-1.06,-3.70,38.92,-6.21,1.65,57.27,4.13,-1.34,-20.00
0,19,291,-107,-550,3946,-0.18,0.26,12.68,-1.07,-5.50,39.46,-6.23,1.66,57.22,4.16,-1.55,-16.46
-2,24,333,-93,-605,3864,-0.18,0.38,13.44,-0.93,-6.05,38.64,-6.25,1.66,57.16,4.21,-1.69,-19.21
-2,14,304,-112,-464,3867,-0.17,0.43,13.95,-1.12,-4.64,38.67,-6.26,1.67,57.11,4.22,-1.50,-16.21
1,16,326,-58,-514,3890,-0.15,0.48,14.54,-0.58,-5.14,38.90,-6.28,1.67,57.05,4.16,-1.56,-17.44
-3,9,378,-221,-473,3920,-0.15,0.49,15.40,-2.21,-4.73,39.20,-6.28,1.70,56.99,4.25,-1.44,-20.00
4,15,366,-144,-342,3850,-0.11,0.53,16.09,-1.44,-3.42,38.50,-6.27,1.71,56.93,4.08,-1.58,-19.19
-1,15,355,-218,-440,3914,-0.11,0.57,16.65,-2.18,-4.40,39.14,-6.27,1.74,56.86,4.18,-1.61,-17.67
1,21,384,-108,-313,3881,-0.09,0.64,17.32,-1.08,-3.13,38.81,-6.25,1.75,56.79,4.13,-1.75,-19.41
-4,5,398,-29,-357,3965,-0.10,0.61,18.02,-0.29,-3.57,39.65,-6.23,1.74,56.72,4.22,-1.42,-19.85
3,27,412,-5,-374,3868,-0.08,0.71,18.73,-0.05,-3.74,38.68,-6.22,1.74,56.64,4.07,-1.89,-20.00
-3,16,421,-124,-379,3920,-0.09,0.74,19.43,-1.24,-3.79,39.20,-6.20,1.75,56.57,4.18,-1.68,-20.00
-3,5,406,-47,-351,3960,-0.10,0.69,19.96,-0.47,-3.51,39.60,-6.19,1.75,56.49,4.17,-1.45,-18.47
-12,3,374,-92,-478,3915,-0.16,0.64,20.24,-0.92,-4.78,39.15,-6.20,1.75,56.41,4.38,-1.39,-15.45
-7,7,351,-55,-428,3944,-0.19,0.62,20.36,-0.55,-4.28,39.44,-6.20,1.74,56.33,4.29,-1.46,-13.37
-10,-3,334,12,-417,3872,-0.23,0.54,20.36,0.12,-4.17,38.72,-6.20,1.74,56.25,4.36,-1.23,-11.92
-2,8,300,-16,-441,3854,-0.22,0.54,20.16,-0.16,-4.41,38.54,-6.20,1.73,56.17,4.19,-1.45,-9.25
-2,2,242,-44,-526,3956,-0.21,0.49,19.62,-0.44,-5.26,39.56,-6.21,1.73,56.09,4.20,-1.32,-4.90
-4,10,253,-195,-517,3881,-0.21,0.51,19.20,-1.95,-5.17,38.81,-6.23,1.75,56.01,4.25,-1.50,-6.26
-3,-7,155,46,-350,3863,-0.21,0.41,18.22,0.46,-3.50,38.63,-6.22,1.74,55.94,4.22,-1.12,1.02
-4,-6,159,54,-406,3911,-0.21,0.33,17.37,0.54,-4.06,39.11,-6.21,1.73,55.87,4.24,-1.11,-0.21
-9,17,253,-138,-643,3953,-0.25,0.41,17.18,-1.38,-6.43,39.53,-6.23,1.75,55.80,4.36,-1.61,-8.37
-16,4,270,-184,-563,3964,-0.32,0.39,17.11,-1.84,-5.63,39.64,-6.25,1.76,55.74,4.54,-1.35,-9.88
-11,-10,205,76,-406,3912,-0.35,0.29,16.65,0.76,-4.06,39.12,-6.24,1.75,55.67,4.44,-1.03,-4.85
-7,-7,164,97,-456,3949,-0.36,0.22,15.98,0.97,-4.56,39.49,-6.25,1.74,55.61,4.36,-1.07,-2.07
0,-11,75,-26,-455,3903,-0.33,0.13,14.84,-0.26,-4.55,39.03,-6.25,1.73,55.55,4.21,-0.95,4.27
-2,-11,72,-40,-477,3921,-0.31,0.05,13.80,-0.40,-4.77,39.21,-6.26,1.72,55.49,4.26,-0.93,3.43
-5,15,198,-6,-471,3934,-0.31,0.14,13.62,-0.06,-4.71,39.34,-6.26,1.71,55.44,4.32,-1.47,-7.42
-8,8,198,-31,-462,3886,-0.32,0.17,13.47,-0.31,-4.62,38.86,-6.27,1.70,55.39,4.39,-1.33,-7.58
-5,0,167,-19,-482,3914,-0.32,0.15,13.14,-0.19,-4.82,39.14,-6.28,1.69,55.33,4.33,-1.16,-5.29
-1,0,156,-7,-484,3934,-0.30,0.14,12.78,-0.07,-4.84,39.34,-6.29,1.68,55.28,4.25,-1.15,-4.74
-1,-7,98,-55,-409,3941,-0.27,0.08,12.10,-0.55,-4.09,39.41,-6.28,1.67,55.24,4.24,-0.98,-0.53
-1,-8,84,-42,-429,3882,-0.25,0.02,11.40,-0.42,-4.29,38.82,-6.28,1.66,55.19,4.23,-0.94,-0.08
-4,-4,110,-93,-430,3887,-0.25,-0.00,10.93,-0.93,-4.30,38.87,-6.28,1.64,55.15,4.30,-1.00,-2.77
-3,-6,106,-37,-426,3897,-0.24,-0.04,10.49,-0.37,-4.26,38.97,-6.28,1.63,55.11,4.27,-0.94,-2.90
-3,8,132,6,-471,3969,-0.24,0.01,10.24,0.06,-4.71,39.69,-6.29,1.62,55.06,4.27,-1.23,-5.35
-1,13,152,-41,-494,3908,-0.22,0.09,10.15,-0.41,-4.94,39.08,-6.30,1.61,55.02,4.24,-1.35,-7.15
4,0,152,-104,-374,3910,-0.17,0.08,10.06,-1.04,-3.74,39.10,-6.28,1.61,54.98,4.11,-1.08,-7.24
1,1,132,-92,-466,3885,-0.15,0.08,9.86,-0.92,-4.66,38.85,-6.30,1.61,54.95,4.18,-1.10,-5.75
-5,-1,133,-101,-515,3872,-0.17,0.07,9.68,-1.01,-5.15,38.72,-6.31,1.61,54.91,4.31,-1.06,-6.01
-1,14,158,-139,-576,3892,-0.16,0.15,9.68,-1.39,-5.76,38.92,-6.33,1.62,54.87,4.24,-1.39,-8.13
2,-8,136,-87,-382,3896,-0.13,0.08,9.54,-0.87,-3.82,38.96,-6.31,1.61,54.83,4.16,-0.92,-6.41
-1,-10,116,-57,-415,3937,-0.12,0.01,9.29,-0.57,-4.15,39.37,-6.31,1.60,54.79,4.22,-0.86,-4.97
0,-1,102,-89,-509,3924,-0.11,0.01,8.99,-0.89,-5.09,39.24,-6.32,1.60,54.76,4.20,-1.04,-4.11
0,13,140,-47,-470,3968,-0.10,0.08,8.94,-0.47,-4.70,39.68,-6.33,1.59,54.72,4.20,-1.33,-7.37
-1,26,216,-7,-648,3802,-0.09,0.23,9.37,-0.07,-6.48,38.02,-6.35,1.59,54.69,4.23,-1.64,-13.36
7,28,236,-1,-392,4033,-0.04,0.38,9.87,-0.01,-3.92,40.33,-6.34,1.57,54.65,4.05,-1.71,-14.52
4,-3,96,-50,-406,3976,-0.01,0.33,9.47,-0.50,-4.06,39.76,-6.33,1.56,54.61,4.10,-1.06,-3.08
1,-4,82,-16,-411,3858,-0.01,0.27,9.02,-0.16,-4.11,38.58,-6.32,1.55,54.57,4.15,-1.02,-2.36
0,9,104,-90,-461,3911,-0.01,0.30,8.75,-0.90,-4.61,39.11,-6.34,1.55,54.54,4.18,-1.28,-4.50
-5,5,116,-58,-438,3922,-0.04,0.30,8.59,-0.58,-4.38,39.22,-6.34,1.53,54.51,4.29,-1.19,-5.69
-7,-10,46,-32,-441,3901,-0.07,0.21,8.01,-0.32,-4.41,39.01,-6.34,1.52,54.47,4.35,-0.86,-0.37
-7,-12,31,-22,-445,3885,-0.11,0.11,7.40,-0.22,-4.45,38.85,-6.34,1.51,54.44,4.36,-0.78,0.26
-6,-8,13,-40,-446,3935,-0.14,0.05,6.74,-0.40,-4.46,39.35,-6.34,1.49,54.42,4.35,-0.84,1.09
-8,-9,13,-46,-452,3893,-0.17,-0.01,6.14,-0.46,-4.52,38.93,-6.35,1.48,54.39,4.40,-0.79,0.47
-6,-8,3,-55,-468,3915,-0.19,-0.06,5.55,-0.55,-4.68,39.15,-6.36,1.46,54.37,4.37,-0.79,0.69
-5,-7,2,-49,-466,3915,-0.20,-0.09,5.00,-0.49,-4.66,39.15,-6.37,1.45,54.35,4.36,-0.79,0.21
-9,-8,11,-50,-452,3934,-0.24,-0.13,4.57,-0.50,-4.52,39.34,-6.37,1.43,54.33,4.45,-0.75,-1.01
-9,-5,14,-20,-438,3926,-0.27,-0.15,4.20,-0.20,-4.38,39.26,-6.38,1.42,54.32,4.46,-0.79,-1.65
2,5,73,53,-363,3939,-0.23,-0.10,4.22,0.53,-3.63,39.39,-6.37,1.40,54.30,4.22,-1.00,-6.62
4,8,95,61,-369,3911,-0.18,-0.04,4.38,0.61,-3.69,39.11,-6.36,1.39,54.28,4.17,-1.06,-8.32
-1,5,132,-38,-606,3819,-0.17,-0.01,4.75,-0.38,-6.06,38.19,-6.38,1.38,54.26,4.28,-1.01,-11.07
-5,7,144,-57,-636,3874,-0.18,0.03,5.15,-0.57,-6.36,38.74,-6.40,1.38,54.24,4.37,-1.06,-11.66
-8,13,214,-96,-460,3942,-0.21,0.11,5.94,-0.96,-4.60,39.42,-6.42,1.38,54.22,4.45,-1.21,-16.75
-6,19,231,-123,-444,3914,-0.23,0.21,6.76,-1.23,-4.44,39.14,-6.42,1.41,54.19,4.42,-1.37,-17.33
-8,8,204,-120,-496,3900,-0.25,0.24,7.33,-1.20,-4.96,39.00,-6.44,1.42,54.17,4.48,-1.16,-14.45
-6,10,207,-100,-496,3921,-0.27,0.28,7.86,-1.00,-4.96,39.21,-6.45,1.42,54.14,4.45,-1.22,-14.14
2,15,194,-24,-425,3971,-0.23,0.34,8.25,-0.24,-4.25,39.71,-6.45,1.41,54.10,4.28,-1.33,-12.62
1,-8,172,-23,-408,3949,-0.20,0.26,8.48,-0.23,-4.08,39.49,-6.44,1.40,54.07,4.28,-0.83,-10.51
4,9,182,-48,-469,3982,-0.15,0.29,8.74,-0.48,-4.69,39.82,-6.45,1.39,54.03,4.22,-1.18,-11.08
-2,-3,187,-107,-478,3888,-0.15,0.24,9.01,-1.07,-4.78,38.88,-6.46,1.40,54.00,4.35,-0.93,-11.22
-6,-2,210,-68,-513,3924,-0.17,0.20,9.39,-0.68,-5.13,39.24,-6.48,1.40,53.96,4.45,-0.94,-12.76
-4,6,201,-89,-469,3928,-0.18,0.22,9.67,-0.89,-4.69,39.28,-6.50,1.40,53.92,4.42,-1.10,-11.70
5,10,200,-98,-442,3899,-0.13,0.26,9.93,-0.98,-4.42,38.99,-6.48,1.42,53.88,4.21,-1.21,-11.34
5,7,180,-100,-453,3912,-0.09,0.28,10.03,-1.00,-4.53,39.12,-6.50,1.43,53.85,4.21,-1.16,-9.53
0,3,171,-107,-499,3914,-0.08,0.27,10.07,-1.07,-4.99,39.14,-6.52,1.44,53.81,4.32,-1.08,-8.73
-1,1,179,-88,-518,3903,-0.08,0.25,10.16,-0.88,-5.18,39.03,-6.54,1.44,53.77,4.36,-1.04,-9.31
0,8,184,-69,-482,3905,-0.07,0.27,10.26,-0.69,-4.82,39.05,-6.55,1.43,53.73,4.34,-1.18,-9.62
1,8,174,-66,-456,3937,-0.06,0.29,10.30,-0.66,-4.56,39.37,-6.55,1.42,53.68,4.32,-1.18,-8.73
2,4,140,3,-447,3935,-0.04,0.29,10.12,0.03,-4.47,39.35,-6.55,1.41,53.64,4.29,-1.09,-6.03
4,-2,110,10,-461,3897,-0.01,0.25,9.78,0.10,-4.61,38.97,-6.55,1.39,53.61,4.24,-0.95,-3.85
1,11,128,-85,-530,3933,-0.00,0.29,9.58,-0.85,-5.30,39.33,-6.57,1.40,53.57,4.32,-1.22,-5.57
2,1,144,-104,-463,3943,0.01,0.27,9.50,-1.04,-4.63,39.43,-6.58,1.41,53.53,4.30,-1.03,-7.01
-2,-6,107,-11,-390,3885,-0.00,0.20,9.21,-0.11,-3.90,38.85,-6.57,1.40,53.49,4.38,-0.86,-4.19
1,-7,83,-12,-454,3982,0.00,0.14,8.79,-0.12,-4.54,39.82,-6.57,1.39,53.46,4.31,-0.81,-2.59
-7,-3,173,-71,-508,3894,-0.04,0.11,8.97,-0.71,-5.08,38.94,-6.58,1.39,53.42,4.50,-0.88,-10.02
-8,4,185,-83,-512,3873,-0.08,0.12,9.20,-0.83,-5.12,38.73,-6.60,1.39,53.39,4.54,-1.03,-10.79
1,-18,146,81,-216,3904,-0.07,-0.00,9.17,0.81,-2.16,39.04,-6.59,1.38,53.35,4.35,-0.55,-7.52
-1,-5,96,35,-431,3916,-0.07,-0.03,8.84,0.35,-4.31,39.16,-6.58,1.37,53.32,4.38,-0.79,-3.63
-4,-6,35,-29,-441,3910,-0.09,-0.06,8.17,-0.29,-4.41,39.10,-6.58,1.35,53.28,4.45,-0.75,0.84
-5,-5,37,-97,-500,3894,-0.11,-0.09,7.58,-0.97,-5.00,38.94,-6.60,1.36,53.25,4.49,-0.77,0.05
-10,9,157,-42,-602,3827,-0.16,-0.02,7.78,-0.42,-6.02,38.27,-6.61,1.36,53.22,4.61,-1.07,-9.90
-6,12,167,-5,-434,4003,-0.18,0.05,8.02,-0.05,-4.34,40.03,-6.61,1.34,53.19,4.53,-1.14,-10.49
-7,0,99,6,-388,3952,-0.20,0.05,7.82,0.06,-3.88,39.52,-6.60,1.33,53.16,4.55,-0.89,-4.94
-5,-5,55,-45,-407,3917,-0.21,0.01,7.37,-0.45,-4.07,39.17,-6.59,1.32,53.13,4.51,-0.77,-1.68
-2,-2,41,-54,-522,3882,-0.21,-0.00,6.89,-0.54,-5.22,38.82,-6.60,1.32,53.10,4.45,-0.83,-1.00
1,5,57,-50,-512,3902,-0.18,0.03,6.55,-0.50,-5.12,39.02,-6.62,1.31,53.08,4.40,-0.97,-2.71
0,-3,49,-82,-416,3913,-0.16,0.01,6.19,-0.82,-4.16,39.13,-6.60,1.31,53.05,4.40,-0.80,-2.41
1,-3,39,-81,-407,3917,-0.14,-0.01,5.81,-0.81,-4.07,39.17,-6.58,1.31,53.03,4.36,-0.80,-1.96
1,0,11,-60,-438,3909,-0.12,-0.01,5.30,-0.60,-4.38,39.09,-6.57,1.29,53.01,4.35,-0.85,-0.13
3,1,8,-61,-453,3914,-0.09,-0.00,4.81,-0.61,-4.53,39.14,-6.58,1.28,52.99,4.30,-0.86,-0.38
9,4,8,-47,-446,3925,-0.02,0.02,4.38,-0.47,-4.46,39.25,-6.57,1.26,52.97,4.16,-0.92,-0.83
13,1,18,-38,-448,3948,0.06,0.03,4.05,-0.38,-4.48,39.48,-6.57,1.25,52.96,4.06,-0.85,-2.02
9,1,27,-38,-459,3915,0.11,0.03,3.81,-0.38,-4.59,39.15,-6.57,1.23,52.94,4.13,-0.84,-3.04
10,-3,37,-48,-449,3910,0.16,0.01,3.66,-0.48,-4.49,39.10,-6.57,1.21,52.93,4.09,-0.74,-4.05
1,4,70,-135,-519,3869,0.15,0.03,3.72,-1.35,-5.19,38.69,-6.58,1.23,52.91,4.29,-0.90,-6.78
-2,10,111,-159,-519,3898,0.12,0.09,4.02,-1.59,-5.19,38.98,-6.60,1.24,52.90,4.36,-1.05,-9.93
-9,8,246,-155,-423,3917,0.05,0.13,5.12,-1.55,-4.23,39.17,-6.59,1.26,52.88,4.52,-1.03,-20.00
-9,18,265,-153,-495,3833,-0.01,0.23,6.23,-1.53,-4.95,38.33,-6.60,1.28,52.85,4.54,-1.27,-20.00
-4,3,207,-96,-458,3907,-0.03,0.22,6.87,-0.96,-4.58,39.07,-6.61,1.30,52.82,4.45,-0.98,-15.06
-8,1,221,-111,-498,4008,-0.08,0.21,7.53,-1.11,-4.98,40.08,-6.62,1.31,52.79,4.56,-0.94,-15.55
-2,16,269,-14,-520,3766,-0.08,0.28,8.42,-0.14,-5.20,37.66,-6.64,1.30,52.76,4.44,-1.26,-18.68
0,8,256,48,-439,3967,-0.07,0.30,9.14,0.48,-4.39,39.67,-6.63,1.29,52.73,4.40,-1.10,-16.82
-9,8,281,-152,-561,3902,-0.12,0.32,9.94,-1.52,-5.61,39.02,-6.65,1.31,52.69,4.60,-1.11,-18.09
-4,-2,317,-147,-340,4018,-0.13,0.28,10.88,-1.47,-3.40,40.18,-6.63,1.32,52.64,4.49,-0.91,-20.00
-4,16,275,-99,-612,3958,-0.14,0.35,11.47,-0.99,-6.12,39.58,-6.65,1.33,52.60,4.51,-1.30,-15.96
1,22,287,-181,-590,3978,-0.12,0.45,12.07,-1.81,-5.90,39.78,-6.66,1.35,52.55,4.41,-1.46,-16.34
-1,-4,291,62,-352,3934,-0.12,0.38,12.64,0.62,-3.52,39.34,-6.65,1.34,52.50,4.44,-0.90,-16.07
1,-8,262,60,-378,3944,-0.10,0.29,12.97,0.60,-3.78,39.44,-6.64,1.33,52.45,4.39,-0.79,-13.26
-5,0,242,-114,-523,3962,-0.12,0.26,13.15,-1.14,-5.23,39.62,-6.66,1.34,52.40,4.53,-0.96,-11.37
-3,8,272,-113,-475,3946,-0.13,0.28,13.50,-1.13,-4.75,39.46,-6.67,1.36,52.34,4.50,-1.14,-13.55
-5,10,298,11,-561,3862,-0.14,0.32,13.96,0.11,-5.61,38.62,-6.68,1.36,52.29,4.55,-1.19,-15.25
-12,13,290,-25,-500,3973,-0.20,0.36,14.34,-0.25,-5.00,39.73,-6.69,1.35,52.23,4.71,-1.26,-14.18
-1,8,247,43,-446,3889,-0.19,0.38,14.41,0.43,-4.46,38.89,-6.69,1.34,52.17,4.49,-1.15,-10.45
0,-12,170,113,-350,3929,-0.17,0.27,14.01,1.13,-3.50,39.29,-6.68,1.33,52.12,4.45,-0.71,-4.35
-4,24,168,-130,-573,3844,-0.18,0.39,13.63,-1.30,-5.73,38.44,-6.70,1.35,52.07,4.55,-1.48,-4.57
-5,5,186,-96,-477,4078,-0.19,0.38,13.40,-0.96,-4.77,40.78,-6.68,1.35,52.01,4.56,-1.09,-6.33
-3,-9,141,17,-490,3815,-0.19,0.29,12.92,0.17,-4.90,38.15,-6.68,1.34,51.96,4.52,-0.78,-3.02
0,14,161,-35,-596,3872,-0.17,0.34,12.61,-0.35,-5.96,38.72,-6.70,1.34,51.91,4.47,-1.26,-5.03
-2,-5,193,-7,-295,4015,-0.17,0.28,12.53,-0.07,-2.95,40.15,-6.68,1.34,51.86,4.50,-0.86,-7.83
1,-8,149,44,-298,3849,-0.14,0.20,12.18,0.44,-2.98,38.49,-6.67,1.33,51.81,4.42,-0.77,-4.46
5,3,115,53,-481,3893,-0.10,0.20,11.67,0.53,-4.81,38.93,-6.67,1.32,51.77,4.33,-0.99,-2.12
-1,6,124,-18,-556,3876,-0.09,0.22,11.26,-0.18,-5.56,38.76,-6.69,1.32,51.72,4.46,-1.05,-3.31
1,11,206,-43,-485,3971,-0.08,0.26,11.39,-0.43,-4.85,39.71,-6.69,1.31,51.68,4.42,-1.16,-10.11
9,8,188,-47,-388,3985,-0.02,0.28,11.40,-0.47,-3.88,39.85,-6.68,1.30,51.63,4.23,-1.10,-8.58
-4,-9,66,13,-381,3898,-0.04,0.20,10.66,0.13,-3.81,38.98,-6.66,1.29,51.59,4.49,-0.73,0.99
-6,-10,49,-24,-400,3917,-0.07,0.12,9.89,-0.24,-4.00,39.17,-6.65,1.29,51.55,4.53,-0.68,1.62
-1,-5,26,-30,-484,3931,-0.07,0.08,9.06,-0.30,-4.84,39.31,-6.66,1.27,51.51,4.43,-0.76,2.70
-3,-4,34,-43,-528,3893,-0.08,0.04,8.36,-0.43,-5.28,38.93,-6.67,1.27,51.48,4.49,-0.77,1.29
-4,19,157,-107,-601,3917,-0.10,0.16,8.48,-1.07,-6.01,39.17,-6.69,1.27,51.45,4.52,-1.27,-9.00
-7,10,170,-119,-431,3843,-0.13,0.20,8.67,-1.19,-4.31,38.43,-6.68,1.30,51.41,4.59,-1.11,-9.90
1,-6,48,16,-371,3968,-0.11,0.14,8.10,0.16,-3.71,39.68,-6.67,1.29,51.38,4.41,-0.77,-0.16
1,-9,32,-19,-408,3890,-0.09,0.08,7.48,-0.19,-4.08,38.90,-6.66,1.27,51.35,4.40,-0.68,0.55
1,-6,23,-39,-470,3927,-0.08,0.03,6.88,-0.39,-4.70,39.27,-6.66,1.26,51.32,4.40,-0.72,0.67
1,-5,41,-30,-527,3852,-0.06,-0.00,6.44,-0.30,-5.27,38.52,-6.68,1.25,51.30,4.40,-0.72,-1.31
-6,15,123,-120,-551,3944,-0.10,0.09,6.54,-1.20,-5.51,39.44,-6.69,1.26,51.27,4.57,-1.16,-8.14
1,16,143,-68,-540,3996,-0.08,0.18,6.76,-0.68,-5.40,39.96,-6.71,1.26,51.25,4.43,-1.21,-9.61
-5,4,173,25,-368,3978,-0.10,0.18,7.14,0.25,-3.68,39.78,-6.70,1.25,51.22,4.55,-0.96,-11.75
-2,-1,154,-25,-380,3868,-0.10,0.16,7.37,-0.25,-3.80,38.68,-6.68,1.24,51.19,4.48,-0.84,-9.90
-1,-4,92,-64,-415,3948,-0.10,0.12,7.19,-0.64,-4.15,39.48,-6.67,1.24,51.16,4.45,-0.77,-4.83
-1,-5,85,-63,-451,3919,-0.10,0.08,6.99,-0.63,-4.51,39.19,-6.66,1.23,51.13,4.44,-0.73,-4.44
5,11,166,-108,-491,4026,-0.06,0.14,7.30,-1.08,-4.91,40.26,-6.67,1.24,51.10,4.32,-1.08,-10.97
-2,5,181,-115,-472,3892,-0.06,0.15,7.68,-1.15,-4.72,38.92,-6.68,1.26,51.07,4.47,-0.98,-11.85
-6,-9,170,-9,-433,3903,-0.09,0.08,7.95,-0.09,-4.33,39.03,-6.68,1.25,51.04,4.55,-0.66,-10.63
-8,9,165,-110,-514,3897,-0.13,0.13,8.16,-1.10,-5.14,38.97,-6.69,1.26,51.01,4.62,-1.05,-9.98
-3,7,194,-74,-529,3895,-0.14,0.16,8.53,-0.74,-5.29,38.95,-6.71,1.26,50.98,4.53,-1.02,-12.05
-4,11,206,-116,-476,3882,-0.15,0.21,8.93,-1.16,-4.76,38.82,-6.72,1.28,50.94,4.56,-1.13,-12.63
-1,2,162,-46,-403,3942,-0.14,0.20,9.03,-0.46,-4.03,39.42,-6.71,1.28,50.90,4.48,-0.94,-8.80
-2,3,156,-45,-424,3880,-0.14,0.20,9.07,-0.45,-4.24,38.80,-6.69,1.27,50.87,4.50,-0.95,-8.24
-3,3,194,-66,-509,3884,-0.14,0.20,9.35,-0.66,-5.09,38.84,-6.71,1.27,50.83,4.53,-0.95,-11.17
2,4,189,-85,-462,3975,-0.12,0.20,9.57,-0.85,-4.62,39.75,-6.69,1.26,50.79,4.41,-0.97,-10.51
-5,1,167,-57,-480,3940,-0.13,0.19,9.63,-0.57,-4.80,39.40,-6.70,1.25,50.75,4.56,-0.90,-8.58
-3,9,173,-158,-488,3897,-0.14,0.22,9.72,-1.58,-4.88,38.97,-6.71,1.27,50.72,4.53,-1.09,-8.98
-5,0,167,-59,-460,3914,-0.16,0.20,9.77,-0.59,-4.60,39.14,-6.71,1.26,50.68,4.57,-0.89,-8.42
-7,6,196,-172,-475,3945,-0.18,0.22,9.99,-1.72,-4.75,39.45,-6.71,1.28,50.64,4.62,-1.03,-10.65
-7,18,225,-41,-489,3846,-0.21,0.31,10.36,-0.41,-4.89,38.46,-6.72,1.28,50.60,4.64,-1.29,-12.71
-6,5,215,75,-431,4048,-0.22,0.31,10.64,0.75,-4.31,40.48,-6.72,1.26,50.56,4.62,-1.02,-11.57
-4,-1,199,-115,-503,3921,-0.23,0.27,10.79,-1.15,-5.03,39.21,-6.73,1.28,50.51,4.59,-0.90,-10.05
2,4,201,20,-403,3930,-0.19,0.27,10.93,0.20,-4.03,39.30,-6.72,1.27,50.47,4.45,-0.99,-10.06
-7,39,256,-154,-635,3818,-0.21,0.48,11.40,-1.54,-6.35,38.18,-6.74,1.29,50.42,4.65,-1.77,-14.22
0,10,277,-13,-534,4056,-0.19,0.49,11.95,-0.13,-5.34,40.56,-6.75,1.28,50.38,4.51,-1.18,-15.42
1,-1,196,-4,-464,3878,-0.17,0.44,11.95,-0.04,-4.64,38.78,-6.75,1.27,50.33,4.48,-0.93,-8.55
3,8,193,-44,-480,3886,-0.13,0.44,11.93,-0.44,-4.80,38.86,-6.76,1.26,50.28,4.44,-1.11,-8.31
10,-4,100,23,-413,3948,-0.06,0.37,11.35,0.23,-4.13,39.48,-6.75,1.25,50.24,4.27,-0.84,-1.04
4,-7,95,-137,-370,3945,-0.03,0.29,10.80,-1.37,-3.70,39.45,-6.73,1.26,50.20,4.37,-0.77,-1.20
-3,1,206,30,-528,3917,-0.04,0.27,10.97,0.30,-5.28,39.17,-6.74,1.25,50.15,4.52,-0.92,-10.41
-10,21,221,0,-567,3780,-0.10,0.37,11.22,0.00,-5.67,37.80,-6.76,1.25,50.11,4.69,-1.35,-11.42
2,5,188,5,-400,3865,-0.08,0.36,11.25,0.05,-4.00,38.65,-6.75,1.24,50.06,4.43,-1.02,-8.59
-3,-1,152,123,-271,3934,-0.09,0.32,11.05,1.23,-2.71,39.34,-6.73,1.23,50.02,4.53,-0.88,-5.74
-9,-6,106,-126,-408,3926,-0.13,0.25,10.59,-1.26,-4.08,39.26,-6.72,1.25,49.98,4.65,-0.77,-2.33
-8,1,134,-147,-408,3913,-0.17,0.23,10.35,-1.47,-4.08,39.13,-6.71,1.27,49.94,4.63,-0.92,-4.95
-5,-10,134,123,-430,3927,-0.18,0.15,10.13,1.23,-4.30,39.27,-6.70,1.26,49.90,4.58,-0.67,-5.18
-1,-7,106,94,-420,3904,-0.17,0.09,9.77,0.94,-4.20,39.04,-6.70,1.24,49.86,4.49,-0.70,-3.19
0,2,98,-70,-461,3919,-0.15,0.09,9.39,-0.70,-4.61,39.19,-6.70,1.23,49.82,4.46,-0.88,-2.90
-3,5,123,-127,-517,3905,-0.16,0.12,9.20,-1.27,-5.17,39.05,-6.71,1.25,49.78,4.53,-0.96,-5.22
2,3,103,59,-381,3951,-0.13,0.12,8.91,0.59,-3.81,39.51,-6.70,1.23,49.75,4.42,-0.91,-3.83
2,-1,68,40,-438,3903,-0.10,0.10,8.43,0.40,-4.38,39.03,-6.70,1.22,49.71,4.41,-0.81,-1.36
0,-1,23,-39,-470,3903,-0.09,0.09,7.73,-0.39,-4.70,39.03,-6.70,1.21,49.68,4.45,-0.80,1.72
1,-4,24,-49,-464,3930,-0.08,0.05,7.10,-0.49,-4.64,39.30,-6.71,1.19,49.66,4.43,-0.72,0.98
-3,0,76,-59,-511,3943,-0.09,0.05,6.86,-0.59,-5.11,39.43,-6.72,1.19,49.63,4.52,-0.80,-3.69
-5,-1,90,-36,-494,3904,-0.11,0.04,6.72,-0.36,-4.94,39.04,-6.73,1.18,49.60,4.58,-0.77,-5.02
-3,-2,87,-13,-409,3933,-0.12,0.02,6.58,-0.13,-4.09,39.33,-6.72,1.17,49.58,4.53,-0.73,-4.91
-1,-1,62,-13,-434,3916,-0.11,0.01,6.30,-0.13,-4.34,39.16,-6.71,1.15,49.55,4.48,-0.74,-3.08
0,-1,62,-57,-506,3920,-0.10,0.01,6.05,-0.57,-5.06,39.20,-6.73,1.15,49.53,4.47,-0.74,-3.34
1,6,97,-63,-573,3907,-0.08,0.04,6.03,-0.63,-5.73,39.07,-6.75,1.15,49.50,4.46,-0.89,-6.32
0,3,120,-37,-466,3908,-0.08,0.06,6.16,-0.37,-4.66,39.08,-6.75,1.13,49.48,4.48,-0.82,-8.13
0,4,108,-33,-416,3957,-0.07,0.08,6.20,-0.33,-4.16,39.57,-6.74,1.12,49.45,4.46,-0.84,-7.07
1,-4,37,-52,-434,3922,-0.06,0.04,5.81,-0.52,-4.34,39.22,-6.72,1.11,49.43,4.43,-0.67,-1.47
1,-4,30,-52,-454,3912,-0.04,0.01,5.41,-0.52,-4.54,39.12,-6.72,1.10,49.41,4.42,-0.65,-1.29
-6,6,78,-128,-526,3907,-0.08,0.05,5.35,-1.28,-5.26,39.07,-6.73,1.11,49.39,4.58,-0.87,-5.42
-10,13,114,-153,-532,3891,-0.13,0.12,5.51,-1.53,-5.32,38.91,-6.74,1.13,49.37,4.69,-1.04,-8.30
8,5,47,14,-378,3937,-0.07,0.14,5.24,0.14,-3.78,39.37,-6.73,1.12,49.35,4.30,-0.88,-2.90
6,5,25,-17,-466,3892,-0.02,0.16,4.87,-0.17,-4.66,38.92,-6.73,1.10,49.33,4.33,-0.87,-1.43
12,13,-10,-84,-491,3922,0.05,0.22,4.32,-0.84,-4.91,39.22,-6.75,1.11,49.31,4.20,-1.06,0.96
13,17,-2,-79,-415,3938,0.13,0.30,3.88,-0.79,-4.15,39.38,-6.73,1.11,49.29,4.14,-1.16,-0.18
3,6,-17,-164,-381,3910,0.13,0.31,3.39,-1.64,-3.81,39.10,-6.72,1.13,49.28,4.34,-0.95,0.57
-3,3,-10,-196,-349,3920,0.10,0.30,2.99,-1.96,-3.49,39.20,-6.70,1.15,49.27,4.46,-0.90,-0.44
-14,-10,4,-40,-318,3913,0.00,0.21,2.71,-0.40,-3.18,39.13,-6.69,1.14,49.26,4.70,-0.61,-1.92
-13,-12,2,50,-397,3863,-0.08,0.11,2.45,0.50,-3.97,38.63,-6.68,1.13,49.25,4.69,-0.53,-2.02
-10,-5,-1,35,-505,3894,-0.13,0.07,2.20,0.35,-5.05,38.94,-6.69,1.11,49.24,4.65,-0.65,-2.03
-5,0,-4,-42,-473,3937,-0.15,0.06,1.96,-0.42,-4.73,39.37,-6.69,1.10,49.23,4.56,-0.74,-2.03
1,2,-3,19,-574,3843,-0.13,0.07,1.74,0.19,-5.74,38.43,-6.71,1.09,49.22,4.44,-0.78,-2.34
2,2,1,23,-538,3820,-0.10,0.07,1.58,0.23,-5.38,38.20,-6.72,1.07,49.22,4.42,-0.77,-2.86
-3,-2,16,-63,-461,3956,-0.11,0.06,1.52,-0.63,-4.61,39.56,-6.71,1.06,49.21,4.52,-0.67,-4.19
2,-2,11,-92,-470,3951,-0.09,0.04,1.43,-0.92,-4.70,39.51,-6.72,1.08,49.21,4.42,-0.68,-3.85
-1,-2,21,-46,-480,3918,-0.08,0.02,1.42,-0.46,-4.80,39.18,-6.73,1.06,49.20,4.48,-0.67,-4.72
-2,-2,24,-16,-495,3909,-0.09,0.01,1.42,-0.16,-4.95,39.09,-6.74,1.05,49.20,4.51,-0.65,-4.96
-1,-1,27,-18,-467,3930,-0.08,0.00,1.44,-0.18,-4.67,39.30,-6.74,1.03,49.19,4.49,-0.66,-5.19
-2,-2,27,-25,-475,3946,-0.09,-0.01,1.46,-0.25,-4.75,39.46,-6.74,1.01,49.18,4.51,-0.62,-5.17
0,-2,21,22,-500,3901,-0.08,-0.02,1.45,0.22,-5.00,39.01,-6.75,1.00,49.18,4.48,-0.61,-4.68
1,0,17,4,-496,3909,-0.07,-0.02,1.40,0.04,-4.96,39.09,-6.76,0.98,49.17,4.46,-0.64,-4.39
-1,-1,5,-18,-470,3900,-0.07,-0.02,1.29,-0.18,-4.70,39.00,-6.76,0.96,49.17,4.50,-0.61,-3.49
-2,-1,3,-21,-469,3919,-0.07,-0.03,1.18,-0.21,-4.69,39.19,-6.76,0.95,49.16,4.52,-0.60,-3.43
-1,-6,-1,-33,-467,3916,-0.07,-0.06,1.06,-0.33,-4.67,39.16,-6.76,0.93,49.16,4.50,-0.47,-3.22
-3,-8,-2,-36,-472,3906,-0.08,-0.10,0.94,-0.36,-4.72,39.06,-6.77,0.91,49.16,4.55,-0.41,-3.26
-8,-8,-7,-25,-450,3946,-0.12,-0.14,0.80,-0.25,-4.50,39.46,-6.76,0.89,49.15,4.66,-0.39,-2.98
-8,-8,-8,-47,-467,3888,-0.16,-0.18,0.67,-0.47,-4.67,38.88,-6.77,0.88,49.15,4.67,-0.37,-3.03
-5,-3,-10,-34,-466,3918,-0.17,-0.18,0.55,-0.34,-4.66,39.18,-6.77,0.86,49.15,4.62,-0.46,-3.00
-6,-4,-10,-38,-467,3905,-0.19,-0.18,0.43,-0.38,-4.67,39.05,-6.78,0.84,49.15,4.65,-0.42,-3.12
-4,-1,-8,-42,-465,3914,-0.20,-0.17,0.34,-0.42,-4.65,39.14,-6.78,0.82,49.14,4.61,-0.47,-3.39
-3,-2,-6,-32,-462,3913,-0.20,-0.17,0.27,-0.32,-4.62,39.13,-6.77,0.80,49.14,4.59,-0.44,-3.63
-3,-2,-7,-46,-466,3925,-0.19,-0.16,0.20,-0.46,-4.66,39.25,-6.77,0.78,49.14,4.59,-0.43,-3.62
-3,-2,-6,-40,-464,3927,-0.19,-0.16,0.14,-0.40,-4.64,39.27,-6.77,0.76,49.14,4.58,-0.42,-3.76
-3,-2,-5,-47,-471,3910,-0.19,-0.16,0.10,-0.47,-4.71,39.10,-6.79,0.75,49.14,4.59,-0.41,-3.90
-3,-2,-3,-45,-469,3913,-0.19,-0.15,0.07,-0.45,-4.69,39.13,-6.80,0.73,49.14,4.60,-0.40,-4.10
0,1,-3,-46,-474,3920,-0.17,-0.13,0.04,-0.46,-4.74,39.20,-6.81,0.72,49.14,4.54,-0.46,-4.12
1,1,-2,-48,-475,3915,-0.15,-0.11,0.03,-0.48,-4.75,39.15,-6.83,0.72,49.14,4.53,-0.46,-4.22
0,3,-3,-54,-464,3918,-0.13,-0.08,0.01,-0.54,-4.64,39.18,-6.82,0.73,49.14,4.54,-0.52,-4.16
-4,0,-3,-52,-442,3899,-0.15,-0.07,-0.01,-0.52,-4.42,38.99,-6.80,0.73,49.14,4.61,-0.46,-4.18
-1,2,-3,-35,-468,3936,-0.14,-0.05,-0.03,-0.35,-4.68,39.36,-6.80,0.71,49.14,4.54,-0.50,-4.20
1,2,-3,-36,-475,3923,-0.12,-0.04,-0.04,-0.36,-4.75,39.23,-6.81,0.70,49.14,4.50,-0.49,-4.22
2,6,-5,-47,-475,3935,-0.09,0.00,-0.07,-0.47,-4.75,39.35,-6.83,0.69,49.14,4.49,-0.58,-4.07
5,7,-5,-52,-472,3931,-0.05,0.05,-0.09,-0.52,-4.72,39.31,-6.83,0.71,49.14,4.42,-0.62,-4.10
4,8,-6,-50,-470,3905,-0.02,0.09,-0.12,-0.50,-4.70,39.05,-6.85,0.72,49.14,4.44,-0.66,-4.04
4,8,-6,-47,-463,3920,0.00,0.13,-0.15,-0.47,-4.63,39.20,-6.83,0.71,49.14,4.43,-0.67,-4.07
11,10,-1,-59,-490,3907,0.07,0.18,-0.14,-0.59,-4.90,39.07,-6.85,0.72,49.14,4.28,-0.73,-4.48
5,6,0,-24,-455,3943,0.09,0.20,-0.12,-0.24,-4.55,39.43,-6.84,0.71,49.14,4.38,-0.64,-4.55
4,4,-1,-37,-468,3930,0.11,0.20,-0.12,-0.37,-4.68,39.30,-6.83,0.69,49.14,4.40,-0.59,-4.46
4,4,-2,-34,-479,3925,0.12,0.21,-0.12,-0.34,-4.79,39.25,-6.84,0.68,49.15,4.40,-0.58,-4.38
2,3,-4,-21,-470,3909,0.12,0.20,-0.13,-0.21,-4.70,39.09,-6.84,0.66,49.15,4.44,-0.55,-4.22
2,2,-6,-38,-454,3907,0.12,0.20,-0.15,-0.38,-4.54,39.07,-6.82,0.65,49.15,4.43,-0.52,-4.08
1,1,-3,-48,-465,3914,0.12,0.18,-0.16,-0.48,-4.65,39.14,-6.81,0.66,49.15,4.44,-0.51,-4.33
0,0,-1,-42,-464,3904,0.10,0.16,-0.15,-0.42,-4.64,39.04,-6.80,0.65,49.15,4.46,-0.47,-4.49
-1,-2,0,-44,-470,3916,0.09,0.14,-0.13,-0.44,-4.70,39.16,-6.82,0.65,49.15,4.50,-0.42,-4.56
-2,-2,-1,-41,-466,3929,0.07,0.11,-0.13,-0.41,-4.66,39.29,-6.80,0.63,49.15,4.51,-0.41,-4.47
1,-1,-4,-41,-466,3917,0.07,0.09,-0.14,-0.41,-4.66,39.17,-6.80,0.62,49.15,4.45,-0.41,-4.23
0,-1,-5,-32,-468,3919,0.06,0.08,-0.15,-0.32,-4.68,39.19,-6.80,0.60,49.15,4.47,-0.40,-4.16
1,-2,-5,-54,-485,3924,0.06,0.06,-0.17,-0.54,-4.85,39.24,-6.81,0.61,49.15,4.46,-0.38,-4.18
1,-1,-5,-47,-478,3924,0.06,0.05,-0.18,-0.47,-4.78,39.24,-6.83,0.62,49.15,4.47,-0.40,-4.19
2,-1,-5,-50,-474,3921,0.07,0.03,-0.19,-0.50,-4.74,39.21,-6.84,0.63,49.15,4.45,-0.41,-4.21
2,-1,-4,-58,-468,3926,0.07,0.03,-0.20,-0.58,-4.68,39.26,-6.83,0.65,49.15,4.45,-0.42,-4.30
6,8,-11,-56,-452,3937,0.10,0.07,-0.25,-0.56,-4.52,39.37,-6.82,0.66,49.15,4.35,-0.62,-3.75
-6,-1,-11,16,-469,3955,0.05,0.06,-0.29,0.16,-4.69,39.55,-6.82,0.64,49.16,4.61,-0.42,-3.80
4,-21,-38,-13,-379,3989,0.07,-0.08,-0.49,-0.13,-3.79,39.89,-6.80,0.64,49.16,4.39,0.03,-1.72
8,-12,-68,-96,-471,3931,0.11,-0.14,-0.86,-0.96,-4.71,39.31,-6.80,0.65,49.16,4.29,-0.15,0.43
-3,-6,-26,-61,-490,3897,0.09,-0.16,-0.93,-0.61,-4.90,38.97,-6.81,0.66,49.16,4.53,-0.27,-3.20
-2,-4,-17,-38,-494,3907,0.06,-0.17,-0.94,-0.38,-4.94,39.07,-6.83,0.66,49.17,4.53,-0.31,-3.98
-3,-3,-14,-46,-444,3926,0.04,-0.17,-0.93,-0.46,-4.44,39.26,-6.81,0.66,49.17,4.55,-0.33,-4.22
-2,-11,-25,-1,-400,3969,0.02,-0.22,-0.99,-0.01,-4.00,39.69,-6.80,0.65,49.18,4.52,-0.14,-3.35
2,-8,-57,-46,-487,3917,0.03,-0.25,-1.24,-0.46,-4.87,39.17,-6.81,0.65,49.18,4.45,-0.20,-0.90
-3,-7,-55,-71,-523,3923,0.01,-0.27,-1.45,-0.71,-5.23,39.23,-6.83,0.65,49.19,4.57,-0.22,-1.30
-1,1,-32,-55,-498,3907,0.00,-0.23,-1.50,-0.55,-4.98,39.07,-6.85,0.66,49.19,4.54,-0.39,-3.30
-1,2,-31,-41,-492,3916,-0.00,-0.20,-1.54,-0.41,-4.92,39.16,-6.87,0.65,49.20,4.55,-0.42,-3.42
2,2,-50,-28,-475,3911,0.01,-0.17,-1.69,-0.28,-4.75,39.11,-6.87,0.63,49.20,4.49,-0.41,-1.97
1,3,-41,-114,-454,3918,0.02,-0.13,-1.77,-1.14,-4.54,39.18,-6.87,0.65,49.21,4.51,-0.45,-2.82
-1,0,-19,-55,-451,3921,0.01,-0.12,-1.71,-0.55,-4.51,39.21,-6.85,0.66,49.22,4.54,-0.40,-4.62
-1,1,-18,-40,-454,3911,0.00,-0.10,-1.65,-0.40,-4.54,39.11,-6.83,0.65,49.22,4.53,-0.42,-4.64
-4,-3,-18,-28,-456,3921,-0.02,-0.11,-1.59,-0.28,-4.56,39.21,-6.82,0.63,49.23,4.59,-0.33,-4.58
-5,-3,-17,-31,-460,3910,-0.05,-0.12,-1.54,-0.31,-4.60,39.10,-6.81,0.62,49.24,4.61,-0.31,-4.61
-2,-1,-13,-49,-465,3925,-0.06,-0.11,-1.46,-0.49,-4.65,39.25,-6.80,0.63,49.24,4.55,-0.37,-4.87
-1,0,-13,-49,-455,3925,-0.06,-0.10,-1.40,-0.49,-4.55,39.25,-6.79,0.64,49.25,4.52,-0.39,-4.80
11,18,-21,-51,-479,3929,0.01,0.02,-1.39,-0.51,-4.79,39.29,-6.80,0.65,49.25,4.26,-0.80,-4.11
17,13,-39,-7,-379,4035,0.12,0.10,-1.48,-0.07,-3.79,40.35,-6.78,0.64,49.26,4.10,-0.71,-2.69
17,-1,-141,-31,-374,3839,0.21,0.08,-2.20,-0.31,-3.74,38.39,-6.77,0.64,49.27,4.06,-0.42,5.20
8,5,-115,-91,-516,3906,0.24,0.10,-2.68,-0.91,-5.16,39.06,-6.78,0.65,49.28,4.25,-0.56,2.49
-12,-18,-84,-56,-322,3883,0.14,-0.02,-2.92,-0.56,-3.22,38.83,-6.76,0.65,49.29,4.67,-0.06,-0.40
-10,-19,-99,-54,-374,3933,0.06,-0.13,-3.23,-0.54,-3.74,39.33,-6.74,0.65,49.30,4.64,-0.01,0.54
-3,2,-110,-22,-597,3936,0.04,-0.11,-3.58,-0.22,-5.97,39.36,-6.76,0.64,49.32,4.51,-0.44,1.11
3,6,-99,-36,-576,3919,0.05,-0.06,-3.83,-0.36,-5.76,39.19,-6.78,0.64,49.33,4.40,-0.53,-0.08
13,14,-134,32,-427,3906,0.13,0.03,-4.26,0.32,-4.27,39.06,-6.77,0.62,49.35,4.17,-0.70,2.42
4,8,-165,15,-473,3903,0.14,0.08,-4.84,0.15,-4.73,39.03,-6.77,0.60,49.37,4.35,-0.58,4.44
10,-2,-151,-48,-453,3894,0.19,0.06,-5.28,-0.48,-4.53,38.94,-6.76,0.61,49.39,4.21,-0.38,2.79
3,-4,-135,-72,-525,3884,0.19,0.03,-5.58,-0.72,-5.25,38.84,-6.77,0.61,49.41,4.36,-0.33,1.12
-4,-2,-49,-50,-460,3899,0.14,0.01,-5.32,-0.50,-4.60,38.99,-6.77,0.63,49.43,4.51,-0.38,-5.90
-5,-11,-58,7,-411,3946,0.10,-0.06,-5.14,0.07,-4.11,39.46,-6.75,0.61,49.45,4.53,-0.17,-4.95
-3,-14,-104,-55,-435,3974,0.07,-0.14,-5.26,-0.55,-4.35,39.74,-6.73,0.62,49.47,4.49,-0.09,-1.18
-5,-18,-111,-43,-418,3938,0.03,-0.23,-5.41,-0.43,-4.18,39.38,-6.72,0.61,49.49,4.53,0.02,-0.75
-8,0,-114,-76,-618,3952,-0.02,-0.21,-5.56,-0.76,-6.18,39.52,-6.73,0.61,49.52,4.61,-0.35,-0.66
-4,-1,-81,-72,-524,3904,-0.04,-0.19,-5.50,-0.72,-5.24,39.04,-6.75,0.62,49.54,4.55,-0.34,-3.39
-1,1,-106,12,-394,3896,-0.04,-0.17,-5.60,0.12,-3.94,38.96,-6.74,0.60,49.56,4.48,-0.37,-1.37
5,-7,-150,46,-326,4002,-0.01,-0.19,-5.95,0.46,-3.26,40.02,-6.72,0.59,49.58,4.34,-0.19,1.98
-1,-19,-285,-36,-443,3948,-0.01,-0.29,-7.10,-0.36,-4.43,39.48,-6.71,0.58,49.61,4.45,0.08,12.21
4,-22,-301,9,-384,3968,0.01,-0.40,-8.22,0.09,-3.84,39.68,-6.69,0.57,49.64,4.33,0.18,12.38
1,-14,-332,-22,-464,3977,0.02,-0.44,-9.43,-0.22,-4.64,39.77,-6.69,0.54,49.68,4.39,0.05,13.73
2,-15,-342,-63,-545,3866,0.03,-0.49,-10.57,-0.63,-5.45,38.66,-6.71,0.54,49.72,4.38,0.08,13.37
2,-12,-373,-2,-466,3925,0.04,-0.51,-11.79,-0.02,-4.66,39.25,-6.71,0.52,49.77,4.38,0.04,14.71
0,-10,-373,-88,-529,3943,0.03,-0.52,-12.88,-0.88,-5.29,39.43,-6.72,0.52,49.82,4.43,0.00,13.55
5,-20,-329,48,-406,3937,0.06,-0.59,-13.60,0.48,-4.06,39.37,-6.71,0.49,49.88,4.31,0.24,9.06
3,-20,-321,-49,-585,3843,0.07,-0.66,-14.20,-0.49,-5.85,38.43,-6.73,0.49,49.93,4.36,0.26,7.75
