gyroADC_X,gyroADC_Y,gyroADC_Z,accADC_X,accADC_Y,accADC_Z,GyroX,GyroY,GyroZ,AccX,AccY,AccZ,roll_IMU,pitch_IMU,yaw_IMU,roll_PID,pitch_PID,yaw_PID
5,7,-143,-70,-326,3960,0.05,-0.08,-13.20,-0.70,-3.26,39.60,-3.35,-1.54,103.39,2.09,0.90,-11.17
2,4,-172,-12,-345,3912,0.06,-0.05,-12.93,-0.12,-3.45,39.12,-3.36,-1.53,103.44,2.16,0.94,-8.43
3,-3,-140,27,-293,3913,0.07,-0.06,-12.49,0.27,-2.93,39.13,-3.37,-1.52,103.49,2.14,1.08,-10.68
2,-4,-135,-5,-322,3877,0.08,-0.08,-12.07,-0.05,-3.22,38.77,-3.38,-1.51,103.54,2.17,1.10,-10.66
0,-1,-95,-8,-280,3931,0.07,-0.08,-11.44,-0.08,-2.80,39.31,-3.38,-1.50,103.59,2.22,1.03,-13.39
0,0,-84,-45,-280,3917,0.06,-0.07,-10.81,-0.45,-2.80,39.17,-3.39,-1.48,103.63,2.22,1.00,-13.65
-1,5,-82,-50,-358,3943,0.05,-0.03,-10.23,-0.50,-3.58,39.43,-3.40,-1.47,103.67,2.25,0.88,-13.21
-2,3,-82,-24,-326,3957,0.03,-0.01,-9.70,-0.24,-3.26,39.57,-3.41,-1.46,103.71,2.28,0.91,-12.66
5,4,-87,-59,-303,3896,0.06,0.02,-9.26,-0.59,-3.03,38.96,-3.42,-1.45,103.75,2.14,0.87,-11.78
-1,-1,-105,5,-323,3926,0.05,0.01,-8.98,0.05,-3.23,39.26,-3.43,-1.43,103.78,2.27,0.97,-9.95
-3,-7,-106,5,-331,3923,0.02,-0.04,-8.73,0.05,-3.31,39.23,-3.44,-1.42,103.82,2.32,1.09,-9.60
10,4,-77,-59,-292,3902,0.08,-0.01,-8.32,-0.59,-2.92,39.02,-3.44,-1.41,103.85,2.05,0.85,-11.64
7,5,-71,-67,-335,3913,0.12,0.02,-7.93,-0.67,-3.35,39.13,-3.45,-1.40,103.88,2.10,0.81,-11.73
-2,-2,-80,-24,-346,3948,0.09,0.01,-7.62,-0.24,-3.46,39.48,-3.46,-1.38,103.91,2.30,0.95,-10.64
0,-4,-83,-37,-326,3909,0.08,-0.02,-7.36,-0.37,-3.26,39.09,-3.47,-1.37,103.94,2.27,0.99,-10.12
2,-2,-100,18,-284,3946,0.09,-0.03,-7.24,0.18,-2.84,39.46,-3.48,-1.36,103.97,2.23,0.94,-8.55
4,3,-107,-4,-284,3911,0.10,-0.01,-7.17,-0.04,-2.84,39.11,-3.49,-1.34,104.00,2.19,0.83,-7.88
-8,-5,-107,39,-229,3930,0.04,-0.04,-7.10,0.39,-2.29,39.30,-3.48,-1.32,104.03,2.45,0.99,-7.82
-3,-11,-65,40,-225,3918,0.02,-0.10,-6.79,0.40,-2.25,39.18,-3.48,-1.31,104.05,2.35,1.11,-11.05
-2,-13,-44,-59,-327,3942,0.01,-0.17,-6.38,-0.59,-3.27,39.42,-3.49,-1.30,104.08,2.34,1.17,-12.39
-3,-10,-44,-46,-311,3951,-0.01,-0.21,-6.01,-0.46,-3.11,39.51,-3.49,-1.28,104.10,2.37,1.11,-12.00
-2,0,-28,-40,-337,3929,-0.02,-0.19,-5.58,-0.40,-3.37,39.29,-3.51,-1.27,104.12,2.36,0.89,-12.91
-2,0,-28,-45,-340,3919,-0.03,-0.17,-5.19,-0.45,-3.40,39.19,-3.52,-1.26,104.14,2.37,0.88,-12.50
3,0,-40,-46,-298,3925,-0.01,-0.16,-4.92,-0.46,-2.98,39.25,-3.52,-1.24,104.16,2.27,0.86,-11.19
0,-1,-45,-27,-269,3913,-0.01,-0.15,-4.70,-0.27,-2.69,39.13,-3.53,-1.23,104.18,2.33,0.87,-10.54
0,0,-41,40,-299,3916,-0.01,-0.13,-4.48,0.40,-2.99,39.16,-3.54,-1.22,104.20,2.34,0.84,-10.65
1,-1,-35,28,-300,3915,-0.00,-0.12,-4.25,0.28,-3.00,39.15,-3.55,-1.20,104.22,2.33,0.85,-10.91
-4,-5,-36,-26,-278,3917,-0.03,-0.14,-4.04,-0.26,-2.78,39.17,-3.56,-1.19,104.23,2.44,0.93,-10.61
-2,-5,-35,-19,-293,3927,-0.04,-0.16,-3.85,-0.19,-2.93,39.27,-3.57,-1.17,104.25,2.40,0.92,-10.49
0,1,-44,-72,-309,3934,-0.03,-0.14,-3.73,-0.72,-3.09,39.34,-3.57,-1.16,104.26,2.37,0.78,-9.61
3,2,-45,-84,-301,3945,-0.01,-0.11,-3.63,-0.84,-3.01,39.45,-3.58,-1.14,104.28,2.30,0.74,-9.42
-6,8,-43,18,-320,3919,-0.05,-0.05,-3.53,0.18,-3.20,39.19,-3.59,-1.13,104.29,2.51,0.60,-9.48
-2,6,-36,66,-331,3930,-0.05,-0.01,-3.40,0.66,-3.31,39.30,-3.61,-1.13,104.30,2.44,0.63,-9.94
3,0,-12,75,-298,3924,-0.03,-0.01,-3.13,0.75,-2.98,39.24,-3.63,-1.13,104.32,2.34,0.75,-11.69
3,-2,-9,25,-316,3929,-0.01,-0.02,-2.87,0.25,-3.16,39.29,-3.64,-1.12,104.33,2.35,0.79,-11.67
2,0,-6,-27,-312,3917,0.00,-0.02,-2.62,-0.27,-3.12,39.17,-3.65,-1.10,104.34,2.37,0.73,-11.66
2,1,-5,-26,-307,3921,0.02,-0.01,-2.39,-0.26,-3.07,39.21,-3.66,-1.09,104.35,2.37,0.70,-11.50
0,3,-5,-15,-294,3914,0.01,0.01,-2.18,-0.15,-2.94,39.14,-3.67,-1.07,104.35,2.42,0.64,-11.28
-5,-2,-2,-37,-303,3905,-0.02,-0.00,-1.98,-0.37,-3.03,39.05,-3.68,-1.06,104.36,2.53,0.74,-11.32
0,-1,-23,-110,-329,3937,-0.02,-0.01,-1.92,-1.10,-3.29,39.37,-3.68,-1.04,104.37,2.44,0.71,-9.48
-3,-1,-34,-120,-300,3942,-0.03,-0.01,-1.94,-1.20,-3.00,39.42,-3.69,-1.02,104.38,2.50,0.70,-8.56
-2,0,-51,-44,-320,3933,-0.04,-0.01,-2.05,-0.44,-3.20,39.33,-3.70,-1.01,104.39,2.49,0.67,-7.25
-2,1,-46,2,-322,3925,-0.05,-0.01,-2.13,0.02,-3.22,39.25,-3.71,-1.00,104.39,2.50,0.64,-7.75
-1,0,-59,-137,-313,3912,-0.05,-0.01,-2.28,-1.37,-3.13,39.12,-3.72,-0.98,104.40,2.49,0.65,-6.81
-7,4,-67,-94,-282,3884,-0.09,0.02,-2.46,-0.94,-2.82,38.84,-3.72,-0.96,104.41,2.62,0.55,-6.32
-2,9,-48,-26,-293,3914,-0.09,0.07,-2.50,-0.26,-2.93,39.14,-3.73,-0.95,104.42,2.53,0.42,-7.98
-4,9,-55,-64,-269,3901,-0.11,0.12,-2.59,-0.64,-2.69,39.01,-3.73,-0.93,104.43,2.57,0.40,-7.48
0,5,-30,104,-312,3929,-0.10,0.14,-2.51,1.04,-3.12,39.29,-3.74,-0.94,104.44,2.50,0.48,-9.52
2,3,-23,82,-314,3913,-0.07,0.14,-2.40,0.82,-3.14,39.13,-3.76,-0.94,104.45,2.46,0.52,-10.00
0,4,-3,25,-300,3937,-0.07,0.15,-2.18,0.25,-3.00,39.37,-3.78,-0.93,104.46,2.51,0.49,-11.46
0,5,-1,-1,-315,3929,-0.06,0.17,-1.97,-0.01,-3.15,39.29,-3.79,-0.92,104.47,2.52,0.46,-11.40
4,8,-1,-25,-314,3914,-0.03,0.20,-1.78,-0.25,-3.14,39.14,-3.80,-0.90,104.48,2.43,0.38,-11.20
4,8,-1,-2,-325,3920,-0.00,0.23,-1.61,-0.02,-3.25,39.20,-3.81,-0.89,104.48,2.43,0.36,-11.02
3,3,0,-6,-322,3906,0.02,0.22,-1.45,-0.06,-3.22,39.06,-3.82,-0.87,104.49,2.46,0.45,-10.93
3,3,-1,-17,-311,3910,0.03,0.22,-1.31,-0.17,-3.11,39.10,-3.83,-0.86,104.49,2.46,0.44,-10.70
2,2,0,-19,-309,3929,0.04,0.21,-1.18,-0.19,-3.09,39.29,-3.84,-0.84,104.50,2.48,0.46,-10.65
0,2,0,-17,-312,3927,0.04,0.20,-1.06,-0.17,-3.12,39.27,-3.85,-0.82,104.50,2.53,0.45,-10.53
-3,0,3,-28,-309,3927,0.02,0.18,-0.93,-0.28,-3.09,39.27,-3.86,-0.81,104.50,2.60,0.48,-10.65
-2,1,2,-21,-310,3924,0.00,0.17,-0.83,-0.21,-3.10,39.24,-3.87,-0.79,104.51,2.59,0.46,-10.45
-1,0,1,-15,-315,3936,-0.00,0.15,-0.74,-0.15,-3.15,39.36,-3.88,-0.78,104.51,2.58,0.47,-10.27
0,-1,1,-20,-320,3935,-0.00,0.13,-0.66,-0.20,-3.20,39.35,-3.89,-0.76,104.51,2.57,0.49,-10.19
0,-1,-1,-35,-321,3923,-0.00,0.11,-0.60,-0.35,-3.21,39.23,-3.90,-0.75,104.52,2.57,0.48,-9.96
0,0,-2,-29,-328,3931,-0.00,0.10,-0.55,-0.29,-3.28,39.31,-3.91,-0.73,104.52,2.58,0.45,-9.82
1,1,-4,-24,-317,3928,0.00,0.10,-0.52,-0.24,-3.17,39.28,-3.92,-0.72,104.52,2.57,0.43,-9.62
0,0,-4,-24,-322,3919,0.00,0.09,-0.49,-0.24,-3.22,39.19,-3.93,-0.70,104.52,2.59,0.44,-9.59
-1,0,0,-33,-313,3924,-0.00,0.08,-0.44,-0.33,-3.13,39.24,-3.94,-0.68,104.52,2.62,0.43,-9.88
-2,0,1,-21,-321,3929,-0.02,0.07,-0.39,-0.21,-3.21,39.29,-3.95,-0.67,104.52,2.65,0.42,-9.91
-1,-1,-3,-27,-293,3917,-0.02,0.06,-0.37,-0.27,-2.93,39.17,-3.96,-0.65,104.53,2.64,0.43,-9.55
1,0,-3,-20,-290,3914,-0.01,0.05,-0.35,-0.20,-2.90,39.14,-3.96,-0.63,104.53,2.60,0.40,-9.53
1,1,-3,-14,-304,3922,-0.00,0.05,-0.34,-0.14,-3.04,39.22,-3.97,-0.62,104.53,2.60,0.37,-9.51
1,0,-2,-26,-306,3923,0.00,0.05,-0.32,-0.26,-3.06,39.23,-3.98,-0.60,104.53,2.60,0.38,-9.57
1,2,-2,-31,-311,3929,0.01,0.05,-0.30,-0.31,-3.11,39.29,-3.99,-0.58,104.53,2.61,0.33,-9.55
1,2,-3,-29,-319,3927,0.01,0.06,-0.28,-0.29,-3.19,39.27,-4.00,-0.57,104.53,2.61,0.32,-9.45
2,2,-1,-33,-323,3937,0.02,0.07,-0.26,-0.33,-3.23,39.37,-4.01,-0.55,104.53,2.60,0.31,-9.60
2,2,-1,-36,-323,3923,0.03,0.07,-0.24,-0.36,-3.23,39.23,-4.02,-0.54,104.53,2.60,0.29,-9.58
1,1,0,-27,-330,3925,0.04,0.07,-0.22,-0.27,-3.30,39.25,-4.03,-0.52,104.53,2.63,0.31,-9.64
0,0,-1,-31,-322,3919,0.03,0.06,-0.20,-0.31,-3.22,39.19,-4.04,-0.51,104.54,2.66,0.32,-9.54
1,0,-3,-13,-313,3896,0.04,0.06,-0.20,-0.13,-3.13,38.96,-4.05,-0.49,104.54,2.64,0.31,-9.37
5,0,-5,-11,-302,3907,0.06,0.05,-0.21,-0.11,-3.02,39.07,-4.06,-0.48,104.54,2.56,0.30,-9.21
3,-1,-6,-12,-302,3917,0.07,0.04,-0.23,-0.12,-3.02,39.17,-4.07,-0.46,104.54,2.60,0.31,-9.14
-5,3,-7,19,-241,3824,0.04,0.06,-0.25,0.19,-2.41,38.24,-4.05,-0.45,104.54,2.76,0.22,-9.08
-2,7,-15,-14,-313,3933,0.02,0.09,-0.31,-0.14,-3.13,39.33,-4.06,-0.44,104.54,2.72,0.12,-8.47
1,4,-12,-32,-338,3936,0.02,0.11,-0.36,-0.32,-3.38,39.36,-4.07,-0.43,104.54,2.66,0.17,-8.77
-3,-1,-1,-42,-315,3916,0.00,0.09,-0.33,-0.42,-3.15,39.16,-4.08,-0.41,104.54,2.75,0.27,-9.67
-4,0,0,-27,-306,3918,-0.02,0.08,-0.29,-0.27,-3.06,39.18,-4.09,-0.39,104.54,2.79,0.24,-9.72
-4,-1,1,-32,-318,3920,-0.04,0.07,-0.26,-0.32,-3.18,39.20,-4.10,-0.38,104.55,2.80,0.25,-9.77
-2,0,0,-31,-317,3924,-0.05,0.06,-0.23,-0.31,-3.17,39.24,-4.11,-0.36,104.55,2.77,0.22,-9.65
1,-2,-2,-29,-333,3912,-0.04,0.04,-0.22,-0.29,-3.33,39.12,-4.12,-0.35,104.55,2.71,0.26,-9.47
0,-1,-2,-29,-330,3920,-0.04,0.03,-0.21,-0.29,-3.30,39.20,-4.13,-0.33,104.55,2.74,0.23,-9.46
0,-3,0,-27,-317,3932,-0.03,0.01,-0.19,-0.27,-3.17,39.32,-4.14,-0.32,104.55,2.74,0.27,-9.61
5,-5,0,-90,-367,3940,0.00,-0.02,-0.17,-0.90,-3.67,39.40,-4.16,-0.30,104.55,2.64,0.31,-9.59
1,-8,-36,-117,-352,3917,0.01,-0.07,-0.37,-1.17,-3.52,39.17,-4.16,-0.29,104.55,2.73,0.37,-6.75
3,-5,-43,-95,-304,3911,0.03,-0.09,-0.60,-0.95,-3.04,39.11,-4.17,-0.27,104.55,2.68,0.31,-6.40
-6,-4,-72,-28,-262,3914,-0.01,-0.11,-0.98,-0.28,-2.62,39.14,-4.16,-0.26,104.56,2.87,0.28,-4.35
-3,-3,-66,33,-260,3904,-0.03,-0.11,-1.28,0.33,-2.60,39.04,-4.14,-0.27,104.56,2.80,0.27,-5.18
-1,-3,-55,-6,-297,3939,-0.03,-0.12,-1.49,-0.06,-2.97,39.39,-4.15,-0.25,104.57,2.77,0.26,-6.33
-2,-2,-53,-9,-301,3949,-0.04,-0.12,-1.66,-0.09,-3.01,39.49,-4.16,-0.24,104.57,2.80,0.23,-6.68
0,-1,-24,75,-319,3930,-0.04,-0.12,-1.64,0.75,-3.19,39.30,-4.17,-0.25,104.58,2.76,0.22,-9.12
2,-1,-11,50,-304,3916,-0.02,-0.11,-1.55,0.50,-3.04,39.16,-4.18,-0.27,104.59,2.72,0.23,-10.12
2,0,-5,-12,-311,3913,-0.01,-0.10,-1.42,-0.12,-3.11,39.13,-4.19,-0.26,104.59,2.73,0.20,-10.50
2,0,-5,-24,-309,3909,0.00,-0.09,-1.31,-0.24,-3.09,39.09,-4.20,-0.24,104.60,2.73,0.18,-10.38
0,2,-6,-37,-325,3914,0.00,-0.07,-1.22,-0.37,-3.25,39.14,-4.21,-0.23,104.60,2.78,0.13,-10.19
-1,2,-9,-25,-306,3922,-0.00,-0.05,-1.15,-0.25,-3.06,39.22,-4.22,-0.21,104.61,2.80,0.11,-9.87
-1,1,-5,-32,-306,3925,-0.01,-0.04,-1.07,-0.32,-3.06,39.25,-4.22,-0.19,104.61,2.81,0.12,-10.12
0,2,-2,-29,-313,3926,-0.01,-0.02,-0.97,-0.29,-3.13,39.26,-4.23,-0.18,104.61,2.79,0.08,-10.27
0,2,0,-25,-311,3925,-0.01,-0.01,-0.87,-0.25,-3.11,39.25,-4.24,-0.16,104.62,2.80,0.07,-10.34
0,3,-1,-28,-314,3925,-0.01,0.01,-0.79,-0.28,-3.14,39.25,-4.25,-0.15,104.62,2.81,0.03,-10.17
1,4,-2,-20,-311,3928,0.00,0.03,-0.73,-0.20,-3.11,39.28,-4.26,-0.13,104.62,2.79,-0.00,-10.01
3,2,-2,-20,-303,3927,0.02,0.04,-0.67,-0.20,-3.03,39.27,-4.27,-0.11,104.63,2.75,0.02,-9.95
1,0,-2,-15,-305,3927,0.02,0.04,-0.61,-0.15,-3.05,39.27,-4.27,-0.10,104.63,2.79,0.05,-9.89
1,-1,-2,-18,-308,3922,0.03,0.03,-0.56,-0.18,-3.08,39.22,-4.28,-0.08,104.63,2.80,0.07,-9.84
0,1,-3,-13,-316,3922,0.02,0.03,-0.52,-0.13,-3.16,39.22,-4.30,-0.07,104.63,2.83,0.02,-9.72
1,1,-2,-9,-321,3924,0.03,0.04,-0.48,-0.09,-3.21,39.24,-4.31,-0.06,104.64,2.82,0.01,-9.76
1,1,-2,-24,-313,3922,0.03,0.04,-0.45,-0.24,-3.13,39.22,-4.32,-0.05,104.64,2.82,-0.00,-9.72
1,0,-3,-31,-312,3919,0.03,0.03,-0.42,-0.31,-3.12,39.19,-4.33,-0.03,104.64,2.83,0.01,-9.61
0,-1,-2,-41,-327,3916,0.03,0.02,-0.39,-0.41,-3.27,39.16,-4.34,-0.01,104.64,2.86,0.02,-9.66
0,-2,-1,-42,-324,3921,0.03,0.01,-0.36,-0.42,-3.24,39.21,-4.35,0.00,104.64,2.86,0.04,-9.71
-3,1,-1,-15,-322,3919,0.01,0.01,-0.33,-0.15,-3.22,39.19,-4.37,0.01,104.64,2.94,-0.03,-9.68
-3,-2,0,-29,-317,3930,-0.01,0.00,-0.30,-0.29,-3.17,39.30,-4.38,0.03,104.64,2.95,0.02,-9.73
-2,-1,1,-25,-306,3930,-0.02,-0.00,-0.26,-0.25,-3.06,39.30,-4.38,0.04,104.65,2.94,-0.01,-9.78
-3,1,1,-21,-303,3922,-0.04,0.00,-0.23,-0.21,-3.03,39.22,-4.38,0.06,104.65,2.96,-0.06,-9.74
-3,0,-5,-21,-281,3940,-0.05,0.00,-0.24,-0.21,-2.81,39.40,-4.37,0.07,104.65,2.96,-0.05,-9.24
0,1,-5,-16,-286,3930,-0.05,0.01,-0.24,-0.16,-2.86,39.30,-4.35,0.09,104.65,2.89,-0.08,-9.25
1,3,-4,-33,-293,3920,-0.04,0.02,-0.24,-0.33,-2.93,39.20,-4.35,0.10,104.65,2.86,-0.14,-9.34
2,4,-6,-36,-304,3929,-0.02,0.05,-0.26,-0.36,-3.04,39.29,-4.35,0.12,104.65,2.84,-0.17,-9.18
2,1,-2,-30,-319,3931,-0.01,0.05,-0.24,-0.30,-3.19,39.31,-4.37,0.14,104.65,2.84,-0.12,-9.51
2,1,-2,-30,-317,3931,0.01,0.05,-0.23,-0.30,-3.17,39.31,-4.38,0.15,104.65,2.85,-0.13,-9.49
2,0,-2,-27,-329,3916,0.02,0.04,-0.22,-0.27,-3.29,39.16,-4.39,0.16,104.65,2.85,-0.12,-9.48
1,1,-2,-25,-324,3909,0.02,0.05,-0.21,-0.25,-3.24,39.09,-4.41,0.17,104.65,2.88,-0.14,-9.47
0,-1,1,-34,-319,3921,0.02,0.04,-0.18,-0.34,-3.19,39.21,-4.42,0.18,104.65,2.91,-0.11,-9.70
0,-1,-1,-36,-314,3917,0.02,0.03,-0.17,-0.36,-3.14,39.17,-4.43,0.20,104.66,2.92,-0.12,-9.51
0,0,-1,-32,-306,3925,0.02,0.02,-0.16,-0.32,-3.06,39.25,-4.43,0.22,104.66,2.92,-0.15,-9.50
1,0,-2,-31,-306,3926,0.02,0.02,-0.16,-0.31,-3.06,39.26,-4.43,0.24,104.66,2.90,-0.16,-9.41
-1,2,-4,-14,-294,3933,0.01,0.03,-0.16,-0.14,-2.94,39.33,-4.41,0.23,104.66,2.93,-0.20,-9.25
0,2,-4,-30,-306,3914,0.01,0.04,-0.17,-0.30,-3.06,39.14,-4.42,0.25,104.66,2.91,-0.22,-9.26
0,5,-6,-36,-307,3926,0.01,0.07,-0.19,-0.36,-3.07,39.26,-4.42,0.27,104.66,2.92,-0.30,-9.11
1,5,-6,-17,-316,3925,0.02,0.09,-0.21,-0.17,-3.16,39.25,-4.44,0.27,104.66,2.91,-0.30,-9.13
1,1,-5,-23,-319,3924,0.02,0.09,-0.22,-0.23,-3.19,39.24,-4.46,0.27,104.66,2.92,-0.22,-9.23
0,0,-4,-30,-335,3919,0.02,0.08,-0.22,-0.30,-3.35,39.19,-4.47,0.28,104.66,2.95,-0.21,-9.31
-2,-2,-1,-23,-325,3915,0.00,0.06,-0.21,-0.23,-3.25,39.15,-4.49,0.28,104.66,3.00,-0.16,-9.55
-2,-3,1,-18,-324,3913,-0.01,0.03,-0.18,-0.18,-3.24,39.13,-4.51,0.28,104.66,3.02,-0.13,-9.69
0,0,-1,-16,-317,3922,-0.01,0.03,-0.17,-0.16,-3.17,39.22,-4.53,0.27,104.66,2.99,-0.19,-9.51
0,0,0,-28,-319,3910,-0.01,0.03,-0.15,-0.28,-3.19,39.10,-4.54,0.29,104.67,3.00,-0.20,-9.58
3,2,-34,-168,-310,3924,0.01,0.04,-0.34,-1.68,-3.10,39.24,-4.54,0.31,104.67,2.93,-0.25,-6.90
-1,-2,-60,-227,-275,3934,0.00,0.02,-0.67,-2.27,-2.75,39.34,-4.54,0.32,104.67,3.01,-0.18,-5.05
-2,8,-88,30,-324,3866,-0.01,0.07,-1.14,0.30,-3.24,38.66,-4.54,0.31,104.67,3.04,-0.38,-3.18
-2,1,-76,88,-327,3928,-0.02,0.07,-1.49,0.88,-3.27,39.28,-4.55,0.29,104.68,3.05,-0.23,-4.56
-2,-10,-17,47,-298,3928,-0.03,-0.00,-1.45,0.47,-2.98,39.28,-4.54,0.27,104.69,3.05,0.03,-9.51
1,-9,-11,-4,-319,3920,-0.02,-0.06,-1.37,-0.04,-3.19,39.20,-4.55,0.25,104.69,2.99,0.03,-9.94
2,-2,-14,-32,-308,3922,-0.01,-0.06,-1.32,-0.32,-3.08,39.22,-4.55,0.27,104.70,2.96,-0.12,-9.63
2,-1,-13,-17,-300,3926,0.01,-0.06,-1.27,-0.17,-3.00,39.26,-4.53,0.27,104.70,2.95,-0.14,-9.66
-1,-3,-1,-10,-310,3925,-0.00,-0.07,-1.15,-0.10,-3.10,39.25,-4.53,0.25,104.71,3.01,-0.08,-10.55
-2,-4,1,-16,-310,3925,-0.01,-0.09,-1.02,-0.16,-3.10,39.25,-4.52,0.23,104.71,3.02,-0.05,-10.59
-4,-4,4,-33,-323,3928,-0.04,-0.11,-0.90,-0.33,-3.23,39.28,-4.53,0.25,104.71,3.08,-0.05,-10.71
-6,-4,2,-15,-331,3934,-0.07,-0.12,-0.80,-0.15,-3.31,39.34,-4.55,0.24,104.72,3.14,-0.05,-10.44
-6,-7,-3,-32,-327,3918,-0.10,-0.15,-0.73,-0.32,-3.27,39.18,-4.56,0.26,104.72,3.16,0.02,-9.95
-3,-4,-9,-17,-301,3920,-0.11,-0.16,-0.72,-0.17,-3.01,39.20,-4.54,0.25,104.72,3.09,-0.04,-9.42
1,1,-5,-9,-319,3928,-0.09,-0.14,-0.67,-0.09,-3.19,39.28,-4.55,0.24,104.72,3.01,-0.14,-9.72
0,3,-3,-15,-318,3934,-0.08,-0.11,-0.63,-0.15,-3.18,39.34,-4.57,0.23,104.73,3.04,-0.19,-9.83
-1,2,0,-32,-313,3922,-0.08,-0.08,-0.56,-0.32,-3.13,39.22,-4.57,0.25,104.73,3.06,-0.18,-10.02
-2,1,1,-30,-316,3917,-0.08,-0.07,-0.50,-0.30,-3.16,39.17,-4.57,0.27,104.73,3.08,-0.18,-10.04
3,4,-2,5,-286,3932,-0.06,-0.04,-0.46,0.05,-2.86,39.32,-4.56,0.26,104.73,2.96,-0.24,-9.75
5,4,-4,-9,-300,3915,-0.02,-0.01,-0.44,-0.09,-3.00,39.15,-4.55,0.25,104.74,2.90,-0.24,-9.55
3,6,-5,7,-282,3884,-0.00,0.03,-0.43,0.07,-2.82,38.84,-4.53,0.23,104.74,2.93,-0.28,-9.46
-6,7,-4,44,-250,3906,-0.04,0.07,-0.41,0.44,-2.50,39.06,-4.52,0.22,104.74,3.11,-0.31,-9.52
0,8,-3,-53,-352,3952,-0.03,0.11,-0.39,-0.53,-3.52,39.52,-4.53,0.23,104.74,3.00,-0.35,-9.58
0,8,0,-35,-334,3953,-0.03,0.15,-0.35,-0.35,-3.34,39.53,-4.55,0.25,104.74,3.01,-0.37,-9.79
4,8,3,-39,-326,3922,-0.00,0.18,-0.29,-0.39,-3.26,39.22,-4.56,0.26,104.74,2.93,-0.39,-9.99
4,7,0,-14,-313,3916,0.02,0.21,-0.27,-0.14,-3.13,39.16,-4.56,0.25,104.74,2.92,-0.36,-9.71
1,4,2,-11,-317,3926,0.03,0.21,-0.23,-0.11,-3.17,39.26,-4.57,0.23,104.74,2.99,-0.29,-9.84
2,3,2,-48,-328,3929,0.04,0.21,-0.19,-0.48,-3.28,39.29,-4.58,0.25,104.75,2.97,-0.28,-9.80
2,2,-2,-37,-331,3923,0.04,0.20,-0.18,-0.37,-3.31,39.23,-4.59,0.26,104.75,2.98,-0.27,-9.45
3,0,-3,-33,-313,3923,0.06,0.18,-0.18,-0.33,-3.13,39.23,-4.59,0.28,104.75,2.95,-0.23,-9.37
5,-3,-6,-28,-304,3912,0.08,0.14,-0.20,-0.28,-3.04,39.12,-4.57,0.29,104.75,2.89,-0.17,-9.13
4,-4,-6,-19,-313,3916,0.10,0.10,-0.22,-0.19,-3.13,39.16,-4.57,0.28,104.75,2.91,-0.13,-9.15
1,-2,-3,-22,-309,3913,0.10,0.08,-0.22,-0.22,-3.09,39.13,-4.55,0.29,104.75,2.96,-0.17,-9.40
0,-2,-2,-16,-302,3914,0.09,0.06,-0.21,-0.16,-3.02,39.14,-4.54,0.28,104.75,2.97,-0.16,-9.48
1,-1,-2,-17,-312,3929,0.08,0.05,-0.20,-0.17,-3.12,39.29,-4.54,0.26,104.75,2.95,-0.17,-9.47
0,-1,-1,-18,-310,3925,0.07,0.04,-0.18,-0.18,-3.10,39.25,-4.52,0.26,104.75,2.96,-0.16,-9.54
-1,0,-1,-17,-320,3925,0.06,0.03,-0.17,-0.17,-3.20,39.25,-4.54,0.26,104.75,3.00,-0.18,-9.52
-1,0,1,-19,-318,3937,0.05,0.03,-0.15,-0.19,-3.18,39.37,-4.56,0.26,104.75,3.01,-0.18,-9.67
0,2,-1,-33,-329,3922,0.04,0.04,-0.14,-0.33,-3.29,39.22,-4.57,0.28,104.75,3.00,-0.23,-9.49
0,2,-1,-35,-317,3912,0.04,0.05,-0.13,-0.35,-3.17,39.12,-4.57,0.29,104.75,3.01,-0.25,-9.48
1,-1,-5,-28,-305,3930,0.04,0.04,-0.15,-0.28,-3.05,39.30,-4.56,0.31,104.76,2.98,-0.19,-9.16
1,-1,-6,-22,-317,3929,0.04,0.03,-0.17,-0.22,-3.17,39.29,-4.58,0.31,104.76,2.99,-0.19,-9.10
-3,0,0,11,-312,3945,0.02,0.02,-0.15,0.11,-3.12,39.45,-4.57,0.29,104.76,3.07,-0.20,-9.59
1,1,2,-10,-298,3915,0.03,0.03,-0.13,-0.10,-2.98,39.15,-4.56,0.28,104.76,2.98,-0.21,-9.73
-1,0,-1,-18,-313,3910,0.02,0.03,-0.12,-0.18,-3.13,39.10,-4.57,0.27,104.76,3.03,-0.18,-9.47
-1,-2,-4,-22,-310,3920,0.01,0.01,-0.13,-0.22,-3.10,39.20,-4.56,0.28,104.76,3.03,-0.15,-9.23
1,0,-7,-23,-308,3923,0.01,0.01,-0.16,-0.23,-3.08,39.23,-4.54,0.29,104.76,2.98,-0.20,-9.01
1,2,-6,-16,-306,3912,0.02,0.02,-0.18,-0.16,-3.06,39.12,-4.53,0.28,104.76,2.96,-0.23,-9.11
-4,1,-2,-16,-309,3921,-0.01,0.02,-0.18,-0.16,-3.09,39.21,-4.52,0.27,104.76,3.07,-0.20,-9.45
-4,2,-2,-12,-317,3915,-0.03,0.03,-0.17,-0.12,-3.17,39.15,-4.54,0.25,104.76,3.08,-0.22,-9.44
-2,1,-3,-17,-328,3933,-0.04,0.04,-0.17,-0.17,-3.28,39.33,-4.55,0.25,104.76,3.06,-0.20,-9.36
-3,1,-3,-16,-323,3933,-0.05,0.04,-0.17,-0.16,-3.23,39.33,-4.57,0.25,104.76,3.09,-0.20,-9.36
-9,5,-6,-38,-272,3899,-0.10,0.07,-0.19,-0.38,-2.72,38.99,-4.56,0.26,104.76,3.22,-0.29,-9.12
2,6,-19,-99,-302,3936,-0.08,0.10,-0.29,-0.99,-3.02,39.36,-4.55,0.28,104.76,2.99,-0.33,-8.13
-3,2,-34,-25,-346,3948,-0.09,0.10,-0.47,-0.25,-3.46,39.48,-4.57,0.28,104.77,3.10,-0.25,-7.04
-1,3,-18,20,-361,3922,-0.09,0.11,-0.53,0.20,-3.61,39.22,-4.59,0.27,104.77,3.07,-0.27,-8.47
6,5,-3,-3,-287,3941,-0.04,0.13,-0.50,-0.03,-2.87,39.41,-4.57,0.26,104.77,2.91,-0.31,-9.70
7,3,-4,-36,-311,3933,0.00,0.13,-0.47,-0.36,-3.11,39.33,-4.57,0.28,104.77,2.87,-0.28,-9.59
-2,8,-6,27,-250,3865,-0.01,0.17,-0.46,0.27,-2.50,38.65,-4.55,0.27,104.77,3.05,-0.39,-9.41
2,8,-11,9,-238,3939,0.00,0.20,-0.48,0.09,-2.38,39.39,-4.54,0.26,104.78,2.95,-0.39,-9.01
1,2,-40,-23,-257,3923,0.01,0.19,-0.68,-0.23,-2.57,39.23,-4.52,0.27,104.78,2.96,-0.27,-6.76
2,1,-50,-26,-267,3927,0.02,0.18,-0.91,-0.26,-2.67,39.27,-4.50,0.27,104.78,2.92,-0.25,-6.16
3,0,-91,-28,-207,3900,0.04,0.16,-1.38,-0.28,-2.07,39.00,-4.48,0.27,104.79,2.89,-0.22,-3.18
4,0,-105,-93,-296,3904,0.06,0.15,-1.88,-0.93,-2.96,39.04,-4.48,0.29,104.80,2.86,-0.23,-2.53
-1,3,-52,54,-484,3965,0.05,0.15,-2.01,0.54,-4.84,39.65,-4.50,0.28,104.80,2.98,-0.29,-7.15
-3,-4,-25,-61,-413,3930,0.02,0.11,-1.96,-0.61,-4.13,39.30,-4.51,0.29,104.81,3.03,-0.14,-9.39
3,-3,-15,-29,-338,3912,0.04,0.08,-1.86,-0.29,-3.38,39.12,-4.53,0.29,104.82,2.92,-0.15,-10.13
4,-4,-14,-38,-340,3915,0.06,0.05,-1.76,-0.38,-3.40,39.15,-4.55,0.30,104.83,2.90,-0.13,-10.11
2,0,-16,1,-300,3918,0.07,0.04,-1.68,0.01,-3.00,39.18,-4.54,0.29,104.83,2.94,-0.20,-9.86
1,-1,-22,0,-311,3906,0.07,0.03,-1.64,0.00,-3.11,39.06,-4.54,0.27,104.84,2.96,-0.17,-9.31
1,-4,-22,-51,-351,3914,0.07,0.01,-1.61,-0.51,-3.51,39.14,-4.55,0.28,104.85,2.97,-0.10,-9.28
1,-3,-19,-55,-338,3923,0.06,-0.01,-1.57,-0.55,-3.38,39.23,-4.56,0.29,104.85,2.97,-0.13,-9.49
0,2,-6,-35,-305,3926,0.06,-0.00,-1.45,-0.35,-3.05,39.26,-4.55,0.31,104.86,2.99,-0.24,-10.46
1,2,-4,-23,-306,3918,0.06,0.01,-1.33,-0.23,-3.06,39.18,-4.54,0.31,104.86,2.96,-0.25,-10.51
3,0,-3,-18,-302,3927,0.07,0.01,-1.21,-0.18,-3.02,39.27,-4.52,0.31,104.87,2.90,-0.21,-10.47
3,1,-1,-25,-306,3929,0.08,0.02,-1.10,-0.25,-3.06,39.29,-4.50,0.32,104.87,2.89,-0.23,-10.52
5,2,-7,-18,-313,3928,0.10,0.03,-1.03,-0.18,-3.13,39.28,-4.52,0.30,104.88,2.85,-0.25,-9.94
3,0,-5,-12,-315,3927,0.11,0.02,-0.96,-0.12,-3.15,39.27,-4.52,0.29,104.88,2.89,-0.20,-10.03
2,1,-4,-24,-322,3922,0.11,0.03,-0.89,-0.24,-3.22,39.22,-4.54,0.29,104.88,2.93,-0.22,-10.04
2,1,-3,-24,-331,3924,0.11,0.03,-0.82,-0.24,-3.31,39.24,-4.56,0.30,104.89,2.94,-0.23,-10.05
1,-1,-3,-28,-327,3929,0.11,0.02,-0.75,-0.28,-3.27,39.29,-4.57,0.31,104.89,2.97,-0.19,-9.98
1,-1,-4,-22,-327,3934,0.10,0.01,-0.70,-0.22,-3.27,39.34,-4.59,0.31,104.89,2.98,-0.19,-9.85
-3,1,-4,-12,-278,3868,0.08,0.02,-0.66,-0.12,-2.78,38.68,-4.57,0.30,104.90,3.06,-0.23,-9.80
-3,0,-8,-32,-268,3918,0.05,0.02,-0.64,-0.32,-2.68,39.18,-4.56,0.31,104.90,3.05,-0.21,-9.44
2,0,-21,-22,-319,3922,0.06,0.01,-0.70,-0.22,-3.19,39.22,-4.57,0.31,104.90,2.96,-0.21,-8.41
-3,-1,-19,16,-318,3967,0.03,0.01,-0.75,0.16,-3.18,39.67,-4.57,0.29,104.90,3.07,-0.17,-8.63
1,-16,-48,-42,-244,3941,0.04,-0.09,-0.97,-0.42,-2.44,39.41,-4.56,0.30,104.91,2.98,0.16,-6.40
-6,-17,-62,-80,-217,3925,-0.00,-0.19,-1.25,-0.80,-2.17,39.25,-4.54,0.30,104.91,3.12,0.20,-5.51
10,-10,-171,-99,-289,3859,0.06,-0.23,-2.17,-0.99,-2.89,38.59,-4.54,0.32,104.92,2.78,0.05,2.75
2,-5,-171,-115,-350,3927,0.06,-0.24,-2.99,-1.15,-3.50,39.27,-4.54,0.34,104.93,2.94,-0.06,1.87
7,-1,-102,75,-416,3916,0.10,-0.22,-3.32,0.75,-4.16,39.16,-4.56,0.32,104.95,2.84,-0.13,-4.32
-1,-5,-88,33,-383,3914,0.08,-0.23,-3.52,0.33,-3.83,39.14,-4.57,0.31,104.96,3.01,-0.04,-5.72
1,-7,-77,33,-345,3928,0.08,-0.25,-3.64,0.33,-3.45,39.28,-4.58,0.29,104.97,2.98,0.02,-6.78
1,-8,-62,60,-369,3918,0.08,-0.27,-3.65,0.60,-3.69,39.18,-4.59,0.27,104.99,2.99,0.06,-8.06
-4,-14,-32,-38,-389,3922,0.05,-0.33,-3.48,-0.38,-3.89,39.22,-4.61,0.27,105.00,3.11,0.19,-10.43
-3,-13,-29,-20,-331,3947,0.02,-0.38,-3.31,-0.20,-3.31,39.47,-4.63,0.27,105.02,3.11,0.19,-10.50
-5,-9,-15,4,-324,3929,-0.01,-0.39,-3.07,0.04,-3.24,39.29,-4.63,0.25,105.03,3.16,0.12,-11.43
-6,-7,-9,14,-315,3936,-0.04,-0.40,-2.82,0.14,-3.15,39.36,-4.63,0.23,105.04,3.19,0.10,-11.68
-4,0,0,-3,-301,3932,-0.06,-0.36,-2.54,-0.03,-3.01,39.32,-4.61,0.22,105.05,3.14,-0.05,-12.14
-2,0,-1,-7,-302,3921,-0.07,-0.32,-2.29,-0.07,-3.02,39.21,-4.60,0.21,105.06,3.09,-0.05,-11.80
-3,-2,0,-21,-304,3912,-0.08,-0.30,-2.06,-0.21,-3.04,39.12,-4.58,0.22,105.07,3.11,-0.02,-11.64
-1,0,-1,-24,-294,3909,-0.08,-0.27,-1.86,-0.24,-2.94,39.09,-4.57,0.22,105.07,3.06,-0.07,-11.34
-1,1,-3,-24,-321,3917,-0.08,-0.24,-1.69,-0.24,-3.21,39.17,-4.58,0.23,105.08,3.06,-0.11,-11.00
-1,1,-4,-22,-310,3928,-0.08,-0.21,-1.55,-0.22,-3.10,39.28,-4.57,0.25,105.09,3.06,-0.13,-10.76
2,-3,-9,-30,-332,3903,-0.06,-0.21,-1.45,-0.30,-3.32,39.03,-4.58,0.26,105.09,3.00,-0.05,-10.23
-7,-2,-17,-69,-340,3922,-0.09,-0.20,-1.41,-0.69,-3.40,39.22,-4.59,0.27,105.10,3.20,-0.08,-9.51
0,1,-30,-4,-304,3921,-0.08,-0.17,-1.45,-0.04,-3.04,39.21,-4.58,0.26,105.10,3.05,-0.14,-8.45
0,0,-30,0,-310,3926,-0.08,-0.15,-1.49,0.00,-3.10,39.26,-4.58,0.24,105.11,3.04,-0.11,-8.49
2,3,-28,-44,-322,3921,-0.06,-0.12,-1.51,-0.44,-3.22,39.21,-4.58,0.25,105.12,3.00,-0.20,-8.69
2,5,-35,-46,-319,3926,-0.04,-0.08,-1.57,-0.46,-3.19,39.26,-4.59,0.27,105.12,3.00,-0.26,-8.16
-5,0,-87,-115,-257,3918,-0.06,-0.07,-1.95,-1.15,-2.57,39.18,-4.58,0.29,105.13,3.14,-0.17,-4.15
-1,3,-85,3,-299,3938,-0.06,-0.04,-2.27,0.03,-2.99,39.38,-4.57,0.27,105.14,3.05,-0.23,-4.66
2,1,-36,68,-325,3917,-0.05,-0.03,-2.26,0.68,-3.25,39.17,-4.57,0.25,105.15,2.99,-0.18,-8.81
3,0,-28,38,-320,3924,-0.02,-0.03,-2.21,0.38,-3.20,39.24,-4.57,0.23,105.16,2.96,-0.14,-9.43
6,-5,-69,-113,-202,3921,0.02,-0.06,-2.41,-1.13,-2.02,39.21,-4.56,0.24,105.17,2.88,-0.04,-6.17
14,3,-123,-165,-222,3936,0.10,-0.03,-2.92,-1.65,-2.22,39.36,-4.55,0.26,105.18,2.69,-0.22,-2.13
10,12,-174,-111,-433,3952,0.15,0.04,-3.69,-1.11,-4.33,39.52,-4.56,0.27,105.19,2.77,-0.43,1.37
12,19,-216,-194,-370,4002,0.21,0.15,-4.64,-1.94,-3.70,40.02,-4.57,0.28,105.21,2.71,-0.62,3.92
11,13,-399,-85,-228,3856,0.26,0.22,-6.61,-0.85,-2.28,38.56,-4.55,0.29,105.24,2.71,-0.52,17.34
17,7,-420,-61,-250,3844,0.33,0.24,-8.51,-0.61,-2.50,38.44,-4.54,0.30,105.27,2.56,-0.41,17.10
0,-10,-308,170,-363,3972,0.30,0.15,-9.54,1.70,-3.63,39.72,-4.54,0.28,105.31,2.91,-0.03,6.52
7,-3,-253,75,-376,3863,0.31,0.12,-10.12,0.75,-3.76,38.63,-4.55,0.27,105.35,2.77,-0.15,1.23
-3,-3,-111,103,-408,3931,0.26,0.09,-9.79,1.03,-4.08,39.31,-4.56,0.25,105.39,3.00,-0.13,-10.45
-5,-6,-72,98,-347,3923,0.21,0.04,-9.25,0.98,-3.47,39.23,-4.56,0.23,105.43,3.06,-0.04,-13.18
-1,-6,-32,-33,-298,3925,0.18,0.00,-8.52,-0.33,-2.98,39.25,-4.55,0.24,105.46,2.97,-0.04,-15.80
1,-6,-41,-49,-265,3923,0.17,-0.03,-7.92,-0.49,-2.65,39.23,-4.54,0.25,105.49,2.93,-0.03,-14.41
4,14,-118,-118,-453,3915,0.18,0.06,-7.85,-1.18,-4.53,39.15,-4.55,0.26,105.52,2.87,-0.47,-7.81
6,19,-149,-91,-488,3912,0.19,0.17,-7.97,-0.91,-4.88,39.12,-4.57,0.26,105.55,2.84,-0.60,-5.32
2,5,-153,11,-310,3891,0.19,0.18,-8.11,0.11,-3.10,38.91,-4.56,0.24,105.59,2.92,-0.31,-5.12
-5,1,-156,31,-296,3905,0.14,0.17,-8.25,0.31,-2.96,39.05,-4.56,0.22,105.62,3.07,-0.21,-5.02
6,-1,-196,-81,-284,3927,0.16,0.14,-8.62,-0.81,-2.84,39.27,-4.55,0.24,105.65,2.84,-0.17,-2.03
-1,-7,-227,-75,-244,3938,0.14,0.09,-9.14,-0.75,-2.44,39.38,-4.54,0.25,105.69,2.98,-0.04,0.04
6,-11,-273,-60,-350,3938,0.16,0.01,-9.89,-0.60,-3.50,39.38,-4.55,0.26,105.73,2.84,0.05,3.14
9,-4,-270,-66,-362,3900,0.20,-0.01,-10.55,-0.66,-3.62,39.00,-4.56,0.27,105.77,2.77,-0.09,2.18
1,-1,-135,109,-332,3908,0.19,-0.02,-10.32,1.09,-3.32,39.08,-4.56,0.24,105.81,2.94,-0.14,-9.01
-1,-9,-81,42,-299,3915,0.16,-0.07,-9.78,0.42,-2.99,39.15,-4.56,0.22,105.85,2.98,0.06,-13.02
5,-1,-93,-36,-295,3907,0.18,-0.07,-9.37,-0.36,-2.95,39.07,-4.55,0.23,105.89,2.85,-0.11,-11.57
2,-5,-95,-22,-263,3953,0.17,-0.09,-9.01,-0.22,-2.63,39.53,-4.53,0.23,105.93,2.90,-0.03,-11.03
-1,-1,-117,-33,-259,3883,0.15,-0.09,-8.83,-0.33,-2.59,38.83,-4.51,0.24,105.96,2.96,-0.11,-8.97
-5,-3,-109,4,-286,3919,0.10,-0.10,-8.61,0.04,-2.86,39.19,-4.50,0.22,105.99,3.04,-0.06,-9.42
-9,-5,-61,13,-337,3924,0.04,-0.12,-8.12,0.13,-3.37,39.24,-4.51,0.20,106.03,3.15,-0.00,-12.97
-10,-6,-47,34,-342,3908,-0.03,-0.14,-7.59,0.34,-3.42,39.08,-4.52,0.19,106.06,3.19,0.04,-13.60
-6,-9,-3,17,-331,3951,-0.06,-0.19,-6.85,0.17,-3.31,39.51,-4.53,0.17,106.08,3.13,0.12,-16.55
-5,-6,-1,3,-326,3938,-0.09,-0.20,-6.17,0.03,-3.26,39.38,-4.54,0.15,106.11,3.12,0.08,-16.00
-2,-3,13,8,-338,3916,-0.09,-0.20,-5.48,0.08,-3.38,39.16,-4.56,0.14,106.13,3.07,0.02,-16.45
1,0,23,15,-354,3925,-0.07,-0.18,-4.79,0.15,-3.54,39.25,-4.57,0.13,106.15,3.02,-0.03,-16.57
2,-6,72,104,-384,3890,-0.05,-0.20,-3.87,1.04,-3.84,38.90,-4.58,0.11,106.17,3.00,0.10,-19.75
-1,-9,100,129,-406,3896,-0.06,-0.23,-2.87,1.29,-4.06,38.96,-4.60,0.09,106.18,3.07,0.19,-20.00
-6,-2,188,105,-399,3911,-0.09,-0.22,-1.44,1.05,-3.99,39.11,-4.61,0.08,106.18,3.19,0.05,-20.00
-8,7,218,68,-395,3946,-0.13,-0.16,0.03,0.68,-3.95,39.46,-4.62,0.06,106.18,3.25,-0.14,-20.00
-8,-11,242,-13,-313,3897,-0.16,-0.21,1.51,-0.13,-3.13,38.97,-4.62,0.08,106.18,3.25,0.23,-20.00
-7,-3,238,-23,-320,3943,-0.19,-0.21,2.81,-0.23,-3.20,39.43,-4.62,0.10,106.17,3.24,0.05,-20.00
-1,9,318,69,-288,3938,-0.18,-0.13,4.47,0.69,-2.88,39.38,-4.61,0.08,106.15,3.11,-0.20,-20.00
-3,6,321,49,-324,3878,-0.18,-0.08,5.98,0.49,-3.24,38.78,-4.62,0.07,106.12,3.16,-0.14,-20.00
-8,-5,279,-141,-235,3920,-0.21,-0.10,7.08,-1.41,-2.35,39.20,-4.61,0.08,106.10,3.26,0.07,-20.00
-1,-2,230,-201,-222,3986,-0.19,-0.11,7.78,-2.01,-2.22,39.86,-4.60,0.10,106.06,3.11,0.00,-20.00
-11,-2,199,-129,-150,3913,-0.24,-0.11,8.21,-1.29,-1.50,39.13,-4.59,0.12,106.03,3.32,-0.01,-17.71
-7,-19,206,-155,-105,3910,-0.26,-0.21,8.65,-1.55,-1.05,39.10,-4.57,0.13,106.00,3.23,0.36,-17.83
-4,-2,280,-111,-307,3906,-0.26,-0.20,9.49,-1.11,-3.07,39.06,-4.57,0.15,105.96,3.17,-0.00,-20.00
-10,3,311,-82,-306,3927,-0.29,-0.16,10.44,-0.82,-3.06,39.27,-4.57,0.17,105.92,3.30,-0.13,-20.00
-8,6,405,-43,-426,3961,-0.31,-0.11,11.87,-0.43,-4.26,39.61,-4.59,0.18,105.87,3.28,-0.21,-20.00
-6,11,423,-49,-466,3996,-0.32,-0.03,13.26,-0.49,-4.66,39.96,-4.61,0.19,105.82,3.25,-0.34,-20.00
-3,8,412,-58,-309,3971,-0.30,0.02,14.45,-0.58,-3.09,39.71,-4.61,0.21,105.76,3.18,-0.31,-20.00
-6,5,411,20,-248,3890,-0.31,0.05,15.51,0.20,-2.48,38.90,-4.59,0.21,105.70,3.24,-0.25,-20.00
-6,9,434,-123,-209,3943,-0.32,0.10,16.61,-1.23,-2.09,39.43,-4.58,0.23,105.63,3.23,-0.36,-20.00
-8,0,394,-136,-201,3863,-0.33,0.09,17.35,-1.36,-2.01,38.63,-4.57,0.24,105.56,3.27,-0.19,-20.00
-12,2,296,-85,-378,3896,-0.37,0.09,17.42,-0.85,-3.78,38.96,-4.58,0.26,105.49,3.37,-0.24,-16.13
-3,5,284,-96,-298,3918,-0.35,0.11,17.41,-0.96,-2.98,39.18,-4.58,0.29,105.42,3.18,-0.32,-15.11
0,-5,305,-98,-376,3980,-0.32,0.07,17.53,-0.98,-3.76,39.80,-4.59,0.31,105.35,3.12,-0.12,-16.76
-6,5,305,-45,-330,3941,-0.32,0.09,17.64,-0.45,-3.30,39.41,-4.60,0.33,105.28,3.25,-0.35,-16.64
-3,-5,333,-72,-454,3904,-0.31,0.05,17.90,-0.72,-4.54,39.04,-4.62,0.34,105.21,3.19,-0.14,-18.72
-8,-3,349,-5,-405,3927,-0.33,0.03,18.24,-0.05,-4.05,39.27,-4.64,0.34,105.14,3.31,-0.17,-19.71
-6,5,370,-33,-425,3945,-0.33,0.06,18.68,-0.33,-4.25,39.45,-4.66,0.35,105.06,3.29,-0.35,-20.00
-21,12,370,67,-330,3879,-0.43,0.13,19.07,0.67,-3.30,38.79,-4.66,0.34,104.99,3.62,-0.50,-20.00
6,-5,365,-18,-247,3891,-0.35,0.08,19.39,-0.18,-2.47,38.91,-4.64,0.35,104.91,3.04,-0.15,-19.84
9,5,362,-48,-228,3862,-0.26,0.10,19.65,-0.48,-2.28,38.62,-4.63,0.36,104.83,2.94,-0.37,-19.29
-4,1,331,0,-321,4080,-0.26,0.10,19.71,0.00,-3.21,40.80,-4.62,0.35,104.75,3.20,-0.28,-16.60
6,16,323,9,-302,3919,-0.19,0.19,19.71,0.09,-3.02,39.19,-4.61,0.34,104.68,2.98,-0.60,-15.92
-9,0,343,-19,-529,3961,-0.23,0.17,19.83,-0.19,-5.29,39.61,-4.63,0.34,104.60,3.30,-0.27,-17.48
-19,7,318,-3,-456,3976,-0.32,0.19,19.79,-0.03,-4.56,39.76,-4.65,0.35,104.52,3.54,-0.43,-15.40
-14,8,351,33,-344,3891,-0.38,0.22,19.95,0.33,-3.44,38.91,-4.66,0.34,104.44,3.46,-0.45,-18.01
20,3,399,-78,-365,3898,-0.22,0.22,20.39,-0.78,-3.65,38.98,-4.67,0.36,104.36,2.74,-0.36,-20.00
2,16,413,-93,-477,3964,-0.18,0.30,20.87,-0.93,-4.77,39.64,-4.69,0.38,104.27,3.10,-0.65,-20.00
-4,9,413,-97,-480,3870,-0.19,0.32,21.30,-0.97,-4.80,38.70,-4.71,0.39,104.19,3.24,-0.53,-20.00
6,5,517,-47,-286,3938,-0.13,0.32,22.32,-0.47,-2.86,39.38,-4.69,0.41,104.10,3.01,-0.46,-20.00
-1,-7,554,-11,-271,3905,-0.13,0.24,23.47,-0.11,-2.71,39.05,-4.67,0.41,104.01,3.14,-0.20,-20.00
-14,15,377,-61,-308,3998,-0.20,0.31,23.42,-0.61,-3.08,39.98,-4.66,0.44,103.91,3.42,-0.68,-16.49
9,19,335,-69,-235,3990,-0.12,0.40,23.13,-0.69,-2.35,39.90,-4.65,0.45,103.82,2.92,-0.79,-13.24
-9,4,277,4,-326,3885,-0.17,0.38,22.50,0.04,-3.26,38.85,-4.65,0.44,103.73,3.30,-0.48,-8.98
-2,10,277,-12,-388,3887,-0.16,0.40,21.94,-0.12,-3.88,38.87,-4.67,0.45,103.65,3.17,-0.61,-9.56
-11,-2,325,13,-470,3894,-0.21,0.35,21.73,0.13,-4.70,38.94,-4.69,0.45,103.56,3.38,-0.35,-13.85
-3,7,360,38,-564,3941,-0.21,0.36,21.75,0.38,-5.64,39.41,-4.71,0.46,103.47,3.22,-0.54,-16.78
-6,-1,584,97,-576,3945,-0.23,0.32,23.14,0.97,-5.76,39.45,-4.72,0.46,103.38,3.30,-0.37,-20.00
-29,11,662,163,-692,3809,-0.38,0.35,24.86,1.63,-6.92,38.09,-4.74,0.46,103.28,3.82,-0.62,-20.00
-28,-1,888,53,-772,3872,-0.51,0.31,27.79,0.53,-7.72,38.72,-4.76,0.46,103.17,3.85,-0.37,-20.00
-19,11,1052,80,-822,3911,-0.58,0.35,31.43,0.80,-8.22,39.11,-4.78,0.47,103.05,3.70,-0.63,-20.00
-12,2,1297,64,-242,3868,-0.59,0.32,36.20,0.64,-2.42,38.68,-4.77,0.47,102.90,3.55,-0.44,-20.00
-11,5,1307,39,-160,3828,-0.60,0.32,40.55,0.39,-1.60,38.28,-4.75,0.48,102.74,3.52,-0.51,-20.00
-25,-22,939,-200,213,3987,-0.69,0.16,42.23,-2.00,2.13,39.87,-4.73,0.50,102.57,3.82,0.08,-20.00
-43,-43,778,-287,372,3885,-0.89,-0.12,42.75,-2.87,3.72,38.85,-4.72,0.52,102.40,4.23,0.57,-20.00
-65,-72,298,-191,99,3895,-1.19,-0.55,40.29,-1.91,0.99,38.95,-4.71,0.54,102.24,4.75,1.26,8.22
-45,-55,216,-134,75,3920,-1.35,-0.83,37.58,-1.34,0.75,39.20,-4.69,0.55,102.09,4.38,0.98,12.31
-26,-28,137,-131,-312,3949,-1.37,-0.92,34.66,-1.31,-3.12,39.49,-4.69,0.58,101.95,4.00,0.44,15.92
-17,-25,155,-211,-345,3943,-1.34,-0.98,32.14,-2.11,-3.45,39.43,-4.70,0.60,101.82,3.81,0.38,11.73
-89,-57,251,-161,-642,3967,-1.75,-1.23,30.46,-1.61,-6.42,39.67,-4.72,0.61,101.70,5.40,1.09,1.83
-47,-34,267,-112,-559,4021,-1.86,-1.31,29.04,-1.12,-5.59,40.21,-4.75,0.62,101.58,4.60,0.64,-1.02
-28,-2,336,-17,-306,3913,-1.84,-1.19,28.18,-0.17,-3.06,39.13,-4.74,0.61,101.47,4.20,-0.04,-7.76
-23,-5,324,3,-205,3868,-1.80,-1.10,27.34,0.03,-2.05,38.68,-4.73,0.61,101.36,4.08,0.00,-7.62
5,4,285,-14,-120,3839,-1.59,-0.97,26.35,-0.14,-1.20,38.39,-4.72,0.61,101.26,3.45,-0.22,-5.36
17,6,296,-33,-82,3903,-1.33,-0.84,25.52,-0.33,-0.82,39.03,-4.70,0.62,101.15,3.12,-0.30,-7.16
8,17,212,19,-368,3970,-1.15,-0.65,24.26,0.19,-3.68,39.70,-4.72,0.61,101.06,3.26,-0.57,-1.37
6,16,207,-19,-357,3953,-0.99,-0.49,23.10,-0.19,-3.57,39.53,-4.74,0.60,100.97,3.27,-0.59,-2.17
-3,-2,173,150,-425,3943,-0.91,-0.45,21.84,1.50,-4.25,39.43,-4.75,0.59,100.88,3.44,-0.23,-0.61
-6,4,178,142,-392,3953,-0.86,-0.38,20.74,1.42,-3.92,39.53,-4.75,0.58,100.80,3.49,-0.36,-2.19
-19,7,228,47,-386,3887,-0.89,-0.30,20.06,0.47,-3.86,38.87,-4.77,0.57,100.72,3.78,-0.44,-7.14
-12,9,258,34,-354,3876,-0.87,-0.21,19.63,0.34,-3.54,38.76,-4.78,0.56,100.64,3.64,-0.49,-10.13
4,6,226,-33,-217,3930,-0.76,-0.16,19.04,-0.33,-2.17,39.30,-4.76,0.56,100.56,3.27,-0.45,-8.03
-6,14,205,23,-246,3864,-0.72,-0.06,18.39,0.23,-2.46,38.64,-4.75,0.56,100.49,3.45,-0.64,-6.94
7,9,181,16,-298,3906,-0.61,0.00,17.65,0.16,-2.98,39.06,-4.74,0.55,100.42,3.15,-0.54,-5.68
1,15,194,33,-332,3903,-0.54,0.10,17.07,0.33,-3.32,39.03,-4.75,0.53,100.35,3.26,-0.68,-7.39
-6,9,290,21,-333,3936,-0.52,0.14,17.13,0.21,-3.33,39.36,-4.75,0.52,100.28,3.40,-0.57,-15.45
1,2,292,-7,-338,4022,-0.46,0.14,17.20,-0.07,-3.38,40.22,-4.75,0.51,100.21,3.24,-0.42,-15.54
2,10,329,23,-372,3955,-0.41,0.19,17.49,0.23,-3.72,39.55,-4.77,0.50,100.14,3.22,-0.59,-18.37
-4,7,356,67,-404,3910,-0.39,0.21,17.91,0.67,-4.04,39.10,-4.78,0.49,100.07,3.34,-0.53,-20.00
4,4,486,91,-340,3956,-0.33,0.21,19.08,0.91,-3.40,39.56,-4.78,0.48,100.00,3.16,-0.46,-20.00
-7,0,542,72,-390,3918,-0.34,0.19,20.48,0.72,-3.90,39.18,-4.79,0.47,99.91,3.40,-0.37,-20.00
-20,2,667,16,-447,3969,-0.42,0.19,22.50,0.16,-4.47,39.69,-4.81,0.48,99.83,3.70,-0.41,-20.00
-17,1,697,140,-533,3955,-0.49,0.17,24.50,1.40,-5.33,39.55,-4.82,0.47,99.73,3.66,-0.38,-20.00
-33,-3,786,-13,-453,3896,-0.64,0.14,26.85,-0.13,-4.53,38.96,-4.84,0.48,99.62,4.04,-0.29,-20.00
-9,4,791,45,-519,3959,-0.63,0.15,28.99,0.45,-5.19,39.59,-4.86,0.48,99.51,3.56,-0.44,-20.00
-15,13,821,32,-411,3885,-0.66,0.21,31.10,0.32,-4.11,38.85,-4.88,0.48,99.38,3.70,-0.64,-20.00
-9,14,821,-30,-311,3904,-0.65,0.28,33.00,-0.30,-3.11,39.04,-4.86,0.49,99.25,3.57,-0.69,-20.00
-15,4,755,-124,-310,3938,-0.67,0.27,34.30,-1.24,-3.10,39.38,-4.86,0.52,99.11,3.69,-0.50,-20.00
-19,3,702,-49,-283,3958,-0.72,0.26,35.15,-0.49,-2.83,39.58,-4.84,0.54,98.97,3.78,-0.49,-20.00
-11,15,514,-114,-121,3960,-0.72,0.33,34.77,-1.14,-1.21,39.60,-4.82,0.56,98.83,3.60,-0.76,-15.62
-2,14,424,-134,-134,3915,-0.66,0.38,33.88,-1.34,-1.34,39.15,-4.81,0.58,98.70,3.39,-0.77,-8.93
3,10,350,-61,-253,3938,-0.57,0.40,32.63,-0.61,-2.53,39.38,-4.79,0.60,98.57,3.26,-0.71,-3.97
5,8,355,22,-204,3910,-0.49,0.41,31.53,0.22,-2.04,39.10,-4.78,0.60,98.44,3.18,-0.67,-5.55
-2,4,347,6,-387,4003,-0.45,0.40,30.50,0.06,-3.87,40.03,-4.79,0.60,98.32,3.33,-0.59,-5.96
-4,9,328,8,-403,3958,-0.43,0.41,29.45,0.08,-4.03,39.58,-4.81,0.60,98.21,3.37,-0.69,-5.45
-7,1,330,1,-382,3946,-0.43,0.38,28.52,0.01,-3.82,39.46,-4.82,0.60,98.09,3.44,-0.52,-6.59
-13,-8,305,74,-417,3921,-0.47,0.29,27.52,0.74,-4.17,39.21,-4.83,0.60,97.98,3.58,-0.31,-5.51
-7,4,185,-66,-304,3894,-0.46,0.29,25.90,-0.66,-3.04,38.94,-4.82,0.62,97.88,3.45,-0.57,2.94
-5,9,172,-50,-344,3903,-0.45,0.31,24.36,-0.50,-3.44,39.03,-4.84,0.64,97.78,3.42,-0.69,2.42
2,17,178,-60,-274,3901,-0.39,0.38,23.01,-0.60,-2.74,39.01,-4.82,0.65,97.69,3.25,-0.88,0.49
2,15,189,-85,-288,3916,-0.34,0.44,21.86,-0.85,-2.88,39.16,-4.81,0.67,97.60,3.22,-0.87,-1.65
-1,23,249,-28,-348,3928,-0.31,0.53,21.19,-0.28,-3.48,39.28,-4.82,0.67,97.52,3.29,-1.06,-7.43
-1,7,274,-22,-392,3938,-0.29,0.52,20.75,-0.22,-3.92,39.38,-4.84,0.67,97.44,3.29,-0.73,-10.02
-6,8,377,50,-448,3880,-0.29,0.52,20.97,0.50,-4.48,38.80,-4.85,0.67,97.35,3.40,-0.75,-18.50
-2,15,416,15,-467,3916,-0.28,0.56,21.41,0.15,-4.67,39.16,-4.87,0.67,97.27,3.33,-0.90,-20.00
-14,3,480,-28,-452,3927,-0.33,0.52,22.20,-0.28,-4.52,39.27,-4.89,0.68,97.18,3.60,-0.65,-20.00
-7,4,480,23,-362,3931,-0.34,0.49,22.91,0.23,-3.62,39.31,-4.89,0.67,97.09,3.47,-0.66,-20.00
3,11,549,8,-316,3974,-0.29,0.51,23.96,0.08,-3.16,39.74,-4.89,0.66,96.99,3.24,-0.80,-20.00
-1,9,563,-17,-346,3916,-0.27,0.52,25.00,-0.17,-3.46,39.16,-4.89,0.66,96.89,3.32,-0.76,-20.00
-13,2,602,44,-377,3932,-0.32,0.48,26.17,0.44,-3.77,39.32,-4.90,0.65,96.79,3.59,-0.60,-20.00
-14,-2,606,37,-326,3969,-0.37,0.42,27.25,0.37,-3.26,39.69,-4.90,0.64,96.68,3.62,-0.50,-20.00
-18,1,592,5,-331,3936,-0.45,0.38,28.14,0.05,-3.31,39.36,-4.90,0.64,96.57,3.72,-0.54,-20.00
-4,7,573,-33,-314,3920,-0.43,0.39,28.82,-0.33,-3.14,39.20,-4.88,0.64,96.46,3.42,-0.67,-20.00
5,8,534,-109,-273,3974,-0.35,0.40,29.20,-1.09,-2.73,39.74,-4.87,0.67,96.34,3.21,-0.71,-20.00
-23,-6,517,14,-342,3863,-0.46,0.32,29.43,0.14,-3.42,38.63,-4.87,0.66,96.22,3.81,-0.40,-20.00
-10,7,533,39,-388,3928,-0.47,0.33,29.74,0.39,-3.88,39.28,-4.88,0.65,96.10,3.55,-0.66,-20.00
1,10,534,-57,-419,3957,-0.42,0.36,30.02,-0.57,-4.19,39.57,-4.90,0.67,95.98,3.33,-0.74,-20.00
-10,-3,586,-31,-451,3928,-0.44,0.30,30.59,-0.31,-4.51,39.28,-4.92,0.68,95.86,3.57,-0.47,-20.00
2,13,597,-76,-430,3936,-0.38,0.35,31.18,-0.76,-4.30,39.36,-4.94,0.70,95.74,3.32,-0.82,-20.00
-8,4,632,-5,-496,3904,-0.39,0.34,31.91,-0.05,-4.96,39.04,-4.95,0.70,95.61,3.54,-0.64,-20.00
-15,-12,646,-26,-451,3985,-0.45,0.23,32.66,-0.26,-4.51,39.85,-4.97,0.71,95.48,3.71,-0.29,-20.00
-20,3,691,-50,-333,3905,-0.52,0.23,33.61,-0.50,-3.33,39.05,-4.95,0.73,95.35,3.82,-0.60,-20.00
-1,11,702,-108,-355,3890,-0.48,0.27,34.53,-1.08,-3.55,38.90,-4.96,0.76,95.21,3.42,-0.80,-20.00
2,7,721,-63,-407,3946,-0.42,0.29,35.48,-0.63,-4.07,39.46,-4.98,0.77,95.07,3.36,-0.73,-20.00
-5,2,709,-18,-366,3906,-0.41,0.27,36.26,-0.18,-3.66,39.06,-4.99,0.77,94.92,3.50,-0.63,-20.00
-10,7,616,44,-308,3888,-0.43,0.29,36.39,0.44,-3.08,38.88,-4.98,0.77,94.78,3.61,-0.73,-20.00
-10,3,593,49,-381,3953,-0.44,0.28,36.37,0.49,-3.81,39.53,-4.99,0.77,94.64,3.62,-0.64,-20.00
-1,5,570,49,-297,3971,-0.41,0.28,36.21,0.49,-2.97,39.71,-4.98,0.76,94.49,3.42,-0.68,-18.46
-14,4,583,-8,-264,3874,-0.45,0.28,36.14,-0.08,-2.64,38.74,-4.96,0.77,94.35,3.68,-0.66,-19.61
4,11,656,-67,-260,3929,-0.38,0.32,36.53,-0.67,-2.60,39.29,-4.95,0.78,94.20,3.29,-0.83,-20.00
-10,16,635,-132,-165,3893,-0.40,0.38,36.75,-1.32,-1.65,38.93,-4.93,0.81,94.05,3.57,-0.96,-20.00
-6,23,540,-129,-75,3924,-0.40,0.48,36.37,-1.29,-0.75,39.24,-4.91,0.83,93.91,3.47,-1.14,-15.69
6,27,499,-162,-144,3925,-0.32,0.60,35.78,-1.62,-1.44,39.25,-4.89,0.85,93.77,3.20,-1.27,-12.83
2,18,341,-39,-219,3942,-0.28,0.65,34.28,-0.39,-2.19,39.42,-4.88,0.86,93.63,3.25,-1.11,-1.02
6,22,303,-40,-231,3953,-0.21,0.72,32.70,-0.40,-2.31,39.53,-4.86,0.87,93.50,3.14,-1.22,0.54
8,16,261,68,-368,3932,-0.14,0.74,31.02,0.68,-3.68,39.32,-4.86,0.87,93.38,3.08,-1.10,2.33
-3,11,262,130,-390,3903,-0.15,0.74,29.52,1.30,-3.90,39.03,-4.86,0.86,93.26,3.31,-0.99,0.66
-5,13,207,45,-385,3914,-0.16,0.74,27.83,0.45,-3.85,39.14,-4.87,0.86,93.15,3.36,-1.03,3.55
-4,14,203,17,-362,3916,-0.17,0.75,26.28,0.17,-3.62,39.16,-4.88,0.85,93.04,3.35,-1.05,2.26
-7,7,235,45,-396,3882,-0.20,0.72,25.09,0.45,-3.96,38.82,-4.89,0.85,92.94,3.42,-0.90,-1.71
-3,10,275,14,-373,3914,-0.20,0.71,24.26,0.14,-3.73,39.14,-4.89,0.84,92.85,3.34,-0.95,-5.97
-5,9,394,90,-361,3905,-0.21,0.69,24.24,0.90,-3.61,39.05,-4.90,0.84,92.75,3.39,-0.92,-16.07
0,8,438,143,-321,3923,-0.19,0.67,24.48,1.43,-3.21,39.23,-4.89,0.83,92.65,3.28,-0.89,-19.52
-18,-5,593,111,-400,3969,-0.28,0.58,25.65,1.11,-4.00,39.69,-4.90,0.82,92.55,3.68,-0.60,-20.00
-11,9,619,87,-323,4001,-0.32,0.57,26.86,0.87,-3.23,40.01,-4.90,0.82,92.45,3.54,-0.88,-20.00
-10,-7,694,-24,-241,3942,-0.35,0.47,28.41,-0.24,-2.41,39.42,-4.88,0.82,92.33,3.52,-0.53,-20.00
-10,-3,709,-38,-295,3904,-0.37,0.41,29.89,-0.38,-2.95,39.04,-4.86,0.83,92.21,3.51,-0.60,-20.00
-7,1,728,-113,-326,3902,-0.38,0.37,31.35,-1.13,-3.26,39.02,-4.86,0.86,92.09,3.45,-0.69,-20.00
-23,-10,720,-70,-338,3886,-0.48,0.27,32.60,-0.70,-3.38,38.86,-4.87,0.88,91.96,3.81,-0.46,-20.00
0,16,695,-103,-367,3920,-0.43,0.34,33.58,-1.03,-3.67,39.20,-4.88,0.91,91.82,3.34,-1.02,-20.00
-1,9,705,-22,-441,3968,-0.40,0.37,34.52,-0.22,-4.41,39.68,-4.90,0.92,91.69,3.36,-0.89,-20.00
-5,13,740,-19,-387,3933,-0.39,0.41,35.59,-0.19,-3.87,39.33,-4.91,0.92,91.55,3.45,-0.98,-20.00
1,19,767,-2,-461,3970,-0.34,0.48,36.71,-0.02,-4.61,39.70,-4.93,0.93,91.40,3.32,-1.13,-20.00
-18,3,845,2,-427,3950,-0.42,0.45,38.19,0.02,-4.27,39.50,-4.94,0.93,91.25,3.74,-0.80,-20.00
-17,14,844,-4,-382,3946,-0.48,0.49,39.52,-0.04,-3.82,39.46,-4.95,0.93,91.09,3.74,-1.03,-20.00
-17,1,880,-14,-386,3911,-0.53,0.45,40.94,-0.14,-3.86,39.11,-4.96,0.93,90.93,3.77,-0.76,-20.00
-7,17,890,-91,-279,3935,-0.52,0.51,42.27,-0.91,-2.79,39.35,-4.94,0.96,90.76,3.55,-1.12,-20.00
-16,12,927,-97,-275,3812,-0.57,0.53,43.70,-0.97,-2.75,38.12,-4.93,0.98,90.59,3.73,-1.04,-20.00
-1,15,929,-45,-262,3990,-0.52,0.57,45.00,-0.45,-2.62,39.90,-4.91,1.00,90.41,3.40,-1.12,-20.00
-21,16,848,4,-361,3941,-0.59,0.61,45.67,0.04,-3.61,39.41,-4.91,1.00,90.22,3.83,-1.15,-20.00
-11,21,786,-4,-365,3871,-0.60,0.68,45.90,-0.04,-3.65,38.71,-4.92,1.00,90.04,3.64,-1.27,-20.00
-8,19,728,25,-368,3933,-0.59,0.73,45.75,0.25,-3.68,39.33,-4.93,1.00,89.86,3.57,-1.24,-20.00
-9,23,718,6,-404,3910,-0.59,0.79,45.55,0.06,-4.04,39.10,-4.94,1.00,89.68,3.60,-1.35,-20.00
-11,15,699,-68,-367,3979,-0.60,0.81,45.26,-0.68,-3.67,39.79,-4.95,1.02,89.50,3.66,-1.20,-19.35
-8,17,702,-56,-343,3898,-0.58,0.83,45.02,-0.56,-3.43,38.98,-4.96,1.02,89.32,3.60,-1.25,-19.85
-5,8,673,-46,-347,3957,-0.56,0.79,44.62,-0.46,-3.47,39.57,-4.96,1.02,89.14,3.53,-1.06,-17.79
-10,12,652,-44,-382,3875,-0.56,0.79,44.14,-0.44,-3.82,38.75,-4.98,1.03,88.97,3.64,-1.14,-16.51
-1,16,571,-161,-333,3924,-0.51,0.81,43.21,-1.61,-3.33,39.24,-4.97,1.07,88.80,3.44,-1.25,-10.62
-7,11,559,-153,-296,3910,-0.50,0.79,42.29,-1.53,-2.96,39.10,-4.96,1.10,88.63,3.56,-1.17,-10.55
5,13,461,-166,-324,3887,-0.42,0.79,40.88,-1.66,-3.24,38.87,-4.96,1.14,88.46,3.29,-1.23,-3.73
-6,6,459,-116,-344,3855,-0.42,0.75,39.59,-1.16,-3.44,38.55,-4.96,1.17,88.31,3.51,-1.10,-4.91
-8,2,398,-49,-496,3933,-0.42,0.69,38.06,-0.49,-4.96,39.33,-4.98,1.19,88.16,3.56,-1.01,-1.35
-14,1,366,-67,-527,3910,-0.47,0.63,36.49,-0.67,-5.27,39.10,-5.00,1.20,88.01,3.71,-0.98,-0.30
-12,-1,348,6,-360,3885,-0.49,0.56,34.96,0.06,-3.60,38.85,-5.00,1.20,87.87,3.68,-0.92,-0.37
-8,11,366,-15,-384,3938,-0.49,0.57,33.70,-0.15,-3.84,39.38,-5.01,1.19,87.74,3.60,-1.17,-3.22
-10,11,438,46,-415,3938,-0.50,0.58,33.00,0.46,-4.15,39.38,-5.02,1.19,87.61,3.65,-1.17,-10.05
-6,4,440,49,-387,3914,-0.49,0.54,32.38,0.49,-3.87,39.14,-5.02,1.19,87.48,3.57,-1.01,-10.86
-6,4,506,-58,-348,3906,-0.48,0.51,32.23,-0.58,-3.48,39.06,-5.02,1.18,87.35,3.57,-1.00,-16.60
-5,1,518,-35,-347,3913,-0.46,0.47,32.17,-0.35,-3.47,39.13,-5.02,1.18,87.22,3.54,-0.93,-17.67
-11,0,585,-60,-338,3945,-0.48,0.42,32.52,-0.60,-3.38,39.45,-5.02,1.17,87.09,3.67,-0.89,-20.00
-11,-1,575,-52,-327,3915,-0.50,0.37,32.77,-0.52,-3.27,39.15,-5.01,1.17,86.96,3.66,-0.85,-20.00
-5,10,566,-33,-313,3906,-0.48,0.40,32.95,-0.33,-3.13,39.06,-5.00,1.17,86.83,3.53,-1.08,-20.00
-3,3,572,-58,-348,3936,-0.45,0.38,33.14,-0.58,-3.48,39.36,-5.00,1.16,86.70,3.48,-0.93,-20.00
0,12,592,-80,-308,3962,-0.41,0.41,33.44,-0.80,-3.08,39.62,-4.98,1.18,86.56,3.40,-1.13,-20.00
-1,9,601,-40,-274,3905,-0.37,0.43,33.76,-0.40,-2.74,39.05,-4.96,1.18,86.43,3.40,-1.08,-20.00
-6,24,567,-141,-388,3929,-0.37,0.53,33.85,-1.41,-3.88,39.29,-4.97,1.21,86.30,3.50,-1.43,-19.97
-7,-3,532,-49,-383,3964,-0.38,0.46,33.71,-0.49,-3.83,39.64,-4.98,1.21,86.16,3.53,-0.86,-17.14
-10,8,490,2,-247,3879,-0.40,0.46,33.32,0.02,-2.47,38.79,-4.97,1.21,86.03,3.59,-1.09,-13.97
-8,7,501,-82,-223,3910,-0.41,0.46,33.05,-0.82,-2.23,39.10,-4.95,1.22,85.90,3.54,-1.08,-15.18
-6,9,542,9,-401,3926,-0.40,0.47,33.05,0.09,-4.01,39.26,-4.96,1.22,85.77,3.51,-1.12,-18.64
-12,12,543,16,-439,3908,-0.44,0.49,33.06,0.16,-4.39,39.08,-4.97,1.22,85.63,3.64,-1.19,-18.71
-12,5,531,-32,-331,3915,-0.47,0.47,32.99,-0.32,-3.31,39.15,-4.97,1.22,85.50,3.65,-1.03,-17.75
-5,15,544,-66,-384,3948,-0.45,0.52,33.01,-0.66,-3.84,39.48,-4.98,1.22,85.37,3.51,-1.25,-18.82
-16,4,535,-67,-427,3901,-0.50,0.49,32.97,-0.67,-4.27,39.01,-5.00,1.23,85.24,3.76,-1.03,-18.08
-12,1,517,-19,-420,3957,-0.53,0.45,32.83,-0.19,-4.20,39.57,-5.01,1.23,85.11,3.70,-0.96,-16.70
-1,2,482,-117,-382,3932,-0.48,0.42,32.49,-1.17,-3.82,39.32,-5.03,1.26,84.98,3.47,-0.99,-14.09
-7,11,474,-70,-422,3861,-0.47,0.44,32.13,-0.70,-4.22,38.61,-5.04,1.27,84.85,3.60,-1.18,-13.77
2,21,478,-7,-369,4005,-0.41,0.53,31.83,-0.07,-3.69,40.05,-5.04,1.26,84.73,3.40,-1.40,-14.42
-8,12,483,36,-333,3886,-0.42,0.55,31.59,0.36,-3.33,38.86,-5.04,1.26,84.60,3.61,-1.22,-15.08
-7,8,526,33,-384,3905,-0.42,0.54,31.64,0.33,-3.84,39.05,-5.05,1.26,84.48,3.59,-1.14,-18.66
-9,9,518,8,-417,3915,-0.44,0.54,31.64,0.08,-4.17,39.15,-5.06,1.25,84.35,3.64,-1.16,-17.98
2,17,542,-4,-369,3911,-0.38,0.59,31.78,-0.04,-3.69,39.11,-5.06,1.25,84.22,3.40,-1.33,-19.85
-9,-1,553,41,-274,3963,-0.40,0.53,31.98,0.41,-2.74,39.63,-5.05,1.25,84.10,3.62,-0.95,-20.00
-9,6,581,-1,-370,3926,-0.41,0.51,32.32,-0.01,-3.70,39.26,-5.05,1.24,83.97,3.63,-1.08,-20.00
-1,20,587,-21,-380,3942,-0.38,0.58,32.67,-0.21,-3.80,39.42,-5.06,1.24,83.84,3.46,-1.38,-20.00
-4,14,587,-92,-305,3945,-0.36,0.61,32.99,-0.92,-3.05,39.45,-5.04,1.26,83.71,3.51,-1.28,-20.00
-13,1,585,-71,-317,3921,-0.41,0.55,33.26,-0.71,-3.17,39.21,-5.02,1.26,83.57,3.69,-1.00,-20.00
-6,9,584,-102,-338,3907,-0.40,0.55,33.49,-1.02,-3.38,39.07,-5.02,1.29,83.44,3.54,-1.19,-20.00
-19,5,607,-64,-340,3906,-0.48,0.53,33.85,-0.64,-3.40,39.06,-5.01,1.29,83.31,3.82,-1.10,-20.00
-4,11,629,-42,-322,3965,-0.45,0.54,34.30,-0.42,-3.22,39.65,-5.00,1.29,83.17,3.51,-1.22,-20.00
-11,9,624,-48,-405,3892,-0.48,0.54,34.67,-0.48,-4.05,38.92,-5.02,1.29,83.03,3.66,-1.18,-20.00
-14,7,568,34,-384,3904,-0.51,0.53,34.67,0.34,-3.84,39.04,-5.02,1.29,82.89,3.74,-1.14,-18.87
4,11,552,-11,-334,3999,-0.44,0.55,34.57,-0.11,-3.34,39.99,-5.02,1.29,82.76,3.35,-1.22,-17.61
-9,14,546,-65,-390,3873,-0.45,0.58,34.45,-0.65,-3.90,38.73,-5.03,1.29,82.62,3.63,-1.29,-17.22
-6,10,562,-17,-352,3913,-0.44,0.58,34.43,-0.17,-3.52,39.13,-5.03,1.29,82.48,3.56,-1.21,-18.58
6,20,610,-136,-320,3942,-0.36,0.64,34.71,-1.36,-3.20,39.42,-5.02,1.32,82.34,3.29,-1.45,-20.00
-3,17,630,-125,-368,3896,-0.34,0.68,35.08,-1.25,-3.68,38.96,-5.03,1.35,82.20,3.47,-1.42,-20.00
-14,13,678,-88,-464,3925,-0.39,0.69,35.71,-0.88,-4.64,39.25,-5.05,1.36,82.06,3.72,-1.35,-20.00
-5,20,675,-85,-409,3959,-0.38,0.75,36.25,-0.85,-4.09,39.59,-5.06,1.38,81.92,3.55,-1.52,-20.00
-1,20,682,-128,-376,3922,-0.35,0.79,36.79,-1.28,-3.76,39.22,-5.07,1.41,81.77,3.46,-1.55,-20.00
-15,-3,660,-47,-343,3885,-0.41,0.70,37.14,-0.47,-3.43,38.85,-5.07,1.40,81.62,3.76,-1.06,-20.00
-18,-2,625,-61,-359,3901,-0.48,0.61,37.23,-0.61,-3.59,39.01,-5.07,1.40,81.48,3.85,-1.05,-20.00
-14,-4,600,-70,-318,3897,-0.52,0.53,37.17,-0.70,-3.18,38.97,-5.06,1.41,81.33,3.76,-0.99,-18.79
-17,-5,581,-39,-305,3887,-0.57,0.45,37.00,-0.39,-3.05,38.87,-5.05,1.40,81.18,3.83,-0.95,-17.35
3,8,579,-148,-385,3930,-0.49,0.45,36.83,-1.48,-3.85,39.30,-5.06,1.43,81.03,3.41,-1.23,-17.35
1,14,564,-126,-352,3956,-0.44,0.49,36.59,-1.26,-3.52,39.56,-5.06,1.47,80.89,3.44,-1.39,-16.32
-8,12,549,-37,-340,3952,-0.44,0.51,36.28,-0.37,-3.40,39.52,-5.05,1.46,80.74,3.62,-1.35,-15.37
-5,9,509,-95,-408,3924,-0.43,0.52,35.75,-0.95,-4.08,39.24,-5.07,1.48,80.60,3.56,-1.30,-12.52
-13,1,494,-135,-470,3903,-0.46,0.47,35.19,-1.35,-4.70,39.03,-5.08,1.50,80.46,3.75,-1.14,-11.83
-5,2,435,-76,-348,3936,-0.45,0.44,34.33,-0.76,-3.48,39.36,-5.08,1.49,80.33,3.58,-1.14,-7.73
-14,-4,416,-60,-303,3936,-0.49,0.37,33.43,-0.60,-3.03,39.36,-5.07,1.49,80.19,3.76,-1.00,-7.06
-16,-1,382,-165,-306,3916,-0.54,0.33,32.42,-1.65,-3.06,39.16,-5.05,1.52,80.06,3.81,-1.07,-5.24
-2,4,367,-148,-292,3972,-0.50,0.32,31.42,-1.48,-2.92,39.72,-5.04,1.54,79.94,3.50,-1.19,-5.02
-3,9,328,-89,-217,3899,-0.47,0.34,30.28,-0.89,-2.17,38.99,-5.02,1.55,79.82,3.50,-1.30,-2.91
1,4,312,-105,-228,3979,-0.41,0.33,29.15,-1.05,-2.28,39.79,-5.00,1.56,79.70,3.39,-1.20,-2.74
-2,6,338,-64,-312,3931,-0.38,0.33,28.30,-0.64,-3.12,39.31,-4.99,1.56,79.59,3.44,-1.24,-5.84
-3,11,359,-69,-318,3882,-0.36,0.37,27.66,-0.69,-3.18,38.82,-4.98,1.56,79.48,3.44,-1.35,-8.28
-1,5,446,-98,-320,4011,-0.33,0.36,27.61,-0.98,-3.20,40.11,-4.96,1.56,79.37,3.38,-1.23,-15.69
6,11,439,-75,-287,3962,-0.26,0.39,27.53,-0.75,-2.87,39.62,-4.94,1.56,79.26,3.21,-1.36,-15.18
-6,12,440,16,-363,3951,-0.27,0.43,27.46,0.16,-3.63,39.51,-4.94,1.56,79.15,3.46,-1.39,-15.32
-5,9,434,0,-411,3945,-0.28,0.44,27.36,0.00,-4.11,39.45,-4.95,1.55,79.04,3.44,-1.33,-14.91
-11,4,412,-12,-314,3938,-0.32,0.42,27.14,-0.12,-3.14,39.38,-4.94,1.54,78.93,3.57,-1.22,-13.27
-13,6,389,-82,-326,3937,-0.36,0.41,26.80,-0.82,-3.26,39.37,-4.93,1.54,78.82,3.62,-1.25,-11.68
0,9,328,-33,-388,3911,-0.33,0.43,26.12,-0.33,-3.88,39.11,-4.94,1.54,78.72,3.35,-1.31,-7.22
-3,7,315,-27,-367,3909,-0.31,0.43,25.43,-0.27,-3.67,39.09,-4.95,1.53,78.62,3.41,-1.27,-6.84
4,11,259,-34,-323,3911,-0.26,0.45,24.47,-0.34,-3.23,39.11,-4.94,1.52,78.52,3.25,-1.35,-3.10
4,13,257,-49,-305,3922,-0.21,0.49,23.59,-0.49,-3.05,39.22,-4.93,1.52,78.43,3.23,-1.40,-3.86
5,17,234,-114,-288,3898,-0.16,0.54,22.66,-1.14,-2.88,38.98,-4.91,1.53,78.34,3.18,-1.50,-2.89
2,10,221,-75,-258,3978,-0.13,0.55,21.74,-0.75,-2.58,39.78,-4.89,1.53,78.25,3.22,-1.36,-2.75
-4,1,207,-48,-346,3925,-0.14,0.50,20.83,-0.48,-3.46,39.25,-4.89,1.52,78.17,3.35,-1.16,-2.52
-3,8,234,-73,-327,3948,-0.14,0.50,20.17,-0.73,-3.27,39.48,-4.88,1.52,78.09,3.32,-1.30,-5.49
0,9,288,-57,-366,3946,-0.13,0.50,19.91,-0.57,-3.66,39.46,-4.89,1.51,78.01,3.26,-1.32,-10.34
3,1,301,-37,-390,3938,-0.10,0.46,19.76,-0.37,-3.90,39.38,-4.90,1.50,77.93,3.20,-1.14,-11.60
-5,2,287,-40,-357,3961,-0.12,0.43,19.53,-0.40,-3.57,39.61,-4.91,1.49,77.85,3.37,-1.14,-10.64
-7,0,285,-33,-353,3897,-0.15,0.38,19.32,-0.33,-3.53,38.97,-4.91,1.48,77.77,3.42,-1.08,-10.69
-4,-1,292,-12,-349,3905,-0.16,0.34,19.17,-0.12,-3.49,39.05,-4.91,1.47,77.70,3.37,-1.04,-11.44
-6,6,296,30,-378,3916,-0.18,0.34,19.06,0.30,-3.78,39.16,-4.91,1.46,77.62,3.41,-1.18,-11.89
3,15,362,42,-383,3964,-0.14,0.40,19.36,0.42,-3.83,39.64,-4.92,1.45,77.55,3.22,-1.37,-17.15
-1,8,405,74,-379,3920,-0.14,0.41,19.89,0.74,-3.79,39.20,-4.92,1.44,77.47,3.31,-1.23,-20.00
-7,15,558,40,-451,3967,-0.16,0.46,21.31,0.40,-4.51,39.67,-4.93,1.44,77.38,3.44,-1.38,-20.00
-20,9,616,92,-491,3894,-0.27,0.47,22.93,0.92,-4.91,38.94,-4.94,1.44,77.29,3.74,-1.26,-20.00
-5,8,761,-50,-353,3923,-0.27,0.47,25.28,-0.50,-3.53,39.23,-4.94,1.43,77.19,3.44,-1.23,-20.00
-17,12,805,19,-328,3864,-0.35,0.50,27.66,0.19,-3.28,38.64,-4.94,1.42,77.08,3.70,-1.32,-20.00
-6,23,983,-89,-212,3978,-0.35,0.59,30.89,-0.89,-2.12,39.78,-4.92,1.43,76.96,3.47,-1.57,-20.00
-5,36,1016,-102,-255,3858,-0.35,0.75,34.00,-1.02,-2.55,38.58,-4.90,1.45,76.82,3.43,-1.89,-20.00
-3,28,1070,-96,-306,3903,-0.33,0.84,37.13,-0.96,-3.06,39.03,-4.88,1.46,76.67,3.37,-1.76,-20.00
-11,16,1067,12,-451,3976,-0.36,0.86,39.93,0.12,-4.51,39.76,-4.89,1.47,76.51,3.55,-1.53,-20.00
-20,1,1002,-28,-374,3967,-0.45,0.78,42.04,-0.28,-3.74,39.67,-4.90,1.47,76.35,3.76,-1.20,-20.00
3,24,983,-60,-426,3951,-0.39,0.85,43.84,-0.60,-4.26,39.51,-4.91,1.48,76.17,3.29,-1.69,-20.00
-14,13,928,-79,-251,3907,-0.43,0.84,45.11,-0.79,-2.51,39.07,-4.89,1.49,75.99,3.63,-1.48,-20.00
-10,18,935,-154,-226,3894,-0.45,0.87,46.31,-1.54,-2.26,38.94,-4.87,1.52,75.81,3.54,-1.60,-20.00
-10,16,932,-60,-298,3811,-0.47,0.88,47.36,-0.60,-2.98,38.11,-4.86,1.52,75.62,3.54,-1.57,-20.00
-3,24,910,-95,-377,3987,-0.44,0.94,48.18,-0.95,-3.77,39.87,-4.87,1.54,75.43,3.40,-1.76,-20.00
-12,17,811,-72,-420,3908,-0.47,0.95,48.31,-0.72,-4.20,39.08,-4.89,1.55,75.24,3.60,-1.63,-20.00
4,17,778,-121,-391,3978,-0.40,0.96,48.22,-1.21,-3.91,39.78,-4.90,1.58,75.05,3.26,-1.65,-20.00
-22,11,693,-48,-370,3900,-0.49,0.93,47.63,-0.48,-3.70,39.00,-4.91,1.58,74.86,3.82,-1.52,-15.02
-5,13,701,-104,-381,3888,-0.47,0.91,47.14,-1.04,-3.81,38.88,-4.92,1.60,74.67,3.48,-1.57,-16.20
-3,21,766,-50,-402,3918,-0.44,0.95,47.10,-0.50,-4.02,39.18,-4.93,1.61,74.48,3.44,-1.75,-20.00
-19,12,795,24,-424,3922,-0.52,0.93,47.24,0.24,-4.24,39.22,-4.94,1.61,74.29,3.79,-1.56,-20.00
-16,16,882,27,-439,3915,-0.56,0.93,47.89,0.27,-4.39,39.15,-4.94,1.62,74.10,3.74,-1.65,-20.00
-18,12,907,-39,-436,3903,-0.61,0.91,48.64,-0.39,-4.36,39.03,-4.96,1.63,73.91,3.80,-1.57,-20.00
-4,25,888,-81,-338,3903,-0.58,0.97,49.19,-0.81,-3.38,39.03,-4.95,1.63,73.71,3.51,-1.85,-20.00
-16,10,881,-79,-322,3934,-0.62,0.94,49.65,-0.79,-3.22,39.34,-4.94,1.63,73.52,3.75,-1.54,-20.00
7,25,825,-123,-353,3878,-0.51,1.00,49.71,-1.23,-3.53,38.78,-4.95,1.66,73.32,3.27,-1.88,-20.00
-9,14,797,-67,-458,3891,-0.52,0.98,49.60,-0.67,-4.58,38.91,-4.97,1.68,73.12,3.60,-1.66,-20.00
-13,17,640,-117,-486,3961,-0.54,0.99,48.55,-1.17,-4.86,39.61,-4.98,1.70,72.93,3.70,-1.74,-9.38
-8,10,580,-65,-474,3988,-0.54,0.95,47.23,-0.65,-4.74,39.88,-4.99,1.71,72.74,3.61,-1.59,-5.67
-8,4,428,-136,-386,3887,-0.53,0.88,45.12,-1.36,-3.86,38.87,-5.01,1.74,72.56,3.61,-1.47,4.98
-2,11,411,-100,-434,3917,-0.49,0.86,43.11,-1.00,-4.34,39.17,-5.02,1.75,72.39,3.49,-1.62,4.32
-17,1,394,-2,-512,3903,-0.55,0.78,41.21,-0.02,-5.12,39.03,-5.03,1.76,72.23,3.82,-1.39,3.75
-11,4,375,-47,-463,3945,-0.56,0.73,39.37,-0.47,-4.63,39.45,-5.05,1.77,72.07,3.71,-1.45,3.43
-2,11,343,-70,-377,3934,-0.52,0.72,37.53,-0.70,-3.77,39.34,-5.05,1.77,71.92,3.52,-1.59,4.20
-9,6,343,-106,-318,3880,-0.52,0.68,35.87,-1.06,-3.18,38.80,-5.04,1.77,71.78,3.65,-1.48,2.46
1,18,409,-42,-350,3865,-0.46,0.73,34.78,-0.42,-3.50,38.65,-5.03,1.77,71.64,3.43,-1.73,-4.28
7,23,434,-77,-329,3937,-0.37,0.79,33.95,-0.77,-3.29,39.37,-5.03,1.77,71.51,3.28,-1.85,-7.26
2,21,461,-116,-466,3932,-0.32,0.84,33.36,-1.16,-4.66,39.32,-5.04,1.78,71.37,3.37,-1.83,-10.15
-11,13,459,-21,-413,3916,-0.36,0.84,32.83,-0.21,-4.13,39.16,-5.05,1.78,71.24,3.65,-1.67,-10.54
-4,10,440,-147,-280,3895,-0.35,0.81,32.23,-1.47,-2.80,38.95,-5.03,1.80,71.12,3.49,-1.62,-9.55
-8,4,457,-125,-296,3901,-0.36,0.76,31.79,-1.25,-2.96,39.01,-5.01,1.82,70.99,3.57,-1.49,-11.44
-3,11,516,-62,-377,3913,-0.34,0.75,31.76,-0.62,-3.77,39.13,-5.01,1.82,70.86,3.46,-1.63,-16.46
-16,13,523,-70,-434,3879,-0.41,0.75,31.78,-0.70,-4.34,38.79,-5.03,1.82,70.74,3.75,-1.67,-17.03
1,7,539,-118,-391,3885,-0.36,0.72,31.89,-1.18,-3.91,38.85,-5.04,1.83,70.61,3.41,-1.55,-18.26
-5,12,537,28,-387,3966,-0.35,0.72,31.97,0.28,-3.87,39.66,-5.04,1.83,70.48,3.53,-1.65,-17.98
-7,20,516,-19,-206,3884,-0.36,0.77,31.92,-0.19,-2.06,38.84,-5.03,1.83,70.36,3.56,-1.83,-16.25
-11,16,531,49,-316,3925,-0.39,0.79,31.97,0.49,-3.16,39.25,-5.02,1.83,70.23,3.65,-1.75,-17.46
1,7,564,44,-327,3886,-0.35,0.76,32.21,0.44,-3.27,38.86,-5.02,1.83,70.10,3.39,-1.55,-19.98
-10,-1,551,51,-412,3940,-0.37,0.67,32.35,0.51,-4.12,39.40,-5.02,1.82,69.97,3.62,-1.37,-18.72
-5,0,522,-61,-327,3914,-0.37,0.61,32.30,-0.61,-3.27,39.14,-5.01,1.82,69.84,3.51,-1.37,-16.31
-11,-13,521,-9,-339,3974,-0.40,0.47,32.25,-0.09,-3.39,39.74,-5.01,1.81,69.71,3.64,-1.06,-16.27
-17,-4,519,-83,-511,3899,-0.46,0.40,32.19,-0.83,-5.11,38.99,-5.03,1.82,69.59,3.79,-1.23,-16.15
-11,0,495,-84,-484,3948,-0.48,0.36,31.99,-0.84,-4.84,39.48,-5.04,1.83,69.46,3.68,-1.30,-14.31
8,19,476,-33,-369,3910,-0.38,0.44,31.70,-0.33,-3.69,39.10,-5.04,1.82,69.33,3.27,-1.71,-13.01
-1,21,493,-78,-329,3921,-0.35,0.52,31.53,-0.78,-3.29,39.21,-5.03,1.82,69.21,3.44,-1.77,-14.61
-10,20,624,43,-388,3860,-0.38,0.59,32.19,0.43,-3.88,38.60,-5.04,1.82,69.08,3.63,-1.77,-20.00
13,27,671,15,-363,4001,-0.26,0.70,33.06,0.15,-3.63,40.01,-5.04,1.81,68.95,3.13,-1.93,-20.00
-12,17,639,-52,-420,3971,-0.31,0.73,33.65,-0.52,-4.20,39.71,-5.04,1.81,68.82,3.66,-1.74,-20.00
-10,11,613,-106,-412,3974,-0.34,0.72,34.03,-1.06,-4.12,39.74,-5.06,1.82,68.68,3.63,-1.62,-20.00
-15,13,599,-219,-271,3879,-0.40,0.73,34.28,-2.19,-2.71,38.79,-5.05,1.85,68.54,3.74,-1.69,-20.00
-5,8,599,-165,-282,3974,-0.39,0.71,34.50,-1.65,-2.82,39.74,-5.03,1.88,68.41,3.52,-1.59,-20.00
1,16,558,-161,-270,3992,-0.34,0.73,34.46,-1.61,-2.70,39.92,-5.01,1.90,68.27,3.38,-1.78,-16.93
-5,8,485,-233,-243,3935,-0.34,0.71,33.97,-2.33,-2.43,39.35,-4.99,1.92,68.13,3.49,-1.63,-11.25
-3,5,326,-178,-267,3929,-0.32,0.67,32.56,-1.78,-2.67,39.29,-4.97,1.95,68.00,3.43,-1.57,0.74
-7,8,284,-170,-241,3913,-0.33,0.65,31.04,-1.70,-2.41,39.13,-4.95,1.97,67.88,3.50,-1.64,2.70
1,8,229,-77,-307,3936,-0.29,0.63,29.33,-0.77,-3.07,39.36,-4.94,1.96,67.76,3.32,-1.63,5.56
-1,2,242,-104,-291,3956,-0.27,0.58,27.87,-1.04,-2.91,39.56,-4.92,1.97,67.65,3.34,-1.50,2.92
-7,4,259,-66,-389,3922,-0.29,0.55,26.67,-0.66,-3.89,39.22,-4.93,1.96,67.54,3.47,-1.53,0.22
-3,1,263,-79,-492,3881,-0.28,0.50,25.60,-0.79,-4.92,38.81,-4.94,1.97,67.44,3.40,-1.46,-1.24
-10,3,265,0,-482,3913,-0.31,0.47,24.66,0.00,-4.82,39.13,-4.96,1.97,67.35,3.56,-1.49,-2.40
-18,4,293,27,-470,3909,-0.39,0.45,23.98,0.27,-4.70,39.09,-4.97,1.96,67.25,3.75,-1.50,-5.48
-4,4,321,-40,-464,3953,-0.37,0.43,23.54,-0.40,-4.64,39.53,-4.98,1.96,67.16,3.47,-1.49,-8.31
-10,-3,317,-96,-452,3895,-0.40,0.37,23.12,-0.96,-4.52,38.95,-4.99,1.96,67.07,3.61,-1.33,-8.41
-7,5,340,-61,-423,3926,-0.40,0.36,22.88,-0.61,-4.23,39.26,-5.01,1.96,66.97,3.56,-1.49,-10.60
5,9,355,-79,-375,3898,-0.33,0.38,22.76,-0.79,-3.75,38.98,-5.01,1.95,66.88,3.30,-1.58,-12.00
-1,4,343,-54,-416,3939,-0.30,0.36,22.58,-0.54,-4.16,39.39,-5.02,1.95,66.79,3.42,-1.47,-11.17
3,6,327,-61,-319,3852,-0.25,0.36,22.31,-0.61,-3.19,38.52,-5.02,1.94,66.71,3.32,-1.50,-10.08
1,12,239,-77,-328,3945,-0.22,0.40,21.54,-0.77,-3.28,39.45,-5.01,1.93,66.62,3.35,-1.63,-3.44
4,11,222,-89,-317,3932,-0.18,0.43,20.74,-0.89,-3.17,39.32,-5.00,1.93,66.54,3.26,-1.61,-2.84
0,3,197,-53,-325,3963,-0.16,0.40,19.87,-0.53,-3.25,39.63,-4.99,1.92,66.46,3.34,-1.44,-1.63
-5,0,207,8,-334,3971,-0.17,0.36,19.14,0.08,-3.34,39.71,-4.99,1.91,66.38,3.44,-1.36,-3.24
-5,7,331,-27,-368,3897,-0.19,0.37,19.25,-0.27,-3.68,38.97,-4.99,1.90,66.31,3.45,-1.50,-13.63
8,14,374,-49,-365,3941,-0.12,0.42,19.61,-0.49,-3.65,39.41,-4.99,1.89,66.23,3.16,-1.65,-16.89
5,6,362,-55,-406,3959,-0.08,0.41,19.85,-0.55,-4.06,39.59,-5.00,1.88,66.15,3.22,-1.48,-15.60
3,10,355,-102,-378,3899,-0.05,0.43,20.03,-1.02,-3.78,38.99,-5.01,1.88,66.07,3.26,-1.56,-14.81
-5,-2,417,-99,-458,3900,-0.08,0.38,20.57,-0.99,-4.58,39.00,-5.03,1.88,65.99,3.44,-1.31,-19.48
-13,10,423,-108,-473,3942,-0.15,0.40,21.10,-1.08,-4.73,39.42,-5.04,1.89,65.90,3.63,-1.56,-19.43
-12,12,496,-31,-413,3905,-0.21,0.43,22.01,-0.31,-4.13,39.05,-5.05,1.88,65.82,3.64,-1.61,-20.00
-10,9,504,-126,-411,3944,-0.25,0.45,22.89,-1.26,-4.11,39.44,-5.07,1.89,65.73,3.62,-1.55,-20.00
-11,15,492,-160,-444,3925,-0.29,0.49,23.60,-1.60,-4.44,39.25,-5.08,1.91,65.63,3.66,-1.70,-20.00
-14,13,479,-138,-457,3861,-0.35,0.52,24.16,-1.38,-4.57,38.61,-5.10,1.92,65.54,3.75,-1.67,-20.00
3,28,489,-109,-363,3904,-0.29,0.64,24.73,-1.09,-3.63,39.04,-5.11,1.92,65.44,3.39,-2.01,-20.00
9,27,519,-51,-351,3995,-0.21,0.74,25.42,-0.51,-3.51,39.95,-5.11,1.91,65.34,3.24,-2.01,-20.00
43,64,550,-153,-433,4002,0.07,1.06,26.23,-1.53,-4.33,40.02,-5.12,1.93,65.24,2.48,-2.86,-20.00
64,73,547,-195,-366,3845,0.46,1.40,26.95,-1.95,-3.66,38.45,-5.12,1.96,65.13,1.95,-3.16,-20.00
62,71,554,-122,-497,3898,0.79,1.69,27.63,-1.22,-4.97,38.98,-5.13,1.98,65.02,1.91,-3.21,-20.00
54,62,540,-36,-356,3918,1.04,1.90,28.16,-0.36,-3.56,39.18,-5.12,1.98,64.91,2.00,-3.08,-20.00
40,44,432,-75,-451,3929,1.18,1.98,27.98,-0.75,-4.51,39.29,-5.13,1.98,64.80,2.25,-2.74,-12.80
17,31,406,-90,-431,3840,1.17,1.97,27.66,-0.90,-4.31,38.40,-5.14,1.99,64.69,2.73,-2.48,-10.93
-18,7,341,-33,-276,3887,0.94,1.82,26.97,-0.33,-2.76,38.87,-5.12,2.00,64.58,3.49,-1.95,-6.14
-3,-12,314,-33,-322,4019,0.83,1.56,26.19,-0.33,-3.22,40.19,-5.11,1.99,64.48,3.21,-1.50,-4.67
-10,-9,263,-58,-361,3923,0.68,1.35,25.18,-0.58,-3.61,39.23,-5.10,1.99,64.38,3.39,-1.50,-1.42
-17,-13,248,-124,-451,3882,0.51,1.14,24.17,-1.24,-4.51,38.82,-5.12,2.00,64.28,3.58,-1.37,-1.20
-20,-6,263,-54,-361,3943,0.34,0.99,23.36,-0.54,-3.61,39.43,-5.11,1.99,64.19,3.69,-1.46,-3.32
-35,-8,281,6,-497,3934,0.09,0.84,22.74,0.06,-4.97,39.34,-5.12,1.99,64.10,4.07,-1.38,-5.50
-12,-5,314,-284,-546,3865,0.01,0.72,22.38,-2.84,-5.46,38.65,-5.13,2.02,64.01,3.63,-1.43,-8.67
-2,-3,319,-212,-435,3941,-0.00,0.63,22.09,-2.12,-4.35,39.41,-5.14,2.04,63.92,3.44,-1.46,-9.39
24,23,414,-35,-395,3934,0.14,0.71,22.40,-0.35,-3.95,39.34,-5.15,2.03,63.84,2.87,-2.00,-17.10
15,48,436,-67,-348,4023,0.22,0.93,22.82,-0.67,-3.48,40.23,-5.14,2.03,63.74,3.03,-2.57,-18.51
1,27,422,-172,-359,3885,0.20,1.00,23.11,-1.72,-3.59,38.85,-5.14,2.06,63.65,3.32,-2.18,-17.01
9,22,401,-111,-227,3995,0.24,1.04,23.25,-1.11,-2.27,39.95,-5.12,2.06,63.56,3.13,-2.09,-15.08
32,32,310,-172,-230,3954,0.41,1.13,22.82,-1.72,-2.30,39.54,-5.10,2.08,63.47,2.60,-2.33,-7.82
28,39,282,-100,-206,3964,0.54,1.25,22.25,-1.00,-2.06,39.64,-5.07,2.09,63.38,2.63,-2.51,-6.03
19,20,249,-35,-354,3900,0.60,1.25,21.55,-0.35,-3.54,39.00,-5.07,2.08,63.29,2.80,-2.12,-3.98
14,17,280,10,-426,3866,0.63,1.23,21.10,0.10,-4.26,38.66,-5.07,2.08,63.21,2.89,-2.05,-7.07
9,13,386,-29,-401,3971,0.62,1.19,21.35,-0.29,-4.01,39.71,-5.07,2.07,63.13,3.00,-1.96,-15.78
15,14,388,-89,-496,3891,0.65,1.15,21.58,-0.89,-4.96,38.91,-5.09,2.08,63.04,2.87,-1.97,-15.70
2,3,327,-110,-470,3928,0.60,1.06,21.41,-1.10,-4.70,39.28,-5.10,2.09,62.96,3.16,-1.73,-10.69
-7,9,317,-86,-465,3945,0.49,1.00,21.21,-0.86,-4.65,39.45,-5.11,2.09,62.87,3.38,-1.84,-10.06
3,16,322,-95,-358,3903,0.46,1.00,21.05,-0.95,-3.58,39.03,-5.11,2.08,62.79,3.18,-1.97,-10.64
6,21,357,-154,-381,3917,0.45,1.03,21.12,-1.54,-3.81,39.17,-5.12,2.10,62.71,3.13,-2.09,-13.52
-9,15,450,-23,-333,3951,0.35,1.02,21.76,-0.23,-3.33,39.51,-5.11,2.10,62.62,3.46,-1.97,-20.00
7,14,465,-124,-334,3907,0.36,1.00,22.42,-1.24,-3.34,39.07,-5.10,2.09,62.53,3.12,-1.94,-20.00
-12,16,477,-30,-352,3825,0.25,1.00,23.08,-0.30,-3.52,38.25,-5.09,2.09,62.44,3.54,-1.97,-20.00
-6,18,481,-92,-295,3991,0.19,1.01,23.71,-0.92,-2.95,39.91,-5.08,2.09,62.34,3.42,-2.02,-20.00
-3,18,477,-32,-278,3932,0.15,1.02,24.25,-0.32,-2.78,39.32,-5.06,2.08,62.25,3.36,-2.02,-20.00
2,6,485,-6,-326,3952,0.15,0.95,24.78,-0.06,-3.26,39.52,-5.05,2.08,62.15,3.25,-1.75,-20.00
-4,4,551,39,-476,3976,0.11,0.88,25.67,0.39,-4.76,39.76,-5.06,2.08,62.05,3.39,-1.69,-20.00
-4,6,553,44,-405,3901,0.07,0.83,26.47,0.44,-4.05,39.01,-5.06,2.07,61.94,3.40,-1.72,-20.00
-1,-3,544,17,-446,3852,0.06,0.73,27.14,0.17,-4.46,38.52,-5.07,2.07,61.84,3.35,-1.50,-20.00
-4,17,520,-43,-508,3899,0.03,0.76,27.60,-0.43,-5.08,38.99,-5.08,2.07,61.73,3.43,-1.92,-20.00
3,19,486,-201,-291,3936,0.05,0.80,27.81,-2.01,-2.91,39.36,-5.06,2.10,61.62,3.27,-1.99,-17.28
-1,4,521,-72,-370,3912,0.03,0.74,28.20,-0.72,-3.70,39.12,-5.06,2.09,61.50,3.35,-1.67,-19.81
0,0,522,-181,-491,3917,0.03,0.67,28.57,-1.81,-4.91,39.17,-5.08,2.11,61.39,3.34,-1.58,-19.50
-11,7,492,-205,-480,3847,-0.04,0.65,28.71,-2.05,-4.80,38.47,-5.09,2.13,61.28,3.59,-1.72,-16.80
4,6,378,-113,-445,3945,-0.01,0.62,28.15,-1.13,-4.45,39.45,-5.10,2.14,61.17,3.29,-1.70,-7.73
-6,2,367,-139,-384,3971,-0.05,0.57,27.57,-1.39,-3.84,39.71,-5.12,2.14,61.06,3.51,-1.61,-7.39
-1,2,361,-147,-407,3943,-0.05,0.52,27.02,-1.47,-4.07,39.43,-5.13,2.15,60.95,3.42,-1.61,-7.46
-5,0,387,-100,-405,3896,-0.07,0.47,26.67,-1.00,-4.05,38.96,-5.14,2.15,60.84,3.51,-1.55,-10.02
-10,7,485,87,-519,3978,-0.13,0.47,26.97,0.87,-5.19,39.78,-5.15,2.15,60.74,3.64,-1.69,-18.00
2,20,484,68,-565,3929,-0.10,0.54,27.22,0.68,-5.65,39.29,-5.16,2.15,60.63,3.39,-1.97,-17.64
11,9,415,-164,-467,3873,-0.02,0.54,27.03,-1.64,-4.67,38.73,-5.17,2.16,60.52,3.20,-1.76,-11.98
-10,4,463,-180,-447,3893,-0.08,0.51,27.15,-1.80,-4.47,38.93,-5.18,2.18,60.41,3.65,-1.66,-15.91
3,3,478,-133,-421,3920,-0.06,0.48,27.35,-1.33,-4.21,39.20,-5.20,2.19,60.31,3.39,-1.64,-16.96
-7,12,468,-310,-491,3899,-0.09,0.51,27.47,-3.10,-4.91,38.99,-5.21,2.21,60.20,3.60,-1.84,-15.98
-11,13,475,-140,-314,3872,-0.15,0.53,27.62,-1.40,-3.14,38.72,-5.18,2.22,60.09,3.69,-1.88,-16.40
-21,21,485,-100,-347,3942,-0.26,0.61,27.82,-1.00,-3.47,39.42,-5.18,2.22,59.98,3.92,-2.06,-17.03
-3,4,513,-214,-339,3973,-0.26,0.57,28.17,-2.14,-3.39,39.73,-5.17,2.25,59.86,3.54,-1.72,-19.03
-5,9,497,-199,-335,3822,-0.26,0.57,28.38,-1.99,-3.35,38.22,-5.16,2.28,59.75,3.58,-1.84,-17.43
5,0,458,-111,-388,3892,-0.20,0.51,28.34,-1.11,-3.88,38.92,-5.17,2.27,59.64,3.37,-1.64,-14.16
-1,8,467,-100,-427,3895,-0.19,0.51,28.35,-1.00,-4.27,38.95,-5.18,2.28,59.53,3.49,-1.80,-14.90
-1,14,484,-8,-397,3991,-0.18,0.54,28.47,-0.08,-3.97,39.91,-5.18,2.27,59.41,3.49,-1.93,-16.21
-2,14,477,11,-343,3923,-0.17,0.58,28.53,0.11,-3.43,39.23,-5.18,2.26,59.30,3.50,-1.94,-15.54
-14,13,528,-106,-439,3884,-0.24,0.60,28.90,-1.06,-4.39,38.84,-5.19,2.27,59.18,3.77,-1.92,-19.46
-10,11,517,-129,-472,3908,-0.28,0.60,29.16,-1.29,-4.72,39.08,-5.20,2.28,59.07,3.71,-1.89,-18.24
-15,7,438,-103,-333,3878,-0.34,0.59,28.92,-1.03,-3.33,38.78,-5.19,2.27,58.95,3.82,-1.80,-11.79
-4,19,430,-99,-370,3922,-0.33,0.64,28.65,-0.99,-3.70,39.22,-5.19,2.27,58.84,3.60,-2.06,-11.39
-6,15,413,-123,-334,3884,-0.33,0.67,28.30,-1.23,-3.34,38.84,-5.18,2.27,58.73,3.63,-1.98,-10.30
2,13,405,-139,-253,4006,-0.29,0.68,27.94,-1.39,-2.53,40.06,-5.16,2.28,58.62,3.44,-1.95,-10.00
8,19,354,-144,-291,3910,-0.21,0.73,27.31,-1.44,-2.91,39.10,-5.14,2.28,58.51,3.29,-2.09,-6.34
-4,18,330,-135,-279,3934,-0.21,0.77,26.59,-1.35,-2.79,39.34,-5.12,2.29,58.40,3.52,-2.09,-5.06
5,3,235,-116,-173,3959,-0.16,0.71,25.37,-1.16,-1.73,39.59,-5.10,2.30,58.30,3.31,-1.77,1.70
1,-4,190,-88,-199,3885,-0.14,0.61,23.99,-0.88,-1.99,38.85,-5.08,2.30,58.20,3.37,-1.61,4.07
-2,1,135,-167,-290,3921,-0.14,0.56,22.41,-1.67,-2.90,39.21,-5.05,2.32,58.11,3.41,-1.70,7.07
3,8,133,-169,-349,3935,-0.11,0.55,20.98,-1.69,-3.49,39.35,-5.05,2.34,58.03,3.30,-1.86,5.73
4,6,131,-61,-484,3930,-0.07,0.53,19.68,-0.61,-4.84,39.30,-5.07,2.34,57.95,3.28,-1.81,4.53
16,12,148,-155,-382,3923,0.03,0.55,18.62,-1.55,-3.82,39.23,-5.08,2.35,57.88,3.02,-1.94,1.97
6,4,205,1,-457,3916,0.07,0.52,18.01,0.01,-4.57,39.16,-5.09,2.34,57.81,3.22,-1.77,-3.50
8,-4,230,-71,-481,3916,0.11,0.45,17.61,-0.71,-4.81,39.16,-5.10,2.34,57.74,3.17,-1.58,-6.04
0,-6,261,-101,-394,3937,0.10,0.36,17.44,-1.01,-3.94,39.37,-5.11,2.33,57.67,3.34,-1.52,-8.84
1,1,252,-142,-378,3930,0.09,0.33,17.23,-1.42,-3.78,39.30,-5.12,2.33,57.60,3.33,-1.65,-8.29
12,26,326,-210,-455,3880,0.16,0.46,17.50,-2.10,-4.55,38.80,-5.13,2.34,57.53,3.10,-2.20,-14.27
5,22,390,-92,-432,3936,0.17,0.55,18.13,-0.92,-4.32,39.36,-5.14,2.34,57.46,3.24,-2.14,-19.02
-1,27,465,-116,-420,3973,0.15,0.66,19.15,-1.16,-4.20,39.73,-5.15,2.34,57.38,3.38,-2.27,-20.00
6,28,468,-97,-345,3949,0.17,0.76,20.09,-0.97,-3.45,39.49,-5.15,2.33,57.30,3.23,-2.32,-20.00
-9,12,500,-138,-443,3873,0.10,0.76,21.13,-1.38,-4.43,38.73,-5.16,2.34,57.22,3.56,-1.99,-20.00
11,-2,498,-130,-394,3922,0.16,0.67,22.06,-1.30,-3.94,39.22,-5.17,2.34,57.13,3.15,-1.68,-20.00
-7,-7,373,-64,-297,3909,0.10,0.56,22.13,-0.64,-2.97,39.09,-5.16,2.33,57.05,3.52,-1.55,-13.31
-1,-10,336,-169,-303,4014,0.08,0.44,21.96,-1.69,-3.03,40.14,-5.13,2.34,56.96,3.39,-1.46,-10.34
-1,-13,220,-159,-379,3913,0.07,0.32,21.11,-1.59,-3.79,39.13,-5.15,2.35,56.87,3.40,-1.37,-1.41
0,-14,223,-202,-354,3868,0.06,0.20,20.36,-2.02,-3.54,38.68,-5.15,2.38,56.79,3.38,-1.34,-2.45
-3,-8,249,-99,-328,4002,0.04,0.13,19.84,-0.99,-3.28,40.02,-5.14,2.37,56.71,3.44,-1.44,-5.19
-3,-1,234,-81,-352,3969,0.01,0.11,19.28,-0.81,-3.52,39.69,-5.13,2.36,56.64,3.44,-1.57,-4.50
6,2,267,-78,-379,3952,0.05,0.12,18.98,-0.78,-3.79,39.52,-5.13,2.35,56.56,3.25,-1.62,-7.61
2,3,285,-90,-395,3893,0.06,0.12,18.82,-0.90,-3.95,38.93,-5.14,2.34,56.49,3.34,-1.64,-9.30
0,5,330,-33,-432,3821,0.05,0.14,18.96,-0.33,-4.32,38.21,-5.15,2.33,56.41,3.38,-1.68,-12.96
4,13,329,-67,-454,3922,0.07,0.21,19.07,-0.67,-4.54,39.22,-5.16,2.33,56.34,3.30,-1.86,-12.75
7,8,326,-159,-390,3848,0.11,0.23,19.15,-1.59,-3.90,38.48,-5.17,2.33,56.26,3.24,-1.77,-12.41
6,19,332,-196,-486,3934,0.13,0.33,19.26,-1.96,-4.86,39.34,-5.19,2.35,56.18,3.27,-2.02,-12.79
-3,11,298,51,-383,4028,0.10,0.36,19.15,0.51,-3.83,40.28,-5.18,2.34,56.11,3.46,-1.86,-10.02
-2,8,281,24,-325,3964,0.08,0.37,18.95,0.24,-3.25,39.64,-5.18,2.33,56.03,3.44,-1.80,-8.78
-1,-1,313,-91,-417,3892,0.06,0.33,18.96,-0.91,-4.17,38.92,-5.19,2.32,55.96,3.43,-1.60,-11.47
-3,-4,341,-59,-354,3932,0.04,0.27,19.15,-0.59,-3.54,39.32,-5.18,2.31,55.88,3.47,-1.52,-13.64
-4,3,307,-108,-448,3928,0.01,0.26,19.11,-1.08,-4.48,39.28,-5.20,2.31,55.81,3.51,-1.66,-10.80
-6,8,322,-97,-487,3878,-0.03,0.29,19.16,-0.97,-4.87,38.78,-5.21,2.31,55.73,3.57,-1.77,-12.01
2,3,424,-55,-436,3913,-0.01,0.28,19.83,-0.55,-4.36,39.13,-5.22,2.31,55.65,3.41,-1.66,-19.93
-5,3,439,1,-466,3918,-0.04,0.27,20.52,0.01,-4.66,39.18,-5.22,2.30,55.57,3.56,-1.65,-20.00
-14,-7,433,-10,-436,3970,-0.12,0.20,21.11,-0.10,-4.36,39.70,-5.23,2.29,55.49,3.77,-1.42,-19.32
-5,0,418,-111,-417,3954,-0.14,0.18,21.55,-1.11,-4.17,39.54,-5.24,2.29,55.40,3.60,-1.56,-17.58
-1,7,377,-129,-361,3908,-0.13,0.20,21.70,-1.29,-3.61,39.08,-5.24,2.28,55.32,3.51,-1.70,-13.94
-12,8,382,-130,-449,3868,-0.19,0.23,21.86,-1.30,-4.49,38.68,-5.25,2.28,55.23,3.76,-1.73,-14.19
-8,9,424,-138,-516,3975,-0.22,0.26,22.26,-1.38,-5.16,39.75,-5.27,2.29,55.14,3.70,-1.77,-17.32
-9,15,421,-89,-492,3973,-0.25,0.33,22.60,-0.89,-4.92,39.73,-5.28,2.29,55.05,3.74,-1.91,-16.69
10,20,449,-214,-531,3866,-0.17,0.42,23.08,-2.14,-5.31,38.66,-5.30,2.31,54.96,3.34,-2.04,-18.55
-7,27,467,-175,-488,3919,-0.19,0.54,23.62,-1.75,-4.88,39.19,-5.31,2.32,54.87,3.70,-2.23,-19.49
12,17,459,-6,-338,4044,-0.10,0.59,24.06,-0.06,-3.38,40.44,-5.31,2.31,54.77,3.29,-2.03,-18.34
-6,13,446,10,-358,3842,-0.13,0.61,24.37,0.10,-3.58,38.42,-5.30,2.30,54.67,3.66,-1.95,-16.90
-10,9,337,-133,-362,3945,-0.18,0.60,23.99,-1.33,-3.62,39.45,-5.30,2.30,54.58,3.75,-1.86,-8.06
-6,9,333,-4,-229,3770,-0.20,0.60,23.62,-0.04,-2.29,37.70,-5.28,2.30,54.48,3.66,-1.86,-8.10
-3,-5,271,-211,-260,3927,-0.19,0.51,22.91,-2.11,-2.60,39.27,-5.26,2.31,54.39,3.59,-1.56,-3.59
1,5,284,-156,-307,3959,-0.17,0.49,22.35,-1.56,-3.07,39.59,-5.24,2.32,54.30,3.48,-1.77,-5.28
-10,-11,273,-85,-318,4010,-0.21,0.37,21.78,-0.85,-3.18,40.10,-5.23,2.32,54.22,3.71,-1.41,-4.94
4,18,273,-170,-453,3957,-0.17,0.44,21.27,-1.70,-4.53,39.57,-5.24,2.33,54.13,3.43,-2.02,-5.48
-10,-3,435,-180,-414,3895,-0.21,0.38,21.80,-1.80,-4.14,38.95,-5.26,2.34,54.05,3.73,-1.59,-18.64
-12,8,422,-89,-323,3969,-0.26,0.39,22.19,-0.89,-3.23,39.69,-5.25,2.34,53.96,3.78,-1.81,-17.11
2,18,367,-76,-426,3881,-0.22,0.46,22.21,-0.76,-4.26,38.81,-5.26,2.33,53.87,3.49,-2.03,-12.42
15,18,375,-95,-490,3876,-0.11,0.53,22.28,-0.95,-4.90,38.76,-5.27,2.34,53.78,3.20,-2.05,-13.02
3,-3,328,-90,-377,3835,-0.08,0.46,22.05,-0.90,-3.77,38.35,-5.27,2.33,53.69,3.44,-1.60,-9.27
2,5,323,-47,-433,3986,-0.06,0.44,21.82,-0.47,-4.33,39.86,-5.28,2.32,53.61,3.46,-1.75,-9.09
-15,-1,342,-141,-477,3913,-0.15,0.39,21.72,-1.41,-4.77,39.13,-5.29,2.33,53.52,3.84,-1.62,-10.79
-32,11,347,-94,-348,3812,-0.33,0.42,21.67,-0.94,-3.48,38.12,-5.29,2.32,53.44,4.23,-1.87,-11.27
-14,29,396,-153,-358,3948,-0.38,0.55,21.91,-1.53,-3.58,39.48,-5.27,2.32,53.35,3.87,-2.27,-15.15
-3,11,361,-84,-353,3811,-0.36,0.57,21.93,-0.84,-3.53,38.11,-5.27,2.31,53.26,3.64,-1.90,-12.16
-5,18,336,-165,-359,3908,-0.35,0.62,21.78,-1.65,-3.59,39.08,-5.27,2.34,53.17,3.67,-2.08,-10.19
-2,14,336,-102,-282,3915,-0.33,0.64,21.65,-1.02,-2.82,39.15,-5.25,2.34,53.09,3.60,-2.00,-10.32
-17,-4,300,-203,-256,3914,-0.40,0.55,21.32,-2.03,-2.56,39.14,-5.23,2.35,53.00,3.91,-1.62,-7.61
21,-5,284,-153,-260,3953,-0.23,0.47,20.92,-1.53,-2.60,39.53,-5.21,2.36,52.92,3.08,-1.58,-6.67
-5,-14,311,-131,-359,3809,-0.24,0.34,20.72,-1.31,-3.59,38.09,-5.21,2.35,52.84,3.61,-1.36,-9.16
-2,-16,326,-136,-397,4006,-0.23,0.20,20.64,-1.36,-3.97,40.06,-5.23,2.35,52.75,3.55,-1.28,-10.51
15,2,340,-125,-407,3940,-0.11,0.20,20.65,-1.25,-4.07,39.40,-5.24,2.35,52.67,3.18,-1.64,-11.68
-6,-2,342,-127,-481,3925,-0.14,0.16,20.67,-1.27,-4.81,39.25,-5.25,2.35,52.59,3.63,-1.56,-11.82
-1,-5,318,-165,-485,3987,-0.13,0.12,20.54,-1.65,-4.85,39.87,-5.27,2.36,52.51,3.53,-1.49,-9.91
3,11,329,-98,-465,3868,-0.10,0.17,20.50,-0.98,-4.65,38.68,-5.28,2.36,52.43,3.45,-1.83,-10.89
0,8,214,-105,-361,4027,-0.09,0.20,19.75,-1.05,-3.61,40.27,-5.27,2.35,52.35,3.51,-1.77,-1.93
-1,19,198,-57,-342,3954,-0.09,0.30,18.98,-0.57,-3.42,39.54,-5.27,2.34,52.27,3.52,-2.01,-1.38
-3,20,236,-99,-442,3830,-0.10,0.39,18.53,-0.99,-4.42,38.30,-5.28,2.34,52.20,3.57,-2.05,-5.08
-7,23,241,-161,-466,3880,-0.13,0.49,18.14,-1.61,-4.66,38.80,-5.30,2.34,52.13,3.67,-2.15,-5.90
-2,19,283,-146,-381,3926,-0.13,0.56,18.06,-1.46,-3.81,39.26,-5.31,2.34,52.06,3.58,-2.08,-9.54
0,12,293,-136,-359,3958,-0.12,0.58,18.04,-1.36,-3.59,39.58,-5.30,2.33,51.99,3.53,-1.94,-10.40
-6,-5,291,-56,-244,3932,-0.14,0.49,18.01,-0.56,-2.44,39.32,-5.28,2.33,51.91,3.65,-1.57,-10.26
0,-2,280,-109,-264,3995,-0.13,0.43,17.92,-1.09,-2.64,39.95,-5.26,2.33,51.84,3.51,-1.61,-9.42
-4,-15,234,31,-268,3935,-0.14,0.29,17.55,0.31,-2.68,39.35,-5.25,2.32,51.77,3.59,-1.31,-5.90
-9,-12,206,-1,-371,3889,-0.18,0.19,17.05,-0.01,-3.71,38.89,-5.25,2.31,51.70,3.70,-1.33,-4.05
-9,-15,311,-116,-469,3920,-0.22,0.08,17.24,-1.16,-4.69,39.20,-5.27,2.31,51.64,3.72,-1.24,-12.74
-17,-11,331,-91,-477,3932,-0.30,0.01,17.54,-0.91,-4.77,39.32,-5.28,2.31,51.57,3.91,-1.30,-14.11
-26,-17,316,-29,-549,3961,-0.43,-0.10,17.71,-0.29,-5.49,39.61,-5.30,2.30,51.50,4.14,-1.15,-12.65
-23,-24,303,13,-558,3886,-0.53,-0.24,17.79,0.13,-5.58,38.86,-5.31,2.30,51.43,4.11,-0.96,-11.46
-23,-15,347,-91,-511,3892,-0.61,-0.30,18.13,-0.91,-5.11,38.92,-5.33,2.29,51.35,4.15,-1.13,-14.83
-16,-12,365,-69,-537,3962,-0.65,-0.35,18.54,-0.69,-5.37,39.62,-5.34,2.29,51.28,4.03,-1.17,-15.91
4,22,394,7,-472,3980,-0.56,-0.18,19.09,0.07,-4.72,39.80,-5.35,2.28,51.21,3.60,-1.90,-17.77
17,19,376,-67,-556,3895,-0.40,-0.04,19.48,-0.67,-5.56,38.95,-5.36,2.28,51.13,3.30,-1.88,-15.84
21,21,354,-149,-341,3897,-0.23,0.09,19.69,-1.49,-3.41,38.97,-5.35,2.28,51.05,3.16,-1.96,-13.74
1,18,339,-187,-344,3948,-0.20,0.19,19.79,-1.87,-3.44,39.48,-5.33,2.30,50.97,3.55,-1.94,-12.36
39,35,342,-127,-348,3931,0.06,0.38,19.89,-1.27,-3.48,39.31,-5.32,2.30,50.89,2.70,-2.33,-12.49
21,18,340,-163,-217,3942,0.18,0.46,19.98,-1.63,-2.17,39.42,-5.30,2.31,50.81,3.02,-2.01,-12.22
-4,14,341,-351,-416,3852,0.14,0.50,20.06,-3.51,-4.16,38.52,-5.30,2.33,50.73,3.54,-1.96,-12.21
3,-10,353,-249,-218,3990,0.14,0.38,20.21,-2.49,-2.18,39.90,-5.28,2.35,50.65,3.38,-1.45,-13.07
-2,18,356,-109,-456,3851,0.11,0.46,20.36,-1.09,-4.56,38.51,-5.29,2.35,50.57,3.50,-2.04,-13.15
4,20,363,-156,-442,3982,0.13,0.53,20.54,-1.56,-4.42,39.82,-5.30,2.36,50.49,3.38,-2.11,-13.55
26,31,354,-233,-422,3836,0.27,0.67,20.64,-2.33,-4.22,38.36,-5.31,2.39,50.41,2.90,-2.39,-12.67
12,18,374,-182,-445,3889,0.32,0.71,20.86,-1.82,-4.45,38.89,-5.33,2.40,50.32,3.18,-2.14,-14.13
-1,25,381,-72,-427,3979,0.28,0.79,21.10,-0.72,-4.27,39.79,-5.33,2.40,50.24,3.46,-2.31,-14.46
-14,11,353,-74,-444,3870,0.17,0.78,21.14,-0.74,-4.44,38.70,-5.34,2.39,50.16,3.76,-2.02,-12.03
1,2,310,-45,-341,4025,0.16,0.71,20.92,-0.45,-3.41,40.25,-5.33,2.39,50.07,3.45,-1.81,-8.62
-1,9,305,-56,-331,3827,0.14,0.70,20.69,-0.56,-3.31,38.27,-5.32,2.38,49.99,3.50,-1.94,-8.43
0,6,266,-162,-537,3858,0.12,0.66,20.24,-1.62,-5.37,38.58,-5.34,2.39,49.91,3.49,-1.88,-5.60
5,-6,266,-91,-475,3915,0.14,0.56,19.84,-0.91,-4.75,39.15,-5.35,2.39,49.83,3.39,-1.61,-6.01
4,-5,225,-9,-343,3913,0.15,0.48,19.23,-0.09,-3.43,39.13,-5.34,2.38,49.76,3.40,-1.60,-3.18
-11,-15,203,48,-275,4061,0.07,0.34,18.54,0.48,-2.75,40.61,-5.33,2.37,49.68,3.72,-1.35,-2.03
-12,-6,228,-92,-500,3875,-0.01,0.27,18.08,-0.92,-5.00,38.75,-5.34,2.37,49.61,3.77,-1.51,-4.64
-11,-10,269,-104,-445,3880,-0.08,0.18,17.91,-1.04,-4.45,38.80,-5.35,2.37,49.54,3.78,-1.41,-8.28
-28,-19,308,-34,-306,3885,-0.24,0.04,18.00,-0.34,-3.06,38.85,-5.34,2.36,49.47,4.16,-1.18,-11.49
-22,-27,262,-42,-391,3916,-0.35,-0.12,17.80,-0.42,-3.91,39.16,-5.35,2.35,49.40,4.07,-0.97,-7.80
-53,-43,251,-25,-394,3868,-0.64,-0.37,17.55,-0.25,-3.94,38.68,-5.35,2.33,49.33,4.78,-0.56,-7.12
-50,-53,268,-48,-406,3971,-0.88,-0.66,17.43,-0.48,-4.06,39.71,-5.36,2.32,49.26,4.79,-0.27,-8.68
-71,-71,283,-86,-290,4006,-1.23,-1.03,17.41,-0.86,-2.90,40.06,-5.35,2.31,49.19,5.31,0.20,-9.97
-60,-61,250,-136,-330,3886,-1.47,-1.30,17.20,-1.36,-3.30,38.86,-5.33,2.30,49.12,5.14,0.08,-7.39
-37,-35,219,-37,-446,3928,-1.55,-1.38,16.81,-0.37,-4.46,39.28,-5.35,2.29,49.05,4.70,-0.42,-5.17
-33,-30,202,-76,-507,3895,-1.59,-1.43,16.36,-0.76,-5.07,38.95,-5.37,2.28,48.99,4.65,-0.50,-4.20
-19,-17,254,-143,-516,3938,-1.55,-1.39,16.28,-1.43,-5.16,39.38,-5.39,2.28,48.92,4.37,-0.78,-8.69
-4,-9,294,-85,-529,3982,-1.42,-1.30,16.44,-0.85,-5.29,39.82,-5.41,2.27,48.86,4.04,-0.96,-11.89
-47,-17,363,17,-525,3924,-1.56,-1.28,17.01,0.17,-5.25,39.24,-5.42,2.26,48.79,4.96,-0.80,-17.13
-33,-18,298,-96,-501,3918,-1.61,-1.26,17.13,-0.96,-5.01,39.18,-5.44,2.25,48.72,4.70,-0.78,-11.49
-2,-11,245,-113,-395,4020,-1.46,-1.20,16.91,-1.13,-3.95,40.20,-5.45,2.23,48.65,4.04,-0.92,-7.23
6,-1,238,-61,-377,3890,-1.28,-1.09,16.67,-0.61,-3.77,38.90,-5.45,2.22,48.59,3.83,-1.15,-6.88
-1,21,249,-38,-370,3823,-1.16,-0.85,16.52,-0.38,-3.70,38.23,-5.46,2.20,48.52,3.94,-1.65,-7.97
-7,15,244,-63,-411,4072,-1.08,-0.67,16.36,-0.63,-4.11,40.72,-5.46,2.19,48.46,4.04,-1.57,-7.71
10,2,191,-113,-412,3931,-0.91,-0.59,15.89,-1.13,-4.12,39.31,-5.48,2.18,48.39,3.66,-1.32,-3.71
-7,-3,204,-71,-433,3853,-0.87,-0.55,15.54,-0.71,-4.33,38.53,-5.49,2.17,48.33,4.00,-1.22,-5.17
-8,-15,237,-53,-497,3965,-0.83,-0.59,15.44,-0.53,-4.97,39.65,-5.51,2.16,48.27,4.02,-0.96,-8.08
-1,0,240,-16,-464,3939,-0.75,-0.53,15.36,-0.16,-4.64,39.39,-5.52,2.15,48.21,3.87,-1.27,-8.41
-9,15,315,1,-565,3923,-0.73,-0.39,15.74,0.01,-5.65,39.23,-5.53,2.14,48.15,4.03,-1.61,-14.35
-2,31,333,-43,-545,3970,-0.67,-0.16,16.20,-0.43,-5.45,39.70,-5.55,2.14,48.08,3.88,-2.00,-15.39
16,52,347,-167,-592,3960,-0.51,0.18,16.70,-1.67,-5.92,39.60,-5.56,2.15,48.02,3.48,-2.52,-16.04
37,67,369,-151,-477,3883,-0.23,0.57,17.28,-1.51,-4.77,38.83,-5.58,2.16,47.95,2.99,-2.94,-17.28
29,49,347,-139,-428,3845,-0.03,0.81,17.67,-1.39,-4.28,38.45,-5.60,2.16,47.88,3.11,-2.64,-15.00
9,25,333,-41,-364,3974,0.03,0.88,17.93,-0.41,-3.64,39.74,-5.59,2.16,47.81,3.50,-2.17,-13.53
-4,2,225,-141,-341,3858,0.00,0.80,17.51,-1.41,-3.41,38.58,-5.57,2.16,47.74,3.76,-1.69,-4.82
-17,3,203,-160,-321,3892,-0.10,0.74,17.00,-1.60,-3.21,38.92,-5.55,2.18,47.67,4.04,-1.70,-3.49
-1,12,232,-109,-417,4002,-0.10,0.74,16.71,-1.09,-4.17,40.02,-5.56,2.17,47.60,3.71,-1.88,-6.24
-4,14,241,-128,-345,3930,-0.11,0.75,16.51,-1.28,-3.45,39.30,-5.54,2.17,47.54,3.77,-1.92,-7.21
1,19,268,-76,-492,3886,-0.10,0.79,16.50,-0.76,-4.92,38.86,-5.55,2.17,47.47,3.67,-2.04,-9.51
11,22,275,-16,-507,3919,-0.02,0.85,16.52,-0.16,-5.07,39.19,-5.56,2.17,47.41,3.45,-2.11,-10.07
22,23,363,-45,-594,3998,0.12,0.90,17.09,-0.45,-5.94,39.98,-5.58,2.17,47.34,3.20,-2.15,-16.92
34,30,372,-12,-567,3860,0.31,1.00,17.65,-0.12,-5.67,38.60,-5.59,2.17,47.27,2.91,-2.31,-17.09
11,17,363,-69,-559,3905,0.35,1.00,18.10,-0.69,-5.59,39.05,-5.60,2.17,47.20,3.38,-2.05,-15.84
14,19,373,-25,-462,3930,0.40,1.02,18.56,-0.25,-4.62,39.30,-5.60,2.17,47.13,3.30,-2.09,-16.19
24,42,366,-95,-299,3856,0.51,1.17,18.94,-0.95,-2.99,38.56,-5.58,2.17,47.05,3.06,-2.61,-15.19
-14,21,363,-149,-444,3869,0.37,1.18,19.26,-1.49,-4.44,38.69,-5.60,2.18,46.98,3.88,-2.19,-14.59
-6,14,363,-88,-389,3914,0.30,1.15,19.55,-0.88,-3.89,39.14,-5.59,2.18,46.90,3.73,-2.03,-14.28
8,9,340,-125,-402,3945,0.32,1.09,19.67,-1.25,-4.02,39.45,-5.60,2.17,46.82,3.45,-1.91,-12.20
9,10,270,-79,-300,3778,0.34,1.04,19.35,-0.79,-3.00,37.78,-5.58,2.17,46.74,3.41,-1.92,-6.60
18,0,309,-91,-420,4044,0.41,0.94,19.30,-0.91,-4.20,40.44,-5.58,2.17,46.67,3.21,-1.69,-9.95
15,7,377,-70,-557,3920,0.46,0.89,19.67,-0.70,-5.57,39.20,-5.60,2.17,46.59,3.26,-1.82,-15.31
0,3,388,2,-452,4000,0.42,0.82,20.07,0.02,-4.52,40.00,-5.60,2.16,46.51,3.58,-1.71,-15.81
-4,9,462,-13,-427,3964,0.35,0.79,20.88,-0.13,-4.27,39.64,-5.60,2.16,46.43,3.68,-1.82,-20.00
-13,-1,460,36,-402,3952,0.24,0.70,21.60,0.36,-4.02,39.52,-5.60,2.15,46.34,3.89,-1.59,-20.00
-23,-30,351,-105,-352,3847,0.07,0.45,21.58,-1.05,-3.52,38.47,-5.58,2.15,46.26,4.13,-0.93,-11.05
-26,-41,343,-54,-342,3794,-0.09,0.16,21.51,-0.54,-3.42,37.94,-5.57,2.14,46.17,4.23,-0.62,-10.44
-7,-2,289,-141,-184,3982,-0.13,0.13,21.12,-1.41,-1.84,39.82,-5.55,2.15,46.09,3.84,-1.41,-6.26
18,21,286,-52,-282,3921,-0.00,0.24,20.76,-0.52,-2.82,39.21,-5.54,2.14,46.00,3.29,-1.91,-6.39
132,152,14,-23,-176,4004,0.80,1.15,18.77,-0.23,-1.76,40.04,-5.52,2.14,45.93,0.74,-4.82,14.55
30,41,25,-543,-419,3817,0.90,1.28,17.04,-5.43,-4.19,38.17,-5.51,2.17,45.86,2.78,-2.62,11.80
10,22,158,-326,-456,3898,0.88,1.29,16.30,-3.26,-4.56,38.98,-5.51,2.20,45.80,3.20,-2.25,-0.25
9,15,193,-236,-404,4025,0.84,1.25,15.85,-2.36,-4.04,40.25,-5.51,2.23,45.73,3.22,-2.12,-3.69
6,34,352,-439,-689,3894,0.80,1.33,16.41,-4.39,-6.89,38.94,-5.52,2.25,45.67,3.30,-2.54,-16.55
1,34,374,-392,-674,3896,0.72,1.41,17.05,-3.92,-6.74,38.96,-5.53,2.28,45.60,3.43,-2.58,-17.73
11,40,374,-55,-567,3906,0.72,1.51,17.63,-0.55,-5.67,39.06,-5.54,2.28,45.53,3.24,-2.73,-17.12
6,37,384,-72,-662,3872,0.68,1.58,18.21,-0.72,-6.62,38.72,-5.55,2.29,45.46,3.36,-2.70,-17.35
-17,14,365,8,-491,4059,0.51,1.51,18.61,0.08,-4.91,40.59,-5.55,2.29,45.39,3.87,-2.21,-15.30
6,5,335,104,-364,3849,0.50,1.39,18.80,1.04,-3.64,38.49,-5.55,2.28,45.31,3.40,-1.99,-12.56
12,18,270,-89,-67,4031,0.52,1.36,18.56,-0.89,-0.67,40.31,-5.53,2.29,45.24,3.26,-2.25,-7.29
1,12,253,-233,-355,3866,0.47,1.30,18.25,-2.33,-3.55,38.66,-5.52,2.32,45.17,3.49,-2.13,-6.18
8,9,265,-86,-394,3928,0.47,1.22,18.04,-0.86,-3.94,39.28,-5.51,2.31,45.10,3.35,-2.04,-7.41
-5,-5,229,1,-347,3983,0.40,1.07,17.63,0.01,-3.47,39.83,-5.51,2.31,45.03,3.63,-1.71,-4.78
3,15,218,-165,-599,3833,0.38,1.06,17.20,-1.65,-5.99,38.33,-5.52,2.32,44.96,3.48,-2.12,-4.30
-2,-7,247,-112,-517,3895,0.33,0.91,16.99,-1.12,-5.17,38.95,-5.53,2.32,44.89,3.60,-1.64,-6.98
14,15,191,125,-174,4168,0.38,0.91,16.45,1.25,-1.74,41.68,-5.52,2.32,44.83,3.25,-2.08,-2.79
2,12,207,49,-434,3773,0.35,0.89,16.07,0.49,-4.34,37.73,-5.52,2.31,44.76,3.51,-2.01,-4.55
-12,13,326,-102,-450,4038,0.24,0.88,16.45,-1.02,-4.50,40.38,-5.53,2.31,44.70,3.83,-2.03,-14.22
4,7,339,-15,-461,3911,0.24,0.84,16.88,-0.15,-4.61,39.11,-5.53,2.30,44.63,3.51,-1.89,-14.87
4,-6,250,-142,-342,3909,0.24,0.72,16.71,-1.42,-3.42,39.09,-5.51,2.30,44.57,3.49,-1.59,-7.49
-13,-9,233,-49,-259,3835,0.14,0.59,16.46,-0.49,-2.59,38.35,-5.50,2.30,44.50,3.85,-1.50,-6.31
-10,-22,214,-77,-309,3920,0.07,0.40,16.12,-0.77,-3.09,39.20,-5.48,2.29,44.43,3.80,-1.17,-5.06
-4,-6,213,-108,-364,3928,0.03,0.32,15.81,-1.08,-3.64,39.28,-5.48,2.28,44.37,3.69,-1.47,-5.30
-8,5,264,-117,-497,3920,-0.02,0.32,15.84,-1.17,-4.97,39.20,-5.49,2.29,44.31,3.79,-1.70,-9.58
1,5,274,-102,-453,3930,-0.01,0.32,15.93,-1.02,-4.53,39.30,-5.50,2.28,44.25,3.61,-1.69,-10.33
-10,11,252,-131,-417,3813,-0.07,0.35,15.87,-1.31,-4.17,38.13,-5.52,2.28,44.18,3.86,-1.83,-8.52
11,10,262,-104,-478,4093,0.00,0.38,15.88,-1.04,-4.78,40.93,-5.53,2.28,44.12,3.43,-1.81,-9.35
7,8,245,-24,-449,3905,0.05,0.39,15.79,-0.24,-4.49,39.05,-5.54,2.27,44.06,3.50,-1.77,-8.00
-8,7,241,37,-443,4007,-0.01,0.39,15.68,0.37,-4.43,40.07,-5.54,2.26,44.00,3.82,-1.74,-7.78
-4,-2,227,7,-420,3914,-0.03,0.34,15.50,0.07,-4.20,39.14,-5.54,2.25,43.94,3.75,-1.54,-6.78
-3,2,191,-126,-490,3834,-0.05,0.32,15.11,-1.26,-4.90,38.34,-5.56,2.25,43.88,3.74,-1.61,-4.13
-6,-5,232,-85,-567,3907,-0.08,0.26,15.02,-0.85,-5.67,39.07,-5.57,2.25,43.82,3.82,-1.46,-7.70
-1,-5,242,-112,-471,3978,-0.08,0.20,14.99,-1.12,-4.71,39.78,-5.59,2.25,43.76,3.73,-1.44,-8.57
3,-10,299,-89,-467,3900,-0.05,0.12,15.32,-0.89,-4.67,39.00,-5.60,2.25,43.70,3.65,-1.31,-13.05
-14,9,294,-200,-528,3904,-0.13,0.16,15.58,-2.00,-5.28,39.04,-5.61,2.26,43.64,4.03,-1.72,-12.34
15,13,295,-292,-469,3788,-0.03,0.23,15.82,-2.92,-4.69,37.88,-5.62,2.28,43.57,3.41,-1.83,-12.16
-6,13,314,-355,-555,3939,-0.06,0.28,16.15,-3.55,-5.55,39.39,-5.63,2.30,43.51,3.85,-1.86,-13.42
8,20,293,-200,-350,3865,-0.01,0.38,16.32,-2.00,-3.50,38.65,-5.62,2.32,43.44,3.55,-2.04,-11.45
-17,38,281,-180,-372,3838,-0.11,0.57,16.41,-1.80,-3.72,38.38,-5.61,2.35,43.38,4.08,-2.48,-10.34
3,34,304,-131,-429,4023,-0.08,0.72,16.62,-1.31,-4.29,40.23,-5.62,2.35,43.31,3.67,-2.44,-12.06
0,27,297,-188,-556,3836,-0.07,0.81,16.77,-1.88,-5.56,38.36,-5.64,2.36,43.25,3.74,-2.33,-11.30
12,26,262,-168,-349,3884,0.01,0.89,16.69,-1.68,-3.49,38.84,-5.62,2.37,43.18,3.46,-2.34,-8.41
5,29,245,-105,-421,3938,0.04,0.98,16.52,-1.05,-4.21,39.38,-5.62,2.37,43.12,3.60,-2.42,-7.15
13,31,236,-57,-256,3899,0.11,1.07,16.30,-0.57,-2.56,38.99,-5.61,2.37,43.05,3.40,-2.48,-6.60
5,20,218,-33,-364,3893,0.13,1.08,16.00,-0.33,-3.64,38.93,-5.60,2.36,42.99,3.56,-2.26,-5.39
3,8,142,33,-19,3966,0.14,1.03,15.27,0.33,-0.19,39.66,-5.58,2.36,42.93,3.58,-2.00,0.27
-12,-4,112,52,-158,3879,0.05,0.90,14.43,0.52,-1.58,38.79,-5.56,2.36,42.87,3.90,-1.72,1.93
-11,-16,12,16,-199,3858,-0.02,0.71,13.06,0.16,-1.99,38.58,-5.55,2.35,42.82,3.89,-1.42,8.96
-6,-16,21,15,-229,3880,-0.06,0.54,11.88,0.15,-2.29,38.80,-5.54,2.35,42.77,3.79,-1.37,6.95
14,-11,14,-2,-419,3937,0.04,0.42,10.78,-0.02,-4.19,39.37,-5.54,2.33,42.73,3.36,-1.43,6.38
5,-12,-2,-33,-440,3963,0.06,0.31,9.69,-0.33,-4.40,39.63,-5.54,2.32,42.69,3.54,-1.37,6.58
-3,-15,-5,-81,-445,3934,0.04,0.18,8.69,-0.81,-4.45,39.34,-5.55,2.31,42.65,3.72,-1.27,5.78
-3,-12,-7,-94,-440,3937,0.02,0.09,7.78,-0.94,-4.40,39.37,-5.56,2.30,42.62,3.73,-1.30,4.99
-5,3,32,3,-530,3908,-0.02,0.10,7.19,0.03,-5.30,39.08,-5.58,2.29,42.60,3.79,-1.60,1.07
-9,-3,42,-119,-511,3907,-0.07,0.07,6.73,-1.19,-5.11,39.07,-5.59,2.29,42.57,3.89,-1.47,-0.26
-4,-4,7,-134,-340,3975,-0.09,0.04,6.10,-1.34,-3.40,39.75,-5.58,2.28,42.54,3.78,-1.44,2.04
0,-3,-1,-129,-358,3914,-0.08,0.02,5.48,-1.29,-3.58,39.14,-5.56,2.27,42.52,3.69,-1.44,2.06
5,-2,-10,-97,-425,3929,-0.04,0.00,4.87,-0.97,-4.25,39.29,-5.57,2.26,42.50,3.59,-1.45,2.18
3,0,-12,-108,-434,3929,-0.02,0.00,4.31,-1.08,-4.34,39.29,-5.59,2.25,42.49,3.63,-1.48,1.76
-2,-6,-21,-72,-474,3981,-0.03,-0.03,3.75,-0.72,-4.74,39.81,-5.60,2.24,42.47,3.74,-1.34,1.93
-7,-14,-10,-87,-426,3944,-0.07,-0.12,3.32,-0.87,-4.26,39.44,-5.61,2.22,42.46,3.86,-1.15,0.54
-5,-33,40,116,-662,3971,-0.09,-0.30,3.23,1.16,-6.62,39.71,-5.62,2.21,42.45,3.84,-0.70,-3.79
-8,-49,61,28,-558,3957,-0.13,-0.57,3.28,0.28,-5.58,39.57,-5.63,2.19,42.43,3.92,-0.29,-5.51
-9,-37,79,-138,-360,3973,-0.17,-0.74,3.43,-1.38,-3.60,39.73,-5.62,2.18,42.42,3.94,-0.49,-6.88
2,-8,78,-66,-320,4011,-0.14,-0.72,3.57,-0.66,-3.20,40.11,-5.60,2.17,42.40,3.70,-1.07,-6.65
3,0,87,-306,-395,3928,-0.11,-0.64,3.74,-3.06,-3.95,39.28,-5.61,2.19,42.39,3.67,-1.27,-7.23
9,9,81,-251,-379,3872,-0.04,-0.53,3.86,-2.51,-3.79,38.72,-5.60,2.20,42.37,3.53,-1.49,-6.59
5,18,115,-101,-548,3903,-0.01,-0.36,4.18,-1.01,-5.48,39.03,-5.62,2.20,42.36,3.61,-1.72,-9.13
19,9,129,-133,-641,3911,0.11,-0.27,4.54,-1.33,-6.41,39.11,-5.64,2.20,42.34,3.31,-1.56,-9.93
1,-1,114,-79,-185,3955,0.10,-0.25,4.79,-0.79,-1.85,39.55,-5.62,2.19,42.32,3.66,-1.36,-8.40
-8,12,60,-72,-378,3867,0.04,-0.15,4.67,-0.72,-3.78,38.67,-5.62,2.18,42.30,3.86,-1.64,-3.94
-2,-7,106,-293,-554,3830,0.03,-0.18,4.85,-2.93,-5.54,38.30,-5.63,2.19,42.28,3.75,-1.25,-7.65
8,-2,112,-229,-482,3965,0.07,-0.17,5.05,-2.29,-4.82,39.65,-5.64,2.20,42.26,3.54,-1.36,-7.94
3,-7,168,-154,-504,3874,0.08,-0.20,5.57,-1.54,-5.04,38.74,-5.66,2.20,42.24,3.65,-1.26,-12.14
7,2,157,-182,-505,4011,0.12,-0.17,5.97,-1.82,-5.05,40.11,-5.68,2.21,42.22,3.57,-1.45,-10.78
-5,-18,176,-112,-333,3998,0.08,-0.26,6.45,-1.12,-3.33,39.98,-5.66,2.20,42.19,3.82,-1.02,-11.88
-11,6,148,-164,-375,4047,0.00,-0.20,6.71,-1.64,-3.75,40.47,-5.64,2.21,42.16,3.95,-1.53,-9.23
4,8,182,-228,-429,3951,0.03,-0.13,7.15,-2.28,-4.29,39.51,-5.65,2.23,42.14,3.64,-1.60,-11.65
1,2,191,-135,-368,3927,0.03,-0.10,7.60,-1.35,-3.68,39.27,-5.64,2.22,42.11,3.69,-1.48,-11.93
-11,7,69,91,-335,3926,-0.04,-0.05,7.26,0.91,-3.35,39.26,-5.63,2.20,42.08,3.95,-1.58,-1.95
11,11,40,33,-383,3856,0.03,0.02,6.78,0.33,-3.83,38.56,-5.63,2.19,42.05,3.48,-1.67,0.00
3,-3,20,155,-268,3985,0.05,0.00,6.22,1.55,-2.68,39.85,-5.62,2.17,42.02,3.64,-1.37,1.11
-4,8,-1,215,-245,3966,0.02,0.05,5.59,2.15,-2.45,39.66,-5.61,2.16,42.00,3.78,-1.60,2.23
6,-7,18,-96,-584,3808,0.05,0.00,5.14,-0.96,-5.84,38.08,-5.63,2.15,41.98,3.58,-1.28,0.14
4,-6,21,-32,-453,3896,0.07,-0.03,4.76,-0.32,-4.53,38.96,-5.64,2.14,41.96,3.62,-1.28,-0.52
-4,-27,50,76,-650,3870,0.04,-0.20,4.59,0.76,-6.50,38.70,-5.65,2.13,41.95,3.80,-0.80,-3.16
-6,1,79,72,-303,4200,-0.00,-0.17,4.61,0.72,-3.03,42.00,-5.64,2.11,41.93,3.85,-1.37,-5.59
-11,16,146,-58,-309,3867,-0.07,-0.06,5.04,-0.58,-3.09,38.67,-5.63,2.10,41.91,3.96,-1.70,-10.81
-3,17,126,-151,-337,3943,-0.08,0.05,5.30,-1.51,-3.37,39.43,-5.61,2.11,41.88,3.79,-1.75,-8.83
-2,1,21,-157,-307,3881,-0.08,0.05,4.90,-1.57,-3.07,38.81,-5.59,2.11,41.86,3.76,-1.43,-0.36
1,6,-36,-23,-437,3909,-0.07,0.09,4.19,-0.23,-4.37,39.09,-5.60,2.10,41.85,3.70,-1.53,3.72
8,1,-35,-59,-407,3920,-0.01,0.08,3.56,-0.59,-4.07,39.20,-5.61,2.08,41.83,3.54,-1.42,2.97
8,-1,-34,-86,-395,3914,0.04,0.07,3.00,-0.86,-3.95,39.14,-5.61,2.06,41.82,3.53,-1.36,2.29
-7,1,-68,-119,-395,3962,-0.01,0.07,2.28,-1.19,-3.95,39.62,-5.61,2.05,41.81,3.85,-1.39,4.41
-7,4,-65,-154,-409,3937,-0.05,0.09,1.66,-1.54,-4.09,39.37,-5.63,2.06,41.81,3.87,-1.46,3.50
7,22,-25,-110,-385,3935,-0.00,0.21,1.34,-1.10,-3.85,39.35,-5.63,2.04,41.80,3.57,-1.85,-0.23
2,16,-26,-81,-404,3886,0.01,0.29,1.05,-0.81,-4.04,38.86,-5.63,2.03,41.80,3.67,-1.74,-0.45
-2,7,-36,-79,-414,3893,-0.00,0.30,0.72,-0.79,-4.14,38.93,-5.64,2.01,41.80,3.76,-1.55,0.05
-5,5,-29,-75,-412,3891,-0.03,0.30,0.47,-0.75,-4.12,38.91,-5.65,2.00,41.79,3.84,-1.50,-0.80
-1,-4,-37,-88,-390,3887,-0.04,0.25,0.20,-0.88,-3.90,38.87,-5.65,1.98,41.79,3.76,-1.29,-0.42
6,-1,-27,-106,-380,3914,0.00,0.22,0.02,-1.06,-3.80,39.14,-5.65,1.96,41.79,3.60,-1.33,-1.46
8,-1,-30,-92,-435,3937,0.05,0.19,-0.17,-0.92,-4.35,39.37,-5.66,1.95,41.79,3.56,-1.32,-1.40
6,0,-35,-90,-448,3936,0.08,0.17,-0.37,-0.90,-4.48,39.36,-5.67,1.94,41.80,3.60,-1.33,-1.18
-3,5,-60,-94,-438,3920,0.06,0.18,-0.70,-0.94,-4.38,39.20,-5.69,1.93,41.80,3.80,-1.42,0.58
-2,6,-67,-108,-411,3944,0.04,0.20,-1.03,-1.08,-4.11,39.44,-5.70,1.91,41.80,3.79,-1.44,0.82
12,21,-62,-187,-423,4008,0.11,0.31,-1.31,-1.87,-4.23,40.08,-5.71,1.93,41.81,3.49,-1.79,0.10
16,35,-68,-185,-421,3900,0.19,0.49,-1.59,-1.85,-4.21,39.00,-5.71,1.95,41.82,3.39,-2.13,0.31
8,10,-135,-374,-569,3915,0.22,0.50,-2.26,-3.74,-5.69,39.15,-5.72,1.96,41.83,3.55,-1.64,5.28
15,15,-186,-302,-582,3791,0.29,0.55,-3.17,-3.02,-5.82,37.91,-5.74,1.98,41.84,3.40,-1.76,8.64
6,13,-227,64,-541,3981,0.30,0.57,-4.23,0.64,-5.41,39.81,-5.75,1.96,41.86,3.59,-1.71,10.98
-8,-7,-271,86,-611,3980,0.22,0.47,-5.46,0.86,-6.11,39.80,-5.76,1.95,41.88,3.90,-1.27,13.40
3,-12,-287,164,-562,3970,0.22,0.35,-6.67,1.64,-5.62,39.70,-5.77,1.93,41.91,3.69,-1.13,13.48
-1,-1,-287,143,-538,3868,0.19,0.31,-7.75,1.43,-5.38,38.68,-5.78,1.91,41.94,3.78,-1.33,12.33
-4,-16,-263,-43,-413,3915,0.15,0.18,-8.58,-0.43,-4.13,39.15,-5.78,1.89,41.97,3.86,-0.97,9.42
9,-11,-240,-76,-366,3880,0.19,0.10,-9.19,-0.76,-3.66,38.80,-5.77,1.87,42.01,3.58,-1.04,6.82
-15,-10,-223,-20,-181,3940,0.08,0.02,-9.63,-0.20,-1.81,39.40,-5.76,1.86,42.05,4.08,-1.03,4.91
5,-1,-227,-104,-98,4043,0.10,0.02,-10.05,-1.04,-0.98,40.43,-5.74,1.85,42.09,3.66,-1.21,4.80
11,0,-178,-253,-184,3906,0.16,0.01,-10.13,-2.53,-1.84,39.06,-5.73,1.86,42.13,3.51,-1.23,0.56
8,9,-160,-275,-240,3874,0.19,0.07,-10.09,-2.75,-2.40,38.74,-5.71,1.87,42.17,3.56,-1.44,-0.93
-3,6,-57,-82,-394,3935,0.15,0.10,-9.43,-0.82,-3.94,39.35,-5.71,1.85,42.20,3.79,-1.37,-8.96
-4,-4,-62,67,-513,3956,0.11,0.06,-8.87,0.67,-5.13,39.56,-5.72,1.83,42.24,3.83,-1.14,-7.94
-6,-26,-109,119,-593,3863,0.06,-0.10,-8.65,1.19,-5.93,38.63,-5.74,1.81,42.27,3.89,-0.64,-3.72
-5,-31,-126,51,-587,3896,0.03,-0.28,-8.55,0.51,-5.87,38.96,-5.75,1.79,42.31,3.89,-0.48,-2.19
-12,-28,-152,72,-398,3932,-0.05,-0.42,-8.62,0.72,-3.98,39.32,-5.75,1.77,42.34,4.05,-0.48,-0.06
-4,-20,-156,62,-360,3944,-0.07,-0.50,-8.71,0.62,-3.60,39.44,-5.75,1.75,42.38,3.90,-0.61,0.18
-3,-22,-135,-77,-347,3874,-0.08,-0.59,-8.66,-0.77,-3.47,38.74,-5.74,1.73,42.41,3.87,-0.53,-1.55
4,-28,-122,-121,-340,3828,-0.05,-0.70,-8.54,-1.21,-3.40,38.28,-5.72,1.72,42.44,3.71,-0.38,-2.53
-4,-24,-105,-102,-270,4026,-0.07,-0.78,-8.33,-1.02,-2.70,40.26,-5.71,1.72,42.48,3.86,-0.43,-3.75
12,-16,-99,13,-377,3950,0.01,-0.80,-8.10,0.13,-3.77,39.50,-5.70,1.69,42.51,3.52,-0.57,-4.01
7,-6,-47,-141,-388,3861,0.05,-0.75,-7.58,-1.41,-3.88,38.61,-5.71,1.70,42.54,3.61,-0.80,-7.87
7,-9,-52,-208,-461,3921,0.09,-0.73,-7.14,-2.08,-4.61,39.21,-5.72,1.71,42.57,3.61,-0.75,-6.98
0,-2,-54,-145,-483,3952,0.08,-0.67,-6.75,-1.45,-4.83,39.52,-5.74,1.71,42.59,3.76,-0.91,-6.41
0,0,-14,-177,-435,3880,0.07,-0.60,-6.16,-1.77,-4.35,38.80,-5.75,1.72,42.62,3.77,-0.97,-9.17
4,-5,-5,-193,-444,3925,0.09,-0.57,-5.58,-1.93,-4.44,39.25,-5.76,1.73,42.64,3.69,-0.88,-9.32
2,-1,-5,-245,-464,3867,0.09,-0.52,-5.05,-2.45,-4.64,38.67,-5.77,1.74,42.66,3.74,-0.99,-8.76
1,0,10,-169,-397,4011,0.09,-0.47,-4.48,-1.69,-3.97,40.11,-5.76,1.76,42.68,3.76,-1.03,-9.44
9,1,-12,-172,-435,3885,0.14,-0.42,-4.11,-1.72,-4.35,38.85,-5.78,1.77,42.69,3.59,-1.07,-7.18
0,-5,-46,-270,-273,3949,0.12,-0.41,-3.98,-2.70,-2.73,39.49,-5.76,1.78,42.71,3.77,-0.96,-4.16
0,-1,-45,-330,-216,3947,0.11,-0.37,-3.85,-3.30,-2.16,39.47,-5.75,1.79,42.72,3.77,-1.06,-4.11
2,8,-7,-134,-374,3933,0.11,-0.29,-3.51,-1.34,-3.74,39.33,-5.73,1.80,42.74,3.71,-1.27,-6.97
3,8,-9,-94,-413,3916,0.12,-0.21,-3.22,-0.94,-4.13,39.16,-5.74,1.78,42.75,3.70,-1.28,-6.49
2,6,-9,-91,-422,3925,0.12,-0.15,-2.95,-0.91,-4.22,39.25,-5.76,1.76,42.76,3.73,-1.24,-6.21
-1,6,-4,-107,-420,3930,0.10,-0.10,-2.68,-1.07,-4.20,39.30,-5.77,1.75,42.77,3.80,-1.25,-6.35
-1,3,-6,-90,-400,3922,0.09,-0.07,-2.45,-0.90,-4.00,39.22,-5.77,1.73,42.78,3.81,-1.18,-5.93
-1,3,-4,-104,-410,3924,0.07,-0.05,-2.23,-1.04,-4.10,39.24,-5.79,1.72,42.79,3.82,-1.18,-5.87
0,7,10,-97,-409,3935,0.06,0.00,-1.94,-0.97,-4.09,39.35,-5.79,1.70,42.80,3.81,-1.26,-6.76
-1,8,5,-111,-424,3934,0.05,0.05,-1.72,-1.11,-4.24,39.34,-5.81,1.69,42.81,3.84,-1.29,-6.10
-7,5,-5,-91,-432,3931,0.00,0.08,-1.58,-0.91,-4.32,39.31,-5.83,1.68,42.82,3.99,-1.23,-5.10
-1,4,-11,-110,-444,3953,-0.00,0.09,-1.49,-1.10,-4.44,39.53,-5.84,1.68,42.82,3.88,-1.22,-4.50
1,15,-10,-111,-425,3919,0.00,0.17,-1.40,-1.11,-4.25,39.19,-5.86,1.68,42.83,3.85,-1.46,-4.49
5,14,-11,-92,-444,3912,0.03,0.24,-1.33,-0.92,-4.44,39.12,-5.88,1.67,42.83,3.77,-1.45,-4.33
4,17,-10,-97,-431,3919,0.05,0.32,-1.25,-0.97,-4.31,39.19,-5.89,1.66,42.84,3.79,-1.53,-4.34
3,8,-11,-87,-534,3867,0.07,0.34,-1.20,-0.87,-5.34,38.67,-5.91,1.66,42.84,3.82,-1.35,-4.19
-9,-24,-83,-155,-469,3919,0.01,0.16,-1.58,-1.55,-4.69,39.19,-5.93,1.67,42.85,4.09,-0.65,1.50
3,-11,-77,-35,-417,4014,0.02,0.08,-1.89,-0.35,-4.17,40.14,-5.93,1.65,42.86,3.84,-0.88,0.66
0,4,-24,-57,-367,3915,0.02,0.09,-1.85,-0.57,-3.67,39.15,-5.92,1.63,42.87,3.90,-1.18,-3.78
-2,3,-25,-76,-339,3939,0.01,0.10,-1.82,-0.76,-3.39,39.39,-5.90,1.62,42.87,3.93,-1.16,-3.67
2,4,-16,-70,-385,3911,0.02,0.12,-1.73,-0.70,-3.85,39.11,-5.89,1.61,42.88,3.84,-1.17,-4.34
1,2,-16,-71,-392,3901,0.02,0.12,-1.66,-0.71,-3.92,39.01,-5.89,1.59,42.89,3.86,-1.12,-4.26
5,-8,-23,-75,-395,3928,0.05,0.06,-1.63,-0.75,-3.95,39.28,-5.88,1.57,42.89,3.77,-0.89,-3.64
9,-6,-23,-105,-419,3912,0.10,0.01,-1.61,-1.05,-4.19,39.12,-5.90,1.57,42.90,3.68,-0.92,-3.62
2,5,-7,-90,-430,3944,0.10,0.04,-1.49,-0.90,-4.30,39.44,-5.91,1.55,42.91,3.84,-1.14,-4.85
0,3,-7,-86,-439,3931,0.09,0.06,-1.39,-0.86,-4.39,39.31,-5.93,1.54,42.91,3.89,-1.10,-4.74
-7,-4,-10,-46,-429,3942,0.04,0.03,-1.31,-0.46,-4.29,39.42,-5.94,1.53,42.92,4.05,-0.93,-4.40
-6,-10,-21,-35,-458,3887,-0.00,-0.04,-1.30,-0.35,-4.58,38.87,-5.95,1.51,42.92,4.05,-0.78,-3.47
-3,-21,-39,-24,-421,3929,-0.02,-0.16,-1.41,-0.24,-4.21,39.29,-5.95,1.49,42.93,3.99,-0.51,-2.05
5,-7,-43,13,-371,3956,0.01,-0.19,-1.53,0.13,-3.71,39.56,-5.94,1.47,42.93,3.82,-0.78,-1.84
-2,-4,-54,-165,-433,3905,0.00,-0.19,-1.71,-1.65,-4.33,39.05,-5.95,1.49,42.94,3.97,-0.85,-1.10
-5,-1,-31,-249,-399,3916,-0.03,-0.18,-1.73,-2.49,-3.99,39.16,-5.95,1.50,42.95,4.04,-0.92,-3.07
1,2,-9,-118,-402,3922,-0.02,-0.15,-1.61,-1.18,-4.02,39.22,-5.94,1.52,42.95,3.91,-1.00,-4.81
3,-1,-2,-121,-398,3928,-0.00,-0.14,-1.46,-1.21,-3.98,39.28,-5.93,1.53,42.96,3.85,-0.95,-5.24
-5,-5,4,-82,-424,3923,-0.03,-0.16,-1.29,-0.82,-4.24,39.23,-5.94,1.52,42.96,4.03,-0.86,-5.57
-5,-7,2,-81,-426,3922,-0.06,-0.18,-1.15,-0.81,-4.26,39.22,-5.95,1.50,42.97,4.05,-0.80,-5.25
-6,-7,10,-88,-424,3928,-0.09,-0.21,-0.97,-0.88,-4.24,39.28,-5.97,1.49,42.97,4.08,-0.78,-5.75
-4,-7,20,-92,-415,3921,-0.10,-0.23,-0.75,-0.92,-4.15,39.21,-5.98,1.47,42.98,4.05,-0.76,-6.36
-5,4,29,-98,-493,3917,-0.12,-0.18,-0.50,-0.98,-4.93,39.17,-5.99,1.47,42.98,4.09,-1.00,-6.86
-6,17,56,-54,-529,3915,-0.15,-0.06,-0.11,-0.54,-5.29,39.15,-6.01,1.46,42.98,4.13,-1.29,-8.73
4,14,298,-14,-746,3904,-0.11,0.03,1.72,-0.14,-7.46,39.04,-6.03,1.46,42.97,3.93,-1.25,-20.00
-11,8,353,-28,-634,4011,-0.17,0.08,3.70,-0.28,-6.34,40.11,-6.05,1.45,42.96,4.26,-1.14,-20.00
-7,1,297,77,-348,4070,-0.19,0.07,5.14,0.77,-3.48,40.70,-6.04,1.44,42.94,4.18,-0.99,-20.00
-21,-23,236,21,-284,3933,-0.30,-0.07,6.07,0.21,-2.84,39.33,-6.03,1.43,42.91,4.49,-0.46,-17.43
-75,-71,189,-204,-267,3881,-0.73,-0.50,6.61,-2.04,-2.67,38.81,-6.01,1.44,42.89,5.69,0.63,-12.87
-52,-65,169,-196,-283,3882,-0.97,-0.85,6.98,-1.96,-2.83,38.82,-6.00,1.45,42.86,5.28,0.59,-10.78
-39,-49,85,-66,-307,3919,-1.11,-1.06,6.80,-0.66,-3.07,39.19,-5.99,1.44,42.83,5.05,0.33,-3.85
-32,-50,67,-103,-312,3913,-1.20,-1.26,6.53,-1.03,-3.12,39.13,-5.98,1.44,42.80,4.92,0.41,-2.61
-22,-28,44,-106,-372,3953,-1.21,-1.30,6.15,-1.06,-3.72,39.53,-5.96,1.44,42.78,4.71,-0.03,-1.07
-26,-35,46,-119,-373,3986,-1.25,-1.39,5.81,-1.19,-3.73,39.86,-5.95,1.45,42.75,4.80,0.13,-1.59
-40,-31,41,-76,-510,3950,-1.37,-1.44,5.48,-0.76,-5.10,39.50,-5.97,1.44,42.73,5.13,0.07,-1.52
-44,-32,39,-82,-513,3966,-1.50,-1.49,5.17,-0.82,-5.13,39.66,-6.00,1.43,42.71,5.26,0.11,-1.67
-25,-12,135,-107,-559,3942,-1.50,-1.41,5.48,-1.07,-5.59,39.42,-6.02,1.43,42.69,4.89,-0.31,-9.48
-34,-20,240,-95,-610,3843,-1.56,-1.39,6.39,-0.95,-6.10,38.43,-6.04,1.43,42.66,5.11,-0.15,-17.40
-61,-52,237,54,-365,3946,-1.78,-1.57,7.20,0.54,-3.65,39.46,-6.04,1.41,42.63,5.71,0.56,-16.29
-61,-58,181,-2,-386,3889,-1.97,-1.77,7.58,-0.02,-3.86,38.89,-6.05,1.38,42.60,5.77,0.75,-11.14
-31,-37,46,-71,-377,3905,-1.96,-1.82,7.11,-0.71,-3.77,39.05,-6.04,1.37,42.57,5.15,0.34,-0.20
-22,-34,28,-47,-366,3898,-1.90,-1.84,6.57,-0.47,-3.66,38.98,-6.03,1.35,42.55,4.95,0.30,0.75
0,-6,45,-136,-383,3928,-1.71,-1.70,6.18,-1.36,-3.83,39.28,-6.03,1.36,42.52,4.44,-0.32,-1.09
1,0,64,-153,-349,3929,-1.53,-1.53,5.96,-1.53,-3.49,39.29,-6.02,1.37,42.50,4.37,-0.49,-2.94
-1,-1,71,-22,-478,3960,-1.39,-1.38,5.79,-0.22,-4.78,39.60,-6.04,1.35,42.47,4.38,-0.50,-3.70
0,-3,62,-41,-475,3947,-1.25,-1.26,5.59,-0.41,-4.75,39.47,-6.05,1.34,42.45,4.34,-0.48,-3.15
-3,-9,8,-31,-539,3917,-1.14,-1.19,5.08,-0.31,-5.39,39.17,-6.07,1.33,42.43,4.38,-0.37,0.88
-9,-9,-7,-61,-494,3930,-1.08,-1.12,4.53,-0.61,-4.94,39.30,-6.09,1.32,42.41,4.50,-0.38,1.57
-3,-3,-23,-39,-481,3904,-0.99,-1.03,3.94,-0.39,-4.81,39.04,-6.11,1.31,42.40,4.37,-0.52,2.30
1,-2,-30,-21,-494,3905,-0.89,-0.94,3.36,-0.21,-4.94,39.05,-6.13,1.29,42.38,4.27,-0.56,2.29
4,-18,-72,32,-416,3976,-0.77,-0.96,2.59,0.32,-4.16,39.76,-6.13,1.27,42.37,4.18,-0.21,5.02
5,-29,-95,20,-439,3909,-0.67,-1.04,1.75,0.20,-4.39,39.09,-6.14,1.25,42.37,4.13,0.05,6.09
-11,-28,-208,96,-372,3950,-0.67,-1.10,0.30,0.96,-3.72,39.50,-6.13,1.23,42.36,4.45,0.06,14.13
-17,-44,-245,78,-306,3957,-0.70,-1.26,-1.22,0.78,-3.06,39.57,-6.13,1.21,42.37,4.58,0.44,15.65
-15,-28,-388,-305,-305,3856,-0.72,-1.31,-3.47,-3.05,-3.05,38.56,-6.12,1.22,42.38,4.54,0.12,20.00
-7,-27,-373,-310,-291,3857,-0.69,-1.34,-5.39,-3.10,-2.91,38.57,-6.12,1.22,42.40,4.37,0.11,20.00
4,10,-289,-227,-334,3886,-0.60,-1.15,-6.62,-2.27,-3.34,38.86,-6.11,1.23,42.43,4.11,-0.70,13.66
-7,31,-235,-245,-395,4014,-0.58,-0.84,-7.39,-2.45,-3.95,40.14,-6.11,1.24,42.46,4.33,-1.22,8.26
-18,4,-243,-145,-609,4007,-0.63,-0.73,-8.13,-1.45,-6.09,40.07,-6.13,1.24,42.49,4.58,-0.70,8.15
-16,22,-257,-158,-602,3927,-0.67,-0.53,-8.89,-1.58,-6.02,39.27,-6.15,1.24,42.52,4.57,-1.13,8.54
-21,26,-336,10,-735,3867,-0.73,-0.31,-10.05,0.10,-7.35,38.67,-6.17,1.23,42.56,4.70,-1.26,14.00
-13,21,-385,63,-757,3863,-0.74,-0.16,-11.39,0.63,-7.57,38.63,-6.19,1.22,42.61,4.55,-1.19,16.72
-1,1,-594,105,-485,3989,-0.67,-0.13,-13.88,1.05,-4.85,39.89,-6.20,1.20,42.66,4.29,-0.77,20.00
-8,-3,-622,104,-501,3910,-0.65,-0.14,-16.28,1.04,-5.01,39.10,-6.21,1.17,42.73,4.44,-0.67,20.00
4,-20,-656,196,-458,3964,-0.56,-0.25,-18.66,1.96,-4.58,39.64,-6.22,1.14,42.80,4.17,-0.28,20.00
-4,-28,-650,230,-401,3924,-0.53,-0.39,-20.76,2.30,-4.01,39.24,-6.22,1.12,42.89,4.33,-0.06,20.00
-9,-25,-649,32,-355,3874,-0.53,-0.51,-22.64,0.32,-3.55,38.74,-6.21,1.09,42.98,4.43,-0.07,20.00
-5,-22,-615,-122,-200,3867,-0.51,-0.59,-24.13,-1.22,-2.00,38.67,-6.20,1.08,43.07,4.33,-0.10,20.00
5,-4,-498,-145,-254,3952,-0.43,-0.55,-24.75,-1.45,-2.54,39.52,-6.19,1.07,43.17,4.10,-0.48,12.10
8,-6,-465,-92,-206,3849,-0.34,-0.54,-25.11,-0.92,-2.06,38.49,-6.17,1.06,43.27,4.00,-0.43,8.91
6,2,-439,41,-170,3954,-0.27,-0.47,-25.28,0.41,-1.70,39.54,-6.16,1.04,43.37,4.01,-0.60,6.52
13,-3,-452,-10,-279,3932,-0.16,-0.44,-25.51,-0.10,-2.79,39.32,-6.14,1.02,43.47,3.83,-0.49,7.37
17,-2,-469,-54,-469,3948,-0.04,-0.41,-25.82,-0.54,-4.69,39.48,-6.16,1.00,43.57,3.73,-0.51,8.47
20,-2,-451,60,-490,3940,0.09,-0.38,-25.99,0.60,-4.90,39.40,-6.17,0.97,43.68,3.64,-0.50,6.76
15,8,-397,-111,-583,3943,0.17,-0.29,-25.81,-1.11,-5.83,39.43,-6.19,0.97,43.78,3.73,-0.72,2.36
6,2,-371,-161,-583,3902,0.19,-0.25,-25.49,-1.61,-5.83,39.02,-6.21,0.96,43.88,3.92,-0.61,0.49
9,16,-362,-106,-597,3970,0.22,-0.13,-25.15,-1.06,-5.97,39.70,-6.23,0.96,43.98,3.86,-0.92,0.08
5,5,-404,7,-548,3960,0.23,-0.09,-25.10,0.07,-5.48,39.60,-6.24,0.94,44.08,3.95,-0.70,3.68
12,-9,-553,-60,-384,3985,0.28,-0.13,-25.96,-0.60,-3.84,39.85,-6.22,0.92,44.18,3.79,-0.39,15.38
10,-13,-568,-34,-394,3876,0.32,-0.20,-26.83,-0.34,-3.94,38.76,-6.21,0.90,44.29,3.81,-0.27,15.72
10,-7,-562,-134,-416,3862,0.34,-0.22,-27.58,-1.34,-4.16,38.62,-6.21,0.90,44.40,3.80,-0.39,14.42
41,-11,-523,-229,-436,3954,0.56,-0.27,-28.01,-2.29,-4.36,39.54,-6.21,0.91,44.51,3.11,-0.30,10.64
26,0,-409,-40,-408,3932,0.66,-0.24,-27.70,-0.40,-4.08,39.32,-6.20,0.88,44.62,3.38,-0.52,1.30
17,9,-431,21,-332,4050,0.70,-0.16,-27.56,0.21,-3.32,40.50,-6.18,0.86,44.73,3.54,-0.70,3.30
20,-32,-532,14,-324,3983,0.75,-0.34,-28.05,0.14,-3.24,39.83,-6.17,0.83,44.84,3.46,0.19,11.33
9,-33,-554,43,-340,3942,0.73,-0.51,-28.63,0.43,-3.40,39.42,-6.15,0.80,44.95,3.68,0.28,12.58
4,-16,-574,16,-458,3973,0.68,-0.55,-29.26,0.16,-4.58,39.73,-6.16,0.77,45.07,3.80,-0.03,13.59
8,-4,-544,70,-530,3882,0.66,-0.52,-29.66,0.70,-5.30,38.82,-6.17,0.74,45.19,3.73,-0.27,10.62
18,-7,-538,-3,-864,3896,0.71,-0.51,-29.97,-0.03,-8.64,38.96,-6.19,0.73,45.31,3.52,-0.20,9.77
21,-4,-524,58,-759,3876,0.76,-0.49,-30.17,0.58,-7.59,38.76,-6.20,0.71,45.43,3.46,-0.25,8.36
13,7,-501,20,-574,4023,0.77,-0.40,-30.21,0.20,-5.74,40.23,-6.22,0.68,45.55,3.63,-0.49,6.36
2,-10,-496,-2,-703,3935,0.70,-0.42,-30.22,-0.02,-7.03,39.35,-6.23,0.67,45.67,3.88,-0.12,5.92
-4,-25,-537,-113,-663,3890,0.61,-0.53,-30.47,-1.13,-6.63,38.90,-6.25,0.66,45.79,4.04,0.22,9.11
2,-11,-540,-159,-580,3952,0.56,-0.54,-30.72,-1.59,-5.80,39.52,-6.26,0.65,45.91,3.94,-0.06,9.09
-19,-5,-533,-98,-524,3937,0.39,-0.52,-30.90,-0.98,-5.24,39.37,-6.28,0.65,46.03,4.42,-0.18,8.30
-7,-1,-545,-136,-443,3900,0.31,-0.47,-31.13,-1.36,-4.43,39.00,-6.28,0.65,46.16,4.20,-0.28,9.06
-12,-7,-578,-162,-384,3887,0.20,-0.47,-31.54,-1.62,-3.84,38.87,-6.28,0.65,46.28,4.33,-0.16,11.40
-5,-11,-610,-208,-346,3919,0.15,-0.49,-32.11,-2.08,-3.46,39.19,-6.27,0.65,46.41,4.20,-0.07,13.50
-3,-12,-670,-91,-330,3926,0.12,-0.51,-32.99,-0.91,-3.30,39.26,-6.25,0.64,46.54,4.16,-0.04,17.65
11,-19,-689,-75,-315,3911,0.17,-0.58,-33.89,-0.75,-3.15,39.11,-6.24,0.63,46.68,3.85,0.13,18.29
7,-15,-787,-58,-319,3962,0.20,-0.61,-35.30,-0.58,-3.19,39.62,-6.22,0.61,46.82,3.91,0.07,20.00
5,-30,-798,10,-301,3957,0.21,-0.73,-36.64,0.10,-3.01,39.57,-6.20,0.59,46.96,3.94,0.42,20.00
6,-19,-767,-55,-481,3890,0.23,-0.78,-37.65,-0.55,-4.81,38.90,-6.22,0.57,47.11,3.92,0.22,20.00
3,-15,-738,-86,-497,3900,0.22,-0.79,-38.39,-0.86,-4.97,39.00,-6.24,0.56,47.26,4.00,0.15,17.62
24,-7,-617,-123,-447,3937,0.35,-0.75,-38.32,-1.23,-4.47,39.37,-6.24,0.56,47.41,3.54,-0.02,7.43
15,-6,-584,-86,-438,3944,0.40,-0.71,-38.05,-0.86,-4.38,39.44,-6.24,0.56,47.57,3.71,-0.05,4.91
6,-2,-503,-36,-302,3930,0.40,-0.66,-37.31,-0.36,-3.02,39.30,-6.22,0.54,47.71,3.88,-0.14,-1.19
-2,-4,-497,-4,-269,3927,0.35,-0.61,-36.61,-0.04,-2.69,39.27,-6.21,0.52,47.86,4.04,-0.09,-0.97
17,-18,-549,-191,-442,3950,0.42,-0.66,-36.30,-1.91,-4.42,39.50,-6.21,0.52,48.00,3.64,0.20,3.76
5,-22,-577,-155,-425,3916,0.40,-0.73,-36.19,-1.55,-4.25,39.16,-6.21,0.52,48.15,3.88,0.30,6.23
9,-18,-655,-104,-419,3921,0.42,-0.77,-36.57,-1.04,-4.19,39.21,-6.21,0.52,48.29,3.80,0.23,12.43
6,-7,-689,-144,-440,3932,0.41,-0.73,-37.11,-1.44,-4.40,39.32,-6.21,0.52,48.44,3.86,0.00,14.72
16,-21,-798,-126,-428,3981,0.47,-0.79,-38.27,-1.26,-4.28,39.81,-6.21,0.52,48.59,3.64,0.30,20.00
7,-11,-796,-86,-376,3911,0.47,-0.78,-39.30,-0.86,-3.76,39.11,-6.19,0.51,48.75,3.82,0.10,20.00
14,2,-695,-184,-398,3926,0.50,-0.69,-39.61,-1.84,-3.98,39.26,-6.19,0.51,48.90,3.66,-0.19,12.54
-4,-4,-641,-135,-414,3840,0.43,-0.64,-39.56,-1.35,-4.14,38.40,-6.19,0.51,49.06,4.05,-0.08,8.01
3,5,-442,31,-189,3930,0.40,-0.55,-38.30,0.31,-1.89,39.30,-6.17,0.48,49.21,3.90,-0.27,-7.53
11,-14,-403,-41,-368,3865,0.43,-0.58,-36.93,-0.41,-3.68,38.65,-6.15,0.47,49.36,3.72,0.13,-9.40
8,-11,-371,-72,-350,3939,0.44,-0.59,-35.50,-0.72,-3.50,39.39,-6.13,0.46,49.50,3.77,0.08,-10.61
20,-13,-384,-49,-231,3961,0.52,-0.61,-34.29,-0.49,-2.31,39.61,-6.12,0.44,49.64,3.49,0.14,-8.24
0,-9,-348,-130,-403,3907,0.46,-0.60,-32.98,-1.30,-4.03,39.07,-6.11,0.44,49.77,3.91,0.05,-9.92
11,-13,-333,-115,-377,3939,0.48,-0.62,-31.72,-1.15,-3.77,39.39,-6.10,0.44,49.89,3.67,0.14,-9.86
10,2,-290,-119,-473,3932,0.50,-0.55,-30.31,-1.19,-4.73,39.32,-6.11,0.45,50.01,3.69,-0.19,-12.03
8,10,-280,-162,-495,3863,0.50,-0.43,-28.99,-1.62,-4.95,38.63,-6.12,0.45,50.13,3.74,-0.38,-11.49
15,14,-267,-138,-444,3900,0.54,-0.30,-27.72,-1.38,-4.44,39.00,-6.12,0.45,50.24,3.59,-0.50,-11.25
22,12,-258,-196,-410,3942,0.62,-0.20,-26.52,-1.96,-4.10,39.42,-6.12,0.46,50.34,3.42,-0.49,-10.76
47,27,-247,-199,-442,3905,0.84,-0.01,-25.38,-1.99,-4.42,39.05,-6.12,0.47,50.44,2.85,-0.85,-10.48
51,21,-246,-278,-484,3955,1.07,0.11,-24.34,-2.78,-4.84,39.55,-6.12,0.47,50.54,2.71,-0.77,-9.48
36,40,-265,-173,-416,3940,1.18,0.35,-23.52,-1.73,-4.16,39.40,-6.11,0.48,50.63,2.98,-1.23,-7.01
34,33,-266,-185,-408,3982,1.27,0.51,-22.79,-1.85,-4.08,39.82,-6.11,0.49,50.73,2.99,-1.14,-6.16
14,-9,-343,-105,-456,3935,1.23,0.41,-22.61,-1.05,-4.56,39.35,-6.11,0.50,50.82,3.41,-0.26,0.55
-7,-26,-382,-101,-431,3910,1.06,0.21,-22.67,-1.01,-4.31,39.10,-6.11,0.51,50.91,3.89,0.13,3.77
-38,-62,-483,-24,-403,3895,0.73,-0.19,-23.35,-0.24,-4.03,38.95,-6.10,0.49,51.00,4.60,0.99,11.60
-31,-61,-490,-40,-469,3910,0.46,-0.54,-24.01,-0.40,-4.69,39.10,-6.11,0.48,51.09,4.54,1.07,11.49
-17,-44,-498,7,-395,3958,0.31,-0.76,-24.64,0.07,-3.95,39.58,-6.10,0.45,51.19,4.29,0.80,11.49
-2,-36,-498,80,-359,3962,0.27,-0.90,-25.22,0.80,-3.59,39.62,-6.09,0.42,51.29,3.99,0.70,10.87
-4,-21,-475,27,-297,3971,0.22,-0.94,-25.59,0.27,-2.97,39.71,-6.08,0.40,51.39,4.03,0.42,8.52
7,-15,-506,-74,-335,3912,0.24,-0.94,-26.12,-0.74,-3.35,39.12,-6.06,0.39,51.50,3.79,0.30,10.58
16,-12,-572,-114,-338,3939,0.31,-0.92,-27.00,-1.14,-3.38,39.39,-6.05,0.39,51.60,3.58,0.24,15.23
3,-18,-603,-42,-393,3928,0.30,-0.93,-27.98,-0.42,-3.93,39.28,-6.03,0.39,51.71,3.84,0.37,16.81
-2,-21,-678,-88,-391,3920,0.26,-0.97,-29.31,-0.88,-3.91,39.20,-6.02,0.39,51.83,3.95,0.44,20.00
5,-16,-685,-98,-450,3911,0.26,-0.97,-30.56,-0.98,-4.50,39.11,-6.03,0.39,51.95,3.81,0.33,20.00
3,-16,-721,-258,-394,3878,0.25,-0.97,-31.90,-2.58,-3.94,38.78,-6.03,0.39,52.08,3.85,0.33,20.00
17,-13,-728,-250,-386,3923,0.33,-0.95,-33.15,-2.50,-3.86,39.23,-6.03,0.39,52.21,3.54,0.27,20.00
3,-10,-757,-352,-346,3895,0.32,-0.92,-34.46,-3.52,-3.46,38.95,-6.02,0.39,52.35,3.83,0.20,20.00
7,-8,-766,-333,-334,3968,0.33,-0.88,-35.68,-3.33,-3.34,39.68,-6.02,0.39,52.49,3.74,0.15,20.00
15,-14,-835,-214,-310,3951,0.39,-0.87,-37.21,-2.14,-3.10,39.51,-6.01,0.38,52.64,3.56,0.27,20.00
-3,-11,-881,-172,-241,3921,0.33,-0.85,-38.86,-1.72,-2.41,39.21,-5.99,0.38,52.79,3.93,0.21,20.00
8,-22,-942,-84,-430,3885,0.35,-0.90,-40.72,-0.84,-4.30,38.85,-6.00,0.37,52.95,3.70,0.45,20.00
10,-22,-963,-47,-442,3898,0.37,-0.95,-42.52,-0.47,-4.42,38.98,-6.02,0.36,53.12,3.67,0.47,20.00
22,-13,-994,95,-507,3972,0.47,-0.93,-44.33,0.95,-5.07,39.72,-6.03,0.32,53.30,3.40,0.30,20.00
11,-23,-997,89,-401,3918,0.49,-0.98,-45.98,0.89,-4.01,39.18,-6.02,0.28,53.48,3.62,0.55,20.00
11,-27,-995,7,-634,3886,0.51,-1.04,-47.45,0.07,-6.34,38.86,-6.04,0.26,53.67,3.62,0.66,20.00
6,-20,-1007,-7,-613,3888,0.49,-1.06,-48.85,-0.07,-6.13,38.88,-6.06,0.23,53.86,3.74,0.54,20.00
15,-19,-1045,-59,-512,3931,0.54,-1.07,-50.34,-0.59,-5.12,39.31,-6.07,0.21,54.06,3.56,0.54,20.00
18,-13,-1038,-101,-466,3914,0.59,-1.04,-51.64,-1.01,-4.66,39.14,-6.08,0.20,54.27,3.48,0.42,20.00
18,-10,-933,-200,-321,3967,0.64,-1.00,-52.17,-2.00,-3.21,39.67,-6.07,0.19,54.47,3.46,0.35,18.91
16,-21,-849,-189,-331,3979,0.68,-1.03,-52.13,-1.89,-3.31,39.79,-6.06,0.18,54.68,3.49,0.59,11.81
12,-16,-743,-191,-282,3905,0.68,-1.02,-51.45,-1.91,-2.82,39.05,-6.05,0.17,54.88,3.56,0.49,3.53
12,-26,-726,-168,-267,3919,0.69,-1.08,-50.73,-1.68,-2.67,39.19,-6.03,0.16,55.09,3.55,0.72,2.83
13,-19,-666,-66,-264,3971,0.70,-1.09,-49.72,-0.66,-2.64,39.71,-6.01,0.14,55.28,3.51,0.59,-1.20
4,-12,-635,-96,-268,3960,0.65,-1.05,-48.62,-0.96,-2.68,39.60,-5.99,0.12,55.48,3.70,0.45,-2.68
13,9,-491,-69,-483,3938,0.67,-0.89,-46.76,-0.69,-4.83,39.38,-6.00,0.11,55.66,3.52,-0.01,-12.92
10,0,-459,-60,-567,3911,0.66,-0.80,-44.88,-0.60,-5.67,39.11,-6.02,0.10,55.84,3.59,0.15,-13.66
8,-12,-397,-47,-762,3909,0.64,-0.80,-42.81,-0.47,-7.62,39.09,-6.04,0.08,56.01,3.65,0.41,-16.74
11,5,-374,-58,-816,3970,0.65,-0.69,-40.81,-0.58,-8.16,39.70,-6.05,0.06,56.17,3.59,0.05,-16.59
2,1,-231,129,-802,3987,0.59,-0.61,-38.14,1.29,-8.02,39.87,-6.07,0.04,56.32,3.80,0.12,-20.00
-5,9,-156,99,-678,3949,0.50,-0.49,-35.28,0.99,-6.78,39.49,-6.08,0.01,56.46,3.98,-0.06,-20.00
-6,-1,-120,-79,-541,3885,0.42,-0.45,-32.48,-0.79,-5.41,38.85,-6.10,0.01,56.59,4.03,0.14,-20.00
-6,-6,-142,-39,-594,3894,0.34,-0.44,-30.10,-0.39,-5.94,38.94,-6.11,-0.00,56.71,4.06,0.25,-20.00
6,-7,-264,-29,-554,3934,0.34,-0.44,-28.70,-0.29,-5.54,39.34,-6.13,-0.01,56.83,3.83,0.27,-13.14
-7,-9,-298,27,-511,3865,0.26,-0.45,-27.65,0.27,-5.11,38.65,-6.14,-0.03,56.94,4.13,0.33,-9.15
-3,-11,-372,0,-423,3993,0.22,-0.47,-27.15,0.00,-4.23,39.93,-6.13,-0.04,57.04,4.04,0.38,-2.37
4,-10,-393,-22,-480,3919,0.22,-0.49,-26.84,-0.22,-4.80,39.19,-6.14,-0.05,57.15,3.91,0.37,-0.26
-7,-7,-414,-31,-349,3902,0.16,-0.48,-26.68,-0.31,-3.49,39.02,-6.12,-0.05,57.26,4.14,0.31,1.67
-1,-11,-409,-37,-433,3957,0.14,-0.50,-26.50,-0.37,-4.33,39.57,-6.13,-0.05,57.36,4.03,0.39,1.42
2,-9,-430,-64,-337,3925,0.13,-0.51,-26.48,-0.64,-3.37,39.25,-6.11,-0.05,57.47,3.96,0.35,3.22
2,-9,-460,-135,-359,3915,0.13,-0.51,-26.64,-1.35,-3.59,39.15,-6.11,-0.05,57.57,3.95,0.35,5.59
4,1,-424,-47,-347,3883,0.14,-0.45,-26.56,-0.47,-3.47,38.83,-6.09,-0.05,57.68,3.90,0.13,2.61
2,-10,-425,-5,-371,3960,0.14,-0.47,-26.49,-0.05,-3.71,39.60,-6.07,-0.06,57.78,3.93,0.37,2.75
2,-8,-440,-95,-385,3926,0.14,-0.47,-26.53,-0.95,-3.85,39.26,-6.06,-0.05,57.89,3.92,0.33,3.98
5,-9,-453,-42,-398,3916,0.16,-0.48,-26.64,-0.42,-3.98,39.16,-6.06,-0.05,57.99,3.85,0.35,4.95
6,-12,-522,-47,-352,3867,0.18,-0.50,-27.16,-0.47,-3.52,38.67,-6.04,-0.05,58.10,3.82,0.42,10.24
5,-6,-546,-62,-270,3981,0.19,-0.49,-27.77,-0.62,-2.70,39.81,-6.03,-0.06,58.21,3.82,0.29,11.61
5,-20,-570,-38,-175,3931,0.20,-0.56,-28.47,-0.38,-1.75,39.31,-6.01,-0.07,58.32,3.81,0.61,12.89
8,-10,-570,-32,-262,3988,0.23,-0.57,-29.10,-0.32,-2.62,39.88,-5.99,-0.08,58.44,3.73,0.41,12.21
2,-7,-664,-157,-318,3915,0.22,-0.55,-30.24,-1.57,-3.18,39.15,-5.98,-0.08,58.56,3.84,0.34,18.96
1,-10,-724,-103,-372,3896,0.20,-0.56,-31.64,-1.03,-3.72,38.96,-5.97,-0.08,58.69,3.86,0.41,20.00
12,-12,-823,-138,-488,3906,0.26,-0.58,-33.49,-1.38,-4.88,39.06,-5.98,-0.08,58.82,3.63,0.45,20.00
9,6,-816,-146,-369,3886,0.29,-0.48,-35.12,-1.46,-3.69,38.86,-5.97,-0.07,58.96,3.68,0.06,20.00
20,-5,-820,-107,-411,3992,0.38,-0.46,-36.61,-1.07,-4.11,39.92,-5.97,-0.07,59.10,3.43,0.28,20.00
-1,-7,-822,-90,-430,3927,0.34,-0.46,-37.96,-0.90,-4.30,39.27,-5.97,-0.07,59.25,3.87,0.32,20.00
8,-17,-798,-125,-309,3944,0.35,-0.52,-39.04,-1.25,-3.09,39.44,-5.96,-0.08,59.41,3.67,0.54,20.00
12,-6,-779,-206,-269,3971,0.39,-0.50,-39.88,-2.06,-2.69,39.71,-5.95,-0.08,59.57,3.57,0.31,18.41
14,2,-714,-168,-383,3912,0.44,-0.44,-40.25,-1.68,-3.83,39.12,-5.94,-0.08,59.73,3.52,0.13,12.50
32,5,-685,-61,-404,4054,0.59,-0.37,-40.40,-0.61,-4.04,40.54,-5.93,-0.08,59.89,3.11,0.05,9.86
23,10,-628,-110,-299,3928,0.67,-0.27,-40.19,-1.10,-2.99,39.28,-5.92,-0.09,60.05,3.26,-0.07,5.24
15,15,-631,-108,-281,3815,0.69,-0.15,-40.02,-1.08,-2.81,38.15,-5.90,-0.09,60.21,3.40,-0.20,5.66
20,-10,-613,-191,-407,3906,0.75,-0.20,-39.76,-1.91,-4.07,39.06,-5.90,-0.09,60.37,3.28,0.32,4.40
16,-9,-635,-261,-399,3870,0.77,-0.23,-39.66,-2.61,-3.99,38.70,-5.90,-0.09,60.52,3.36,0.30,6.36
4,-11,-665,-8,-394,4014,0.72,-0.28,-39.75,-0.08,-3.94,40.14,-5.88,-0.09,60.68,3.60,0.36,8.79
5,-6,-658,-36,-460,3918,0.68,-0.28,-39.79,-0.36,-4.60,39.18,-5.89,-0.10,60.84,3.60,0.27,8.14
19,-18,-592,-41,-455,3911,0.72,-0.37,-39.42,-0.41,-4.55,39.11,-5.90,-0.11,61.00,3.31,0.54,2.92
2,-17,-574,-146,-332,3906,0.66,-0.43,-38.98,-1.46,-3.32,39.06,-5.89,-0.11,61.15,3.67,0.53,1.85
-13,-15,-522,-77,-334,3966,0.52,-0.48,-38.27,-0.77,-3.34,39.66,-5.88,-0.11,61.30,4.00,0.51,-1.81
-2,-13,-501,-73,-313,3918,0.45,-0.51,-37.50,-0.73,-3.13,39.18,-5.86,-0.12,61.45,3.78,0.48,-2.79
-9,-13,-466,-126,-404,3946,0.35,-0.54,-36.59,-1.26,-4.04,39.46,-5.86,-0.12,61.60,3.95,0.49,-4.81
-4,-8,-435,-178,-359,3929,0.29,-0.54,-35.58,-1.78,-3.59,39.29,-5.85,-0.11,61.74,3.86,0.38,-6.38
-1,-10,-368,-8,-378,3945,0.26,-0.54,-34.27,-0.08,-3.78,39.45,-5.84,-0.12,61.88,3.80,0.43,-10.68
-2,-7,-352,-67,-387,3994,0.22,-0.53,-32.99,-0.67,-3.87,39.94,-5.83,-0.12,62.01,3.83,0.37,-10.69
-9,-11,-312,-24,-400,3936,0.14,-0.55,-31.59,-0.24,-4.00,39.36,-5.83,-0.12,62.13,3.99,0.45,-12.61
-5,-10,-300,-63,-377,3914,0.10,-0.55,-30.26,-0.63,-3.77,39.14,-5.82,-0.11,62.25,3.92,0.43,-12.23
-8,-11,-294,-74,-414,3935,0.04,-0.56,-29.03,-0.74,-4.14,39.35,-5.82,-0.11,62.37,4.00,0.45,-11.45
1,-7,-298,-66,-412,3963,0.04,-0.55,-27.95,-0.66,-4.12,39.63,-5.83,-0.10,62.48,3.81,0.36,-9.97
6,-4,-353,-58,-391,3946,0.07,-0.52,-27.30,-0.58,-3.91,39.46,-5.82,-0.10,62.59,3.70,0.29,-4.64
4,2,-361,-16,-438,3918,0.09,-0.46,-26.78,-0.16,-4.38,39.18,-5.84,-0.10,62.69,3.75,0.15,-3.41
-3,-11,-393,-25,-375,3846,0.06,-0.48,-26.50,-0.25,-3.75,38.46,-5.83,-0.10,62.80,3.89,0.42,-0.41
-9,-16,-412,-92,-425,3926,0.00,-0.53,-26.36,-0.92,-4.25,39.26,-5.83,-0.09,62.90,4.03,0.53,1.33
-2,-21,-377,-74,-459,3890,-0.01,-0.60,-26.02,-0.74,-4.59,38.90,-5.84,-0.09,63.01,3.90,0.65,-1.29
-3,-15,-375,-4,-449,3950,-0.03,-0.63,-25.71,-0.04,-4.49,39.50,-5.86,-0.10,63.11,3.94,0.54,-1.13
3,-21,-345,6,-366,3932,-0.01,-0.70,-25.24,0.06,-3.66,39.32,-5.84,-0.11,63.21,3.80,0.69,-3.19
0,-19,-361,-60,-408,3997,-0.01,-0.74,-24.92,-0.60,-4.08,39.97,-5.84,-0.11,63.31,3.86,0.66,-1.50
-1,-19,-407,-133,-387,3886,-0.01,-0.79,-24.91,-1.33,-3.87,38.86,-5.84,-0.10,63.41,3.88,0.67,2.40
2,-8,-432,-145,-407,3940,0.00,-0.76,-25.05,-1.45,-4.07,39.40,-5.84,-0.10,63.51,3.81,0.43,4.35
5,-13,-472,-158,-390,3913,0.03,-0.76,-25.43,-1.58,-3.90,39.13,-5.84,-0.09,63.61,3.74,0.53,7.34
-1,-21,-485,-135,-368,3921,0.02,-0.81,-25.84,-1.35,-3.68,39.21,-5.83,-0.09,63.71,3.86,0.71,7.99
16,-14,-541,-194,-325,3963,0.12,-0.82,-26.56,-1.94,-3.25,39.63,-5.83,-0.09,63.81,3.49,0.56,11.97
5,-35,-582,-117,-432,3996,0.14,-0.95,-27.45,-1.17,-4.32,39.96,-5.83,-0.08,63.92,3.71,1.02,14.48
7,-27,-697,-71,-482,4018,0.17,-1.02,-28.96,-0.71,-4.82,40.18,-5.84,-0.09,64.04,3.67,0.88,20.00
5,-28,-710,-68,-465,3936,0.18,-1.09,-30.40,-0.68,-4.65,39.36,-5.85,-0.09,64.16,3.71,0.92,20.00
-4,-22,-847,55,-403,3876,0.14,-1.11,-32.52,0.55,-4.03,38.76,-5.85,-0.12,64.29,3.91,0.83,20.00
10,-21,-883,4,-415,4011,0.18,-1.13,-34.66,0.04,-4.15,40.11,-5.86,-0.13,64.42,3.62,0.82,20.00
8,-20,-903,-25,-358,3928,0.22,-1.14,-36.70,-0.25,-3.58,39.28,-5.85,-0.14,64.57,3.64,0.81,20.00
10,-23,-899,-22,-278,3884,0.25,-1.16,-38.51,-0.22,-2.78,38.84,-5.83,-0.15,64.72,3.57,0.89,20.00
5,-25,-890,-142,-390,3908,0.26,-1.20,-40.09,-1.42,-3.90,39.08,-5.83,-0.16,64.88,3.67,0.94,20.00
19,-9,-876,-158,-353,3934,0.35,-1.14,-41.43,-1.58,-3.53,39.34,-5.82,-0.16,65.05,3.36,0.60,20.00
10,-13,-820,-69,-377,3895,0.38,-1.10,-42.28,-0.69,-3.77,38.95,-5.81,-0.16,65.21,3.53,0.67,18.83
4,-11,-777,-135,-410,3899,0.36,-1.06,-42.80,-1.35,-4.10,38.99,-5.81,-0.17,65.38,3.66,0.62,14.63
12,-5,-657,-173,-391,3927,0.40,-0.98,-42.52,-1.73,-3.91,39.27,-5.81,-0.17,65.55,3.48,0.48,4.73
5,-12,-644,-208,-405,3958,0.39,-0.96,-42.20,-2.08,-4.05,39.58,-5.81,-0.17,65.72,3.63,0.62,3.96
3,-8,-639,-297,-326,3969,0.37,-0.91,-41.88,-2.97,-3.26,39.69,-5.80,-0.17,65.89,3.67,0.53,3.86
4,0,-664,-334,-325,3945,0.36,-0.82,-41.74,-3.34,-3.25,39.45,-5.80,-0.18,66.05,3.65,0.34,6.11
-1,-5,-775,-241,-268,3909,0.31,-0.77,-42.29,-2.41,-2.68,39.09,-5.79,-0.18,66.22,3.75,0.43,14.92
10,-7,-820,-222,-262,3937,0.34,-0.73,-43.07,-2.22,-2.62,39.37,-5.77,-0.18,66.39,3.51,0.46,17.89
20,-10,-941,45,-433,3946,0.43,-0.72,-44.50,0.45,-4.33,39.46,-5.79,-0.22,66.57,3.29,0.54,20.00
1,-27,-950,226,-360,3908,0.39,-0.81,-45.85,2.26,-3.60,39.08,-5.78,-0.26,66.75,3.69,0.94,20.00
-10,-26,-842,306,-293,3834,0.29,-0.89,-46.40,3.06,-2.93,38.34,-5.77,-0.30,66.94,3.93,0.97,16.18
12,-33,-688,228,-322,3841,0.34,-1.00,-45.95,2.28,-3.22,38.41,-5.76,-0.34,67.12,3.47,1.17,3.59
-9,-24,-549,-30,-391,3907,0.25,-1.05,-44.71,-0.30,-3.91,39.07,-5.76,-0.34,67.30,3.92,1.00,-6.88
8,-11,-529,-93,-395,3885,0.27,-1.01,-43.46,-0.93,-3.95,38.85,-5.76,-0.34,67.47,3.56,0.73,-7.28
11,-6,-485,-89,-466,3919,0.31,-0.95,-42.08,-0.89,-4.66,39.19,-5.77,-0.35,67.64,3.50,0.61,-9.55
10,-13,-476,-113,-429,3955,0.34,-0.93,-40.77,-1.13,-4.29,39.55,-5.77,-0.35,67.80,3.51,0.75,-8.95
-1,-15,-496,-47,-439,3960,0.30,-0.93,-39.72,-0.47,-4.39,39.60,-5.78,-0.36,67.95,3.75,0.79,-6.15
-2,-17,-504,-37,-459,3932,0.26,-0.94,-38.82,-0.37,-4.59,39.32,-5.79,-0.36,68.11,3.79,0.84,-4.54
2,-13,-574,-164,-366,3941,0.25,-0.93,-38.44,-1.64,-3.66,39.41,-5.78,-0.36,68.26,3.71,0.76,1.78
6,-18,-606,-127,-365,3926,0.26,-0.94,-38.29,-1.27,-3.65,39.26,-5.78,-0.36,68.41,3.62,0.86,4.64
6,-19,-682,-106,-493,3951,0.27,-0.96,-38.62,-1.06,-4.93,39.51,-5.78,-0.37,68.57,3.62,0.89,10.71
17,-7,-707,-113,-493,3977,0.35,-0.91,-39.08,-1.13,-4.93,39.77,-5.79,-0.37,68.72,3.38,0.64,12.34
15,4,-707,-3,-531,3942,0.40,-0.80,-39.48,-0.03,-5.31,39.42,-5.81,-0.39,68.88,3.42,0.39,11.89
11,-19,-688,13,-511,3934,0.43,-0.83,-39.73,0.13,-5.11,39.34,-5.82,-0.40,69.04,3.50,0.88,10.01
10,-9,-545,-44,-530,3931,0.45,-0.80,-39.08,-0.44,-5.30,39.31,-5.83,-0.42,69.19,3.53,0.68,-1.44
7,-14,-522,25,-472,3898,0.45,-0.81,-38.36,0.25,-4.72,38.98,-5.85,-0.43,69.34,3.60,0.79,-2.63
15,-5,-494,-31,-473,3924,0.49,-0.76,-37.53,-0.31,-4.73,39.24,-5.86,-0.44,69.49,3.43,0.60,-4.15
5,-6,-483,-73,-545,3905,0.47,-0.72,-36.73,-0.73,-5.45,39.05,-5.87,-0.45,69.64,3.65,0.61,-4.24
0,-12,-414,-7,-419,3905,0.43,-0.72,-35.58,-0.07,-4.19,39.05,-5.88,-0.45,69.78,3.76,0.74,-8.88
5,-9,-409,-47,-461,3890,0.41,-0.70,-34.52,-0.47,-4.61,38.90,-5.89,-0.45,69.92,3.67,0.67,-8.19
-1,-1,-481,-41,-496,3911,0.37,-0.64,-34.00,-0.41,-4.96,39.11,-5.90,-0.46,70.05,3.81,0.49,-1.55
