gyroADC_X,gyroADC_Y,gyroADC_Z,accADC_X,accADC_Y,accADC_Z,GyroX,GyroY,GyroZ,AccX,AccY,AccZ,roll_IMU,pitch_IMU,yaw_IMU,roll_PID,pitch_PID,yaw_PID
-4,-2,-13,-98,-269,4005,-0.09,-0.38,-0.75,-0.98,-2.69,40.05,-4.79,-0.16,65.11,3.27,0.25,-11.17
4,-3,-43,-3,-340,3946,-0.06,-0.36,-0.94,-0.03,-3.40,39.46,-4.80,-0.15,65.12,3.10,0.26,-8.76
1,-2,-13,-22,-381,3919,-0.05,-0.34,-0.92,-0.22,-3.81,39.19,-4.81,-0.14,65.12,3.17,0.22,-11.29
3,1,-3,-25,-408,3930,-0.02,-0.30,-0.85,-0.25,-4.08,39.30,-4.83,-0.13,65.12,3.13,0.15,-12.09
-1,0,23,-97,-369,3899,-0.03,-0.27,-0.63,-0.97,-3.69,38.99,-4.84,-0.12,65.13,3.22,0.15,-14.13
-2,-1,15,-103,-358,3967,-0.04,-0.25,-0.47,-1.03,-3.58,39.67,-4.84,-0.10,65.13,3.25,0.15,-13.34
-1,-4,1,-79,-350,3905,-0.04,-0.25,-0.42,-0.79,-3.50,39.05,-4.85,-0.08,65.13,3.23,0.20,-12.11
-1,-3,8,-50,-292,3902,-0.04,-0.24,-0.33,-0.50,-2.92,39.02,-4.84,-0.07,65.13,3.22,0.17,-12.64
-1,-4,9,-51,-266,3914,-0.04,-0.24,-0.24,-0.51,-2.66,39.14,-4.82,-0.06,65.13,3.21,0.19,-12.66
1,-2,9,-13,-324,3918,-0.03,-0.23,-0.16,-0.13,-3.24,39.18,-4.81,-0.04,65.13,3.17,0.13,-12.60
2,-2,15,8,-336,3931,-0.02,-0.22,-0.05,0.08,-3.36,39.31,-4.83,-0.06,65.13,3.15,0.14,-13.03
-5,-6,45,35,-371,3866,-0.05,-0.23,0.23,0.35,-3.71,38.66,-4.84,-0.07,65.13,3.31,0.23,-15.37
-1,1,54,-5,-369,3908,-0.05,-0.20,0.53,-0.05,-3.69,39.08,-4.86,-0.06,65.13,3.24,0.08,-15.91
-3,0,58,3,-349,3893,-0.06,-0.18,0.83,0.03,-3.49,38.93,-4.88,-0.06,65.13,3.30,0.09,-16.03
-7,-4,54,-70,-259,3917,-0.10,-0.19,1.08,-0.70,-2.59,39.17,-4.87,-0.05,65.12,3.38,0.17,-15.51
-3,-11,12,13,-294,3904,-0.11,-0.24,1.05,0.13,-2.94,39.04,-4.85,-0.06,65.12,3.29,0.33,-11.98
-4,-13,13,-1,-292,3920,-0.12,-0.29,1.02,-0.01,-2.92,39.20,-4.83,-0.05,65.11,3.30,0.38,-12.08
-1,-10,27,-69,-339,3932,-0.11,-0.32,1.08,-0.69,-3.39,39.32,-4.83,-0.04,65.11,3.24,0.32,-13.22
-2,-8,25,-100,-343,3941,-0.12,-0.34,1.13,-1.00,-3.43,39.41,-4.84,-0.02,65.10,3.26,0.27,-13.02
-2,3,9,-51,-354,3943,-0.12,-0.29,1.07,-0.51,-3.54,39.43,-4.84,-0.00,65.10,3.27,0.02,-11.70
-2,4,7,-35,-340,3903,-0.12,-0.24,1.00,-0.35,-3.40,39.03,-4.85,0.01,65.10,3.27,-0.03,-11.58
0,7,7,-14,-342,3926,-0.10,-0.17,0.95,-0.14,-3.42,39.26,-4.86,0.03,65.09,3.24,-0.11,-11.62
0,5,10,-20,-337,3932,-0.09,-0.12,0.91,-0.20,-3.37,39.32,-4.86,0.05,65.09,3.23,-0.10,-11.90
-2,-8,11,-1,-335,3941,-0.10,-0.16,0.89,-0.01,-3.35,39.41,-4.86,0.03,65.09,3.28,0.19,-12.00
-1,-16,11,-6,-334,3942,-0.09,-0.24,0.87,-0.06,-3.34,39.42,-4.86,0.04,65.08,3.25,0.36,-12.01
2,-24,32,-15,-378,3919,-0.07,-0.36,0.98,-0.15,-3.78,39.19,-4.87,0.05,65.08,3.20,0.56,-13.71
6,-27,46,-30,-351,3927,-0.03,-0.49,1.16,-0.30,-3.51,39.27,-4.88,0.06,65.07,3.11,0.64,-14.77
3,-30,57,-5,-343,3903,-0.01,-0.62,1.39,-0.05,-3.43,39.03,-4.90,0.06,65.07,3.18,0.74,-15.53
1,-26,61,0,-333,3904,-0.00,-0.72,1.62,0.00,-3.33,39.04,-4.89,0.04,65.06,3.21,0.70,-15.70
-2,-10,66,24,-291,3919,-0.01,-0.71,1.86,0.24,-2.91,39.19,-4.88,0.03,65.05,3.26,0.38,-15.94
-1,-11,65,13,-290,3950,-0.02,-0.71,2.07,0.13,-2.90,39.50,-4.86,0.02,65.04,3.23,0.40,-15.70
3,-14,51,-17,-318,3929,0.00,-0.72,2.18,-0.17,-3.18,39.29,-4.85,0.03,65.04,3.14,0.46,-14.44
4,-12,52,-27,-320,3926,0.03,-0.72,2.28,-0.27,-3.20,39.26,-4.84,0.05,65.03,3.11,0.41,-14.45
2,-15,63,-33,-335,3929,0.04,-0.74,2.43,-0.33,-3.35,39.29,-4.84,0.06,65.02,3.14,0.46,-15.27
3,-14,65,-27,-342,3903,0.05,-0.75,2.59,-0.27,-3.42,39.03,-4.85,0.08,65.01,3.13,0.44,-15.32
-3,3,43,63,-333,3922,0.03,-0.66,2.59,0.63,-3.33,39.22,-4.85,0.06,65.00,3.25,0.08,-13.45
0,13,25,39,-317,3918,0.02,-0.51,2.48,0.39,-3.17,39.18,-4.84,0.04,64.99,3.19,-0.15,-12.00
-2,6,18,24,-311,3885,0.01,-0.43,2.35,0.24,-3.11,38.85,-4.83,0.02,64.98,3.23,-0.02,-11.51
-2,7,18,25,-319,3893,-0.00,-0.34,2.22,0.25,-3.19,38.93,-4.83,0.01,64.97,3.23,-0.05,-11.60
-11,14,29,74,-300,3950,-0.07,-0.22,2.18,0.74,-3.00,39.50,-4.82,-0.01,64.96,3.42,-0.22,-12.56
-2,13,36,87,-290,3901,-0.08,-0.12,2.18,0.87,-2.90,39.01,-4.81,-0.03,64.95,3.24,-0.21,-13.15
-1,-4,65,86,-348,3955,-0.07,-0.13,2.36,0.86,-3.48,39.55,-4.81,-0.05,64.94,3.22,0.15,-15.48
-1,-5,66,10,-309,3903,-0.07,-0.15,2.52,0.10,-3.09,39.03,-4.80,-0.05,64.93,3.21,0.18,-15.44
1,-5,64,-24,-374,3912,-0.06,-0.16,2.66,-0.24,-3.74,39.12,-4.81,-0.04,64.92,3.17,0.17,-15.17
-2,-8,67,-81,-389,3932,-0.07,-0.20,2.80,-0.81,-3.89,39.32,-4.82,-0.03,64.91,3.24,0.23,-15.32
-4,21,22,-60,-336,3923,-0.08,-0.05,2.66,-0.60,-3.36,39.23,-4.83,-0.01,64.90,3.29,-0.41,-11.61
-4,20,10,-58,-381,3949,-0.10,0.08,2.45,-0.58,-3.81,39.49,-4.84,0.01,64.89,3.30,-0.43,-10.74
0,2,5,-16,-339,3918,-0.09,0.08,2.24,-0.16,-3.39,39.18,-4.85,0.03,64.88,3.22,-0.08,-10.47
-2,3,3,-14,-339,3909,-0.09,0.09,2.03,-0.14,-3.39,39.09,-4.86,0.04,64.87,3.27,-0.11,-10.45
-2,0,3,-3,-335,3923,-0.10,0.08,1.85,-0.03,-3.35,39.23,-4.87,0.04,64.86,3.28,-0.05,-10.58
-1,-2,3,0,-340,3913,-0.09,0.06,1.68,0.00,-3.40,39.13,-4.89,0.04,64.86,3.27,-0.00,-10.70
-1,3,0,24,-343,3899,-0.09,0.07,1.51,0.24,-3.43,38.99,-4.90,0.02,64.85,3.28,-0.09,-10.57
-1,9,-2,11,-331,3889,-0.09,0.12,1.35,0.11,-3.31,38.89,-4.90,0.00,64.85,3.27,-0.22,-10.52
-2,19,0,5,-324,3928,-0.09,0.23,1.21,0.05,-3.24,39.28,-4.88,-0.00,64.84,3.29,-0.45,-10.79
-12,8,-1,59,-319,4031,-0.15,0.25,1.09,0.59,-3.19,40.31,-4.87,-0.02,64.84,3.50,-0.22,-10.79
4,-11,2,16,-322,3882,-0.11,0.16,0.99,0.16,-3.22,38.82,-4.86,-0.03,64.83,3.16,0.20,-11.12
4,-11,11,10,-308,3904,-0.08,0.08,0.96,0.10,-3.08,39.04,-4.85,-0.04,64.83,3.14,0.23,-11.90
3,-25,30,-3,-331,3908,-0.05,-0.08,1.05,-0.03,-3.31,39.08,-4.85,-0.02,64.82,3.15,0.54,-13.45
2,-22,30,-11,-319,3907,-0.03,-0.21,1.12,-0.11,-3.19,39.07,-4.83,-0.01,64.82,3.16,0.51,-13.39
-2,1,17,-37,-328,3893,-0.04,-0.18,1.12,-0.37,-3.28,38.93,-4.83,0.01,64.82,3.24,0.02,-12.29
-1,11,12,-35,-329,3886,-0.05,-0.10,1.08,-0.35,-3.29,38.86,-4.83,0.03,64.81,3.22,-0.22,-11.90
-1,10,9,-8,-339,3960,-0.05,-0.03,1.02,-0.08,-3.39,39.60,-4.84,0.04,64.81,3.23,-0.23,-11.68
2,-8,24,85,-312,3983,-0.03,-0.07,1.07,0.85,-3.12,39.83,-4.84,0.03,64.80,3.16,0.16,-12.92
6,-16,27,-12,-311,3878,0.01,-0.16,1.13,-0.12,-3.11,38.78,-4.82,0.04,64.80,3.06,0.35,-13.13
0,-1,26,-12,-321,3839,0.01,-0.15,1.17,-0.12,-3.21,38.39,-4.82,0.05,64.79,3.18,0.03,-13.01
-3,21,4,-62,-349,3938,-0.01,-0.01,1.08,-0.62,-3.49,39.38,-4.82,0.07,64.79,3.25,-0.47,-11.21
-1,4,5,-52,-363,3949,-0.02,0.02,1.00,-0.52,-3.63,39.49,-4.83,0.09,64.78,3.21,-0.14,-11.35
4,-15,14,-7,-330,3909,0.01,-0.08,0.99,-0.07,-3.30,39.09,-4.82,0.10,64.78,3.10,0.26,-12.13
4,-13,17,2,-330,3896,0.03,-0.15,0.99,0.02,-3.30,38.96,-4.83,0.09,64.78,3.10,0.25,-12.38
-1,-10,22,5,-302,3918,0.02,-0.19,1.03,0.05,-3.02,39.18,-4.81,0.08,64.77,3.19,0.20,-12.77
1,-9,20,11,-304,3921,0.03,-0.23,1.05,0.11,-3.04,39.21,-4.79,0.07,64.77,3.14,0.20,-12.59
-1,-5,19,1,-329,3904,0.02,-0.24,1.06,0.01,-3.29,39.04,-4.80,0.05,64.76,3.18,0.13,-12.50
-1,-4,16,4,-308,3914,0.01,-0.24,1.05,0.04,-3.08,39.14,-4.78,0.04,64.76,3.17,0.12,-12.25
-2,-5,21,12,-329,3914,-0.00,-0.25,1.07,0.12,-3.29,39.14,-4.78,0.02,64.76,3.20,0.15,-12.65
-2,-8,24,19,-325,3942,-0.01,-0.27,1.11,0.19,-3.25,39.42,-4.78,0.01,64.75,3.20,0.23,-12.88
0,-37,43,8,-375,3917,-0.01,-0.47,1.26,0.08,-3.75,39.17,-4.80,0.00,64.75,3.17,0.88,-14.38
1,-26,25,-43,-350,3875,-0.01,-0.58,1.29,-0.43,-3.50,38.75,-4.81,0.02,64.74,3.15,0.68,-12.83
-2,-4,3,-1,-341,3954,-0.02,-0.55,1.18,-0.01,-3.41,39.54,-4.82,0.01,64.74,3.23,0.22,-11.05
-1,-12,2,-2,-324,3936,-0.02,-0.56,1.07,-0.02,-3.24,39.36,-4.81,0.01,64.73,3.20,0.39,-11.04
-1,-3,3,-2,-338,3913,-0.03,-0.53,0.98,-0.02,-3.38,39.13,-4.83,0.01,64.73,3.21,0.20,-11.19
-1,-4,6,-18,-331,3952,-0.03,-0.50,0.92,-0.18,-3.31,39.52,-4.82,0.03,64.72,3.21,0.20,-11.49
3,-32,14,32,-330,3929,-0.01,-0.64,0.92,0.32,-3.30,39.29,-4.82,0.01,64.72,3.12,0.82,-12.17
4,-31,18,18,-355,3903,0.02,-0.77,0.93,0.18,-3.55,39.03,-4.84,-0.00,64.72,3.11,0.84,-12.49
6,-39,38,46,-361,3910,0.05,-0.93,1.07,0.46,-3.61,39.10,-4.85,-0.02,64.71,3.06,1.06,-14.09
4,-36,44,19,-365,3895,0.07,-1.06,1.23,0.19,-3.65,38.95,-4.86,-0.03,64.71,3.11,1.04,-14.48
-2,9,14,-11,-303,3904,0.05,-0.90,1.20,-0.11,-3.03,39.04,-4.85,-0.03,64.70,3.22,0.08,-11.96
-3,6,7,-3,-330,3949,0.03,-0.77,1.12,-0.03,-3.30,39.49,-4.83,-0.02,64.70,3.24,0.10,-11.42
0,-7,8,5,-347,3896,0.03,-0.74,1.06,0.05,-3.47,38.96,-4.85,-0.03,64.69,3.19,0.36,-11.55
-1,-5,11,4,-336,3919,0.02,-0.69,1.02,0.04,-3.36,39.19,-4.87,-0.04,64.69,3.23,0.32,-11.83
3,-1,3,29,-361,3904,0.03,-0.63,0.93,0.29,-3.61,39.04,-4.88,-0.05,64.68,3.15,0.23,-11.22
2,5,6,40,-368,3897,0.04,-0.54,0.88,0.40,-3.68,38.97,-4.89,-0.07,64.68,3.18,0.09,-11.51
1,14,16,12,-338,3918,0.04,-0.40,0.89,0.12,-3.38,39.18,-4.90,-0.09,64.68,3.20,-0.12,-12.35
-3,14,16,44,-301,3981,0.02,-0.27,0.90,0.44,-3.01,39.81,-4.88,-0.10,64.67,3.28,-0.15,-12.34
-5,2,-12,44,-337,3888,-0.01,-0.23,0.73,0.44,-3.37,38.88,-4.89,-0.12,64.67,3.33,0.10,-10.09
1,10,-10,28,-346,3872,-0.00,-0.15,0.60,0.28,-3.46,38.72,-4.90,-0.13,64.67,3.21,-0.08,-10.36
5,-14,9,-13,-379,3969,0.03,-0.22,0.59,-0.13,-3.79,39.69,-4.91,-0.12,64.66,3.13,0.43,-11.97
5,-20,14,-62,-350,3885,0.05,-0.32,0.62,-0.62,-3.50,38.85,-4.92,-0.11,64.66,3.13,0.56,-12.37
-5,4,8,-48,-284,3911,0.02,-0.26,0.61,-0.48,-2.84,39.11,-4.90,-0.10,64.66,3.33,0.05,-11.87
-5,2,5,-39,-291,3938,-0.01,-0.22,0.58,-0.39,-2.91,39.38,-4.89,-0.08,64.66,3.33,0.08,-11.64
-1,-11,11,-55,-313,3936,-0.02,-0.27,0.59,-0.55,-3.13,39.36,-4.89,-0.07,64.65,3.25,0.34,-12.14
-1,-9,13,-15,-336,3928,-0.02,-0.30,0.61,-0.15,-3.36,39.28,-4.89,-0.05,64.65,3.25,0.30,-12.30
4,-26,15,39,-338,3887,0.00,-0.43,0.64,0.39,-3.38,38.87,-4.89,-0.07,64.65,3.14,0.69,-12.44
2,-15,13,34,-339,3861,0.02,-0.47,0.65,0.34,-3.39,38.61,-4.89,-0.09,64.65,3.18,0.49,-12.26
-1,20,11,43,-327,3889,0.01,-0.31,0.65,0.43,-3.27,38.89,-4.89,-0.11,64.64,3.25,-0.25,-12.09
-2,30,17,1,-323,3895,-0.00,-0.09,0.69,0.01,-3.23,38.95,-4.88,-0.10,64.64,3.26,-0.52,-12.57
1,30,28,-16,-330,3945,0.00,0.10,0.79,-0.16,-3.30,39.45,-4.87,-0.08,64.64,3.19,-0.58,-13.43
0,26,31,-18,-344,3917,0.00,0.25,0.90,-0.18,-3.44,39.17,-4.88,-0.06,64.63,3.22,-0.56,-13.60
0,-10,79,-37,-411,3980,0.00,0.16,1.30,-0.37,-4.11,39.80,-4.89,-0.05,64.63,3.23,0.19,-17.38
-3,-6,82,-39,-319,3889,-0.02,0.11,1.67,-0.39,-3.19,38.89,-4.89,-0.03,64.62,3.29,0.11,-17.36
0,-1,44,3,-224,3929,-0.02,0.09,1.77,0.03,-2.24,39.29,-4.87,-0.03,64.62,3.22,0.02,-14.07
6,0,53,-69,-181,3931,0.02,0.08,1.91,-0.69,-1.81,39.31,-4.85,-0.02,64.61,3.07,-0.01,-14.72
7,-34,33,-8,-364,3919,0.06,-0.13,1.92,-0.08,-3.64,39.19,-4.87,-0.02,64.60,3.05,0.74,-13.02
7,-25,33,-4,-336,3854,0.10,-0.27,1.93,-0.04,-3.36,38.54,-4.88,-0.01,64.59,3.05,0.59,-13.01
-1,21,15,35,-333,3905,0.08,-0.12,1.83,0.35,-3.33,39.05,-4.88,-0.03,64.58,3.22,-0.38,-11.56
-2,19,10,30,-333,3933,0.06,0.01,1.71,0.30,-3.33,39.33,-4.88,-0.04,64.58,3.25,-0.36,-11.23
1,11,-1,18,-351,3923,0.06,0.08,1.53,0.18,-3.51,39.23,-4.89,-0.06,64.57,3.19,-0.21,-10.42
0,13,-4,-3,-345,3904,0.06,0.15,1.35,-0.03,-3.45,39.04,-4.91,-0.04,64.57,3.23,-0.28,-10.30
-2,-4,-7,-80,-271,3907,0.04,0.11,1.18,-0.80,-2.71,39.07,-4.90,-0.03,64.56,3.26,0.07,-10.17
-2,-16,-9,-84,-275,3922,0.02,0.00,1.00,-0.84,-2.75,39.22,-4.89,-0.01,64.56,3.26,0.33,-10.13
2,-30,-24,10,-355,3931,0.03,-0.18,0.76,0.10,-3.55,39.31,-4.90,-0.02,64.55,3.19,0.67,-9.03
3,-29,-20,30,-373,3922,0.05,-0.34,0.56,0.30,-3.73,39.22,-4.92,-0.03,64.55,3.17,0.71,-9.52
4,-18,3,101,-422,3935,0.07,-0.42,0.52,1.01,-4.22,39.35,-4.93,-0.05,64.55,3.15,0.51,-11.49
3,-21,13,83,-393,3927,0.08,-0.50,0.55,0.83,-3.93,39.27,-4.94,-0.07,64.55,3.18,0.61,-12.32
3,-14,18,52,-351,3875,0.09,-0.54,0.60,0.52,-3.51,38.75,-4.95,-0.09,64.55,3.18,0.49,-12.70
1,-8,16,55,-335,3877,0.09,-0.53,0.64,0.55,-3.35,38.77,-4.94,-0.11,64.54,3.22,0.38,-12.51
-1,-1,9,26,-336,3917,0.07,-0.49,0.63,0.26,-3.36,39.17,-4.94,-0.13,64.54,3.26,0.24,-11.92
-2,-1,8,32,-340,3900,0.05,-0.44,0.62,0.32,-3.40,39.00,-4.94,-0.15,64.54,3.29,0.24,-11.84
-5,10,3,51,-337,3883,0.02,-0.34,0.57,0.51,-3.37,38.83,-4.94,-0.17,64.53,3.36,-0.00,-11.45
-4,17,3,29,-325,3877,-0.01,-0.20,0.53,0.29,-3.25,38.77,-4.94,-0.18,64.53,3.34,-0.17,-11.48
-5,22,7,-14,-327,3953,-0.04,-0.05,0.52,-0.14,-3.27,39.53,-4.93,-0.17,64.53,3.36,-0.32,-11.83
-3,14,9,-13,-338,3954,-0.05,0.04,0.53,-0.13,-3.38,39.54,-4.92,-0.15,64.53,3.33,-0.20,-11.99
1,-16,24,-9,-346,3956,-0.04,-0.06,0.62,-0.09,-3.46,39.56,-4.93,-0.13,64.53,3.24,0.43,-13.20
0,-24,23,-10,-316,3910,-0.04,-0.20,0.70,-0.10,-3.16,39.10,-4.92,-0.12,64.52,3.25,0.62,-13.05
-4,5,12,3,-356,3932,-0.06,-0.15,0.70,0.03,-3.56,39.32,-4.93,-0.11,64.52,3.35,0.01,-12.12
-4,3,12,-7,-335,3935,-0.08,-0.12,0.70,-0.07,-3.35,39.35,-4.93,-0.10,64.52,3.36,0.03,-12.12
-2,-2,7,4,-339,3893,-0.08,-0.12,0.68,0.04,-3.39,38.93,-4.94,-0.09,64.51,3.33,0.13,-11.71
-3,3,8,21,-331,3907,-0.09,-0.09,0.66,0.21,-3.31,39.07,-4.94,-0.10,64.51,3.34,0.03,-11.81
-11,28,11,73,-318,3990,-0.15,0.09,0.66,0.73,-3.18,39.90,-4.93,-0.12,64.51,3.52,-0.52,-12.06
-7,25,12,76,-287,3899,-0.18,0.24,0.67,0.76,-2.87,38.99,-4.92,-0.13,64.51,3.44,-0.49,-12.14
6,3,26,16,-377,3923,-0.12,0.23,0.76,0.16,-3.77,39.23,-4.94,-0.13,64.50,3.17,-0.04,-13.26
3,-12,38,40,-343,3953,-0.09,0.13,0.91,0.40,-3.43,39.53,-4.94,-0.15,64.50,3.22,0.31,-14.16
8,-36,38,-20,-325,3889,-0.03,-0.10,1.05,-0.20,-3.25,38.89,-4.93,-0.13,64.50,3.10,0.85,-14.06
3,-25,33,-34,-330,3866,-0.01,-0.24,1.15,-0.34,-3.30,38.66,-4.93,-0.12,64.49,3.20,0.65,-13.57
-1,2,16,-14,-356,3944,-0.02,-0.20,1.13,-0.14,-3.56,39.44,-4.94,-0.10,64.49,3.29,0.08,-12.14
0,-7,14,-12,-332,3920,-0.02,-0.23,1.11,-0.12,-3.32,39.20,-4.94,-0.09,64.48,3.26,0.26,-11.99
-1,4,12,3,-331,3904,-0.02,-0.18,1.07,0.03,-3.31,39.04,-4.92,-0.08,64.48,3.27,0.02,-11.84
-1,2,12,24,-318,3976,-0.02,-0.15,1.03,0.24,-3.18,39.76,-4.91,-0.09,64.47,3.26,0.06,-11.87
-2,1,15,13,-348,3891,-0.03,-0.13,1.02,0.13,-3.48,38.91,-4.92,-0.10,64.47,3.30,0.08,-12.13
-1,7,15,10,-339,3901,-0.04,-0.07,1.01,0.10,-3.39,39.01,-4.93,-0.11,64.47,3.29,-0.05,-12.14
-2,2,20,34,-278,3926,-0.05,-0.05,1.03,0.34,-2.78,39.26,-4.92,-0.12,64.46,3.30,0.05,-12.54
-1,-2,27,52,-266,3934,-0.05,-0.06,1.09,0.52,-2.66,39.34,-4.90,-0.13,64.46,3.27,0.14,-13.09
0,-9,44,30,-328,3883,-0.04,-0.11,1.25,0.30,-3.28,38.83,-4.90,-0.15,64.45,3.24,0.31,-14.42
2,-2,40,-8,-330,3870,-0.03,-0.11,1.37,-0.08,-3.30,38.70,-4.90,-0.13,64.45,3.20,0.15,-13.99
-3,12,40,-25,-350,3954,-0.04,-0.03,1.48,-0.25,-3.50,39.54,-4.90,-0.11,64.44,3.31,-0.16,-13.91
-2,9,38,-3,-349,3966,-0.05,0.03,1.56,-0.03,-3.49,39.66,-4.91,-0.09,64.43,3.30,-0.13,-13.68
2,-4,38,5,-337,3937,-0.03,0.00,1.64,0.05,-3.37,39.37,-4.90,-0.08,64.43,3.20,0.13,-13.62
5,-3,29,55,-307,3926,0.00,-0.01,1.65,0.55,-3.07,39.26,-4.89,-0.10,64.42,3.13,0.13,-12.85
0,-30,69,-40,-290,3838,0.00,-0.20,1.91,-0.40,-2.90,38.38,-4.88,-0.08,64.41,3.22,0.72,-16.05
1,-1,36,-37,-276,3779,0.01,-0.18,1.94,-0.37,-2.76,37.79,-4.87,-0.07,64.41,3.19,0.12,-13.23
-4,14,17,-40,-417,4027,-0.02,-0.08,1.85,-0.40,-4.17,40.27,-4.88,-0.06,64.40,3.31,-0.22,-11.69
0,-12,30,-35,-424,3991,-0.02,-0.14,1.84,-0.35,-4.24,39.91,-4.90,-0.05,64.39,3.24,0.32,-12.79
-2,-1,37,-21,-299,3821,-0.03,-0.14,1.89,-0.21,-2.99,38.21,-4.89,-0.04,64.38,3.27,0.08,-13.35
-5,21,25,-6,-320,3865,-0.05,0.01,1.85,-0.06,-3.20,38.65,-4.87,-0.03,64.38,3.33,-0.41,-12.36
0,5,15,-48,-359,3959,-0.05,0.04,1.76,-0.48,-3.59,39.59,-4.88,-0.01,64.37,3.23,-0.10,-11.58
1,-3,13,-37,-350,3941,-0.04,0.01,1.66,-0.37,-3.50,39.41,-4.89,0.01,64.36,3.21,0.05,-11.48
1,6,7,-14,-368,3897,-0.03,0.05,1.54,-0.14,-3.68,38.97,-4.90,0.01,64.36,3.22,-0.15,-11.06
-1,5,7,-11,-360,3915,-0.03,0.07,1.43,-0.11,-3.60,39.15,-4.92,0.02,64.35,3.28,-0.14,-11.14
1,-1,4,9,-340,3898,-0.02,0.06,1.31,0.09,-3.40,38.98,-4.93,0.01,64.35,3.24,-0.00,-10.97
1,1,3,3,-358,3918,-0.01,0.06,1.19,0.03,-3.58,39.18,-4.95,0.00,64.34,3.25,-0.04,-10.96
1,-7,0,0,-344,3923,-0.01,0.01,1.08,0.00,-3.44,39.23,-4.96,0.00,64.34,3.26,0.14,-10.80
1,-7,-1,2,-332,3911,0.00,-0.03,0.96,0.02,-3.32,39.11,-4.95,-0.00,64.33,3.24,0.15,-10.79
1,-14,5,-11,-324,3964,0.01,-0.11,0.90,-0.11,-3.24,39.64,-4.93,0.01,64.33,3.23,0.31,-11.35
3,-24,5,-5,-319,3956,0.02,-0.25,0.84,-0.05,-3.19,39.56,-4.91,0.01,64.33,3.17,0.55,-11.39
4,-24,1,25,-346,3908,0.05,-0.37,0.76,0.25,-3.46,39.08,-4.92,-0.01,64.32,3.15,0.59,-11.11
3,-18,3,32,-339,3904,0.06,-0.44,0.70,0.32,-3.39,39.04,-4.92,-0.03,64.32,3.17,0.51,-11.32
3,-7,7,31,-332,3907,0.07,-0.44,0.67,0.31,-3.32,39.07,-4.92,-0.05,64.32,3.16,0.29,-11.68
2,-6,8,33,-336,3902,0.08,-0.43,0.66,0.33,-3.36,39.02,-4.92,-0.07,64.31,3.18,0.28,-11.78
1,-3,8,18,-346,3909,0.08,-0.41,0.64,0.18,-3.46,39.09,-4.93,-0.08,64.31,3.21,0.23,-11.79
2,-4,8,21,-343,3905,0.08,-0.39,0.62,0.21,-3.43,39.05,-4.93,-0.10,64.31,3.19,0.26,-11.80
0,1,5,12,-329,3918,0.07,-0.35,0.59,0.12,-3.29,39.18,-4.92,-0.11,64.31,3.23,0.15,-11.57
0,0,5,10,-326,3926,0.06,-0.31,0.56,0.10,-3.26,39.26,-4.90,-0.12,64.30,3.22,0.16,-11.59
0,-2,5,18,-325,3904,0.06,-0.29,0.54,0.18,-3.25,39.04,-4.89,-0.13,64.30,3.21,0.21,-11.61
1,0,6,20,-331,3904,0.06,-0.26,0.52,0.20,-3.31,39.04,-4.88,-0.15,64.30,3.19,0.17,-11.70
0,-2,6,3,-335,3914,0.05,-0.25,0.50,0.03,-3.35,39.14,-4.88,-0.13,64.30,3.21,0.20,-11.71
0,-1,6,1,-327,3919,0.05,-0.23,0.49,0.01,-3.27,39.19,-4.87,-0.12,64.30,3.20,0.16,-11.72
1,4,6,3,-343,3924,0.05,-0.18,0.48,0.03,-3.43,39.24,-4.89,-0.11,64.29,3.19,0.04,-11.73
1,0,2,10,-346,3905,0.05,-0.17,0.44,0.10,-3.46,39.05,-4.90,-0.11,64.29,3.20,0.12,-11.42
-1,-2,-4,12,-341,3923,0.04,-0.16,0.37,0.12,-3.41,39.23,-4.92,-0.13,64.29,3.25,0.17,-10.96
-1,-3,-4,16,-335,3922,0.03,-0.16,0.31,0.16,-3.35,39.22,-4.91,-0.15,64.29,3.25,0.20,-11.01
-2,-3,-4,16,-339,3919,0.01,-0.17,0.26,0.16,-3.39,39.19,-4.92,-0.16,64.29,3.28,0.21,-11.05
-1,-2,-2,13,-339,3920,0.01,-0.16,0.22,0.13,-3.39,39.20,-4.93,-0.18,64.29,3.27,0.20,-11.24
-1,-4,-2,29,-343,3895,-0.00,-0.17,0.18,0.29,-3.43,38.95,-4.94,-0.19,64.29,3.28,0.26,-11.27
0,-3,-4,53,-326,3890,-0.00,-0.17,0.14,0.53,-3.26,38.90,-4.93,-0.21,64.29,3.26,0.25,-11.13
0,8,-2,4,-346,3924,-0.00,-0.10,0.12,0.04,-3.46,39.24,-4.94,-0.20,64.28,3.26,-0.00,-11.32
1,1,1,5,-342,3948,0.01,-0.09,0.11,0.05,-3.42,39.48,-4.94,-0.18,64.28,3.24,0.12,-11.58
1,-2,5,8,-347,3921,0.01,-0.09,0.13,0.08,-3.47,39.21,-4.96,-0.17,64.28,3.25,0.18,-11.90
1,5,4,-2,-346,3937,0.02,-0.05,0.14,-0.02,-3.46,39.37,-4.97,-0.15,64.28,3.25,0.01,-11.81
2,3,6,11,-343,3908,0.03,-0.03,0.16,0.11,-3.43,39.08,-4.98,-0.16,64.28,3.24,0.05,-11.96
0,4,6,10,-342,3915,0.02,-0.00,0.18,0.10,-3.42,39.15,-5.00,-0.14,64.28,3.29,0.01,-11.95
1,-5,6,10,-339,3914,0.03,-0.03,0.20,0.10,-3.39,39.14,-4.98,-0.14,64.28,3.26,0.21,-11.93
1,-5,5,10,-340,3914,0.03,-0.06,0.21,0.10,-3.40,39.14,-4.96,-0.15,64.28,3.24,0.21,-11.84
0,-4,2,13,-331,3927,0.03,-0.08,0.20,0.13,-3.31,39.27,-4.94,-0.15,64.28,3.25,0.20,-11.59
1,-5,3,6,-330,3917,0.03,-0.10,0.20,0.06,-3.30,39.17,-4.92,-0.14,64.28,3.22,0.22,-11.68
0,1,2,7,-335,3917,0.03,-0.08,0.19,0.07,-3.35,39.17,-4.91,-0.13,64.28,3.23,0.09,-11.60
0,0,3,18,-336,3914,0.03,-0.08,0.19,0.18,-3.36,39.14,-4.91,-0.15,64.28,3.23,0.12,-11.68
0,0,5,18,-342,3908,0.02,-0.07,0.20,0.18,-3.42,39.08,-4.92,-0.16,64.28,3.24,0.13,-11.84
0,-1,4,14,-339,3919,0.02,-0.07,0.21,0.14,-3.39,39.19,-4.93,-0.18,64.28,3.25,0.16,-11.76
-1,9,-3,11,-333,3872,0.01,-0.01,0.17,0.11,-3.33,38.72,-4.92,-0.17,64.27,3.26,-0.07,-11.19
-3,13,-4,9,-347,3888,-0.01,0.07,0.13,0.09,-3.47,38.88,-4.94,-0.16,64.27,3.32,-0.18,-11.14
-4,0,-1,-3,-330,3927,-0.03,0.07,0.11,-0.03,-3.30,39.27,-4.93,-0.15,64.27,3.34,0.08,-11.41
-3,0,-1,13,-322,3921,-0.05,0.06,0.09,0.13,-3.22,39.21,-4.91,-0.15,64.27,3.31,0.08,-11.42
2,14,5,27,-356,3923,-0.03,0.14,0.11,0.27,-3.56,39.23,-4.92,-0.16,64.27,3.22,-0.22,-11.91
2,12,11,5,-342,3941,-0.01,0.20,0.17,0.05,-3.42,39.41,-4.93,-0.14,64.27,3.22,-0.20,-12.38
9,-2,37,50,-311,3959,0.04,0.17,0.38,0.50,-3.11,39.59,-4.92,-0.16,64.27,3.05,0.10,-14.43
-8,-12,41,161,-274,4024,-0.01,0.08,0.59,1.61,-2.74,40.24,-4.91,-0.17,64.27,3.41,0.34,-14.61
5,35,-3,29,-281,3810,0.02,0.28,0.51,0.29,-2.81,38.10,-4.89,-0.18,64.27,3.12,-0.67,-10.94
-3,62,-11,-23,-326,3857,0.00,0.63,0.39,-0.23,-3.26,38.57,-4.89,-0.16,64.27,3.29,-1.33,-10.35
-5,23,24,43,-332,4006,-0.03,0.71,0.50,0.43,-3.32,40.06,-4.89,-0.17,64.26,3.33,-0.55,-13.24
-1,-4,36,20,-367,3999,-0.03,0.61,0.67,0.20,-3.67,39.99,-4.90,-0.18,64.26,3.27,0.03,-14.13
3,1,11,-26,-324,3860,-0.01,0.56,0.67,-0.26,-3.24,38.60,-4.90,-0.15,64.26,3.18,-0.07,-12.01
-1,18,2,-9,-327,3862,-0.02,0.61,0.62,-0.09,-3.27,38.62,-4.90,-0.13,64.26,3.26,-0.44,-11.29
-2,-5,7,40,-297,3950,-0.03,0.52,0.60,0.40,-2.97,39.50,-4.88,-0.14,64.25,3.27,0.05,-11.72
1,-21,23,50,-351,4011,-0.02,0.34,0.68,0.50,-3.51,40.11,-4.89,-0.16,64.25,3.21,0.44,-13.02
5,-14,-6,26,-316,3847,0.01,0.22,0.57,0.26,-3.16,38.47,-4.87,-0.17,64.25,3.11,0.34,-10.64
6,-4,-1,74,-323,3896,0.05,0.17,0.51,0.74,-3.23,38.96,-4.87,-0.19,64.25,3.08,0.16,-11.11
-1,-31,42,59,-277,3932,0.04,-0.03,0.72,0.59,-2.77,39.32,-4.86,-0.20,64.24,3.22,0.77,-14.60
-3,-24,39,-6,-322,3899,0.02,-0.17,0.88,-0.06,-3.22,38.99,-4.85,-0.18,64.24,3.26,0.66,-14.23
5,13,-13,38,-322,3939,0.04,-0.08,0.71,0.38,-3.22,39.39,-4.84,-0.20,64.24,3.08,-0.11,-9.94
10,2,-11,22,-403,4010,0.10,-0.06,0.58,0.22,-4.03,40.10,-4.86,-0.20,64.24,2.98,0.11,-10.21
3,-10,29,-88,-342,3816,0.11,-0.11,0.69,-0.88,-3.42,38.16,-4.86,-0.19,64.23,3.12,0.36,-13.51
1,19,11,-60,-357,3804,0.10,0.01,0.69,-0.60,-3.57,38.04,-4.87,-0.17,64.23,3.16,-0.28,-11.99
0,7,3,-76,-406,3985,0.09,0.06,0.64,-0.76,-4.06,39.85,-4.88,-0.15,64.23,3.19,-0.06,-11.35
2,-10,5,-48,-378,3936,0.10,-0.01,0.61,-0.48,-3.78,39.36,-4.89,-0.14,64.23,3.16,0.30,-11.54
-3,6,-1,-6,-367,3924,0.07,0.03,0.54,-0.06,-3.67,39.24,-4.91,-0.13,64.22,3.28,-0.04,-11.08
-3,-1,2,-4,-341,3944,0.04,0.02,0.50,-0.04,-3.41,39.44,-4.91,-0.11,64.22,3.29,0.09,-11.37
-2,-2,0,1,-347,3881,0.03,0.00,0.45,0.01,-3.47,38.81,-4.93,-0.10,64.22,3.28,0.11,-11.23
-3,1,-2,4,-345,3930,0.01,0.01,0.39,0.04,-3.45,39.30,-4.94,-0.10,64.22,3.32,0.04,-11.10
-1,-10,-4,5,-313,3889,-0.00,-0.05,0.33,0.05,-3.13,38.89,-4.92,-0.09,64.22,3.27,0.28,-10.98
1,-4,-5,6,-326,3909,0.01,-0.07,0.27,0.06,-3.26,39.09,-4.91,-0.09,64.22,3.22,0.16,-10.94
-2,-13,3,4,-329,3930,-0.01,-0.14,0.26,0.04,-3.29,39.30,-4.89,-0.09,64.21,3.27,0.36,-11.63
0,-13,3,15,-323,3912,-0.01,-0.21,0.25,0.15,-3.23,39.12,-4.87,-0.10,64.21,3.22,0.39,-11.63
0,-3,10,17,-325,3909,-0.01,-0.21,0.29,0.17,-3.25,39.09,-4.86,-0.12,64.21,3.21,0.19,-12.20
0,2,10,8,-331,3911,-0.01,-0.17,0.32,0.08,-3.31,39.11,-4.84,-0.12,64.21,3.20,0.08,-12.17
-1,6,15,4,-322,3912,-0.01,-0.12,0.38,0.04,-3.22,39.12,-4.83,-0.11,64.21,3.21,-0.02,-12.55
0,8,16,6,-326,3904,-0.01,-0.06,0.44,0.06,-3.26,39.04,-4.81,-0.10,64.21,3.18,-0.08,-12.59
-3,16,28,12,-335,3894,-0.03,0.04,0.56,0.12,-3.35,38.94,-4.83,-0.11,64.21,3.25,-0.26,-13.52
-6,19,33,15,-343,3907,-0.06,0.16,0.71,0.15,-3.43,39.07,-4.84,-0.12,64.20,3.33,-0.35,-13.84
-3,25,34,11,-327,3904,-0.07,0.29,0.85,0.11,-3.27,39.04,-4.83,-0.13,64.20,3.27,-0.50,-13.82
-2,28,33,34,-327,3884,-0.08,0.43,0.96,0.34,-3.27,38.84,-4.83,-0.15,64.20,3.25,-0.59,-13.65
2,37,55,132,-243,4010,-0.06,0.62,1.20,1.32,-2.43,40.10,-4.82,-0.16,64.19,3.15,-0.82,-15.34
0,22,64,88,-281,3943,-0.05,0.69,1.47,0.88,-2.81,39.43,-4.81,-0.17,64.19,3.19,-0.52,-15.90
8,19,97,54,-326,3876,0.00,0.74,1.92,0.54,-3.26,38.76,-4.81,-0.19,64.18,3.01,-0.46,-18.37
5,19,93,54,-330,3883,0.03,0.78,2.29,0.54,-3.30,38.83,-4.81,-0.20,64.17,3.06,-0.47,-17.76
-7,42,50,16,-306,3937,-0.01,0.96,2.37,0.16,-3.06,39.37,-4.79,-0.20,64.16,3.31,-0.99,-14.06
-3,40,31,64,-315,3977,-0.03,1.11,2.32,0.64,-3.15,39.77,-4.78,-0.21,64.15,3.23,-0.98,-12.48
-10,9,48,-9,-371,3880,-0.09,1.05,2.38,-0.09,-3.71,38.80,-4.80,-0.20,64.14,3.40,-0.34,-13.88
-2,28,30,25,-366,3948,-0.09,1.12,2.33,0.25,-3.66,39.48,-4.82,-0.20,64.13,3.25,-0.74,-12.39
2,-10,33,-99,-354,3899,-0.07,0.94,2.29,-0.99,-3.54,38.99,-4.82,-0.17,64.12,3.16,0.06,-12.67
1,-4,28,-92,-331,3840,-0.06,0.82,2.24,-0.92,-3.31,38.40,-4.82,-0.15,64.12,3.18,-0.04,-12.28
-4,18,7,-2,-339,3983,-0.08,0.85,2.06,-0.02,-3.39,39.83,-4.83,-0.13,64.11,3.29,-0.51,-10.63
-1,0,10,-10,-370,4006,-0.07,0.77,1.91,-0.10,-3.70,40.06,-4.84,-0.12,64.10,3.24,-0.13,-10.99
6,-37,-11,-89,-354,3888,-0.03,0.46,1.65,-0.89,-3.54,38.88,-4.85,-0.10,64.09,3.09,0.69,-9.40
4,-20,-16,-90,-374,3822,-0.00,0.30,1.39,-0.90,-3.74,38.22,-4.86,-0.08,64.09,3.12,0.38,-9.17
-1,2,-9,-73,-443,3966,-0.01,0.28,1.20,-0.73,-4.43,39.66,-4.87,-0.07,64.08,3.24,-0.07,-9.90
-2,-15,-5,-49,-403,3960,-0.02,0.16,1.05,-0.49,-4.03,39.60,-4.89,-0.05,64.08,3.27,0.30,-10.35
3,-6,-15,-15,-343,3915,0.00,0.11,0.85,-0.15,-3.43,39.15,-4.89,-0.04,64.08,3.17,0.12,-9.64
-1,-11,-10,-14,-358,3951,-0.01,0.03,0.70,-0.14,-3.58,39.51,-4.91,-0.02,64.07,3.26,0.23,-10.17
4,-13,-17,-8,-307,3903,0.02,-0.05,0.53,-0.08,-3.07,39.03,-4.89,-0.02,64.07,3.14,0.29,-9.71
4,-8,-17,-5,-329,3930,0.04,-0.10,0.37,-0.05,-3.29,39.30,-4.88,-0.01,64.07,3.13,0.19,-9.82
3,-22,-20,-19,-370,3928,0.06,-0.22,0.21,-0.19,-3.70,39.28,-4.89,0.00,64.07,3.15,0.51,-9.68
7,-28,-19,0,-382,3957,0.09,-0.37,0.08,0.00,-3.82,39.57,-4.91,0.00,64.07,3.07,0.67,-9.87
6,-29,-16,12,-309,3881,0.12,-0.51,-0.03,0.12,-3.09,38.81,-4.89,-0.01,64.07,3.07,0.73,-10.20
5,-25,-15,2,-320,3900,0.14,-0.61,-0.12,0.02,-3.20,39.00,-4.87,-0.01,64.07,3.08,0.68,-10.35
5,-25,-12,6,-326,3919,0.16,-0.70,-0.18,0.06,-3.26,39.19,-4.86,-0.03,64.07,3.06,0.72,-10.65
5,-26,-13,20,-352,3925,0.17,-0.79,-0.24,0.20,-3.52,39.25,-4.87,-0.04,64.07,3.07,0.77,-10.61
5,-8,-12,33,-387,3892,0.18,-0.76,-0.29,0.33,-3.87,38.92,-4.89,-0.05,64.07,3.07,0.41,-10.73
3,0,-8,18,-423,3879,0.18,-0.68,-0.31,0.18,-4.23,38.79,-4.90,-0.06,64.07,3.12,0.23,-11.08
-4,17,6,17,-441,3962,0.14,-0.51,-0.24,0.17,-4.41,39.62,-4.92,-0.06,64.07,3.29,-0.16,-12.22
-5,13,9,17,-398,3976,0.10,-0.38,-0.16,0.17,-3.98,39.76,-4.94,-0.07,64.07,3.33,-0.11,-12.41
5,1,10,55,-354,3898,0.12,-0.34,-0.09,0.55,-3.54,38.98,-4.94,-0.09,64.07,3.13,0.13,-12.44
4,3,13,69,-366,3875,0.13,-0.29,0.00,0.69,-3.66,38.75,-4.95,-0.11,64.07,3.15,0.09,-12.63
-3,16,48,30,-482,3895,0.10,-0.16,0.29,0.30,-4.82,38.95,-4.97,-0.11,64.07,3.31,-0.21,-15.38
-5,19,69,57,-478,3946,0.06,-0.03,0.69,0.57,-4.78,39.46,-4.99,-0.12,64.07,3.38,-0.30,-16.88
-13,11,137,-102,-331,3867,-0.03,0.04,1.45,-1.02,-3.31,38.67,-4.98,-0.10,64.06,3.56,-0.17,-20.00
-8,23,149,-72,-300,3848,-0.07,0.18,2.22,-0.72,-3.00,38.48,-4.98,-0.08,64.05,3.47,-0.46,-20.00
-1,-8,132,66,-280,4029,-0.07,0.11,2.80,0.66,-2.80,40.29,-4.96,-0.09,64.04,3.32,0.19,-20.00
9,-48,142,30,-328,3996,-0.01,-0.19,3.39,0.30,-3.28,39.96,-4.95,-0.10,64.03,3.09,1.10,-20.00
-8,8,166,-19,-328,3715,-0.06,-0.12,4.06,-0.19,-3.28,37.15,-4.96,-0.08,64.01,3.45,-0.07,-20.00
-12,39,160,2,-304,3816,-0.13,0.13,4.63,0.02,-3.04,38.16,-4.94,-0.08,64.00,3.54,-0.77,-20.00
-4,2,198,17,-358,4027,-0.14,0.13,5.38,0.17,-3.58,40.27,-4.95,-0.09,63.97,3.39,-0.01,-20.00
4,-18,208,14,-391,3991,-0.10,0.00,6.11,0.14,-3.91,39.91,-4.97,-0.09,63.95,3.23,0.43,-20.00
-4,21,256,52,-352,3833,-0.11,0.13,7.06,0.52,-3.52,38.33,-4.98,-0.11,63.92,3.40,-0.39,-20.00
-8,39,263,18,-386,3876,-0.15,0.36,7.96,0.18,-3.86,38.76,-5.00,-0.11,63.89,3.50,-0.82,-20.00
-6,22,288,-76,-501,3989,-0.17,0.45,8.92,-0.76,-5.01,39.89,-5.01,-0.09,63.85,3.48,-0.51,-20.00
1,5,278,-92,-460,3948,-0.15,0.44,9.72,-0.92,-4.60,39.48,-5.03,-0.08,63.82,3.34,-0.17,-20.00
-5,13,339,-184,-453,3786,-0.16,0.47,10.82,-1.84,-4.53,37.86,-5.04,-0.05,63.77,3.47,-0.36,-20.00
-14,65,349,-64,-371,3865,-0.23,0.82,11.86,-0.64,-3.71,38.65,-5.05,-0.03,63.73,3.68,-1.53,-20.00
-12,5,369,55,-255,4093,-0.28,0.77,12.93,0.55,-2.55,40.93,-5.03,-0.03,63.67,3.64,-0.29,-20.00
7,-27,392,105,-321,4012,-0.21,0.53,14.03,1.05,-3.21,40.12,-5.03,-0.04,63.62,3.23,0.43,-20.00
-20,-7,403,74,-126,3678,-0.31,0.43,15.08,0.74,-1.26,36.78,-5.01,-0.04,63.56,3.80,0.05,-20.00
-17,34,400,116,-148,3903,-0.39,0.60,16.01,1.16,-1.48,39.03,-5.00,-0.04,63.50,3.75,-0.83,-20.00
-7,14,324,69,-237,4038,-0.39,0.62,16.39,0.69,-2.37,40.38,-4.98,-0.04,63.43,3.54,-0.43,-20.00
7,-23,313,44,-242,4066,-0.31,0.42,16.66,0.44,-2.42,40.66,-4.97,-0.04,63.36,3.22,0.38,-20.00
0,-14,264,7,-247,3747,-0.28,0.29,16.60,0.07,-2.47,37.47,-4.95,-0.03,63.30,3.34,0.23,-20.00
-7,20,254,-7,-229,3770,-0.29,0.39,16.49,-0.07,-2.29,37.70,-4.93,-0.03,63.23,3.48,-0.49,-20.00
-5,35,217,-35,-252,4089,-0.29,0.56,16.17,-0.35,-2.52,40.89,-4.92,-0.01,63.17,3.43,-0.86,-17.97
3,-36,206,-27,-317,4031,-0.25,0.29,15.81,-0.27,-3.17,40.31,-4.90,0.01,63.11,3.24,0.65,-17.29
-5,-6,199,6,-287,3770,-0.25,0.22,15.44,0.06,-2.87,37.70,-4.89,0.01,63.04,3.40,0.06,-16.95
-11,14,197,31,-225,3827,-0.29,0.28,15.10,0.31,-2.25,38.27,-4.87,0.01,62.98,3.52,-0.37,-17.02
3,12,137,-122,-237,4084,-0.25,0.33,14.42,-1.22,-2.37,40.84,-4.86,0.03,62.93,3.21,-0.35,-12.42
9,-20,116,-178,-277,3986,-0.17,0.17,13.69,-1.78,-2.77,39.86,-4.85,0.05,62.87,3.07,0.32,-11.17
2,-17,60,-29,-302,3901,-0.14,0.05,12.69,-0.29,-3.02,39.01,-4.84,0.07,62.82,3.19,0.29,-7.14
-2,-5,55,-1,-309,3833,-0.14,0.02,11.75,-0.01,-3.09,38.33,-4.82,0.07,62.77,3.26,0.05,-7.39
-6,24,46,15,-360,3957,-0.16,0.16,10.86,0.15,-3.60,39.57,-4.84,0.06,62.73,3.36,-0.57,-7.27
-2,25,45,14,-360,3925,-0.16,0.30,10.05,0.14,-3.60,39.25,-4.85,0.06,62.69,3.29,-0.63,-7.77
1,30,55,42,-396,3912,-0.13,0.45,9.38,0.42,-3.96,39.12,-4.87,0.05,62.65,3.23,-0.77,-9.10
1,39,68,53,-378,3927,-0.11,0.64,8.85,0.53,-3.78,39.27,-4.88,0.04,62.62,3.23,-1.00,-10.58
4,16,153,117,-463,3941,-0.08,0.68,8.90,1.17,-4.63,39.41,-4.89,0.04,62.58,3.17,-0.53,-17.74
1,11,195,158,-501,3919,-0.06,0.68,9.20,1.58,-5.01,39.19,-4.91,0.03,62.55,3.24,-0.43,-20.00
-6,14,342,145,-489,3919,-0.09,0.69,10.37,1.45,-4.89,39.19,-4.92,0.02,62.51,3.40,-0.49,-20.00
-15,30,386,34,-515,3823,-0.18,0.81,11.69,0.34,-5.15,38.23,-4.94,0.03,62.46,3.61,-0.85,-20.00
-8,44,460,-2,-392,3999,-0.21,1.00,13.32,-0.02,-3.92,39.99,-4.96,0.03,62.41,3.49,-1.19,-20.00
-1,35,469,47,-380,4035,-0.19,1.11,14.85,0.47,-3.80,40.35,-4.97,0.03,62.35,3.35,-1.03,-20.00
3,-24,529,-70,-404,3776,-0.16,0.85,16.59,-0.70,-4.04,37.76,-4.98,0.05,62.28,3.27,0.22,-20.00
-13,-39,548,9,-219,3824,-0.22,0.53,18.28,0.09,-2.19,38.24,-4.97,0.06,62.21,3.60,0.61,-20.00
-17,40,589,7,-366,3941,-0.30,0.72,20.04,0.07,-3.66,39.41,-4.98,0.06,62.13,3.72,-1.05,-20.00
-17,-2,593,-72,-312,4026,-0.37,0.64,21.66,-0.72,-3.12,40.26,-4.98,0.08,62.04,3.73,-0.19,-20.00
-1,-53,589,-17,-271,3853,-0.34,0.25,23.08,-0.17,-2.71,38.53,-4.96,0.10,61.95,3.39,0.95,-20.00
-13,-43,578,-84,-330,3811,-0.39,-0.04,24.30,-0.84,-3.30,38.11,-4.96,0.12,61.86,3.64,0.80,-20.00
-15,-13,501,-102,-206,3980,-0.44,-0.11,24.93,-1.02,-2.06,39.80,-4.95,0.14,61.76,3.69,0.20,-20.00
-6,-19,469,-76,-197,4022,-0.43,-0.22,25.29,-0.76,-1.97,40.22,-4.93,0.16,61.66,3.50,0.34,-20.00
8,-36,365,25,-283,3880,-0.34,-0.42,24.99,0.25,-2.83,38.80,-4.92,0.15,61.56,3.18,0.74,-20.00
-1,-15,351,-44,-305,3847,-0.31,-0.47,24.63,-0.44,-3.05,38.47,-4.91,0.17,61.46,3.34,0.32,-20.00
-9,22,316,-57,-281,3932,-0.34,-0.29,24.10,-0.57,-2.81,39.32,-4.89,0.19,61.36,3.50,-0.50,-20.00
-7,14,302,-6,-261,3994,-0.35,-0.17,23.53,-0.06,-2.61,39.94,-4.88,0.20,61.27,3.46,-0.37,-19.46
7,-6,285,-68,-309,3871,-0.27,-0.19,22.92,-0.68,-3.09,38.71,-4.87,0.22,61.18,3.15,0.03,-18.45
-2,8,293,-69,-268,3888,-0.25,-0.12,22.41,-0.69,-2.68,38.88,-4.86,0.24,61.09,3.32,-0.29,-19.48
-14,-1,292,-54,-330,3956,-0.31,-0.12,21.95,-0.54,-3.30,39.56,-4.86,0.27,61.00,3.58,-0.12,-19.72
-2,0,289,-34,-287,3950,-0.29,-0.10,21.52,-0.34,-2.87,39.50,-4.84,0.28,60.91,3.31,-0.16,-19.76
-6,17,274,-45,-394,3877,-0.30,0.01,21.04,-0.45,-3.94,38.77,-4.86,0.29,60.83,3.41,-0.54,-18.83
-9,36,268,-55,-353,3870,-0.33,0.23,20.57,-0.55,-3.53,38.70,-4.87,0.32,60.75,3.48,-1.00,-18.65
-2,13,275,30,-321,3977,-0.31,0.28,20.19,0.30,-3.21,39.77,-4.86,0.31,60.67,3.33,-0.54,-19.50
9,8,285,46,-350,3966,-0.22,0.30,19.91,0.46,-3.50,39.66,-4.87,0.30,60.59,3.09,-0.44,-20.00
-6,22,341,55,-346,3789,-0.24,0.41,20.00,0.55,-3.46,37.89,-4.87,0.29,60.51,3.40,-0.75,-20.00
-13,19,361,69,-328,3883,-0.29,0.48,20.20,0.69,-3.28,38.83,-4.87,0.28,60.43,3.56,-0.70,-20.00
-13,-12,393,1,-280,3952,-0.34,0.36,20.58,0.01,-2.80,39.52,-4.86,0.28,60.35,3.56,-0.04,-20.00
-6,-23,365,-9,-282,3962,-0.34,0.19,20.75,-0.09,-2.82,39.62,-4.84,0.28,60.26,3.41,0.23,-20.00
-7,-20,307,-107,-369,3897,-0.35,0.04,20.54,-1.07,-3.69,38.97,-4.85,0.31,60.18,3.44,0.19,-20.00
-10,-16,288,-151,-312,3917,-0.38,-0.06,20.25,-1.51,-3.12,39.17,-4.85,0.33,60.10,3.50,0.12,-20.00
-6,-17,250,-116,-373,3926,-0.38,-0.16,19.75,-1.16,-3.73,39.26,-4.85,0.36,60.02,3.43,0.15,-17.59
-2,-21,246,-123,-375,3924,-0.35,-0.27,19.27,-1.23,-3.75,39.24,-4.86,0.38,59.94,3.35,0.25,-17.58
-11,21,213,-170,-285,3805,-0.38,-0.11,18.65,-1.70,-2.85,38.05,-4.86,0.40,59.87,3.54,-0.66,-15.23
-6,42,179,-94,-248,3916,-0.38,0.15,17.87,-0.94,-2.48,39.16,-4.85,0.42,59.80,3.42,-1.17,-12.90
5,-9,116,-74,-328,3947,-0.31,0.08,16.79,-0.74,-3.28,39.47,-4.84,0.44,59.73,3.18,-0.13,-8.34
10,-16,114,-41,-354,3909,-0.22,-0.02,15.81,-0.41,-3.54,39.09,-4.86,0.46,59.67,3.06,0.03,-8.88
-9,-6,137,48,-361,3857,-0.25,-0.06,15.06,0.48,-3.61,38.57,-4.87,0.45,59.61,3.47,-0.16,-11.36
-14,13,119,8,-303,3916,-0.31,0.03,14.28,0.08,-3.03,39.16,-4.86,0.44,59.55,3.58,-0.56,-10.39
0,-28,63,30,-260,3974,-0.28,-0.14,13.24,0.30,-2.60,39.74,-4.84,0.43,59.50,3.27,0.33,-6.40
1,-34,46,21,-290,3926,-0.25,-0.34,12.20,0.21,-2.90,39.26,-4.83,0.42,59.45,3.24,0.51,-5.71
2,-18,26,5,-340,3902,-0.21,-0.41,11.14,0.05,-3.40,39.02,-4.84,0.40,59.41,3.21,0.21,-4.78
0,-13,24,-12,-354,3922,-0.19,-0.45,10.17,-0.12,-3.54,39.22,-4.85,0.39,59.37,3.26,0.13,-5.31
7,9,40,21,-491,3902,-0.13,-0.35,9.40,0.21,-4.91,39.02,-4.87,0.39,59.33,3.11,-0.34,-7.22
7,12,73,24,-528,3930,-0.07,-0.24,8.90,0.24,-5.28,39.30,-4.89,0.39,59.29,3.10,-0.43,-10.37
-9,68,215,84,-483,3864,-0.12,0.20,9.32,0.84,-4.83,38.64,-4.90,0.38,59.26,3.45,-1.69,-20.00
-8,84,261,140,-410,3879,-0.16,0.69,9.98,1.40,-4.10,38.79,-4.91,0.37,59.22,3.45,-2.14,-20.00
-12,92,396,187,-256,3873,-0.21,1.18,11.40,1.87,-2.56,38.73,-4.91,0.36,59.17,3.54,-2.43,-20.00
-14,63,486,134,-245,3931,-0.28,1.45,13.22,1.34,-2.45,39.31,-4.90,0.36,59.12,3.59,-1.91,-20.00
-2,35,592,112,-200,3896,-0.26,1.52,15.51,1.12,-2.00,38.96,-4.89,0.35,59.06,3.34,-1.36,-20.00
-13,31,585,44,-271,3897,-0.32,1.55,17.53,0.44,-2.71,38.97,-4.87,0.35,58.99,3.57,-1.29,-20.00
-2,4,510,-88,-284,3931,-0.30,1.42,18.89,-0.88,-2.84,39.31,-4.86,0.38,58.91,3.33,-0.72,-20.00
-13,-10,472,-122,-390,3971,-0.35,1.22,19.88,-1.22,-3.90,39.71,-4.87,0.41,58.83,3.58,-0.40,-20.00
-9,-49,312,-157,-361,3937,-0.37,0.80,19.79,-1.57,-3.61,39.37,-4.88,0.43,58.76,3.50,0.49,-20.00
-7,-43,283,-188,-466,3942,-0.37,0.46,19.54,-1.88,-4.66,39.42,-4.89,0.46,58.68,3.47,0.45,-20.00
-3,-63,134,-150,-262,3990,-0.35,0.03,18.40,-1.50,-2.62,39.90,-4.88,0.48,58.60,3.38,0.96,-8.49
2,-68,97,-126,-275,3916,-0.31,-0.39,17.16,-1.26,-2.75,39.16,-4.87,0.50,58.54,3.26,1.16,-6.25
5,-53,29,-12,-307,3852,-0.24,-0.68,15.62,-0.12,-3.07,38.52,-4.86,0.49,58.47,3.17,0.94,-1.60
1,-35,35,0,-327,3905,-0.21,-0.82,14.27,0.00,-3.27,39.05,-4.86,0.47,58.42,3.24,0.62,-3.08
0,-24,63,-31,-343,3946,-0.19,-0.89,13.23,-0.31,-3.43,39.46,-4.88,0.47,58.36,3.27,0.42,-6.20
2,-27,74,-61,-350,3925,-0.16,-0.96,12.35,-0.61,-3.50,39.25,-4.88,0.48,58.31,3.23,0.49,-7.76
1,-7,146,-47,-492,3849,-0.14,-0.91,12.01,-0.47,-4.92,38.49,-4.90,0.49,58.27,3.25,0.07,-14.10
-2,15,179,-4,-517,3873,-0.14,-0.73,11.90,-0.04,-5.17,38.73,-4.92,0.49,58.22,3.33,-0.43,-16.97
-5,49,333,47,-559,3931,-0.15,-0.35,12.74,0.47,-5.59,39.31,-4.94,0.48,58.17,3.40,-1.22,-20.00
-5,48,377,20,-523,3854,-0.17,-0.03,13.77,0.20,-5.23,38.54,-4.96,0.48,58.11,3.42,-1.29,-20.00
-45,66,570,71,-431,3823,-0.43,0.38,15.87,0.71,-4.31,38.23,-4.97,0.48,58.05,4.31,-1.76,-20.00
-17,71,621,85,-286,3999,-0.49,0.77,18.07,0.85,-2.86,39.99,-4.96,0.47,57.98,3.75,-1.96,-20.00
-19,36,727,118,-325,3936,-0.55,0.92,20.70,1.18,-3.25,39.36,-4.96,0.46,57.90,3.81,-1.29,-20.00
7,36,752,111,-237,3962,-0.46,1.04,23.21,1.11,-2.37,39.62,-4.95,0.46,57.80,3.25,-1.32,-20.00
-18,48,707,-15,-46,3919,-0.52,1.23,25.21,-0.15,-0.46,39.19,-4.94,0.47,57.70,3.77,-1.62,-20.00
-2,50,622,-193,176,4000,-0.48,1.41,26.48,-1.93,1.76,40.00,-4.92,0.49,57.60,3.42,-1.73,-20.00
10,-21,181,-51,173,3809,-0.37,1.14,24.94,-0.51,1.73,38.09,-4.90,0.51,57.50,3.13,-0.22,-7.51
-1,1,132,26,-35,3769,-0.34,1.04,23.25,0.26,-0.35,37.69,-4.88,0.51,57.41,3.34,-0.64,-4.57
-24,53,102,15,-274,3986,-0.45,1.26,21.54,0.15,-2.74,39.86,-4.87,0.51,57.32,3.83,-1.76,-3.26
-15,36,116,47,-253,4009,-0.50,1.35,20.10,0.47,-2.53,40.09,-4.86,0.51,57.24,3.65,-1.44,-5.48
12,-75,137,5,-275,3976,-0.38,0.76,18.92,0.05,-2.75,39.76,-4.84,0.51,57.17,3.06,0.98,-8.10
7,-71,139,-39,-346,3893,-0.30,0.25,17.88,-0.39,-3.46,38.93,-4.86,0.53,57.10,3.15,1.03,-9.02
-11,55,129,-91,-427,3766,-0.33,0.56,16.88,-0.91,-4.27,37.66,-4.88,0.54,57.03,3.53,-1.63,-8.89
-18,60,130,-132,-421,4008,-0.41,0.87,15.98,-1.32,-4.21,40.08,-4.89,0.56,56.96,3.71,-1.83,-9.62
-1,-15,73,-96,-572,3911,-0.37,0.69,14.83,-0.96,-5.72,39.11,-4.91,0.58,56.91,3.36,-0.26,-5.62
6,-17,69,-79,-625,3962,-0.30,0.52,13.77,-0.79,-6.25,39.62,-4.93,0.59,56.85,3.21,-0.18,-6.04
-3,-14,42,-53,-519,3897,-0.29,0.38,12.65,-0.53,-5.19,38.97,-4.95,0.59,56.80,3.41,-0.21,-4.56
-3,-22,30,-44,-520,3960,-0.28,0.21,11.57,-0.44,-5.20,39.60,-4.97,0.60,56.76,3.42,-0.00,-4.33
3,-54,-15,-14,-407,3872,-0.23,-0.14,10.32,-0.14,-4.07,38.72,-4.98,0.60,56.71,3.29,0.74,-1.42
2,-56,-19,4,-420,3918,-0.20,-0.47,9.17,0.04,-4.20,39.18,-5.00,0.59,56.68,3.31,0.88,-1.91
7,-73,-13,-29,-432,3920,-0.13,-0.87,8.17,-0.29,-4.32,39.20,-5.02,0.58,56.65,3.21,1.34,-3.14
8,-81,-16,-21,-449,3918,-0.07,-1.27,7.26,-0.21,-4.49,39.18,-5.04,0.58,56.62,3.18,1.61,-3.54
10,-75,-31,42,-413,3985,-0.00,-1.60,6.34,0.42,-4.13,39.85,-5.05,0.56,56.59,3.13,1.59,-2.94
12,-56,-38,38,-377,3876,0.07,-1.79,5.48,0.38,-3.77,38.76,-5.06,0.54,56.57,3.07,1.27,-2.97
-2,-5,-53,54,-210,3886,0.05,-1.64,4.61,0.54,-2.10,38.86,-5.04,0.52,56.55,3.35,0.20,-2.33
-3,1,-49,57,-210,3885,0.03,-1.47,3.85,0.57,-2.10,38.85,-5.02,0.51,56.53,3.37,0.04,-3.22
-1,-11,-45,33,-246,3931,0.02,-1.39,3.19,0.33,-2.46,39.31,-5.01,0.49,56.52,3.32,0.28,-4.04
-1,-13,-45,15,-279,3923,0.01,-1.33,2.59,0.15,-2.79,39.23,-4.99,0.48,56.51,3.31,0.31,-4.47
3,-11,-43,-2,-363,3943,0.03,-1.26,2.07,-0.02,-3.63,39.43,-5.00,0.46,56.50,3.23,0.27,-5.02
7,-8,-39,-6,-348,3952,0.07,-1.19,1.63,-0.06,-3.48,39.52,-5.00,0.43,56.49,3.14,0.20,-5.68
2,10,-11,-23,-324,3905,0.07,-1.01,1.40,-0.23,-3.24,39.05,-4.99,0.42,56.49,3.23,-0.21,-8.22
3,20,-12,-38,-316,3890,0.08,-0.78,1.18,-0.38,-3.16,38.90,-4.97,0.43,56.48,3.20,-0.48,-8.29
-1,45,-24,-58,-357,3949,0.07,-0.43,0.92,-0.58,-3.57,39.49,-4.98,0.44,56.48,3.29,-1.09,-7.46
1,46,-22,-58,-331,3932,0.07,-0.11,0.69,-0.58,-3.31,39.32,-4.97,0.46,56.48,3.24,-1.21,-7.80
0,36,-5,-78,-317,3910,0.06,0.12,0.59,-0.78,-3.17,39.10,-4.96,0.48,56.47,3.26,-1.08,-9.31
0,32,-2,-80,-324,3899,0.06,0.31,0.52,-0.80,-3.24,38.99,-4.96,0.50,56.47,3.26,-1.06,-9.61
2,11,13,-53,-349,3943,0.06,0.34,0.55,-0.53,-3.49,39.43,-4.96,0.52,56.47,3.22,-0.66,-10.87
1,12,14,-65,-345,3936,0.06,0.38,0.58,-0.65,-3.45,39.36,-4.96,0.54,56.47,3.24,-0.70,-10.93
-3,21,25,-42,-346,3952,0.04,0.47,0.67,-0.42,-3.46,39.52,-4.97,0.55,56.46,3.33,-0.92,-11.79
-1,24,29,-43,-340,3953,0.03,0.57,0.78,-0.43,-3.40,39.53,-4.96,0.57,56.46,3.29,-1.02,-12.05
2,56,82,-142,-563,3877,0.04,0.86,1.21,-1.42,-5.63,38.77,-4.98,0.58,56.46,3.23,-1.76,-16.23
4,77,105,-24,-354,3873,0.06,1.24,1.73,-0.24,-3.54,38.73,-4.99,0.57,56.45,3.20,-2.28,-17.80
-10,79,81,-171,-390,3884,-0.01,1.60,2.05,-1.71,-3.90,38.84,-5.00,0.60,56.44,3.50,-2.44,-15.53
-12,40,139,-117,-434,3975,-0.08,1.68,2.69,-1.17,-4.34,39.75,-5.01,0.62,56.43,3.57,-1.68,-19.97
9,-32,163,-70,-392,3918,-0.02,1.32,3.42,-0.70,-3.92,39.18,-5.03,0.63,56.42,3.14,-0.13,-20.00
10,-35,161,7,-399,3956,0.04,0.97,4.06,0.07,-3.99,39.56,-5.04,0.63,56.40,3.11,0.03,-20.00
-5,-10,156,-150,-430,3813,0.01,0.81,4.60,-1.50,-4.30,38.13,-5.05,0.64,56.39,3.43,-0.44,-20.00
-2,2,143,-81,-378,3867,-0.00,0.75,5.01,-0.81,-3.78,38.67,-5.06,0.66,56.37,3.38,-0.68,-18.61
-2,9,177,-51,-257,3960,-0.02,0.73,5.59,-0.51,-2.57,39.60,-5.05,0.67,56.34,3.37,-0.82,-20.00
-8,-15,183,-98,-312,4062,-0.06,0.56,6.15,-0.98,-3.12,40.62,-5.03,0.69,56.32,3.50,-0.30,-20.00
-7,-36,288,-35,-377,3896,-0.10,0.29,7.29,-0.35,-3.77,38.96,-5.05,0.68,56.29,3.50,0.20,-20.00
-4,-14,304,-47,-327,3822,-0.11,0.17,8.42,-0.47,-3.27,38.22,-5.03,0.69,56.26,3.43,-0.22,-20.00
3,-51,304,-10,-127,4016,-0.08,-0.16,9.43,-0.10,-1.27,40.16,-5.01,0.69,56.22,3.27,0.62,-20.00
-5,-63,267,31,-220,3799,-0.11,-0.53,10.12,0.31,-2.20,37.99,-5.00,0.68,56.18,3.43,0.97,-20.00
-28,98,404,95,-618,3861,-0.27,0.13,11.57,0.95,-6.18,38.61,-5.02,0.68,56.13,3.95,-2.47,-20.00
-42,113,450,49,-624,3926,-0.50,0.80,13.16,0.49,-6.24,39.26,-5.03,0.68,56.08,4.31,-2.96,-20.00
-13,18,530,139,-354,4134,-0.53,0.83,15.07,1.39,-3.54,41.34,-5.03,0.67,56.02,3.73,-1.03,-20.00
11,-4,553,43,-408,4001,-0.41,0.72,16.94,0.43,-4.08,40.01,-5.04,0.66,55.95,3.22,-0.55,-20.00
-13,33,564,-50,-192,3762,-0.44,0.85,18.69,-0.50,-1.92,37.62,-5.03,0.67,55.88,3.70,-1.35,-20.00
-12,44,496,-124,-4,3945,-0.47,1.04,19.84,-1.24,-0.04,39.45,-5.01,0.69,55.80,3.68,-1.63,-20.00
15,-50,122,28,-142,3962,-0.33,0.63,18.60,0.28,-1.42,39.62,-4.99,0.69,55.73,3.08,0.39,-6.81
13,-56,93,44,-296,3841,-0.22,0.22,17.31,0.44,-2.96,38.41,-4.99,0.68,55.66,3.09,0.63,-5.28
-6,3,94,74,-370,3912,-0.24,0.22,16.15,0.74,-3.70,39.12,-4.99,0.67,55.59,3.48,-0.56,-6.20
-6,-18,67,81,-295,4045,-0.25,0.09,14.95,0.81,-2.95,40.45,-4.98,0.66,55.53,3.48,-0.09,-4.78
7,-42,43,50,-379,3835,-0.18,-0.18,13.71,0.50,-3.79,38.35,-4.99,0.65,55.48,3.20,0.48,-3.63
4,-20,41,81,-336,3839,-0.14,-0.28,12.59,0.81,-3.36,38.39,-4.99,0.63,55.43,3.25,0.07,-4.27
4,18,11,10,-371,3918,-0.10,-0.14,11.40,0.10,-3.71,39.18,-5.00,0.62,55.38,3.25,-0.73,-2.59
-2,23,7,-12,-378,3901,-0.10,0.01,10.30,-0.12,-3.78,39.01,-5.01,0.61,55.34,3.38,-0.87,-3.05
-1,53,-19,13,-448,3925,-0.10,0.33,9.16,0.13,-4.48,39.25,-5.03,0.61,55.31,3.37,-1.57,-1.67
-2,57,-17,-3,-417,3969,-0.10,0.65,8.14,-0.03,-4.17,39.69,-5.05,0.60,55.28,3.40,-1.73,-2.58
2,33,-23,-4,-350,3924,-0.08,0.78,7.18,-0.04,-3.50,39.24,-5.05,0.59,55.25,3.31,-1.27,-2.76
5,18,-25,2,-420,3849,-0.04,0.82,6.31,0.02,-4.20,38.49,-5.06,0.59,55.22,3.25,-0.98,-3.22
1,15,-36,-36,-378,3931,-0.03,0.83,5.46,-0.36,-3.78,39.31,-5.08,0.59,55.20,3.34,-0.92,-2.91
0,6,-42,-60,-387,3920,-0.03,0.78,4.66,-0.60,-3.87,39.20,-5.10,0.60,55.18,3.37,-0.73,-2.98
2,-41,-46,-80,-338,3939,-0.01,0.45,3.91,-0.80,-3.38,39.39,-5.09,0.62,55.17,3.32,0.30,-3.18
6,-55,-39,-59,-389,3919,0.03,0.07,3.28,-0.59,-3.89,39.19,-5.11,0.63,55.15,3.24,0.68,-4.23
4,-59,-42,-10,-381,3881,0.05,-0.30,2.70,-0.10,-3.81,38.81,-5.12,0.62,55.14,3.29,0.87,-4.40
4,-48,-43,-1,-352,3888,0.07,-0.56,2.17,-0.01,-3.52,38.88,-5.12,0.60,55.13,3.28,0.73,-4.70
1,-43,-24,18,-194,3941,0.07,-0.77,1.80,0.18,-1.94,39.41,-5.11,0.59,55.13,3.33,0.69,-6.57
2,-49,-25,31,-248,3930,0.07,-0.99,1.47,0.31,-2.48,39.30,-5.09,0.58,55.12,3.30,0.89,-6.73
1,-26,-30,48,-329,3911,0.07,-1.05,1.14,0.48,-3.29,39.11,-5.09,0.55,55.12,3.32,0.45,-6.55
-2,-10,-37,73,-343,3915,0.05,-1.00,0.80,0.73,-3.43,39.15,-5.08,0.53,55.11,3.38,0.13,-6.20
3,16,-66,0,-320,3923,0.06,-0.81,0.32,0.00,-3.20,39.23,-5.07,0.51,55.11,3.27,-0.45,-4.10
3,9,-67,17,-329,3918,0.08,-0.67,-0.12,0.17,-3.29,39.18,-5.07,0.49,55.11,3.26,-0.33,-4.33
6,2,-80,-23,-342,3915,0.11,-0.59,-0.60,-0.23,-3.42,39.15,-5.06,0.48,55.11,3.19,-0.19,-3.58
-2,0,-82,20,-377,3923,0.08,-0.53,-1.04,0.20,-3.77,39.23,-5.07,0.46,55.12,3.36,-0.16,-3.73
3,-8,-87,34,-406,3938,0.09,-0.53,-1.47,0.34,-4.06,39.38,-5.08,0.44,55.12,3.27,0.02,-3.62
8,-10,-84,30,-405,3936,0.13,-0.54,-1.83,0.30,-4.05,39.36,-5.09,0.42,55.13,3.16,0.07,-4.14
11,-42,-16,40,-348,3883,0.19,-0.74,-1.75,0.40,-3.48,38.83,-5.09,0.40,55.14,3.09,0.79,-9.84
12,-44,-3,-23,-351,3911,0.24,-0.93,-1.59,-0.23,-3.51,39.11,-5.10,0.38,55.14,3.06,0.90,-10.83
1,-10,21,77,-438,3978,0.22,-0.90,-1.30,0.77,-4.38,39.78,-5.11,0.36,55.15,3.29,0.21,-12.65
3,-16,41,98,-493,4042,0.22,-0.91,-0.92,0.98,-4.93,40.42,-5.12,0.35,55.15,3.26,0.34,-14.07
10,-35,70,-27,-246,3792,0.26,-1.03,-0.40,-0.27,-2.46,37.92,-5.10,0.34,55.15,3.09,0.77,-16.15
4,2,20,-27,-179,3801,0.26,-0.92,-0.24,-0.27,-1.79,38.01,-5.08,0.34,55.15,3.20,-0.02,-11.80
-3,16,-42,-104,-247,3978,0.21,-0.73,-0.47,-1.04,-2.47,39.78,-5.07,0.35,55.15,3.35,-0.36,-6.71
5,-5,-50,-87,-265,4093,0.22,-0.68,-0.73,-0.87,-2.65,40.93,-5.05,0.36,55.16,3.17,0.05,-6.22
4,-14,-44,-199,-354,3741,0.22,-0.70,-0.93,-1.99,-3.54,37.41,-5.05,0.37,55.16,3.19,0.23,-6.88
2,14,-40,-202,-343,3853,0.21,-0.55,-1.08,-2.02,-3.43,38.53,-5.05,0.39,55.16,3.24,-0.39,-7.33
-4,15,-22,-123,-373,4003,0.17,-0.40,-1.10,-1.23,-3.73,40.03,-5.06,0.40,55.17,3.37,-0.46,-8.87
1,-8,-11,-86,-379,4017,0.16,-0.41,-1.06,-0.86,-3.79,40.17,-5.06,0.42,55.17,3.28,-0.00,-9.77
5,-16,4,-39,-299,3866,0.17,-0.47,-0.93,-0.39,-2.99,38.66,-5.04,0.42,55.18,3.18,0.18,-10.95
2,3,-1,-10,-318,3868,0.17,-0.40,-0.84,-0.10,-3.18,38.68,-5.03,0.41,55.18,3.23,-0.22,-10.46
0,-8,2,-32,-337,3949,0.15,-0.41,-0.75,-0.32,-3.37,39.49,-5.01,0.41,55.18,3.27,0.00,-10.65
2,-22,4,-10,-338,3927,0.15,-0.50,-0.65,-0.10,-3.38,39.27,-5.00,0.39,55.18,3.22,0.33,-10.74
3,-32,11,-42,-352,3923,0.15,-0.65,-0.52,-0.42,-3.52,39.23,-5.01,0.40,55.19,3.21,0.56,-11.24
1,-30,7,-20,-311,3965,0.14,-0.77,-0.42,-0.20,-3.11,39.65,-4.99,0.40,55.19,3.24,0.56,-10.83
-27,52,-31,-24,-348,3792,-0.04,-0.37,-0.57,-0.24,-3.48,37.92,-5.01,0.39,55.19,3.87,-1.22,-7.72
-16,52,-23,0,-427,4019,-0.13,-0.02,-0.65,0.00,-4.27,40.19,-5.03,0.39,55.19,3.68,-1.31,-8.46
16,-75,31,-111,-428,3959,-0.02,-0.47,-0.40,-1.11,-4.28,39.59,-5.04,0.40,55.19,3.01,1.39,-12.85
17,-73,39,-55,-393,3895,0.09,-0.87,-0.12,-0.55,-3.93,38.95,-5.06,0.40,55.19,2.97,1.46,-13.33
-13,19,-6,5,-327,3820,-0.00,-0.67,-0.14,0.05,-3.27,38.20,-5.05,0.38,55.19,3.60,-0.46,-9.53
-15,29,-11,10,-340,3923,-0.09,-0.42,-0.20,0.10,-3.40,39.23,-5.05,0.36,55.20,3.66,-0.71,-9.15
-3,-4,0,40,-390,3984,-0.10,-0.41,-0.18,0.40,-3.90,39.84,-5.06,0.35,55.20,3.43,-0.04,-10.06
3,-9,13,17,-366,3912,-0.07,-0.42,-0.08,0.17,-3.66,39.12,-5.07,0.33,55.20,3.30,0.08,-11.10
1,-2,71,-85,-562,3881,-0.06,-0.39,0.36,-0.85,-5.62,38.81,-5.08,0.33,55.19,3.35,-0.07,-15.69
-2,-4,83,-65,-545,3936,-0.07,-0.38,0.83,-0.65,-5.45,39.36,-5.10,0.33,55.19,3.43,-0.04,-16.36
13,-27,152,-102,-619,3936,0.02,-0.50,1.68,-1.02,-6.19,39.36,-5.12,0.34,55.18,3.11,0.46,-20.00
10,-38,169,-47,-461,4052,0.08,-0.68,2.54,-0.47,-4.61,40.52,-5.14,0.34,55.17,3.17,0.74,-20.00
5,-42,213,-25,-375,3860,0.10,-0.87,3.58,-0.25,-3.75,38.60,-5.16,0.34,55.16,3.27,0.87,-20.00
12,-31,227,-73,-334,3908,0.16,-0.97,4.61,-0.73,-3.34,39.08,-5.15,0.35,55.14,3.11,0.66,-20.00
1,-25,235,-68,-184,3939,0.15,-1.03,5.58,-0.68,-1.84,39.39,-5.13,0.36,55.12,3.32,0.55,-20.00
1,-36,225,-61,-159,3921,0.14,-1.15,6.40,-0.61,-1.59,39.21,-5.11,0.36,55.09,3.31,0.81,-20.00
10,-45,188,-15,-258,3921,0.19,-1.31,6.90,-0.15,-2.58,39.21,-5.09,0.35,55.06,3.11,1.04,-20.00
11,-46,166,34,-257,3904,0.24,-1.46,7.23,0.34,-2.57,39.04,-5.08,0.34,55.03,3.06,1.11,-18.70
-6,-15,135,76,-341,3908,0.18,-1.40,7.33,0.76,-3.41,39.08,-5.07,0.32,55.01,3.42,0.48,-16.00
-9,-12,132,111,-355,3881,0.11,-1.33,7.40,1.11,-3.55,38.81,-5.07,0.30,54.98,3.50,0.41,-15.69
4,-52,134,14,-465,3907,0.12,-1.52,7.48,0.14,-4.65,39.07,-5.09,0.29,54.94,3.25,1.28,-15.79
2,-55,147,18,-469,3879,0.12,-1.70,7.63,0.18,-4.69,38.79,-5.11,0.28,54.91,3.30,1.40,-16.78
-69,128,516,207,-1146,3822,-0.31,-0.75,10.01,2.07,-11.46,38.22,-5.13,0.28,54.87,4.87,-2.58,-20.00
-80,190,594,81,-612,3809,-0.77,0.48,12.63,0.81,-6.12,38.09,-5.15,0.28,54.82,5.23,-4.18,-20.00
25,-101,376,-51,133,4309,-0.54,-0.18,13.66,-0.51,1.33,43.09,-5.13,0.28,54.77,3.02,1.92,-20.00
34,-169,349,120,-213,4021,-0.28,-1.19,14.43,1.20,-2.13,40.21,-5.12,0.27,54.71,2.76,3.58,-20.00
-55,125,543,225,-516,3464,-0.59,-0.31,16.30,2.25,-5.16,34.64,-5.13,0.26,54.65,4.67,-2.63,-20.00
-94,270,626,102,-373,3768,-1.10,1.37,18.48,1.02,-3.73,37.68,-5.14,0.25,54.57,5.60,-6.03,-20.00
-13,88,552,-130,-225,4353,-1.07,1.77,20.00,-1.30,-2.25,43.53,-5.13,0.28,54.49,3.94,-2.45,-20.00
-1,-40,487,-115,13,4354,-0.97,1.35,20.97,-1.15,0.13,43.54,-5.12,0.29,54.41,3.66,0.25,-20.00
22,-66,271,-137,-262,3662,-0.74,0.81,20.53,-1.37,-2.62,36.62,-5.11,0.32,54.33,3.13,0.91,-17.78
-1,-21,238,-85,-380,3691,-0.67,0.60,19.93,-0.85,-3.80,36.91,-5.12,0.35,54.25,3.58,0.04,-15.40
-34,74,280,-57,-431,3898,-0.81,0.99,19.64,-0.57,-4.31,38.98,-5.14,0.36,54.17,4.31,-2.01,-19.16
-21,61,273,-71,-378,4088,-0.86,1.26,19.34,-0.71,-3.78,40.88,-5.15,0.39,54.10,4.06,-1.84,-18.77
6,-21,247,-128,-263,3885,-0.74,1.01,18.92,-1.28,-2.63,38.85,-5.14,0.42,54.02,3.47,-0.12,-16.86
-7,-15,224,-46,-125,3805,-0.70,0.82,18.39,-0.46,-1.25,38.05,-5.12,0.43,53.95,3.72,-0.20,-15.28
-9,27,159,14,-152,4000,-0.69,0.90,17.52,0.14,-1.52,40.00,-5.11,0.44,53.88,3.74,-1.08,-10.40
5,-4,143,-42,-342,3988,-0.59,0.79,16.64,-0.42,-3.42,39.88,-5.10,0.46,53.81,3.42,-0.43,-9.67
-1,3,193,34,-311,3866,-0.54,0.73,16.16,0.34,-3.11,38.66,-5.09,0.45,53.75,3.53,-0.55,-14.25
-2,13,200,23,-335,3906,-0.50,0.73,15.76,0.23,-3.35,39.06,-5.09,0.44,53.69,3.53,-0.75,-15.12
-4,22,212,-63,-258,3839,-0.47,0.79,15.48,-0.63,-2.58,38.39,-5.07,0.45,53.62,3.56,-0.96,-16.33
-3,29,205,-51,-306,3902,-0.44,0.89,15.18,-0.51,-3.06,39.02,-5.06,0.47,53.56,3.52,-1.14,-15.95
1,25,195,-102,-469,3927,-0.39,0.95,14.85,-1.02,-4.69,39.27,-5.07,0.49,53.50,3.43,-1.09,-15.33
2,27,204,-78,-518,3865,-0.34,1.02,14.61,-0.78,-5.18,38.65,-5.09,0.50,53.45,3.41,-1.16,-16.25
-12,47,276,38,-429,3863,-0.38,1.21,14.83,0.38,-4.29,38.63,-5.11,0.50,53.39,3.72,-1.62,-20.00
-13,45,283,-83,-363,3990,-0.42,1.36,15.08,-0.83,-3.63,39.90,-5.11,0.53,53.33,3.75,-1.64,-20.00
-10,5,281,-9,-319,3907,-0.44,1.26,15.28,-0.09,-3.19,39.07,-5.10,0.53,53.27,3.69,-0.79,-20.00
-7,14,266,-73,-392,3891,-0.44,1.22,15.38,-0.73,-3.92,38.91,-5.11,0.55,53.21,3.64,-0.98,-20.00
-1,10,213,-112,-313,3940,-0.40,1.16,15.14,-1.12,-3.13,39.40,-5.10,0.58,53.15,3.50,-0.90,-16.58
-5,-11,190,-66,-223,4028,-0.39,0.97,14.78,-0.66,-2.23,40.28,-5.09,0.59,53.09,3.57,-0.43,-14.88
8,-29,175,-54,-447,3819,-0.30,0.70,14.37,-0.54,-4.47,38.19,-5.11,0.60,53.03,3.29,0.00,-13.90
5,-8,215,-21,-537,3811,-0.24,0.58,14.25,-0.21,-5.37,38.11,-5.12,0.61,52.98,3.35,-0.39,-17.37
-14,50,310,-30,-369,3956,-0.30,0.83,14.71,-0.30,-3.69,39.56,-5.14,0.60,52.92,3.76,-1.64,-20.00
-13,28,312,17,-261,4008,-0.35,0.91,15.15,0.17,-2.61,40.08,-5.12,0.60,52.86,3.74,-1.22,-20.00
0,-17,253,-66,-344,3872,-0.32,0.72,15.17,-0.66,-3.44,38.72,-5.12,0.63,52.80,3.47,-0.27,-19.88
-5,-21,252,-98,-337,3948,-0.32,0.52,15.19,-0.98,-3.37,39.48,-5.12,0.65,52.74,3.57,-0.15,-19.77
-12,-15,267,-41,-407,4000,-0.36,0.38,15.30,-0.41,-4.07,40.00,-5.14,0.66,52.68,3.73,-0.23,-20.00
1,-14,270,-81,-355,3986,-0.32,0.25,15.42,-0.81,-3.55,39.86,-5.14,0.68,52.61,3.46,-0.24,-20.00
-10,17,303,23,-360,3873,-0.35,0.33,15.73,0.23,-3.60,38.73,-5.14,0.67,52.55,3.69,-0.88,-20.00
-10,29,314,-36,-349,3893,-0.37,0.48,16.07,-0.36,-3.49,38.93,-5.14,0.66,52.49,3.70,-1.16,-20.00
-9,-24,336,73,-279,3934,-0.39,0.28,16.51,0.73,-2.79,39.34,-5.13,0.65,52.42,3.67,-0.02,-20.00
1,-37,350,45,-342,3848,-0.34,0.03,17.00,0.45,-3.42,38.48,-5.13,0.64,52.35,3.46,0.32,-20.00
-26,65,385,-12,-336,3912,-0.47,0.42,17.64,-0.12,-3.36,39.12,-5.12,0.63,52.28,4.04,-1.85,-20.00
-22,67,391,-35,-324,3959,-0.56,0.79,18.27,-0.35,-3.24,39.59,-5.11,0.64,52.21,3.97,-2.00,-20.00
12,-36,365,-73,-350,4009,-0.43,0.49,18.67,-0.73,-3.50,40.09,-5.10,0.66,52.14,3.24,0.16,-20.00
16,-55,363,58,-292,3973,-0.29,0.10,19.01,0.58,-2.92,39.73,-5.09,0.65,52.06,3.11,0.66,-20.00
-10,-7,441,60,-386,3701,-0.32,0.05,19.80,0.60,-3.86,37.01,-5.10,0.65,51.98,3.66,-0.30,-20.00
-25,63,453,30,-226,3921,-0.44,0.43,20.58,0.30,-2.26,39.21,-5.09,0.65,51.90,3.99,-1.82,-20.00
2,-5,426,-54,-342,4037,-0.38,0.36,21.12,-0.54,-3.42,40.37,-5.07,0.66,51.82,3.41,-0.43,-20.00
8,-38,448,-30,-450,3999,-0.30,0.09,21.75,-0.30,-4.50,39.99,-5.09,0.67,51.73,3.28,0.31,-20.00
-3,6,509,-9,-491,3682,-0.29,0.12,22.68,-0.09,-4.91,36.82,-5.11,0.67,51.64,3.51,-0.60,-20.00
-25,48,527,-23,-491,3704,-0.41,0.40,23.62,-0.23,-4.91,37.04,-5.13,0.68,51.55,4.00,-1.53,-20.00
-17,16,566,-6,-334,4082,-0.47,0.46,24.71,-0.06,-3.34,40.82,-5.12,0.68,51.45,3.85,-0.90,-20.00
-13,-18,593,49,-326,4015,-0.50,0.30,25.86,0.49,-3.26,40.15,-5.11,0.67,51.34,3.77,-0.16,-20.00
-6,-4,638,45,-203,3920,-0.49,0.25,27.16,0.45,-2.03,39.20,-5.10,0.67,51.24,3.62,-0.43,-20.00
-23,16,637,88,-300,3735,-0.58,0.32,28.33,0.88,-3.00,37.35,-5.09,0.66,51.12,3.99,-0.85,-20.00
-12,8,661,31,-500,4057,-0.60,0.34,29.53,0.31,-5.00,40.57,-5.11,0.67,51.01,3.78,-0.69,-20.00
-11,-16,691,103,-381,3909,-0.60,0.20,30.79,1.03,-3.81,39.09,-5.11,0.66,50.88,3.76,-0.17,-20.00
-14,-6,674,-72,-226,3909,-0.63,0.15,31.83,-0.72,-2.26,39.09,-5.10,0.68,50.76,3.82,-0.36,-20.00
-18,-10,677,-38,-135,3955,-0.68,0.07,32.77,-0.38,-1.35,39.55,-5.08,0.69,50.63,3.90,-0.27,-20.00
11,-68,760,-4,-411,3993,-0.54,-0.35,34.13,-0.04,-4.11,39.93,-5.10,0.69,50.49,3.29,1.03,-20.00
-10,-87,752,11,-399,3832,-0.55,-0.85,35.31,0.11,-3.99,38.32,-5.11,0.68,50.35,3.72,1.55,-20.00
-25,16,692,-82,-365,3955,-0.65,-0.66,36.00,-0.82,-3.65,39.55,-5.12,0.71,50.21,4.06,-0.61,-20.00
-20,20,661,-44,-319,3950,-0.70,-0.48,36.43,-0.44,-3.19,39.50,-5.10,0.72,50.06,3.96,-0.75,-20.00
-11,8,621,-123,-418,3881,-0.70,-0.38,36.57,-1.23,-4.18,38.81,-5.11,0.74,49.91,3.79,-0.55,-20.00
-2,16,602,-145,-426,3878,-0.64,-0.24,36.59,-1.45,-4.26,38.78,-5.12,0.77,49.77,3.60,-0.77,-20.00
-24,50,611,-53,-366,3855,-0.72,0.09,36.66,-0.53,-3.66,38.55,-5.14,0.78,49.62,4.08,-1.56,-20.00
-26,51,569,-102,-310,3994,-0.81,0.39,36.46,-1.02,-3.10,39.94,-5.13,0.81,49.48,4.14,-1.68,-20.00
6,2,475,-93,-324,3969,-0.69,0.36,35.71,-0.93,-3.24,39.69,-5.12,0.84,49.34,3.45,-0.69,-20.00
-16,-14,454,-21,-374,3869,-0.72,0.24,34.91,-0.21,-3.74,38.69,-5.13,0.84,49.20,3.91,-0.33,-20.00
-7,-12,373,-12,-365,3946,-0.69,0.14,33.70,-0.12,-3.65,39.46,-5.14,0.83,49.06,3.72,-0.34,-15.87
1,-14,362,-104,-368,3896,-0.62,0.04,32.53,-1.04,-3.68,38.96,-5.14,0.86,48.93,3.54,-0.30,-15.76
-11,-6,370,-41,-366,3923,-0.62,0.00,31.54,-0.41,-3.66,39.23,-5.15,0.86,48.81,3.80,-0.44,-17.14
0,14,373,-86,-423,3923,-0.56,0.09,30.66,-0.86,-4.23,39.23,-5.17,0.88,48.69,3.57,-0.89,-18.02
-14,36,351,-96,-390,3873,-0.59,0.30,29.73,-0.96,-3.90,38.73,-5.19,0.90,48.57,3.87,-1.41,-16.81
-11,33,348,-59,-392,3962,-0.60,0.47,28.88,-0.59,-3.92,39.62,-5.20,0.91,48.45,3.82,-1.40,-17.15
10,-34,367,22,-290,3929,-0.48,0.22,28.23,0.22,-2.90,39.29,-5.19,0.91,48.34,3.35,0.03,-19.21
-5,-31,367,-104,-300,3981,-0.46,0.00,27.65,-1.04,-3.00,39.81,-5.18,0.93,48.23,3.64,0.02,-19.62
-17,48,511,37,-342,3727,-0.52,0.30,28.00,0.37,-3.42,37.27,-5.18,0.92,48.12,3.91,-1.66,-20.00
-26,76,538,26,-351,3926,-0.62,0.73,28.48,0.26,-3.51,39.26,-5.18,0.92,48.00,4.12,-2.35,-20.00
-8,39,504,-75,-258,4020,-0.61,0.90,28.71,-0.75,-2.58,40.20,-5.16,0.93,47.89,3.74,-1.65,-20.00
-1,8,484,-21,-226,3992,-0.56,0.86,28.79,-0.21,-2.26,39.92,-5.14,0.94,47.78,3.57,-1.02,-20.00
13,4,513,150,-324,3805,-0.42,0.79,29.04,1.50,-3.24,38.05,-5.14,0.93,47.66,3.24,-0.91,-20.00
-6,12,466,-85,-275,3986,-0.42,0.79,28.98,-0.85,-2.75,39.86,-5.12,0.95,47.54,3.62,-1.09,-20.00
-10,-4,505,92,-532,3951,-0.43,0.68,29.16,0.92,-5.32,39.51,-5.14,0.95,47.43,3.71,-0.73,-20.00
-6,0,526,50,-496,3875,-0.43,0.62,29.45,0.50,-4.96,38.75,-5.15,0.95,47.31,3.64,-0.80,-20.00
-20,43,457,-25,-381,3885,-0.51,0.82,29.30,-0.25,-3.81,38.85,-5.16,0.95,47.20,3.95,-1.73,-20.00
-18,59,464,-53,-442,4041,-0.57,1.10,29.20,-0.53,-4.42,40.41,-5.18,0.97,47.08,3.94,-2.14,-20.00
-7,-19,547,6,-445,3871,-0.55,0.87,29.61,0.06,-4.45,38.71,-5.20,0.97,46.96,3.72,-0.49,-20.00
-8,-13,564,56,-387,3856,-0.55,0.70,30.09,0.56,-3.87,38.56,-5.20,0.96,46.84,3.74,-0.56,-20.00
-20,27,617,-4,-362,3887,-0.61,0.80,30.85,-0.04,-3.62,38.87,-5.20,0.96,46.72,4.01,-1.40,-20.00
-3,51,622,82,-351,3870,-0.57,1.03,31.56,0.82,-3.51,38.70,-5.20,0.96,46.60,3.65,-1.95,-20.00
-6,-31,612,-54,-383,4086,-0.55,0.74,32.13,-0.54,-3.83,40.86,-5.22,0.96,46.47,3.71,-0.20,-20.00
7,-74,638,127,-386,3922,-0.45,0.21,32.81,1.27,-3.86,39.22,-5.22,0.95,46.34,3.42,0.82,-20.00
-8,-5,574,-167,-584,3805,-0.46,0.16,33.03,-1.67,-5.84,38.05,-5.23,0.97,46.21,3.74,-0.58,-20.00
-3,18,615,218,-644,3729,-0.43,0.25,33.48,2.18,-6.44,37.29,-5.25,0.97,46.07,3.64,-1.08,-20.00
-16,5,577,12,-140,4203,-0.48,0.26,33.65,0.12,-1.40,42.03,-5.23,0.98,45.94,3.91,-0.82,-20.00
-1,-94,481,68,-218,3966,-0.44,-0.34,33.22,0.68,-2.18,39.66,-5.22,0.98,45.81,3.58,1.36,-20.00
-13,-30,571,15,-674,3685,-0.48,-0.49,33.38,0.15,-6.74,36.85,-5.23,0.99,45.67,3.85,0.09,-20.00
-43,13,603,6,-625,3634,-0.69,-0.36,33.72,0.06,-6.25,36.34,-5.25,0.99,45.54,4.53,-0.82,-20.00
-21,53,589,-41,-287,4006,-0.75,-0.00,33.94,-0.41,-2.87,40.06,-5.23,1.00,45.40,4.09,-1.74,-20.00
-6,16,560,-21,-348,4099,-0.71,0.10,33.96,-0.21,-3.48,40.99,-5.23,0.99,45.27,3.77,-1.01,-20.00
-5,-53,606,-22,-530,3785,-0.67,-0.24,34.27,-0.22,-5.30,37.85,-5.24,1.00,45.13,3.75,0.48,-20.00
3,-12,603,15,-430,3679,-0.59,-0.29,34.52,0.15,-4.30,36.79,-5.26,1.00,44.99,3.57,-0.34,-20.00
-17,73,584,-102,-372,4049,-0.63,0.19,34.63,-1.02,-3.72,40.49,-5.26,1.03,44.86,3.99,-2.22,-20.00
-19,23,569,49,-383,4088,-0.68,0.31,34.64,0.49,-3.83,40.88,-5.26,1.03,44.72,4.04,-1.23,-20.00
-6,-7,579,9,-425,3720,-0.65,0.24,34.70,0.09,-4.25,37.20,-5.27,1.03,44.58,3.78,-0.60,-20.00
-22,44,566,86,-301,3900,-0.72,0.48,34.69,0.86,-3.01,39.00,-5.27,1.03,44.44,4.12,-1.70,-20.00
-6,-23,541,102,-366,4165,-0.69,0.29,34.52,1.02,-3.66,41.65,-5.27,1.02,44.31,3.78,-0.29,-20.00
5,-50,526,1,-439,3956,-0.59,-0.04,34.27,0.01,-4.39,39.56,-5.28,1.02,44.17,3.54,0.35,-20.00
-18,54,550,81,-347,3686,-0.64,0.29,34.20,0.81,-3.47,36.86,-5.28,1.02,44.03,4.02,-1.85,-20.00
-33,85,557,-25,-401,3860,-0.77,0.78,34.18,-0.25,-4.01,38.60,-5.29,1.02,43.90,4.38,-2.62,-20.00
-24,47,586,-101,-225,3980,-0.84,0.99,34.34,-1.01,-2.25,39.80,-5.28,1.04,43.76,4.20,-1.91,-20.00
-28,10,554,-138,-70,4103,-0.93,0.95,34.28,-1.38,-0.70,41.03,-5.26,1.06,43.62,4.29,-1.16,-20.00
1,-53,500,61,-407,3910,-0.83,0.53,33.90,0.61,-4.07,39.10,-5.27,1.06,43.49,3.68,0.23,-20.00
-14,-36,500,-65,-394,3855,-0.83,0.26,33.56,-0.65,-3.94,38.55,-5.28,1.07,43.36,4.00,-0.04,-20.00
-28,20,501,-57,-444,3901,-0.92,0.36,33.26,-0.57,-4.44,39.01,-5.30,1.08,43.22,4.32,-1.22,-20.00
-13,37,486,-121,-431,3970,-0.91,0.55,32.90,-1.21,-4.31,39.70,-5.32,1.10,43.09,4.02,-1.63,-20.00
9,-12,409,-100,-256,3958,-0.76,0.42,32.11,-1.00,-2.56,39.58,-5.30,1.12,42.97,3.52,-0.61,-18.98
-2,-25,396,-27,-362,3942,-0.70,0.22,31.31,-0.27,-3.62,39.42,-5.30,1.12,42.84,3.73,-0.29,-18.44
-6,85,323,-32,-354,3845,-0.67,0.72,30.15,-0.32,-3.54,38.45,-5.30,1.11,42.72,3.80,-2.66,-13.08
-21,95,328,-81,-368,3997,-0.73,1.23,29.14,-0.81,-3.68,39.97,-5.29,1.14,42.60,4.12,-3.02,-14.22
-12,39,409,-51,-456,3910,-0.73,1.34,28.72,-0.51,-4.56,39.10,-5.31,1.15,42.49,3.95,-1.92,-20.00
-16,24,413,-107,-315,3849,-0.75,1.35,28.36,-1.07,-3.15,38.49,-5.29,1.18,42.38,4.02,-1.63,-20.00
-13,-29,341,-40,-148,3937,-0.76,1.04,27.61,-0.40,-1.48,39.37,-5.28,1.19,42.27,3.95,-0.48,-16.37
-4,-34,325,-84,-329,3998,-0.70,0.73,26.83,-0.84,-3.29,39.98,-5.26,1.20,42.16,3.74,-0.30,-15.57
-6,-36,385,-23,-427,3848,-0.67,0.44,26.50,-0.23,-4.27,38.48,-5.27,1.20,42.06,3.79,-0.18,-20.00
1,11,445,-38,-460,3856,-0.60,0.46,26.56,-0.38,-4.60,38.56,-5.29,1.21,41.95,3.63,-1.15,-20.00
-13,50,355,63,-219,4091,-0.62,0.72,26.07,0.63,-2.19,40.91,-5.28,1.21,41.85,3.92,-2.01,-18.61
0,6,307,-99,-185,4247,-0.56,0.68,25.34,-0.99,-1.85,42.47,-5.26,1.22,41.75,3.62,-1.11,-15.06
0,-41,381,-22,-557,3646,-0.50,0.37,25.13,-0.22,-5.57,36.46,-5.28,1.23,41.65,3.62,-0.08,-20.00
-14,3,392,24,-491,3669,-0.54,0.35,25.00,0.24,-4.91,36.69,-5.29,1.23,41.55,3.92,-0.96,-20.00
-24,112,370,8,-321,4086,-0.63,1.00,24.76,0.08,-3.21,40.86,-5.28,1.22,41.45,4.15,-3.36,-20.00
-19,73,356,-28,-372,4158,-0.68,1.34,24.46,-0.28,-3.72,41.58,-5.28,1.22,41.35,4.06,-2.66,-19.78
0,-52,350,-14,-327,3817,-0.61,0.89,24.15,-0.14,-3.27,38.17,-5.27,1.21,41.26,3.65,0.01,-19.48
-5,-33,372,57,-408,3765,-0.58,0.60,24.00,0.57,-4.08,37.65,-5.28,1.21,41.16,3.75,-0.29,-20.00
-27,87,374,79,-298,3968,-0.69,1.07,23.88,0.79,-2.98,39.68,-5.27,1.21,41.07,4.22,-2.86,-20.00
-8,13,388,66,-423,4280,-0.67,1.04,23.86,0.66,-4.23,42.80,-5.28,1.20,40.97,3.83,-1.34,-20.00
9,-48,409,-57,-361,3683,-0.55,0.65,23.97,-0.57,-3.61,36.83,-5.29,1.20,40.88,3.46,0.01,-20.00
1,-1,406,-49,-334,3696,-0.49,0.58,24.05,-0.49,-3.34,36.96,-5.29,1.19,40.78,3.60,-0.92,-20.00
-9,41,401,-36,-295,4106,-0.49,0.77,24.09,-0.36,-2.95,41.06,-5.27,1.20,40.68,3.80,-1.83,-20.00
3,9,402,-32,-326,4034,-0.42,0.75,24.13,-0.32,-3.26,40.34,-5.26,1.19,40.59,3.53,-1.17,-20.00
-10,14,382,-46,-484,3727,-0.44,0.76,24.05,-0.46,-4.84,37.27,-5.28,1.20,40.49,3.81,-1.28,-20.00
-18,45,394,-23,-418,3847,-0.51,0.96,24.05,-0.23,-4.18,38.47,-5.29,1.20,40.40,4.00,-1.97,-20.00
-8,26,358,-77,-363,4065,-0.51,1.02,23.83,-0.77,-3.63,40.65,-5.27,1.20,40.30,3.78,-1.60,-20.00
1,-13,348,-10,-393,4047,-0.45,0.84,23.57,-0.10,-3.93,40.47,-5.28,1.20,40.21,3.59,-0.75,-19.54
-5,7,326,-45,-374,3741,-0.44,0.80,23.20,-0.45,-3.74,37.41,-5.29,1.20,40.12,3.71,-1.15,-17.93
-11,32,310,-25,-428,3994,-0.46,0.91,22.77,-0.25,-4.28,39.94,-5.30,1.20,40.03,3.85,-1.69,-16.87
-8,-4,374,-11,-228,3932,-0.46,0.80,22.77,-0.11,-2.28,39.32,-5.29,1.20,39.94,3.78,-0.93,-20.00
6,14,336,-95,-240,3844,-0.38,0.80,22.55,-0.95,-2.40,38.44,-5.27,1.21,39.85,3.46,-1.30,-19.20
-1,25,289,-31,-404,3983,-0.35,0.87,22.06,-0.31,-4.04,39.83,-5.28,1.21,39.76,3.60,-1.54,-15.57
-11,11,293,15,-491,3978,-0.38,0.85,21.64,0.15,-4.91,39.78,-5.29,1.21,39.67,3.82,-1.25,-16.19
11,-24,277,-98,-242,4005,-0.27,0.62,21.16,-0.98,-2.42,40.05,-5.27,1.22,39.59,3.33,-0.49,-15.17
-8,-22,276,-132,-261,3781,-0.30,0.43,20.73,-1.32,-2.61,37.81,-5.26,1.24,39.51,3.71,-0.49,-15.38
3,-13,227,1,-419,3944,-0.25,0.30,20.04,0.01,-4.19,39.44,-5.27,1.23,39.43,3.48,-0.63,-11.72
2,-18,233,70,-437,3928,-0.21,0.16,19.46,0.70,-4.37,39.28,-5.27,1.22,39.35,3.50,-0.49,-12.64
4,-12,224,-34,-499,3852,-0.17,0.07,18.88,-0.34,-4.99,38.52,-5.29,1.22,39.27,3.45,-0.58,-12.29
-27,28,296,61,-646,3722,-0.31,0.24,18.80,0.61,-6.46,37.22,-5.31,1.22,39.20,4.14,-1.44,-18.43
-14,92,352,-79,-27,3931,-0.37,0.78,19.06,-0.79,-0.27,39.31,-5.29,1.23,39.12,3.87,-2.90,-20.00
0,82,298,-196,-92,4003,-0.33,1.20,18.98,-1.96,-0.92,40.03,-5.27,1.25,39.05,3.57,-2.82,-18.44
9,-34,238,-42,-423,4020,-0.24,0.87,18.53,-0.42,-4.23,40.20,-5.28,1.25,38.98,3.37,-0.37,-13.67
9,-44,248,14,-490,3890,-0.16,0.52,18.19,0.14,-4.90,38.90,-5.30,1.25,38.90,3.36,-0.07,-14.76
-6,2,295,42,-419,3868,-0.18,0.48,18.17,0.42,-4.19,38.68,-5.30,1.24,38.83,3.67,-0.99,-18.74
-8,13,304,-1,-399,3922,-0.21,0.51,18.21,-0.01,-3.99,39.22,-5.31,1.23,38.76,3.73,-1.22,-19.46
10,5,266,-57,-332,3924,-0.13,0.49,18.01,-0.57,-3.32,39.24,-5.30,1.23,38.69,3.33,-1.05,-16.37
10,0,238,-87,-351,3903,-0.06,0.44,17.66,-0.87,-3.51,39.03,-5.28,1.24,38.62,3.29,-0.94,-14.24
-19,-41,325,-116,-659,3855,-0.17,0.14,17.88,-1.16,-6.59,38.55,-5.29,1.25,38.55,3.93,-0.03,-20.00
-23,-12,394,163,-459,3756,-0.29,0.06,18.49,1.63,-4.59,37.56,-5.30,1.24,38.47,4.05,-0.59,-20.00
-16,15,286,-193,-125,4040,-0.36,0.14,18.39,-1.93,-1.25,40.40,-5.28,1.26,38.40,3.91,-1.17,-17.74
0,11,210,-282,-147,3846,-0.32,0.20,17.83,-2.82,-1.47,38.46,-5.27,1.28,38.33,3.57,-1.12,-11.69
35,-73,184,63,-476,4179,-0.08,-0.27,17.17,0.63,-4.76,41.79,-5.28,1.27,38.26,2.79,0.72,-9.96
41,-112,197,82,-529,4044,0.18,-0.93,16.65,0.82,-5.29,40.44,-5.29,1.25,38.19,2.61,1.70,-11.43
-34,35,404,69,-569,3514,-0.05,-0.62,17.45,0.69,-5.69,35.14,-5.30,1.25,38.12,4.20,-1.37,-20.00
-41,111,424,-1,-374,3715,-0.29,0.12,18.29,-0.01,-3.74,37.15,-5.31,1.24,38.05,4.42,-3.11,-20.00
-33,126,380,-44,-222,4157,-0.46,0.88,18.78,-0.44,-2.22,41.57,-5.29,1.24,37.98,4.29,-3.62,-20.00
-13,54,335,26,-178,4195,-0.50,1.12,18.95,0.26,-1.78,41.95,-5.28,1.25,37.90,3.88,-2.23,-20.00
29,-84,235,-39,-412,3859,-0.27,0.49,18.49,-0.39,-4.12,38.59,-5.29,1.24,37.83,2.97,0.75,-13.24
5,-36,276,177,-573,3724,-0.21,0.22,18.32,1.77,-5.73,37.24,-5.30,1.24,37.76,3.45,-0.15,-16.82
-28,66,449,-20,-517,3770,-0.36,0.60,19.23,-0.20,-5.17,37.70,-5.32,1.24,37.68,4.18,-2.33,-20.00
-26,71,483,156,-301,3912,-0.48,0.98,20.25,1.56,-3.01,39.12,-5.31,1.24,37.60,4.17,-2.53,-20.00
15,-13,336,-119,-304,4051,-0.34,0.80,20.28,-1.19,-3.04,40.51,-5.30,1.25,37.52,3.28,-0.78,-20.00
17,-61,319,-75,-387,4103,-0.21,0.35,20.19,-0.75,-3.87,41.03,-5.30,1.25,37.44,3.21,0.32,-19.05
-23,3,460,31,-704,3623,-0.33,0.33,20.98,0.31,-7.04,36.23,-5.32,1.25,37.35,4.07,-0.98,-20.00
-27,64,500,9,-567,3640,-0.46,0.69,21.93,0.09,-5.67,36.40,-5.34,1.25,37.27,4.20,-2.32,-20.00
-25,99,435,-130,-244,4126,-0.56,1.22,22.39,-1.30,-2.44,41.26,-5.32,1.27,37.18,4.17,-3.19,-20.00
-6,51,385,-156,-255,4178,-0.54,1.41,22.50,-1.56,-2.55,41.78,-5.30,1.29,37.09,3.77,-2.28,-20.00
7,-33,371,-80,-392,3844,-0.45,1.07,22.52,-0.80,-3.92,38.44,-5.32,1.30,37.00,3.49,-0.48,-20.00
6,35,352,-138,-422,3752,-0.37,1.18,22.41,-1.38,-4.22,37.52,-5.33,1.33,36.91,3.50,-1.91,-20.00
-28,38,371,14,-465,3980,-0.50,1.29,22.43,0.14,-4.65,39.80,-5.35,1.33,36.82,4.23,-2.00,-20.00
-6,44,382,-23,-433,4016,-0.49,1.43,22.52,-0.23,-4.33,40.16,-5.36,1.33,36.73,3.79,-2.16,-20.00
0,4,293,-95,-288,3846,-0.44,1.31,22.06,-0.95,-2.88,38.46,-5.34,1.34,36.65,3.64,-1.32,-15.34
4,4,288,-59,-448,3926,-0.37,1.20,21.61,-0.59,-4.48,39.26,-5.36,1.35,36.56,3.55,-1.30,-15.23
-19,30,323,-25,-419,3966,-0.45,1.27,21.42,-0.25,-4.19,39.66,-5.37,1.34,36.48,4.05,-1.84,-18.32
-47,-7,332,21,-302,3897,-0.69,1.10,21.30,0.21,-3.02,38.97,-5.36,1.34,36.39,4.68,-1.04,-19.15
-4,-31,263,15,-481,3987,-0.65,0.80,20.77,0.15,-4.81,39.87,-5.37,1.34,36.31,3.80,-0.47,-13.68
9,-41,280,63,-519,4013,-0.53,0.47,20.40,0.63,-5.19,40.13,-5.38,1.33,36.23,3.51,-0.17,-15.37
-5,-14,311,-11,-411,3802,-0.50,0.34,20.26,-0.11,-4.11,38.02,-5.39,1.33,36.15,3.80,-0.68,-18.09
-18,11,308,-47,-335,3832,-0.56,0.37,20.11,-0.47,-3.35,38.32,-5.38,1.32,36.07,4.07,-1.20,-17.93
2,-6,309,-75,-339,3951,-0.50,0.30,19.99,-0.75,-3.39,39.51,-5.37,1.32,35.99,3.64,-0.83,-18.09
2,0,311,-150,-408,3961,-0.43,0.27,19.89,-1.50,-4.08,39.61,-5.38,1.35,35.91,3.63,-0.96,-18.32
-4,-15,300,-82,-407,3806,-0.41,0.15,19.73,-0.82,-4.07,38.06,-5.40,1.35,35.83,3.76,-0.63,-17.49
-3,-14,290,-23,-367,3934,-0.39,0.05,19.52,-0.23,-3.67,39.34,-5.39,1.34,35.75,3.73,-0.61,-16.77
-1,-12,264,-80,-463,3959,-0.36,-0.03,19.18,-0.80,-4.63,39.59,-5.41,1.34,35.68,3.69,-0.64,-14.81
-4,-6,258,-89,-486,3827,-0.35,-0.06,18.84,-0.89,-4.86,38.27,-5.43,1.35,35.60,3.76,-0.75,-14.54
-4,25,246,-99,-486,3973,-0.34,0.10,18.45,-0.99,-4.86,39.73,-5.45,1.36,35.53,3.77,-1.43,-13.79
-7,0,252,69,-462,3968,-0.35,0.09,18.15,0.69,-4.62,39.68,-5.46,1.35,35.46,3.84,-0.91,-14.51
-7,-10,235,-136,-353,3914,-0.35,0.02,17.76,-1.36,-3.53,39.14,-5.45,1.37,35.39,3.83,-0.71,-13.33
-1,-4,235,49,-473,3915,-0.32,-0.01,17.42,0.49,-4.73,39.15,-5.46,1.37,35.32,3.71,-0.82,-13.57
-10,6,289,28,-509,3829,-0.35,0.03,17.44,0.28,-5.09,38.29,-5.47,1.36,35.25,3.91,-1.03,-18.12
-11,18,291,-150,-506,3850,-0.38,0.13,17.47,-1.50,-5.06,38.50,-5.49,1.37,35.18,3.95,-1.31,-18.25
-11,22,264,-58,-383,4053,-0.41,0.26,17.34,-0.58,-3.83,40.53,-5.48,1.36,35.11,3.96,-1.42,-16.05
-4,2,267,-87,-343,4012,-0.40,0.24,17.23,-0.87,-3.43,40.12,-5.47,1.37,35.04,3.80,-1.01,-16.37
-13,-51,283,-113,-351,3846,-0.44,-0.09,17.23,-1.13,-3.51,38.46,-5.46,1.39,34.97,3.98,0.15,-17.71
1,-34,257,-128,-187,3870,-0.39,-0.29,17.08,-1.28,-1.87,38.70,-5.44,1.40,34.90,3.67,-0.15,-15.61
17,-64,206,-18,-434,4010,-0.24,-0.65,16.63,-0.18,-4.34,40.10,-5.45,1.39,34.84,3.32,0.56,-11.60
18,-83,226,39,-527,3981,-0.11,-1.09,16.34,0.39,-5.27,39.81,-5.46,1.37,34.77,3.27,1.08,-13.49
-13,10,328,-94,-484,3617,-0.18,-0.92,16.71,-0.94,-4.84,36.17,-5.48,1.38,34.71,3.93,-0.86,-20.00
-41,96,348,-25,-326,3791,-0.41,-0.25,17.16,-0.25,-3.26,37.91,-5.47,1.37,34.64,4.55,-2.79,-20.00
5,8,220,-138,-169,4132,-0.34,-0.17,16.79,-1.38,-1.69,41.32,-5.45,1.38,34.57,3.59,-1.02,-12.63
14,-34,183,-132,-290,4096,-0.22,-0.36,16.23,-1.32,-2.90,40.96,-5.43,1.39,34.51,3.36,-0.13,-9.89
-8,-1,278,73,-633,3716,-0.25,-0.33,16.30,0.73,-6.33,37.16,-5.45,1.38,34.44,3.82,-0.80,-17.87
-20,50,310,79,-552,3701,-0.34,0.01,16.56,0.79,-5.52,37.01,-5.46,1.38,34.37,4.10,-1.93,-20.00
3,73,218,88,-151,4147,-0.29,0.45,16.23,0.88,-1.51,41.47,-5.45,1.37,34.31,3.61,-2.51,-12.81
-4,12,206,124,-283,4090,-0.29,0.48,15.87,1.24,-2.83,40.90,-5.44,1.37,34.25,3.75,-1.28,-12.05
13,-10,274,289,-393,3811,-0.18,0.37,15.95,2.89,-3.93,38.11,-5.44,1.35,34.18,3.37,-0.79,-17.74
-2,18,311,382,-384,3649,-0.17,0.44,16.25,3.82,-3.84,36.49,-5.44,1.34,34.12,3.68,-1.37,-20.00
-33,78,422,-397,-390,4036,-0.36,0.87,17.20,-3.97,-3.90,40.36,-5.44,1.37,34.05,4.36,-2.73,-20.00
-15,23,401,-533,-187,4054,-0.41,0.93,17.93,-5.33,-1.87,40.54,-5.43,1.40,33.98,4.00,-1.64,-20.00
9,-69,218,-326,-297,3932,-0.32,0.41,17.47,-3.26,-2.97,39.32,-5.42,1.43,33.91,3.48,0.35,-11.84
9,-70,192,-213,-398,3884,-0.23,-0.05,16.89,-2.13,-3.98,38.84,-5.43,1.45,33.84,3.46,0.48,-10.05
8,-26,219,26,-432,3856,-0.16,-0.21,16.54,0.26,-4.32,38.56,-5.44,1.44,33.78,3.47,-0.36,-12.58
-1,-21,227,47,-419,3945,-0.15,-0.32,16.27,0.47,-4.19,39.45,-5.44,1.43,33.71,3.65,-0.43,-13.44
-17,6,298,-64,-470,3913,-0.24,-0.25,16.46,-0.64,-4.70,39.13,-5.46,1.43,33.65,4.01,-1.00,-19.31
-26,9,322,-40,-474,3853,-0.37,-0.17,16.78,-0.40,-4.74,38.53,-5.47,1.42,33.58,4.24,-1.08,-20.00
-15,46,338,-105,-362,4026,-0.43,0.13,17.16,-1.05,-3.62,40.26,-5.45,1.43,33.51,4.02,-1.92,-20.00
-15,41,345,-117,-366,3911,-0.48,0.37,17.55,-1.17,-3.66,39.11,-5.45,1.46,33.44,4.03,-1.90,-20.00
4,-9,316,93,-292,4012,-0.40,0.28,17.72,0.93,-2.92,40.12,-5.44,1.45,33.37,3.62,-0.85,-19.86
8,-24,316,156,-412,3961,-0.31,0.10,17.88,1.56,-4.12,39.61,-5.44,1.44,33.30,3.51,-0.49,-19.74
-11,8,398,27,-565,3765,-0.35,0.14,18.52,0.27,-5.65,37.65,-5.46,1.44,33.23,3.92,-1.15,-20.00
-21,30,442,-51,-616,3912,-0.44,0.31,19.36,-0.51,-6.16,39.12,-5.47,1.44,33.15,4.16,-1.65,-20.00
-8,49,424,-190,-288,3971,-0.45,0.58,20.01,-1.90,-2.88,39.71,-5.46,1.46,33.07,3.89,-2.12,-20.00
-8,24,394,-296,-394,4101,-0.45,0.67,20.41,-2.96,-3.94,41.01,-5.46,1.49,32.99,3.89,-1.65,-20.00
0,-36,326,-164,-513,3866,-0.41,0.38,20.36,-1.64,-5.13,38.66,-5.48,1.51,32.91,3.73,-0.37,-18.70
-1,-30,347,-101,-560,3863,-0.37,0.16,20.44,-1.01,-5.60,38.63,-5.50,1.52,32.83,3.75,-0.44,-20.00
-13,46,365,-205,-491,3842,-0.41,0.42,20.62,-2.05,-4.91,38.42,-5.51,1.54,32.75,4.01,-2.07,-20.00
-18,34,367,-29,-425,4011,-0.48,0.59,20.80,-0.29,-4.25,40.11,-5.52,1.53,32.66,4.14,-1.86,-20.00
6,-44,321,-1,-426,3924,-0.40,0.26,20.68,-0.01,-4.26,39.24,-5.52,1.53,32.58,3.63,-0.18,-17.99
6,-7,338,-64,-533,3750,-0.32,0.19,20.67,-0.64,-5.33,37.50,-5.54,1.53,32.50,3.62,-0.92,-19.42
-14,65,351,72,-499,3942,-0.37,0.57,20.75,0.72,-4.99,39.42,-5.55,1.53,32.42,4.05,-2.48,-20.00
-18,53,362,80,-495,4033,-0.45,0.84,20.88,0.80,-4.95,40.33,-5.56,1.52,32.34,4.16,-2.31,-20.00
-6,17,368,-56,-281,3965,-0.44,0.86,21.04,-0.56,-2.81,39.65,-5.54,1.52,32.25,3.90,-1.59,-20.00
1,13,369,-147,-339,3926,-0.39,0.85,21.18,-1.47,-3.39,39.26,-5.53,1.55,32.17,3.73,-1.52,-20.00
-11,5,383,-77,-484,3884,-0.42,0.80,21.40,-0.77,-4.84,38.84,-5.54,1.56,32.08,4.00,-1.35,-20.00
-10,14,387,-102,-448,3932,-0.44,0.80,21.62,-1.02,-4.48,39.32,-5.56,1.57,32.00,3.99,-1.54,-20.00
-10,33,388,-88,-436,3873,-0.45,0.92,21.83,-0.88,-4.36,38.73,-5.58,1.57,31.91,4.01,-1.96,-20.00
-6,36,358,2,-337,3863,-0.44,1.05,21.83,0.02,-3.37,38.63,-5.57,1.57,31.82,3.92,-2.05,-20.00
4,-22,312,-2,-512,3993,-0.38,0.81,21.55,-0.02,-5.12,39.93,-5.58,1.57,31.74,3.71,-0.81,-16.44
-1,-12,321,-18,-426,3837,-0.34,0.66,21.35,-0.18,-4.26,38.37,-5.59,1.56,31.65,3.81,-0.97,-17.33
-10,54,316,35,-389,3917,-0.37,0.92,21.14,0.35,-3.89,39.17,-5.59,1.56,31.57,4.00,-2.38,-17.04
-13,53,309,-76,-381,4022,-0.41,1.15,20.91,-0.76,-3.81,40.22,-5.59,1.55,31.49,4.06,-2.42,-16.60
-3,-34,323,-64,-399,3851,-0.39,0.83,20.79,-0.64,-3.99,38.51,-5.59,1.55,31.41,3.86,-0.56,-17.86
2,2,331,-229,-426,3739,-0.34,0.76,20.73,-2.29,-4.26,37.39,-5.60,1.57,31.32,3.75,-1.29,-18.57
-3,8,239,12,-332,4030,-0.32,0.73,20.12,0.12,-3.32,40.30,-5.59,1.57,31.24,3.84,-1.40,-11.21
6,-44,246,14,-433,4220,-0.25,0.39,19.61,0.14,-4.33,42.20,-5.59,1.56,31.17,3.64,-0.24,-12.16
-10,14,373,-2,-506,3551,-0.29,0.44,19.92,-0.02,-5.06,35.51,-5.61,1.56,31.09,3.98,-1.43,-20.00
-29,85,383,38,-354,3684,-0.44,0.91,20.27,0.38,-3.54,36.84,-5.61,1.55,31.01,4.41,-3.00,-20.00
1,36,324,20,-351,3953,-0.39,1.04,20.22,0.20,-3.51,39.53,-5.60,1.55,30.93,3.78,-2.04,-18.28
-5,12,276,-63,-480,3743,-0.38,1.01,19.88,-0.63,-4.80,37.43,-5.62,1.55,30.85,3.91,-1.54,-14.45
0,5,300,5,-395,4007,-0.34,0.94,19.72,0.05,-3.95,40.07,-5.62,1.55,30.77,3.80,-1.38,-16.58
-5,4,308,73,-368,3860,-0.34,0.87,19.63,0.73,-3.68,38.60,-5.61,1.54,30.69,3.90,-1.33,-17.31
-18,-3,328,-86,-433,3834,-0.41,0.76,19.66,-0.86,-4.33,38.34,-5.63,1.54,30.61,4.20,-1.17,-18.97
-24,30,334,-196,-382,3853,-0.52,0.87,19.74,-1.96,-3.82,38.53,-5.63,1.57,30.54,4.35,-1.89,-19.41
1,9,305,-83,-389,4056,-0.46,0.84,19.62,-0.83,-3.89,40.56,-5.63,1.57,30.46,3.82,-1.45,-17.02
-8,8,325,-29,-426,3877,-0.46,0.80,19.64,-0.29,-4.26,38.77,-5.63,1.56,30.38,4.01,-1.41,-18.69
-7,-5,293,-122,-329,3899,-0.46,0.69,19.47,-1.22,-3.29,38.99,-5.62,1.58,30.30,3.97,-1.13,-16.09
0,18,287,-93,-406,3877,-0.41,0.73,19.27,-0.93,-4.06,38.77,-5.63,1.58,30.23,3.83,-1.61,-15.71
-2,13,259,-66,-389,3891,-0.38,0.74,18.92,-0.66,-3.89,38.91,-5.63,1.57,30.15,3.86,-1.50,-13.58
0,10,257,19,-471,3976,-0.35,0.73,18.60,0.19,-4.71,39.76,-5.64,1.57,30.08,3.82,-1.44,-13.63
-3,6,250,-93,-361,3892,-0.33,0.69,18.26,-0.93,-3.61,38.92,-5.63,1.57,30.01,3.86,-1.34,-13.27
-3,12,236,-99,-384,3865,-0.32,0.69,17.88,-0.99,-3.84,38.65,-5.63,1.56,29.93,3.86,-1.46,-12.35
-3,3,233,-11,-432,3988,-0.30,0.64,17.51,-0.11,-4.32,39.88,-5.64,1.55,29.87,3.86,-1.26,-12.35
-9,-8,236,-25,-324,3909,-0.33,0.53,17.20,-0.25,-3.24,39.09,-5.63,1.55,29.80,3.99,-1.00,-12.82
1,-3,208,47,-427,3863,-0.29,0.46,16.75,0.47,-4.27,38.63,-5.63,1.54,29.73,3.78,-1.08,-10.77
0,-1,221,1,-411,3972,-0.26,0.41,16.42,0.01,-4.11,39.72,-5.63,1.53,29.67,3.79,-1.10,-12.09
-7,4,265,-95,-365,3943,-0.28,0.39,16.40,-0.95,-3.65,39.43,-5.62,1.53,29.60,3.92,-1.20,-15.83
-12,-5,262,-83,-325,3938,-0.32,0.32,16.35,-0.83,-3.25,39.38,-5.60,1.53,29.53,4.03,-1.00,-15.59
6,-1,248,-71,-348,4001,-0.25,0.28,16.23,-0.71,-3.48,40.01,-5.58,1.53,29.47,3.63,-1.06,-14.48
-13,-12,240,-141,-332,3844,-0.31,0.18,16.07,-1.41,-3.32,38.44,-5.57,1.54,29.41,4.02,-0.82,-13.91
-9,-18,196,-48,-428,3855,-0.33,0.05,15.66,-0.48,-4.28,38.55,-5.58,1.54,29.34,3.96,-0.66,-10.47
-11,-9,197,-45,-497,3903,-0.37,-0.01,15.30,-0.45,-4.97,39.03,-5.60,1.53,29.28,4.02,-0.83,-10.81
-8,-2,201,-111,-376,3956,-0.38,-0.02,14.99,-1.11,-3.76,39.56,-5.58,1.55,29.22,3.95,-0.98,-11.36
-10,-11,186,-64,-297,3895,-0.40,-0.08,14.63,-0.64,-2.97,38.95,-5.56,1.54,29.16,3.99,-0.77,-10.35
0,-34,144,-52,-401,3992,-0.36,-0.28,14.04,-0.52,-4.01,39.92,-5.57,1.53,29.11,3.77,-0.24,-7.20
-5,-44,145,-100,-349,3911,-0.35,-0.52,13.52,-1.00,-3.49,39.11,-5.55,1.53,29.05,3.86,0.03,-7.66
1,-29,111,-156,-393,3928,-0.31,-0.65,12.85,-1.56,-3.93,39.28,-5.55,1.55,29.00,3.73,-0.26,-5.26
-4,-31,103,-87,-451,3916,-0.31,-0.77,12.19,-0.87,-4.51,39.16,-5.57,1.55,28.95,3.84,-0.18,-5.05
2,-18,159,29,-517,3904,-0.26,-0.80,11.94,0.29,-5.17,39.04,-5.58,1.54,28.91,3.72,-0.43,-9.97
-6,20,192,-50,-401,3835,-0.27,-0.60,11.92,-0.50,-4.01,38.35,-5.59,1.52,28.86,3.89,-1.25,-12.77
-8,27,167,-113,-391,3965,-0.30,-0.38,11.75,-1.13,-3.91,39.65,-5.60,1.54,28.81,3.94,-1.46,-10.77
-1,18,171,-43,-438,4002,-0.27,-0.23,11.61,-0.43,-4.38,40.02,-5.61,1.53,28.77,3.80,-1.31,-11.20
-18,20,226,-31,-396,3737,-0.35,-0.08,11.83,-0.31,-3.96,37.37,-5.62,1.52,28.72,4.17,-1.39,-15.69
-10,71,192,-114,-362,3681,-0.38,0.36,11.82,-1.14,-3.62,36.81,-5.62,1.54,28.67,4.01,-2.56,-12.81
3,7,128,6,-425,3991,-0.32,0.36,11.42,0.06,-4.25,39.91,-5.62,1.53,28.63,3.74,-1.25,-7.67
-3,10,156,57,-500,3831,-0.31,0.39,11.23,0.57,-5.00,38.31,-5.63,1.52,28.58,3.86,-1.31,-10.18
3,48,257,-201,-375,3959,-0.26,0.64,11.67,-2.01,-3.75,39.59,-5.63,1.55,28.54,3.73,-2.17,-18.40
6,26,229,-147,-280,4041,-0.20,0.74,11.90,-1.47,-2.80,40.41,-5.61,1.56,28.49,3.64,-1.76,-15.85
-6,16,263,-19,-453,3959,-0.21,0.76,12.32,-0.19,-4.53,39.59,-5.62,1.55,28.44,3.89,-1.56,-18.42
-8,14,245,-120,-458,3907,-0.24,0.77,12.58,-1.20,-4.58,39.07,-5.64,1.56,28.39,3.95,-1.53,-16.70
0,-1,147,-210,-402,4016,-0.22,0.69,12.22,-2.10,-4.02,40.16,-5.64,1.59,28.34,3.78,-1.22,-8.65
-1,4,137,-188,-434,3901,-0.20,0.64,11.83,-1.88,-4.34,39.01,-5.65,1.61,28.30,3.80,-1.32,-8.08
-9,9,234,126,-659,3794,-0.24,0.63,12.08,1.26,-6.59,37.94,-5.66,1.61,28.25,3.99,-1.42,-16.11
3,26,299,137,-447,3977,-0.19,0.73,12.69,1.37,-4.47,39.77,-5.67,1.60,28.20,3.73,-1.78,-20.00
12,11,194,-150,-180,3994,-0.10,0.72,12.61,-1.50,-1.80,39.94,-5.65,1.61,28.15,3.51,-1.48,-12.31
4,11,173,-26,-327,3814,-0.07,0.72,12.40,-0.26,-3.27,38.14,-5.64,1.60,28.10,3.66,-1.48,-10.68
1,26,271,41,-648,3839,-0.05,0.80,12.81,0.41,-6.48,38.39,-5.65,1.60,28.05,3.72,-1.81,-18.67
2,16,288,1,-405,3965,-0.04,0.82,13.29,0.01,-4.05,39.65,-5.65,1.59,28.00,3.70,-1.60,-19.75
-10,-19,196,-28,-464,3906,-0.09,0.62,13.16,-0.28,-4.64,39.06,-5.66,1.59,27.94,3.97,-0.83,-12.05
-6,-6,201,4,-646,3943,-0.12,0.52,13.07,0.04,-6.46,39.43,-5.68,1.59,27.89,3.90,-1.07,-12.53
-1,-3,202,-77,-197,3959,-0.12,0.45,12.99,-0.77,-1.97,39.59,-5.66,1.59,27.84,3.79,-1.11,-12.66
2,-8,178,-138,-246,3949,-0.09,0.36,12.78,-1.38,-2.46,39.49,-5.64,1.60,27.79,3.71,-0.99,-10.77
-5,0,186,-92,-465,3842,-0.11,0.32,12.64,-0.92,-4.65,38.42,-5.66,1.60,27.74,3.87,-1.15,-11.54
-7,14,225,-108,-528,3947,-0.14,0.38,12.74,-1.08,-5.28,39.47,-5.68,1.61,27.69,3.93,-1.45,-14.76
-6,4,282,-90,-325,4004,-0.17,0.36,13.19,-0.90,-3.25,40.04,-5.66,1.61,27.64,3.90,-1.24,-19.25
-4,16,271,-72,-314,3838,-0.17,0.42,13.52,-0.72,-3.14,38.38,-5.64,1.61,27.58,3.85,-1.50,-18.07
9,7,250,53,-348,3890,-0.10,0.42,13.70,0.53,-3.48,38.90,-5.64,1.60,27.53,3.56,-1.31,-16.15
7,2,254,-22,-377,3976,-0.05,0.39,13.88,-0.22,-3.77,39.76,-5.63,1.59,27.47,3.59,-1.20,-16.35
2,11,264,-27,-458,3943,-0.03,0.42,14.10,-0.27,-4.58,39.43,-5.64,1.58,27.42,3.69,-1.38,-17.02
-10,11,323,89,-496,3902,-0.09,0.45,14.66,0.89,-4.96,39.02,-5.65,1.57,27.36,3.96,-1.38,-20.00
-14,-4,322,-200,-457,3887,-0.17,0.38,15.16,-2.00,-4.57,38.87,-5.66,1.59,27.30,4.07,-1.07,-20.00
-9,4,327,-125,-406,3852,-0.20,0.36,15.64,-1.25,-4.06,38.52,-5.67,1.61,27.24,3.98,-1.24,-20.00
-17,-10,267,-228,-477,3894,-0.29,0.27,15.70,-2.28,-4.77,38.94,-5.68,1.63,27.18,4.18,-0.95,-16.07
-11,-20,253,-147,-458,3950,-0.33,0.12,15.68,-1.47,-4.58,39.50,-5.70,1.65,27.11,4.07,-0.71,-14.89
-12,-7,304,22,-405,3929,-0.37,0.06,15.96,0.22,-4.05,39.29,-5.70,1.64,27.05,4.11,-0.96,-18.99
-25,-25,332,6,-396,3943,-0.48,-0.09,16.39,0.06,-3.96,39.43,-5.70,1.62,26.98,4.40,-0.54,-20.00
-12,10,299,-176,-328,3856,-0.51,-0.02,16.58,-1.76,-3.28,38.56,-5.69,1.64,26.92,4.14,-1.28,-18.10
0,22,263,-221,-332,3989,-0.46,0.11,16.52,-2.21,-3.32,39.89,-5.68,1.67,26.85,3.87,-1.58,-15.07
2,32,273,-9,-520,3872,-0.40,0.30,16.54,-0.09,-5.20,38.72,-5.69,1.66,26.79,3.83,-1.83,-15.90
2,37,303,-128,-470,3894,-0.35,0.49,16.73,-1.28,-4.70,38.94,-5.71,1.68,26.72,3.82,-1.99,-18.29
3,-12,248,-43,-341,3920,-0.29,0.37,16.57,-0.43,-3.41,39.20,-5.70,1.67,26.65,3.78,-0.96,-13.73
-5,-23,217,-55,-402,3901,-0.29,0.19,16.24,-0.55,-4.02,39.01,-5.70,1.66,26.59,3.95,-0.68,-11.34
-15,-15,233,-18,-519,3946,-0.36,0.08,16.03,-0.18,-5.19,39.46,-5.72,1.65,26.53,4.18,-0.81,-12.83
-7,-22,213,69,-221,3949,-0.36,-0.06,15.73,0.69,-2.21,39.49,-5.70,1.65,26.46,4.01,-0.62,-11.34
-9,-1,144,-93,-598,3816,-0.38,-0.06,15.04,-0.93,-5.98,38.16,-5.72,1.65,26.40,4.06,-1.05,-5.99
-8,12,177,-121,-691,3858,-0.39,0.02,14.61,-1.21,-6.91,38.58,-5.74,1.66,26.35,4.06,-1.34,-9.09
0,-3,168,-117,-201,4050,-0.35,-0.00,14.18,-1.17,-2.01,40.50,-5.72,1.66,26.29,3.87,-1.04,-8.63
-1,-9,150,-142,-301,3949,-0.32,-0.06,13.67,-1.42,-3.01,39.49,-5.70,1.67,26.24,3.87,-0.91,-7.46
-5,12,181,47,-420,4005,-0.32,0.02,13.41,0.47,-4.20,40.05,-5.71,1.66,26.18,3.96,-1.35,-10.27
1,29,196,-79,-421,3912,-0.28,0.20,13.26,-0.79,-4.21,39.12,-5.72,1.65,26.13,3.83,-1.73,-11.64
-1,22,204,-53,-281,3888,-0.26,0.31,13.18,-0.53,-2.81,38.88,-5.70,1.65,26.08,3.85,-1.62,-12.37
-2,14,187,-28,-303,3955,-0.25,0.37,13.00,-0.28,-3.03,39.55,-5.69,1.64,26.02,3.86,-1.47,-11.05
-4,17,221,3,-487,3889,-0.25,0.43,13.05,0.03,-4.87,38.89,-5.70,1.64,25.97,3.91,-1.54,-13.89
1,15,232,-29,-417,3906,-0.22,0.48,13.16,-0.29,-4.17,39.06,-5.70,1.63,25.92,3.80,-1.51,-14.73
-6,10,249,-45,-407,4013,-0.23,0.49,13.36,-0.45,-4.07,40.13,-5.71,1.62,25.87,3.95,-1.40,-16.01
-10,-4,237,-23,-348,3911,-0.27,0.42,13.47,-0.23,-3.48,39.11,-5.70,1.61,25.81,4.04,-1.09,-14.90
-5,-5,147,-155,-307,3914,-0.27,0.35,13.02,-1.55,-3.07,39.14,-5.68,1.62,25.76,3.92,-1.06,-7.60
-6,-7,122,-137,-326,3908,-0.28,0.27,12.47,-1.37,-3.26,39.08,-5.66,1.63,25.71,3.94,-1.01,-5.88
14,3,8,-63,-278,3895,-0.17,0.26,11.27,-0.63,-2.78,38.95,-5.65,1.63,25.67,3.49,-1.21,2.92
5,7,4,-86,-412,3974,-0.12,0.28,10.17,-0.86,-4.12,39.74,-5.66,1.62,25.63,3.66,-1.29,2.46
-3,2,32,-78,-395,3910,-0.13,0.26,9.34,-0.78,-3.95,39.10,-5.66,1.61,25.59,3.83,-1.17,-0.51
-2,-6,49,-81,-396,3951,-0.13,0.20,8.71,-0.81,-3.96,39.51,-5.66,1.60,25.56,3.81,-0.99,-2.40
-4,3,45,-66,-354,3936,-0.14,0.20,8.11,-0.66,-3.54,39.36,-5.65,1.59,25.52,3.85,-1.16,-2.49
-1,10,42,-34,-364,3898,-0.13,0.24,7.56,-0.34,-3.64,38.98,-5.64,1.57,25.49,3.78,-1.31,-2.64
-2,-1,58,-45,-475,3879,-0.13,0.21,7.16,-0.45,-4.75,38.79,-5.66,1.57,25.46,3.81,-1.07,-4.28
3,-1,59,-53,-461,3886,-0.10,0.18,6.80,-0.53,-4.61,38.86,-5.67,1.56,25.44,3.71,-1.06,-4.62
2,0,56,14,-460,3924,-0.08,0.16,6.46,0.14,-4.60,39.24,-5.68,1.55,25.41,3.73,-1.06,-4.61
0,1,53,2,-446,3919,-0.07,0.15,6.14,0.02,-4.46,39.19,-5.69,1.53,25.39,3.77,-1.07,-4.59
-1,-3,42,-58,-501,3915,-0.07,0.12,5.78,-0.58,-5.01,39.15,-5.71,1.53,25.37,3.81,-0.98,-3.91
-2,-5,15,-58,-478,3921,-0.07,0.08,5.29,-0.58,-4.78,39.21,-5.72,1.52,25.35,3.84,-0.92,-1.97
-1,-8,47,34,-379,3935,-0.07,0.02,5.05,0.34,-3.79,39.35,-5.72,1.50,25.33,3.82,-0.84,-4.86
-7,0,63,19,-402,3960,-0.11,0.02,4.93,0.19,-4.02,39.60,-5.72,1.49,25.31,3.95,-0.99,-6.30
-3,13,65,-5,-310,3905,-0.12,0.10,4.83,-0.05,-3.10,39.05,-5.71,1.48,25.29,3.86,-1.27,-6.53
-4,3,93,26,-281,3968,-0.13,0.10,4.92,0.26,-2.81,39.68,-5.70,1.47,25.27,3.88,-1.06,-8.84
-4,6,112,-67,-453,3889,-0.14,0.13,5.11,-0.67,-4.53,38.89,-5.71,1.46,25.25,3.89,-1.12,-10.31
-4,-10,114,13,-364,3953,-0.15,0.06,5.29,0.13,-3.64,39.53,-5.71,1.44,25.23,3.89,-0.77,-10.34
4,2,81,-21,-635,3951,-0.11,0.06,5.26,-0.21,-6.35,39.51,-5.73,1.44,25.20,3.73,-1.01,-7.57
3,-6,87,40,-553,3971,-0.08,0.02,5.26,0.40,-5.53,39.71,-5.74,1.43,25.18,3.75,-0.83,-8.07
-2,5,133,-50,-471,3980,-0.09,0.05,5.55,-0.50,-4.71,39.80,-5.75,1.42,25.16,3.86,-1.05,-11.75
-11,-6,135,-49,-452,3884,-0.14,0.01,5.82,-0.49,-4.52,38.84,-5.77,1.41,25.14,4.07,-0.81,-11.72
-6,-5,167,-94,-462,3934,-0.17,-0.02,6.25,-0.94,-4.62,39.34,-5.79,1.42,25.12,3.99,-0.83,-14.11
-5,4,174,-130,-462,3841,-0.18,0.00,6.69,-1.30,-4.62,38.41,-5.80,1.43,25.09,3.98,-1.02,-14.38
3,-1,149,-47,-332,3939,-0.14,-0.00,6.93,-0.47,-3.32,39.39,-5.79,1.42,25.06,3.80,-0.91,-12.08
2,-20,124,-67,-273,3954,-0.12,-0.13,6.99,-0.67,-2.73,39.54,-5.77,1.42,25.03,3.80,-0.49,-9.91
1,-8,55,-73,-298,3909,-0.10,-0.16,6.63,-0.73,-2.98,39.09,-5.75,1.41,25.01,3.80,-0.73,-4.33
-1,-6,42,-54,-348,3928,-0.10,-0.18,6.22,-0.54,-3.48,39.28,-5.74,1.40,24.98,3.83,-0.75,-3.52
-1,-2,54,-63,-474,3931,-0.09,-0.18,5.93,-0.63,-4.74,39.31,-5.76,1.40,24.96,3.84,-0.83,-4.75
-1,-4,58,-2,-464,3932,-0.09,-0.18,5.69,-0.02,-4.64,39.32,-5.77,1.38,24.93,3.85,-0.78,-5.25
-3,2,111,-37,-502,3897,-0.10,-0.15,5.80,-0.37,-5.02,38.97,-5.78,1.38,24.91,3.90,-0.91,-9.66
-4,10,151,-26,-529,3920,-0.11,-0.08,6.14,-0.26,-5.29,39.20,-5.80,1.37,24.89,3.94,-1.09,-12.80
-6,7,166,-45,-394,3968,-0.14,-0.03,6.54,-0.45,-3.94,39.68,-5.79,1.35,24.86,3.98,-1.03,-13.77
2,-3,159,-43,-408,3855,-0.11,-0.04,6.85,-0.43,-4.08,38.55,-5.80,1.34,24.83,3.82,-0.81,-12.94
1,5,137,34,-460,3861,-0.09,-0.01,7.00,0.34,-4.60,38.61,-5.81,1.33,24.81,3.84,-0.98,-10.97
2,6,135,43,-489,3970,-0.07,0.03,7.13,0.43,-4.89,39.70,-5.82,1.31,24.78,3.82,-1.00,-10.70
-11,-1,163,30,-524,3905,-0.13,0.02,7.41,0.30,-5.24,39.05,-5.83,1.30,24.75,4.11,-0.85,-12.86
-1,12,184,-26,-503,3890,-0.13,0.09,7.79,-0.26,-5.03,38.90,-5.85,1.30,24.72,3.91,-1.13,-14.36
0,1,240,-8,-445,3881,-0.11,0.09,8.48,-0.08,-4.45,38.81,-5.86,1.29,24.69,3.90,-0.89,-18.60
-5,-2,258,-42,-451,3941,-0.13,0.07,9.20,-0.42,-4.51,39.41,-5.87,1.28,24.65,4.01,-0.82,-19.59
-13,-2,302,-78,-419,3885,-0.20,0.05,10.12,-0.78,-4.19,38.85,-5.88,1.27,24.61,4.20,-0.81,-20.00
-4,9,312,-121,-416,3921,-0.20,0.10,11.01,-1.21,-4.16,39.21,-5.89,1.30,24.57,4.02,-1.07,-20.00
-10,12,291,-112,-369,3860,-0.24,0.16,11.69,-1.12,-3.69,38.60,-5.88,1.31,24.52,4.15,-1.16,-20.00
1,8,267,-60,-350,4076,-0.21,0.19,12.15,-0.60,-3.50,40.76,-5.86,1.31,24.47,3.91,-1.08,-18.17
-1,-6,218,-115,-367,3852,-0.20,0.14,12.26,-1.15,-3.67,38.52,-5.85,1.33,24.42,3.93,-0.79,-13.93
-7,9,209,-112,-399,3909,-0.22,0.18,12.31,-1.12,-3.99,39.09,-5.84,1.35,24.37,4.06,-1.13,-13.12
2,13,129,-117,-352,3996,-0.19,0.24,11.87,-1.17,-3.52,39.96,-5.83,1.37,24.32,3.86,-1.23,-6.66
9,3,118,-113,-458,3932,-0.11,0.24,11.40,-1.13,-4.58,39.32,-5.84,1.38,24.28,3.70,-1.03,-6.06
-5,8,158,-69,-505,3920,-0.13,0.26,11.22,-0.69,-5.05,39.20,-5.86,1.38,24.24,4.01,-1.14,-9.57
-8,11,166,-63,-472,3926,-0.17,0.30,11.11,-0.63,-4.72,39.26,-5.88,1.38,24.19,4.09,-1.21,-10.32
-7,10,161,-74,-413,3865,-0.19,0.33,10.99,-0.74,-4.13,38.65,-5.89,1.37,24.15,4.08,-1.20,-9.98
-2,11,149,-140,-366,3906,-0.19,0.37,10.80,-1.40,-3.66,39.06,-5.88,1.39,24.11,3.97,-1.24,-9.09
-12,-5,142,-84,-456,3852,-0.24,0.30,10.58,-0.84,-4.56,38.52,-5.89,1.39,24.06,4.20,-0.90,-8.65
-7,1,140,-159,-482,3858,-0.26,0.28,10.38,-1.59,-4.82,38.58,-5.91,1.41,24.02,4.11,-1.02,-8.62
-9,-26,97,-24,-395,4009,-0.29,0.09,9.93,-0.24,-3.95,40.09,-5.90,1.39,23.98,4.16,-0.42,-5.30
-8,-28,88,17,-334,3998,-0.31,-0.09,9.48,0.17,-3.34,39.98,-5.89,1.38,23.95,4.14,-0.32,-4.86
-3,-14,35,-96,-295,3940,-0.30,-0.17,8.74,-0.96,-2.95,39.40,-5.88,1.39,23.91,4.02,-0.58,-0.90
-1,-11,20,-81,-358,3941,-0.27,-0.22,7.99,-0.81,-3.58,39.41,-5.86,1.38,23.88,3.96,-0.63,-0.17
5,-1,24,-3,-473,3942,-0.21,-0.20,7.34,-0.03,-4.73,39.42,-5.87,1.37,23.85,3.83,-0.83,-0.98
6,-2,36,5,-491,3923,-0.16,-0.19,6.82,0.05,-4.91,39.23,-5.88,1.36,23.82,3.80,-0.80,-2.36
2,-14,70,-13,-459,3864,-0.13,-0.26,6.57,-0.13,-4.59,38.64,-5.89,1.35,23.80,3.88,-0.53,-5.43
-3,-12,86,-47,-421,3916,-0.13,-0.31,6.44,-0.47,-4.21,39.16,-5.90,1.33,23.77,3.99,-0.55,-6.87
-8,-17,153,5,-479,3890,-0.17,-0.38,6.73,0.05,-4.79,38.90,-5.91,1.32,23.74,4.11,-0.42,-12.33
-12,-13,191,35,-613,3992,-0.23,-0.42,7.22,0.35,-6.13,39.92,-5.93,1.31,23.72,4.22,-0.48,-15.19
-9,10,207,-101,-416,3931,-0.26,-0.32,7.76,-1.01,-4.16,39.31,-5.94,1.32,23.68,4.17,-0.99,-16.15
8,20,153,-87,-313,3935,-0.18,-0.16,7.92,-0.87,-3.13,39.35,-5.92,1.33,23.65,3.79,-1.24,-11.45
-7,-23,98,-31,-447,3843,-0.21,-0.29,7.72,-0.31,-4.47,38.43,-5.93,1.31,23.62,4.11,-0.32,-6.93
-7,5,124,-87,-543,3930,-0.23,-0.23,7.71,-0.87,-5.43,39.30,-5.95,1.32,23.59,4.13,-0.91,-9.13
1,-2,128,-73,-424,4009,-0.20,-0.22,7.72,-0.73,-4.24,40.09,-5.96,1.30,23.56,3.97,-0.76,-9.46
3,1,115,-115,-456,3789,-0.16,-0.19,7.65,-1.15,-4.56,37.89,-5.97,1.31,23.53,3.92,-0.83,-8.41
-1,-18,72,-84,-319,3881,-0.15,-0.28,7.32,-0.84,-3.19,38.81,-5.95,1.31,23.50,3.99,-0.42,-4.99
2,-10,55,-145,-333,3922,-0.12,-0.31,6.92,-1.45,-3.33,39.22,-5.94,1.32,23.47,3.91,-0.59,-3.84
-1,-12,49,-89,-420,3913,-0.12,-0.36,6.53,-0.89,-4.20,39.13,-5.96,1.32,23.45,3.98,-0.53,-3.61
-2,-15,48,-76,-452,3908,-0.12,-0.41,6.17,-0.76,-4.52,39.08,-5.97,1.32,23.42,4.02,-0.45,-3.79
-3,-25,62,-16,-548,3935,-0.13,-0.52,5.93,-0.16,-5.48,39.35,-5.99,1.31,23.40,4.05,-0.21,-5.14
-4,-20,75,9,-570,3977,-0.14,-0.59,5.80,0.09,-5.70,39.77,-6.01,1.30,23.38,4.08,-0.29,-6.34
-11,-5,138,-81,-427,3930,-0.19,-0.56,6.06,-0.81,-4.27,39.30,-6.02,1.29,23.35,4.25,-0.60,-11.48
-1,-1,141,-97,-401,3824,-0.18,-0.51,6.31,-0.97,-4.01,38.24,-6.02,1.31,23.33,4.04,-0.70,-11.54
-15,-9,160,-111,-408,3922,-0.25,-0.52,6.66,-1.11,-4.08,39.22,-6.01,1.33,23.30,4.34,-0.55,-12.90
-14,-10,157,-102,-325,3931,-0.31,-0.53,6.95,-1.02,-3.25,39.31,-6.00,1.33,23.27,4.33,-0.53,-12.43
-27,-36,184,-86,-375,3886,-0.45,-0.69,7.38,-0.86,-3.75,38.86,-5.98,1.33,23.24,4.62,0.04,-14.40
-14,6,240,-199,-502,3941,-0.49,-0.59,8.10,-1.99,-5.02,39.41,-5.99,1.34,23.21,4.37,-0.85,-18.60
-4,12,269,-67,-358,4008,-0.46,-0.46,8.93,-0.67,-3.58,40.08,-5.98,1.34,23.17,4.15,-1.00,-20.00
-1,15,259,-49,-374,3945,-0.42,-0.32,9.62,-0.49,-3.74,39.45,-5.96,1.33,23.13,4.07,-1.09,-19.10
4,22,183,-35,-377,3986,-0.36,-0.15,9.77,-0.35,-3.77,39.86,-5.95,1.31,23.10,3.95,-1.27,-12.54
3,19,167,-29,-364,3909,-0.30,-0.02,9.82,-0.29,-3.64,39.09,-5.94,1.30,23.06,3.94,-1.24,-11.14
-2,-2,239,13,-393,3879,-0.28,-0.03,10.29,0.13,-3.93,38.79,-5.94,1.29,23.02,4.04,-0.80,-16.89
-4,-5,213,68,-296,3923,-0.28,-0.06,10.56,0.68,-2.96,39.23,-5.93,1.28,22.97,4.07,-0.73,-14.48
-2,-3,103,39,-386,3886,-0.26,-0.07,10.13,0.39,-3.86,38.86,-5.93,1.26,22.93,4.03,-0.75,-5.47
0,-4,74,56,-376,3900,-0.24,-0.09,9.57,0.56,-3.76,39.00,-5.93,1.25,22.89,3.98,-0.72,-3.41
1,-10,25,-15,-424,3886,-0.21,-0.14,8.77,-0.15,-4.24,38.86,-5.93,1.24,22.86,3.95,-0.57,0.16
-3,-10,25,-20,-451,3897,-0.21,-0.19,8.04,-0.20,-4.51,38.97,-5.94,1.22,22.83,4.04,-0.55,-0.36
-3,-12,18,-52,-419,3919,-0.20,-0.24,7.35,-0.52,-4.19,39.19,-5.95,1.21,22.80,4.04,-0.49,-0.27
-2,-11,19,-45,-439,3918,-0.19,-0.28,6.73,-0.45,-4.39,39.18,-5.96,1.20,22.77,4.03,-0.49,-0.80
-1,-4,42,-72,-415,3923,-0.18,-0.28,6.31,-0.72,-4.15,39.23,-5.97,1.18,22.75,4.01,-0.62,-3.05
-1,-1,43,-80,-418,3915,-0.17,-0.26,5.94,-0.80,-4.18,39.15,-5.99,1.18,22.72,4.02,-0.69,-3.40
-1,6,47,-77,-448,3911,-0.16,-0.20,5.64,-0.77,-4.48,39.11,-6.01,1.18,22.70,4.03,-0.85,-3.96
0,8,65,-89,-461,3914,-0.14,-0.13,5.47,-0.89,-4.61,39.14,-6.02,1.18,22.68,4.01,-0.91,-5.60
0,9,45,-45,-419,3914,-0.13,-0.06,5.20,-0.45,-4.19,39.14,-6.03,1.17,22.66,4.01,-0.94,-4.10
4,11,34,-29,-444,3920,-0.09,0.01,4.88,-0.29,-4.44,39.20,-6.04,1.15,22.64,3.93,-0.99,-3.40
6,9,19,7,-419,3909,-0.05,0.07,4.51,0.07,-4.19,39.09,-6.04,1.14,22.62,3.87,-0.95,-2.39
6,5,15,-15,-427,3906,-0.00,0.09,4.15,-0.15,-4.27,39.06,-6.04,1.12,22.61,3.87,-0.87,-2.31
6,2,22,13,-475,3913,0.03,0.09,3.87,0.13,-4.75,39.13,-6.05,1.11,22.59,3.86,-0.80,-3.11
9,0,31,62,-526,3926,0.08,0.08,3.67,0.62,-5.26,39.26,-6.06,1.10,22.58,3.79,-0.75,-4.01
-15,5,230,12,-685,3909,-0.02,0.11,4.71,0.12,-6.85,39.09,-6.08,1.09,22.56,4.32,-0.85,-20.00
1,17,246,-16,-622,3886,-0.01,0.20,5.74,-0.16,-6.22,38.86,-6.09,1.09,22.54,4.00,-1.12,-20.00
-12,10,303,-122,-450,3948,-0.08,0.24,7.01,-1.22,-4.50,39.48,-6.10,1.11,22.51,4.29,-1.00,-20.00
10,6,287,-1,-408,3998,-0.01,0.25,8.06,-0.01,-4.08,39.98,-6.10,1.10,22.48,3.83,-0.92,-20.00
-3,17,434,-68,-598,3908,-0.03,0.33,9.90,-0.68,-5.98,39.08,-6.12,1.10,22.44,4.11,-1.16,-20.00
-12,12,481,-45,-524,3963,-0.10,0.37,11.85,-0.45,-5.24,39.63,-6.13,1.10,22.39,4.32,-1.07,-20.00
-11,1,585,6,-496,4037,-0.16,0.34,14.23,0.06,-4.96,40.37,-6.14,1.10,22.33,4.32,-0.84,-20.00
-16,26,551,-127,-355,3819,-0.24,0.46,16.17,-1.27,-3.55,38.19,-6.13,1.12,22.27,4.44,-1.39,-20.00
10,13,385,-19,-268,4040,-0.15,0.50,16.90,-0.19,-2.68,40.40,-6.11,1.12,22.20,3.87,-1.14,-20.00
-6,-23,330,-83,-155,3930,-0.17,0.31,17.22,-0.83,-1.55,39.30,-6.09,1.13,22.13,4.19,-0.36,-19.39
-4,4,190,-96,-361,3732,-0.18,0.30,16.66,-0.96,-3.61,37.32,-6.08,1.15,22.07,4.14,-0.92,-7.93
-5,2,174,-100,-386,4052,-0.19,0.28,16.06,-1.00,-3.86,40.52,-6.06,1.16,22.00,4.15,-0.88,-7.00
-2,4,121,-78,-338,3982,-0.19,0.28,15.19,-0.78,-3.38,39.82,-6.04,1.17,21.94,4.08,-0.93,-3.13
6,8,107,-50,-323,3944,-0.13,0.30,14.32,-0.50,-3.23,39.44,-6.02,1.17,21.88,3.89,-1.02,-2.57
1,8,99,-29,-503,3878,-0.11,0.32,13.49,-0.29,-5.03,38.78,-6.04,1.17,21.83,4.00,-1.02,-2.48
9,13,107,31,-547,3895,-0.05,0.37,12.80,0.31,-5.47,38.95,-6.05,1.16,21.78,3.82,-1.13,-3.66
0,-17,140,-25,-491,3826,-0.04,0.23,12.37,-0.25,-4.91,38.26,-6.07,1.16,21.73,4.02,-0.48,-6.76
0,-11,134,-86,-382,3907,-0.04,0.14,11.95,-0.86,-3.82,39.07,-6.05,1.17,21.68,4.00,-0.59,-6.54
-1,-7,86,-65,-353,3906,-0.04,0.08,11.28,-0.65,-3.53,39.06,-6.03,1.17,21.64,4.01,-0.65,-2.96
-4,-3,74,-83,-396,3912,-0.06,0.05,10.60,-0.83,-3.96,39.12,-6.01,1.18,21.60,4.06,-0.73,-2.43
-3,0,31,-54,-416,3920,-0.07,0.05,9.73,-0.54,-4.16,39.20,-6.01,1.16,21.56,4.05,-0.78,0.59
0,1,27,-37,-443,3920,-0.07,0.05,8.92,-0.37,-4.43,39.20,-6.02,1.15,21.52,3.99,-0.79,0.34
0,8,72,-27,-538,3848,-0.06,0.09,8.47,-0.27,-5.38,38.48,-6.04,1.15,21.49,4.00,-0.95,-3.79
1,15,81,-83,-488,3913,-0.05,0.18,8.12,-0.83,-4.88,39.13,-6.06,1.15,21.46,3.99,-1.12,-4.81
3,1,71,-73,-340,3888,-0.02,0.16,7.74,-0.73,-3.40,38.88,-6.04,1.16,21.43,3.93,-0.83,-4.23
2,-1,63,-59,-357,3911,-0.01,0.14,7.35,-0.59,-3.57,39.11,-6.02,1.15,21.40,3.94,-0.78,-3.83
-2,0,82,-72,-454,3885,-0.02,0.13,7.12,-0.72,-4.54,38.85,-6.04,1.16,21.37,4.03,-0.80,-5.61
1,-7,74,-57,-443,3904,-0.01,0.07,6.85,-0.57,-4.43,39.04,-6.05,1.15,21.34,3.98,-0.63,-5.11
5,-5,87,49,-488,3980,0.02,0.03,6.70,0.49,-4.88,39.80,-6.06,1.13,21.32,3.89,-0.66,-6.32
-14,-5,114,13,-524,3906,-0.07,0.00,6.73,0.13,-5.24,39.06,-6.07,1.13,21.29,4.31,-0.64,-8.59
3,10,113,-80,-337,3805,-0.04,0.06,6.74,-0.80,-3.37,38.05,-6.06,1.13,21.26,3.95,-0.97,-8.49
8,11,73,-113,-271,3917,0.01,0.12,6.51,-1.13,-2.71,39.17,-6.04,1.14,21.24,3.82,-1.01,-5.26
1,4,1,-40,-420,3961,0.02,0.13,5.87,-0.40,-4.20,39.61,-6.04,1.12,21.21,3.96,-0.86,0.37
-3,-2,7,-64,-471,3886,-0.00,0.11,5.32,-0.64,-4.71,38.86,-6.05,1.12,21.19,4.06,-0.73,-0.53
2,-9,34,-85,-422,3888,0.01,0.04,5.00,-0.85,-4.22,38.88,-6.07,1.14,21.17,3.96,-0.58,-3.05
3,-7,33,-40,-430,3924,0.03,-0.00,4.70,-0.40,-4.30,39.24,-6.07,1.12,21.15,3.94,-0.60,-3.18
-3,-3,70,-36,-481,3944,0.00,-0.02,4.66,-0.36,-4.81,39.44,-6.09,1.11,21.14,4.08,-0.67,-6.34
-1,-1,81,-27,-487,3934,-0.00,-0.03,4.69,-0.27,-4.87,39.34,-6.10,1.10,21.12,4.05,-0.70,-7.25
-5,-1,97,-46,-387,3904,-0.03,-0.03,4.81,-0.46,-3.87,39.04,-6.09,1.09,21.10,4.13,-0.69,-8.51
-1,10,85,-34,-403,3853,-0.04,0.03,4.85,-0.34,-4.03,38.53,-6.08,1.08,21.08,4.05,-0.92,-7.46
-1,7,54,-63,-432,3917,-0.04,0.07,4.69,-0.63,-4.32,39.17,-6.10,1.07,21.06,4.06,-0.87,-4.95
0,7,49,-50,-444,3921,-0.03,0.11,4.52,-0.50,-4.44,39.21,-6.11,1.06,21.04,4.04,-0.87,-4.64
2,7,79,-55,-570,3813,-0.02,0.14,4.55,-0.55,-5.70,38.13,-6.13,1.06,21.02,4.01,-0.88,-7.16
-7,14,96,-28,-605,3910,-0.06,0.21,4.68,-0.28,-6.05,39.10,-6.15,1.06,21.01,4.22,-1.04,-8.50
0,7,111,-69,-459,3883,-0.05,0.23,4.89,-0.69,-4.59,38.83,-6.17,1.06,20.99,4.08,-0.90,-9.62
-1,3,111,-95,-445,3935,-0.05,0.23,5.08,-0.95,-4.45,39.35,-6.18,1.07,20.97,4.11,-0.83,-9.48
-8,-5,137,-44,-481,3911,-0.10,0.18,5.41,-0.44,-4.81,39.11,-6.19,1.07,20.95,4.28,-0.65,-11.44
-5,-2,140,-45,-424,3909,-0.12,0.15,5.72,-0.45,-4.24,39.09,-6.19,1.05,20.92,4.22,-0.69,-11.46
-5,-10,110,-47,-287,3860,-0.14,0.07,5.82,-0.47,-2.87,38.60,-6.18,1.05,20.90,4.22,-0.51,-8.84
-2,0,92,-49,-279,3916,-0.14,0.06,5.80,-0.49,-2.79,39.16,-6.16,1.05,20.88,4.14,-0.71,-7.33
-1,2,51,-76,-305,3911,-0.13,0.07,5.53,-0.76,-3.05,39.11,-6.14,1.06,20.85,4.11,-0.76,-4.04
1,0,41,-72,-341,3894,-0.11,0.06,5.23,-0.72,-3.41,38.94,-6.12,1.06,20.83,4.05,-0.72,-3.41
3,2,26,-39,-442,3897,-0.08,0.07,4.86,-0.39,-4.42,38.97,-6.13,1.05,20.81,4.01,-0.75,-2.41
0,3,20,-38,-448,3898,-0.07,0.08,4.50,-0.38,-4.48,38.98,-6.14,1.03,20.80,4.07,-0.77,-2.16
5,9,37,36,-526,3958,-0.03,0.13,4.27,0.36,-5.26,39.58,-6.16,1.02,20.78,3.97,-0.89,-3.76
6,2,62,66,-587,3947,0.01,0.13,4.22,0.66,-5.87,39.47,-6.17,1.01,20.76,3.95,-0.74,-5.91
-12,9,184,77,-593,3898,-0.07,0.17,4.92,0.77,-5.93,38.98,-6.18,1.00,20.74,4.34,-0.89,-15.73
5,33,200,-73,-616,3839,-0.03,0.35,5.65,-0.73,-6.16,38.39,-6.20,1.01,20.72,4.00,-1.43,-16.55
-2,0,198,100,-515,4040,-0.04,0.32,6.29,1.00,-5.15,40.40,-6.21,1.00,20.70,4.15,-0.74,-15.91
0,-1,216,75,-532,3953,-0.04,0.28,6.98,0.75,-5.32,39.53,-6.22,0.99,20.67,4.11,-0.71,-16.93
-10,9,277,-32,-497,3825,-0.09,0.31,7.97,-0.32,-4.97,38.25,-6.24,0.98,20.64,4.34,-0.92,-20.00
0,23,272,-70,-485,3851,-0.08,0.42,8.84,-0.70,-4.85,38.51,-6.25,0.99,20.60,4.15,-1.23,-20.00
0,4,247,-26,-417,3993,-0.08,0.40,9.46,-0.26,-4.17,39.93,-6.25,0.98,20.57,4.14,-0.84,-17.73
-4,4,245,-72,-397,3905,-0.09,0.38,10.01,-0.72,-3.97,39.05,-6.23,0.99,20.53,4.22,-0.84,-17.16
-8,0,232,-2,-400,3922,-0.13,0.35,10.42,-0.02,-4.00,39.22,-6.22,0.98,20.49,4.30,-0.74,-15.75
-6,1,228,-7,-357,3968,-0.16,0.32,10.77,-0.07,-3.57,39.68,-6.21,0.97,20.44,4.26,-0.75,-15.15
-3,-5,179,-75,-362,3923,-0.16,0.25,10.79,-0.75,-3.62,39.23,-6.19,0.98,20.40,4.19,-0.61,-10.98
0,-6,163,-15,-461,3910,-0.14,0.19,10.70,-0.15,-4.61,39.10,-6.20,0.97,20.36,4.13,-0.57,-9.67
-13,5,240,6,-547,3982,-0.21,0.20,11.10,0.06,-5.47,39.82,-6.21,0.96,20.31,4.42,-0.79,-15.90
-4,4,257,18,-450,3900,-0.21,0.21,11.55,0.18,-4.50,39.00,-6.22,0.95,20.27,4.24,-0.77,-17.00
-6,1,272,-91,-406,3908,-0.23,0.19,12.06,-0.91,-4.06,39.08,-6.21,0.97,20.22,4.28,-0.72,-17.90
-10,3,268,-69,-421,3868,-0.26,0.19,12.49,-0.69,-4.21,38.68,-6.21,1.00,20.17,4.37,-0.77,-17.23
1,9,214,-98,-278,3899,-0.23,0.23,12.54,-0.98,-2.78,38.99,-6.19,1.01,20.12,4.13,-0.91,-12.61
-7,3,189,-113,-299,3903,-0.25,0.22,12.44,-1.13,-2.99,39.03,-6.17,1.02,20.07,4.29,-0.80,-10.56
-3,-8,108,-109,-260,3890,-0.24,0.15,11.86,-1.09,-2.60,38.90,-6.16,1.03,20.02,4.19,-0.56,-4.11
-1,-5,88,-94,-272,3920,-0.23,0.11,11.21,-0.94,-2.72,39.20,-6.14,1.04,19.98,4.13,-0.61,-2.88
2,3,40,-72,-298,3928,-0.19,0.11,10.33,-0.72,-2.98,39.28,-6.12,1.04,19.94,4.05,-0.78,0.55
6,8,27,-36,-421,3909,-0.14,0.15,9.46,-0.36,-4.21,39.09,-6.12,1.03,19.90,3.96,-0.88,1.03
3,13,49,50,-622,3923,-0.10,0.22,8.82,0.50,-6.22,39.23,-6.14,1.02,19.86,4.02,-1.00,-1.30
3,14,61,50,-620,3919,-0.08,0.28,8.31,0.50,-6.20,39.19,-6.15,1.02,19.83,4.02,-1.03,-2.68
-1,7,113,-5,-525,3882,-0.07,0.29,8.16,-0.05,-5.25,38.82,-6.17,1.02,19.80,4.11,-0.89,-7.19
-1,9,131,-37,-519,3866,-0.07,0.32,8.15,-0.37,-5.19,38.66,-6.18,1.01,19.77,4.12,-0.94,-8.72
-8,4,171,-29,-457,3852,-0.11,0.31,8.38,-0.29,-4.57,38.52,-6.20,1.01,19.73,4.28,-0.83,-11.93
-2,-3,176,-4,-409,4015,-0.11,0.26,8.61,-0.04,-4.09,40.15,-6.19,0.99,19.70,4.16,-0.67,-12.18
-12,-3,229,-51,-452,4023,-0.18,0.22,9.15,-0.51,-4.52,40.23,-6.20,0.98,19.66,4.39,-0.65,-16.27
-11,-13,227,-86,-412,3873,-0.23,0.12,9.62,-0.86,-4.12,38.73,-6.19,1.01,19.63,4.37,-0.43,-15.75
5,11,194,-65,-431,3850,-0.17,0.17,9.84,-0.65,-4.31,38.50,-6.21,1.01,19.59,4.05,-0.94,-12.79
3,6,193,-44,-508,3961,-0.14,0.19,10.03,-0.44,-5.08,39.61,-6.23,1.01,19.55,4.09,-0.84,-12.56
7,12,216,-1,-523,3923,-0.08,0.25,10.35,-0.01,-5.23,39.23,-6.24,1.00,19.51,4.00,-0.97,-14.27
6,18,222,-9,-624,3837,-0.04,0.33,10.67,-0.09,-6.24,38.37,-6.26,1.00,19.46,4.02,-1.12,-14.54
-8,12,268,98,-527,3731,-0.08,0.37,11.23,0.98,-5.27,37.31,-6.27,0.99,19.42,4.32,-1.00,-18.01
-1,40,276,-12,-589,3883,-0.08,0.58,11.79,-0.12,-5.89,38.83,-6.29,0.99,19.37,4.19,-1.63,-18.27
-17,17,323,7,-610,3957,-0.18,0.62,12.59,0.07,-6.10,39.57,-6.30,1.00,19.32,4.55,-1.17,-20.00
-27,-10,331,10,-580,3929,-0.32,0.50,13.35,0.10,-5.80,39.29,-6.32,0.99,19.27,4.81,-0.59,-20.00
-4,1,341,-29,-552,3834,-0.31,0.46,14.09,-0.29,-5.52,38.34,-6.34,1.00,19.22,4.35,-0.80,-20.00
-2,9,339,33,-586,3956,-0.30,0.47,14.75,0.33,-5.86,39.56,-6.35,0.99,19.16,4.31,-0.97,-20.00
-4,-10,345,-25,-477,4057,-0.29,0.36,15.38,-0.25,-4.77,40.57,-6.36,0.99,19.10,4.36,-0.55,-20.00
5,1,356,-84,-451,3885,-0.23,0.33,16.01,-0.84,-4.51,38.85,-6.38,1.01,19.03,4.17,-0.78,-20.00
-29,-6,391,-177,-356,3854,-0.38,0.26,16.80,-1.77,-3.56,38.54,-6.37,1.03,18.97,4.90,-0.63,-20.00
11,4,399,-254,-291,3995,-0.28,0.26,17.55,-2.54,-2.91,39.95,-6.35,1.05,18.90,4.05,-0.85,-20.00
-21,-19,442,-200,-263,3916,-0.38,0.12,18.49,-2.00,-2.63,39.16,-6.34,1.07,18.82,4.71,-0.35,-20.00
-8,2,446,-195,-269,3902,-0.39,0.12,19.36,-1.95,-2.69,39.02,-6.32,1.09,18.75,4.44,-0.79,-20.00
-17,12,379,-142,-216,4022,-0.45,0.18,19.74,-1.42,-2.16,40.22,-6.31,1.11,18.67,4.63,-1.02,-20.00
-10,5,341,-102,-183,3923,-0.47,0.19,19.85,-1.02,-1.83,39.23,-6.29,1.12,18.59,4.48,-0.89,-17.77
7,16,110,-110,-121,3854,-0.38,0.27,18.53,-1.10,-1.21,38.54,-6.27,1.13,18.51,4.10,-1.15,0.86
13,14,56,-97,-189,3989,-0.26,0.33,17.02,-0.97,-1.89,39.89,-6.25,1.14,18.45,3.93,-1.13,4.34
5,2,18,-18,-512,3928,-0.21,0.31,15.43,-0.18,-5.12,39.28,-6.27,1.14,18.39,4.09,-0.88,6.41
-3,0,42,-13,-537,3912,-0.20,0.28,14.14,-0.13,-5.37,39.12,-6.28,1.14,18.33,4.26,-0.82,3.45
5,7,71,70,-562,3912,-0.15,0.29,13.16,0.70,-5.62,39.12,-6.29,1.13,18.28,4.09,-0.97,0.29
1,7,81,74,-620,3940,-0.13,0.31,12.34,0.74,-6.20,39.40,-6.31,1.12,18.23,4.18,-0.97,-1.15
-5,-9,146,-42,-358,3899,-0.15,0.22,12.00,-0.42,-3.58,38.99,-6.29,1.12,18.18,4.29,-0.62,-6.90
-7,6,161,-95,-395,3816,-0.18,0.23,11.78,-0.95,-3.95,38.16,-6.28,1.14,18.13,4.33,-0.94,-8.32
-4,-1,184,-75,-367,3925,-0.18,0.20,11.72,-0.75,-3.67,39.25,-6.26,1.14,18.09,4.26,-0.79,-10.30
-4,-1,168,-71,-338,3911,-0.19,0.18,11.57,-0.71,-3.38,39.11,-6.24,1.15,18.04,4.25,-0.79,-9.04
-9,-2,129,-80,-359,3870,-0.23,0.15,11.20,-0.80,-3.59,38.70,-6.22,1.15,18.00,4.35,-0.76,-6.00
-4,2,119,-88,-406,3950,-0.23,0.15,10.81,-0.88,-4.06,39.50,-6.20,1.17,17.95,4.24,-0.85,-5.43
6,6,101,15,-504,3960,-0.17,0.17,10.34,0.15,-5.04,39.60,-6.22,1.16,17.91,4.03,-0.93,-4.24
-5,4,119,-49,-538,3834,-0.18,0.18,10.04,-0.49,-5.38,38.34,-6.23,1.16,17.87,4.27,-0.89,-5.98
1,12,123,18,-435,3905,-0.16,0.23,9.78,0.18,-4.35,39.05,-6.23,1.14,17.83,4.14,-1.06,-6.50
14,18,108,3,-332,3961,-0.06,0.32,9.46,0.03,-3.32,39.61,-6.22,1.14,17.80,3.84,-1.20,-5.46
3,-3,102,-68,-511,3911,-0.03,0.27,9.14,-0.68,-5.11,39.11,-6.24,1.14,17.76,4.06,-0.76,-5.18
8,-6,101,-3,-530,3870,0.02,0.20,8.84,-0.03,-5.30,38.70,-6.25,1.13,17.73,3.96,-0.68,-5.30
-6,-11,160,44,-510,3926,-0.02,0.12,8.93,0.44,-5.10,39.26,-6.26,1.12,17.69,4.26,-0.55,-10.23
-4,5,175,35,-469,3898,-0.04,0.14,9.11,0.35,-4.69,38.98,-6.27,1.11,17.65,4.23,-0.87,-11.37
15,14,76,-161,-183,3973,0.05,0.21,8.66,-1.61,-1.83,39.73,-6.25,1.12,17.62,3.80,-1.08,-3.30
6,-2,48,-139,-265,3889,0.09,0.17,8.09,-1.39,-2.65,38.89,-6.23,1.13,17.59,3.97,-0.75,-1.34
0,-8,29,-64,-440,3912,0.08,0.11,7.46,-0.64,-4.40,39.12,-6.24,1.12,17.56,4.10,-0.61,-0.18
0,-7,10,-14,-474,3925,0.07,0.05,6.77,-0.14,-4.74,39.25,-6.25,1.11,17.53,4.11,-0.61,0.93
1,-5,-10,119,-634,3927,0.07,0.02,6.03,1.19,-6.34,39.27,-6.26,1.10,17.51,4.10,-0.63,2.09
6,0,10,37,-652,3892,0.10,0.02,5.49,0.37,-6.52,38.92,-6.28,1.09,17.49,4.00,-0.73,0.01
-9,-11,81,59,-593,3978,0.03,-0.05,5.44,0.59,-5.93,39.78,-6.29,1.08,17.46,4.33,-0.48,-6.04
-11,-13,125,49,-616,3910,-0.04,-0.13,5.65,0.49,-6.16,39.10,-6.31,1.08,17.44,4.40,-0.41,-9.61
-12,9,239,-1,-564,3687,-0.11,-0.06,6.55,-0.01,-5.64,36.87,-6.32,1.07,17.42,4.45,-0.87,-18.61
-2,22,256,-130,-564,4045,-0.11,0.08,7.45,-1.30,-5.64,40.45,-6.34,1.08,17.39,4.26,-1.18,-19.39
-5,16,392,-60,-609,3994,-0.13,0.17,9.10,-0.60,-6.09,39.94,-6.36,1.09,17.35,4.33,-1.09,-20.00
-18,8,439,-120,-598,3877,-0.22,0.20,10.87,-1.20,-5.98,38.77,-6.38,1.10,17.31,4.64,-0.94,-20.00
-25,14,547,14,-593,3884,-0.35,0.27,13.12,0.14,-5.93,38.84,-6.39,1.09,17.26,4.82,-1.08,-20.00
-9,15,553,-167,-476,3748,-0.37,0.33,15.18,-1.67,-4.76,37.48,-6.40,1.12,17.20,4.51,-1.13,-20.00
-22,-12,548,29,-419,4065,-0.47,0.23,17.00,0.29,-4.19,40.65,-6.40,1.11,17.13,4.80,-0.55,-20.00
-23,21,545,-74,-415,3681,-0.56,0.33,18.63,-0.74,-4.15,36.81,-6.41,1.13,17.06,4.85,-1.26,-20.00
1,24,470,40,-326,4104,-0.50,0.44,19.63,0.40,-3.26,41.04,-6.40,1.13,16.98,4.34,-1.36,-20.00
-26,-3,456,-71,-396,3910,-0.61,0.38,20.45,-0.71,-3.96,39.10,-6.38,1.14,16.90,4.91,-0.79,-20.00
-7,-25,460,-49,-386,3882,-0.59,0.19,21.21,-0.49,-3.86,38.82,-6.37,1.14,16.81,4.51,-0.30,-20.00
3,10,471,-115,-442,3588,-0.51,0.23,21.96,-1.15,-4.42,35.88,-6.38,1.16,16.72,4.29,-1.03,-20.00
-3,28,531,-76,-374,3872,-0.48,0.38,23.01,-0.76,-3.74,38.72,-6.36,1.17,16.63,4.39,-1.45,-20.00
-21,-15,530,-61,-302,4110,-0.56,0.25,23.94,-0.61,-3.02,41.10,-6.34,1.18,16.54,4.77,-0.54,-20.00
-22,-15,466,-58,-370,3939,-0.64,0.13,24.39,-0.58,-3.70,39.39,-6.33,1.19,16.44,4.80,-0.52,-20.00
-21,-3,432,-43,-292,3892,-0.70,0.10,24.58,-0.43,-2.92,38.92,-6.31,1.19,16.34,4.78,-0.76,-20.00
-5,2,334,22,-322,3835,-0.66,0.10,24.16,0.22,-3.22,38.35,-6.30,1.19,16.25,4.44,-0.86,-13.61
-5,6,323,3,-339,3993,-0.63,0.13,23.72,0.03,-3.39,39.93,-6.28,1.19,16.15,4.42,-0.94,-12.99
-5,8,281,-19,-422,3876,-0.60,0.17,23.06,-0.19,-4.22,38.76,-6.28,1.18,16.06,4.41,-0.99,-9.89
-12,6,291,-32,-492,3834,-0.61,0.19,22.53,-0.32,-4.92,38.34,-6.30,1.18,15.97,4.57,-0.95,-11.11
-9,-1,318,-30,-503,3917,-0.60,0.16,22.22,-0.30,-5.03,39.17,-6.31,1.18,15.88,4.51,-0.80,-13.61
-11,-22,313,15,-437,3935,-0.61,0.01,21.90,0.15,-4.37,39.35,-6.31,1.17,15.79,4.56,-0.33,-13.40
-6,-23,291,34,-375,3942,-0.59,-0.13,21.49,0.34,-3.75,39.42,-6.31,1.17,15.71,4.44,-0.27,-11.82
1,3,297,71,-405,3920,-0.52,-0.10,21.15,0.71,-4.05,39.20,-6.30,1.16,15.63,4.28,-0.80,-12.56
-10,8,281,-38,-347,3886,-0.53,-0.04,20.75,-0.38,-3.47,38.86,-6.29,1.16,15.54,4.50,-0.92,-11.48
3,-15,263,-3,-406,3925,-0.46,-0.13,20.28,-0.03,-4.06,39.25,-6.28,1.15,15.46,4.21,-0.42,-10.28
-2,-5,291,2,-450,3865,-0.42,-0.15,20.03,0.02,-4.50,38.65,-6.29,1.14,15.38,4.31,-0.61,-12.83
2,16,295,52,-514,3850,-0.37,-0.03,19.82,0.52,-5.14,38.50,-6.30,1.13,15.30,4.22,-1.07,-13.30
0,12,346,453,-515,3883,-0.33,0.04,19.95,4.53,-5.15,38.83,-6.30,1.13,15.22,4.25,-1.00,-17.51
-1,6,381,505,-533,4151,-0.31,0.08,20.28,5.05,-5.33,41.51,-6.30,1.12,15.14,4.26,-0.88,-20.00
-16,5,507,-331,-762,3922,-0.37,0.10,21.35,-3.31,-7.62,39.22,-6.32,1.14,15.06,4.60,-0.88,-20.00
-10,0,543,-264,-627,3865,-0.40,0.09,22.52,-2.64,-6.27,38.65,-6.33,1.16,14.97,4.49,-0.79,-20.00
-21,-6,623,-120,-560,3834,-0.49,0.04,24.07,-1.20,-5.60,38.34,-6.35,1.18,14.87,4.75,-0.67,-20.00
-18,9,624,-58,-396,3884,-0.55,0.09,25.47,-0.58,-3.96,38.84,-6.33,1.18,14.77,4.69,-0.99,-20.00
0,-6,558,-251,-407,3999,-0.49,0.05,26.33,-2.51,-4.07,39.99,-6.33,1.21,14.67,4.31,-0.69,-20.00
-19,-20,494,-255,-375,3890,-0.56,-0.08,26.71,-2.55,-3.75,38.90,-6.32,1.24,14.56,4.71,-0.39,-20.00
-14,7,345,4,-296,3780,-0.59,-0.03,26.14,0.04,-2.96,37.80,-6.31,1.24,14.46,4.61,-0.95,-12.78
-11,17,326,-16,-295,3975,-0.60,0.08,25.52,-0.16,-2.95,39.75,-6.29,1.24,14.36,4.54,-1.19,-11.61
-1,10,256,-119,-268,3876,-0.54,0.13,24.53,-1.19,-2.68,38.76,-6.27,1.26,14.26,4.31,-1.07,-6.38
-6,-3,227,-94,-310,3900,-0.53,0.10,23.46,-0.94,-3.10,39.00,-6.26,1.27,14.16,4.39,-0.80,-4.68
4,3,128,-182,-254,3936,-0.45,0.11,21.89,-1.82,-2.54,39.36,-6.24,1.29,14.08,4.16,-0.94,2.58
9,3,94,-172,-301,3889,-0.35,0.12,20.28,-1.72,-3.01,38.89,-6.22,1.31,14.00,4.02,-0.95,4.30
5,5,36,-69,-452,3920,-0.28,0.13,18.47,-0.69,-4.52,39.20,-6.24,1.30,13.92,4.09,-1.00,7.91
4,6,30,-65,-455,3913,-0.23,0.16,16.81,-0.65,-4.55,39.13,-6.25,1.30,13.86,4.11,-1.02,7.21
0,5,19,-30,-458,3915,-0.21,0.17,15.24,-0.30,-4.58,39.15,-6.26,1.29,13.80,4.19,-1.00,7.02
0,3,9,-32,-455,3922,-0.19,0.17,13.77,-0.32,-4.55,39.22,-6.26,1.28,13.74,4.19,-0.95,6.80
3,8,13,-47,-448,3934,-0.15,0.20,12.47,-0.47,-4.48,39.34,-6.27,1.27,13.69,4.12,-1.06,5.53
3,10,15,-30,-455,3923,-0.12,0.25,11.32,-0.30,-4.55,39.23,-6.28,1.26,13.65,4.11,-1.10,4.52
-5,8,53,17,-563,3933,-0.14,0.27,10.51,0.17,-5.63,39.33,-6.29,1.25,13.61,4.29,-1.06,0.72
-9,10,80,27,-569,3952,-0.18,0.30,9.95,0.27,-5.69,39.52,-6.30,1.25,13.57,4.39,-1.11,-1.97
-2,11,175,-31,-612,3939,-0.17,0.34,10.02,-0.31,-6.12,39.39,-6.32,1.25,13.53,4.26,-1.14,-9.96
-4,14,213,-12,-616,3896,-0.18,0.39,10.32,-0.12,-6.16,38.96,-6.34,1.25,13.49,4.31,-1.21,-12.95
2,12,257,14,-414,3976,-0.15,0.43,10.85,0.14,-4.14,39.76,-6.33,1.23,13.44,4.18,-1.17,-16.28
-8,-8,256,44,-391,3926,-0.18,0.33,11.33,0.44,-3.91,39.26,-6.33,1.22,13.40,4.39,-0.74,-15.84
-16,-11,277,56,-402,3822,-0.26,0.23,11.89,0.56,-4.02,38.22,-6.32,1.21,13.35,4.57,-0.64,-17.21
4,29,247,89,-368,4063,-0.21,0.39,12.20,0.89,-3.68,40.63,-6.32,1.20,13.30,4.15,-1.49,-14.43
-1,17,266,91,-566,3959,-0.20,0.45,12.61,0.91,-5.66,39.59,-6.33,1.19,13.25,4.25,-1.26,-15.73
-7,32,285,39,-572,3826,-0.22,0.60,13.08,0.39,-5.72,38.26,-6.34,1.19,13.20,4.39,-1.60,-16.99
-4,14,341,-127,-526,3793,-0.22,0.63,13.86,-1.27,-5.26,37.93,-6.36,1.21,13.15,4.34,-1.25,-20.00
-5,9,334,-1,-472,3958,-0.23,0.62,14.51,-0.01,-4.72,39.58,-6.36,1.20,13.09,4.36,-1.14,-20.00
-12,-4,328,-39,-487,4011,-0.28,0.53,15.06,-0.39,-4.87,40.11,-6.38,1.19,13.03,4.53,-0.85,-19.16
-3,5,337,-11,-583,3788,-0.27,0.51,15.61,-0.11,-5.83,37.88,-6.39,1.20,12.97,4.35,-1.03,-19.51
-13,5,375,-34,-532,3864,-0.32,0.49,16.33,-0.34,-5.32,38.64,-6.41,1.20,12.90,4.58,-1.02,-20.00
-7,7,383,-12,-540,4030,-0.33,0.48,17.04,-0.12,-5.40,40.30,-6.42,1.19,12.84,4.47,-1.06,-20.00
-15,-10,387,-10,-330,4028,-0.39,0.37,17.69,-0.10,-3.30,40.28,-6.41,1.19,12.77,4.64,-0.69,-20.00
-12,26,370,-46,-360,3860,-0.43,0.50,18.18,-0.46,-3.60,38.60,-6.39,1.20,12.69,4.58,-1.45,-20.00
0,8,287,-81,-284,3809,-0.38,0.49,18.11,-0.81,-2.84,38.09,-6.37,1.21,12.62,4.31,-1.09,-13.38
-3,1,264,-111,-287,3959,-0.36,0.45,17.91,-1.11,-2.87,39.59,-6.35,1.22,12.55,4.35,-0.95,-11.57
-9,-32,195,-36,-255,4047,-0.38,0.21,17.31,-0.36,-2.55,40.47,-6.34,1.22,12.48,4.47,-0.21,-6.15
-13,-48,168,-97,-267,3803,-0.42,-0.10,16.61,-0.97,-2.67,38.03,-6.32,1.23,12.42,4.55,0.19,-4.36
-13,-25,95,-63,-504,3906,-0.46,-0.25,15.52,-0.63,-5.04,39.06,-6.34,1.23,12.35,4.57,-0.24,1.04
-14,-18,99,-33,-511,3970,-0.50,-0.33,14.58,-0.33,-5.11,39.70,-6.35,1.23,12.30,4.61,-0.35,0.02
4,21,101,-85,-364,3967,-0.42,-0.17,13.73,-0.85,-3.64,39.67,-6.33,1.23,12.24,4.22,-1.19,-0.75
8,20,76,-117,-328,3930,-0.33,-0.03,12.82,-1.17,-3.28,39.30,-6.32,1.24,12.19,4.10,-1.22,0.71
5,27,25,-61,-436,3926,-0.27,0.14,11.69,-0.61,-4.36,39.26,-6.32,1.23,12.14,4.14,-1.40,4.22
8,36,28,-73,-447,3956,-0.19,0.34,10.70,-0.73,-4.47,39.56,-6.33,1.22,12.10,4.07,-1.63,3.25
10,33,48,-23,-458,3900,-0.11,0.51,9.92,-0.23,-4.58,39.00,-6.34,1.21,12.06,4.01,-1.61,0.99
8,30,47,-23,-469,3900,-0.05,0.64,9.21,-0.23,-4.69,39.00,-6.34,1.20,12.03,4.04,-1.58,0.57
10,22,88,78,-570,3910,0.01,0.71,8.83,0.78,-5.70,39.10,-6.35,1.19,11.99,3.99,-1.43,-3.18
8,15,125,80,-603,3931,0.06,0.73,8.71,0.80,-6.03,39.31,-6.37,1.19,11.96,4.02,-1.29,-6.39
4,4,269,124,-587,3942,0.08,0.68,9.48,1.24,-5.87,39.42,-6.38,1.18,11.92,4.11,-1.05,-18.03
-14,-7,293,93,-632,3886,-0.01,0.57,10.32,0.93,-6.32,38.86,-6.39,1.18,11.88,4.51,-0.79,-19.44
-18,-2,342,111,-552,3786,-0.12,0.50,11.37,1.11,-5.52,37.86,-6.40,1.17,11.83,4.62,-0.87,-20.00
4,21,338,80,-506,3957,-0.09,0.58,12.30,0.80,-5.06,39.57,-6.41,1.16,11.79,4.17,-1.35,-20.00
10,10,326,-50,-479,3908,-0.02,0.58,13.06,-0.50,-4.79,39.08,-6.42,1.16,11.74,4.04,-1.12,-20.00
-11,-25,308,-56,-478,3854,-0.08,0.37,13.63,-0.56,-4.78,38.54,-6.43,1.15,11.68,4.49,-0.36,-18.26
1,-13,319,24,-612,3957,-0.07,0.26,14.21,0.24,-6.12,39.57,-6.45,1.15,11.63,4.25,-0.57,-18.76
-21,5,345,83,-608,3962,-0.19,0.26,14.90,0.83,-6.08,39.62,-6.46,1.15,11.57,4.74,-0.93,-20.00
1,38,335,-129,-310,3912,-0.16,0.47,15.45,-1.29,-3.10,39.12,-6.44,1.16,11.50,4.28,-1.67,-19.19
-13,0,329,-64,-380,4042,-0.23,0.42,15.91,-0.64,-3.80,40.42,-6.43,1.17,11.44,4.57,-0.88,-18.34
0,-2,236,-81,-158,3996,-0.20,0.37,15.76,-0.81,-1.58,39.96,-6.41,1.17,11.38,4.28,-0.83,-10.56
4,4,205,-156,-225,3783,-0.16,0.35,15.43,-1.56,-2.25,37.83,-6.39,1.19,11.32,4.18,-0.96,-8.16
7,8,107,-105,-288,3886,-0.10,0.37,14.54,-1.05,-2.88,38.86,-6.37,1.20,11.26,4.09,-1.06,-0.49
11,7,89,-109,-310,3914,-0.02,0.37,13.63,-1.09,-3.10,39.14,-6.35,1.21,11.20,3.97,-1.04,0.38
1,-6,74,-19,-509,3928,-0.02,0.30,12.72,-0.19,-5.09,39.28,-6.36,1.21,11.15,4.18,-0.76,0.99
-8,-9,100,1,-561,3902,-0.06,0.21,12.06,0.01,-5.61,39.02,-6.38,1.20,11.11,4.39,-0.67,-1.68
-4,-1,99,-55,-428,3945,-0.08,0.19,11.46,-0.55,-4.28,39.45,-6.37,1.19,11.06,4.31,-0.82,-2.03
-4,-2,91,-67,-445,3874,-0.10,0.16,10.87,-0.67,-4.45,38.74,-6.38,1.18,11.02,4.32,-0.78,-1.77
5,-1,54,-90,-375,3915,-0.06,0.13,10.11,-0.90,-3.75,39.15,-6.36,1.19,10.98,4.11,-0.80,0.82
4,-2,42,-82,-394,3935,-0.03,0.11,9.35,-0.82,-3.94,39.35,-6.34,1.20,10.94,4.11,-0.78,1.29
-3,-10,42,-40,-509,3912,-0.04,0.04,8.67,-0.40,-5.09,39.12,-6.36,1.19,10.91,4.27,-0.59,0.80
-2,-10,54,-24,-567,3930,-0.05,-0.03,8.14,-0.24,-5.67,39.30,-6.38,1.19,10.87,4.26,-0.57,-0.60
-7,2,142,-3,-575,3995,-0.09,-0.01,8.19,-0.03,-5.75,39.95,-6.39,1.18,10.84,4.38,-0.82,-8.01
-6,-3,154,-32,-478,3952,-0.12,-0.03,8.31,-0.32,-4.78,39.52,-6.40,1.17,10.81,4.38,-0.70,-8.94
-3,6,137,-109,-409,3879,-0.12,0.01,8.31,-1.09,-4.09,38.79,-6.39,1.19,10.78,4.31,-0.91,-7.49
-4,-3,136,-70,-386,3962,-0.13,-0.01,8.31,-0.70,-3.86,39.62,-6.37,1.19,10.74,4.32,-0.72,-7.40
-4,1,90,-20,-382,3934,-0.15,-0.00,8.03,-0.20,-3.82,39.34,-6.36,1.18,10.71,4.32,-0.80,-3.70
2,10,75,-19,-409,3887,-0.12,0.06,7.68,-0.19,-4.09,38.87,-6.35,1.16,10.68,4.18,-0.99,-2.68
4,7,64,0,-593,3928,-0.08,0.10,7.31,0.00,-5.93,39.28,-6.37,1.16,10.65,4.14,-0.93,-2.01
6,4,80,18,-600,3931,-0.04,0.11,7.06,0.18,-6.00,39.31,-6.38,1.15,10.62,4.10,-0.87,-3.54
-13,-3,192,100,-788,3951,-0.11,0.08,7.53,1.00,-7.88,39.51,-6.40,1.15,10.59,4.52,-0.72,-12.69
-14,12,229,113,-730,3904,-0.19,0.15,8.17,1.13,-7.30,39.04,-6.41,1.14,10.56,4.57,-1.04,-15.35
-7,19,262,-87,-448,3733,-0.21,0.25,8.95,-0.87,-4.48,37.33,-6.43,1.15,10.53,4.44,-1.22,-17.57
7,15,252,0,-418,3941,-0.15,0.31,9.60,0.00,-4.18,39.41,-6.43,1.14,10.49,4.14,-1.14,-16.24
-6,1,294,28,-550,4030,-0.17,0.29,10.43,0.28,-5.50,40.30,-6.44,1.13,10.45,4.42,-0.85,-19.19
-3,-6,290,10,-597,3775,-0.17,0.22,11.16,0.10,-5.97,37.75,-6.45,1.13,10.40,4.37,-0.69,-18.31
-7,-8,326,63,-521,3961,-0.20,0.15,12.03,0.63,-5.21,39.61,-6.46,1.12,10.36,4.46,-0.62,-20.00
-7,-1,332,22,-612,3910,-0.22,0.13,12.85,0.22,-6.12,39.10,-6.48,1.12,10.30,4.48,-0.75,-20.00
-3,2,372,9,-475,4078,-0.22,0.13,13.84,0.09,-4.75,40.78,-6.48,1.11,10.25,4.40,-0.81,-20.00
-20,-12,399,-68,-501,3970,-0.32,0.04,14.89,-0.68,-5.01,39.70,-6.50,1.11,10.19,4.78,-0.50,-20.00
-7,15,427,-114,-366,3776,-0.33,0.13,16.00,-1.14,-3.66,37.76,-6.48,1.13,10.13,4.51,-1.09,-20.00
-12,15,436,-129,-389,3974,-0.37,0.21,17.06,-1.29,-3.89,39.74,-6.47,1.15,10.06,4.61,-1.12,-20.00
-19,11,378,153,-263,4166,-0.45,0.26,17.66,1.53,-2.63,41.66,-6.46,1.14,9.99,4.77,-1.05,-20.00
-7,2,356,116,-209,3926,-0.44,0.24,18.07,1.16,-2.09,39.26,-6.44,1.14,9.92,4.52,-0.86,-18.78
-1,19,276,-110,-252,3771,-0.41,0.33,17.94,-1.10,-2.52,37.71,-6.42,1.15,9.85,4.37,-1.24,-12.08
-6,14,253,-123,-327,3878,-0.40,0.39,17.69,-1.23,-3.27,38.78,-6.41,1.17,9.77,4.46,-1.16,-10.30
-5,-9,194,8,-459,3938,-0.39,0.29,17.11,0.08,-4.59,39.38,-6.41,1.16,9.71,4.44,-0.66,-5.71
-12,9,199,9,-446,3823,-0.43,0.32,16.61,0.09,-4.46,38.23,-6.42,1.15,9.64,4.59,-1.03,-6.49
-2,10,214,-13,-641,3860,-0.40,0.35,16.25,-0.13,-6.41,38.60,-6.43,1.15,9.58,4.39,-1.06,-8.01
-3,14,222,29,-594,3934,-0.37,0.40,15.98,0.29,-5.94,39.34,-6.45,1.15,9.51,4.42,-1.15,-8.87
-1,11,296,-4,-569,3914,-0.34,0.43,16.19,-0.04,-5.69,39.14,-6.46,1.15,9.45,4.38,-1.10,-14.98
-25,-8,320,29,-662,4003,-0.46,0.33,16.52,0.29,-6.62,40.03,-6.48,1.15,9.38,4.91,-0.69,-16.76
3,6,407,50,-478,3779,-0.40,0.34,17.35,0.50,-4.78,37.79,-6.49,1.14,9.32,4.33,-0.97,-20.00
-14,14,429,-52,-624,3838,-0.44,0.39,18.24,-0.52,-6.24,38.38,-6.51,1.15,9.24,4.70,-1.15,-20.00
-13,9,482,-68,-388,3916,-0.48,0.40,19.35,-0.68,-3.88,39.16,-6.49,1.16,9.17,4.68,-1.06,-20.00
-20,-16,473,-92,-303,3853,-0.55,0.27,20.30,-0.92,-3.03,38.53,-6.47,1.17,9.09,4.83,-0.52,-20.00
-13,-1,431,-155,-366,3775,-0.58,0.23,20.90,-1.55,-3.66,37.75,-6.46,1.20,9.00,4.68,-0.83,-20.00
0,1,405,-59,-266,4015,-0.52,0.22,21.28,-0.59,-2.66,40.15,-6.44,1.20,8.92,4.39,-0.87,-20.00
-1,16,356,-158,-376,3996,-0.47,0.29,21.32,-1.58,-3.76,39.96,-6.43,1.23,8.83,4.39,-1.21,-16.21
-9,1,345,-92,-326,3971,-0.48,0.27,21.30,-0.92,-3.26,39.71,-6.41,1.24,8.75,4.55,-0.91,-15.28
-5,20,313,-69,-338,3860,-0.46,0.36,21.08,-0.69,-3.38,38.60,-6.39,1.25,8.66,4.45,-1.33,-12.72
6,23,305,-95,-307,4009,-0.38,0.47,20.83,-0.95,-3.07,40.09,-6.37,1.26,8.58,4.19,-1.43,-12.20
-1,22,264,-150,-350,4073,-0.35,0.56,20.36,-1.50,-3.50,40.73,-6.36,1.28,8.50,4.31,-1.44,-9.06
1,-14,243,-36,-369,4000,-0.31,0.41,19.80,-0.36,-3.69,40.00,-6.34,1.28,8.42,4.25,-0.67,-7.67
-10,0,236,-26,-447,3848,-0.34,0.37,19.26,-0.26,-4.47,38.48,-6.35,1.27,8.34,4.49,-0.94,-7.46
-2,4,233,-27,-373,4024,-0.32,0.36,18.76,-0.27,-3.73,40.24,-6.33,1.27,8.27,4.31,-1.02,-7.56
-2,10,227,-25,-513,3956,-0.30,0.39,18.27,-0.25,-5.13,39.56,-6.35,1.27,8.20,4.31,-1.14,-7.39
-7,14,233,-18,-513,3842,-0.31,0.43,17.86,-0.18,-5.13,38.42,-6.36,1.27,8.13,4.43,-1.24,-8.18
-7,11,256,-131,-390,3841,-0.32,0.46,17.64,-1.31,-3.90,38.41,-6.35,1.29,8.06,4.42,-1.20,-10.28
2,12,244,-81,-341,3978,-0.28,0.48,17.36,-0.81,-3.41,39.78,-6.33,1.30,7.99,4.21,-1.23,-9.46
1,-1,190,-46,-322,3969,-0.24,0.43,16.78,-0.46,-3.22,39.69,-6.31,1.30,7.92,4.21,-0.95,-5.29
3,-1,162,12,-371,3822,-0.20,0.38,16.09,0.12,-3.71,38.22,-6.30,1.29,7.86,4.15,-0.94,-3.41
3,5,126,54,-533,3904,-0.16,0.37,15.25,0.54,-5.33,39.04,-6.31,1.29,7.80,4.15,-1.05,-0.96
0,15,146,75,-627,3895,-0.15,0.43,14.62,0.75,-6.27,38.95,-6.33,1.28,7.74,4.22,-1.27,-3.11
-1,12,263,62,-613,4001,-0.14,0.46,14.76,0.62,-6.13,40.01,-6.34,1.28,7.68,4.24,-1.21,-12.91
-5,28,301,-83,-575,3762,-0.15,0.58,15.12,-0.83,-5.75,37.62,-6.36,1.29,7.62,4.34,-1.58,-15.85
7,19,368,-12,-561,3934,-0.10,0.64,15.85,-0.12,-5.61,39.34,-6.37,1.29,7.56,4.09,-1.41,-20.00
-6,2,401,28,-539,3899,-0.12,0.59,16.71,0.28,-5.39,38.99,-6.38,1.28,7.49,4.37,-1.05,-20.00
2,8,478,14,-518,3915,-0.10,0.58,17.96,0.14,-5.18,39.15,-6.39,1.28,7.42,4.21,-1.16,-20.00
-19,-6,477,-15,-501,3909,-0.20,0.48,19.07,-0.15,-5.01,39.09,-6.40,1.27,7.35,4.67,-0.85,-20.00
-8,9,446,6,-601,3912,-0.23,0.49,19.89,0.06,-6.01,39.12,-6.42,1.28,7.27,4.46,-1.16,-20.00
-12,0,443,50,-574,3952,-0.28,0.44,20.60,0.50,-5.74,39.52,-6.43,1.27,7.19,4.57,-0.96,-20.00
-16,-1,470,15,-653,4003,-0.35,0.39,21.41,0.15,-6.53,40.03,-6.45,1.28,7.10,4.68,-0.93,-20.00
-5,-16,489,35,-519,4026,-0.35,0.25,22.25,0.35,-5.19,40.26,-6.45,1.27,7.01,4.46,-0.58,-20.00
-6,0,562,-56,-360,3931,-0.35,0.23,23.45,-0.56,-3.60,39.31,-6.44,1.28,6.92,4.47,-0.90,-20.00
-28,25,533,-154,-341,3588,-0.49,0.36,24.36,-1.54,-3.41,35.88,-6.42,1.30,6.82,4.94,-1.47,-20.00
-5,30,435,-106,-136,3975,-0.47,0.51,24.58,-1.06,-1.36,39.75,-6.41,1.32,6.73,4.46,-1.62,-20.00
-12,2,377,-108,-26,3897,-0.49,0.47,24.42,-1.08,-0.26,38.97,-6.39,1.33,6.63,4.59,-1.05,-15.34
4,-5,270,-22,-312,3864,-0.42,0.39,23.62,-0.22,-3.12,38.64,-6.37,1.33,6.53,4.24,-0.88,-6.83
-6,-2,247,-94,-362,3841,-0.41,0.34,22.77,-0.94,-3.62,38.41,-6.35,1.35,6.44,4.43,-0.94,-5.49
6,0,163,-48,-476,3966,-0.34,0.30,21.49,-0.48,-4.76,39.66,-6.36,1.34,6.36,4.17,-0.97,0.71
0,-10,161,-41,-444,3928,-0.30,0.21,20.32,-0.41,-4.44,39.28,-6.36,1.33,6.28,4.28,-0.73,0.04
-16,20,183,-31,-543,3941,-0.37,0.31,19.40,-0.31,-5.43,39.41,-6.38,1.33,6.20,4.64,-1.37,-2.48
-6,9,189,-2,-456,4006,-0.37,0.34,18.62,-0.02,-4.56,40.06,-6.38,1.33,6.13,4.43,-1.15,-3.55
-2,4,203,-47,-456,3802,-0.34,0.33,17.99,-0.47,-4.56,38.02,-6.39,1.32,6.06,4.35,-1.04,-5.17
-3,10,238,-71,-611,3987,-0.33,0.36,17.65,-0.71,-6.11,39.87,-6.41,1.33,5.99,4.38,-1.18,-8.38
-12,-7,297,-45,-672,3965,-0.37,0.28,17.69,-0.45,-6.72,39.65,-6.43,1.33,5.92,4.59,-0.81,-13.33
-9,-9,319,-53,-690,3779,-0.39,0.20,17.87,-0.53,-6.90,37.79,-6.44,1.34,5.85,4.54,-0.75,-15.05
-7,11,388,-38,-521,3805,-0.39,0.24,18.45,-0.38,-5.21,38.05,-6.46,1.34,5.77,4.51,-1.17,-20.00
-2,3,403,-37,-581,4052,-0.36,0.24,19.06,-0.37,-5.81,40.52,-6.48,1.34,5.70,4.41,-1.01,-20.00
-16,-21,485,-21,-500,3998,-0.43,0.09,20.11,-0.21,-5.00,39.98,-6.49,1.33,5.62,4.72,-0.48,-20.00
-1,14,488,-74,-545,3753,-0.39,0.16,21.08,-0.74,-5.45,37.53,-6.50,1.34,5.54,4.42,-1.21,-20.00
9,1,458,-32,-450,3962,-0.30,0.15,21.77,-0.32,-4.50,39.62,-6.50,1.33,5.45,4.19,-0.94,-20.00
-1,-4,444,-24,-458,3902,-0.27,0.11,22.30,-0.24,-4.58,39.02,-6.51,1.33,5.36,4.39,-0.82,-20.00
4,22,413,-79,-465,3792,-0.22,0.24,22.59,-0.79,-4.65,37.92,-6.52,1.33,5.27,4.28,-1.39,-19.48
14,6,408,-43,-381,4044,-0.11,0.25,22.82,-0.43,-3.81,40.44,-6.50,1.33,5.18,4.04,-1.07,-18.87
3,28,447,18,-481,3928,-0.08,0.39,23.26,0.18,-4.81,39.28,-6.51,1.33,5.09,4.26,-1.55,-20.00
8,8,460,-36,-354,3914,-0.03,0.40,23.74,-0.36,-3.54,39.14,-6.49,1.33,4.99,4.13,-1.15,-20.00
-6,11,415,13,-309,3758,-0.06,0.43,23.90,0.13,-3.09,37.58,-6.47,1.33,4.90,4.41,-1.22,-18.62
5,22,389,4,-327,3984,-0.02,0.52,23.88,0.04,-3.27,39.84,-6.46,1.33,4.80,4.17,-1.47,-16.41
-14,-7,306,12,-419,3978,-0.11,0.43,23.36,0.12,-4.19,39.78,-6.45,1.33,4.71,4.57,-0.85,-9.75
-3,-3,284,13,-452,3891,-0.11,0.37,22.76,0.13,-4.52,38.91,-6.45,1.32,4.62,4.35,-0.91,-8.31
-10,2,289,-49,-513,3959,-0.16,0.34,22.24,-0.49,-5.13,39.59,-6.47,1.32,4.53,4.51,-1.01,-9.09
-14,-4,293,-32,-503,3933,-0.23,0.28,21.81,-0.32,-5.03,39.33,-6.48,1.32,4.45,4.62,-0.87,-9.73
6,24,358,-84,-506,3868,-0.17,0.40,21.81,-0.84,-5.06,38.68,-6.49,1.33,4.36,4.21,-1.48,-15.22
11,37,410,-52,-553,3823,-0.09,0.59,22.13,-0.52,-5.53,38.23,-6.51,1.34,4.27,4.10,-1.80,-19.37
1,35,431,-12,-414,3750,-0.07,0.74,22.55,-0.12,-4.14,37.50,-6.50,1.33,4.18,4.29,-1.79,-20.00
-15,21,410,16,-413,3825,-0.16,0.80,22.79,0.16,-4.13,38.25,-6.50,1.33,4.09,4.64,-1.52,-18.86
-6,10,378,-2,-477,3860,-0.18,0.78,22.82,-0.02,-4.77,38.60,-6.50,1.32,4.00,4.46,-1.29,-16.11
6,19,378,14,-475,3973,-0.12,0.82,22.84,0.14,-4.75,39.73,-6.51,1.32,3.91,4.21,-1.48,-16.08
