gyroADC_X,gyroADC_Y,gyroADC_Z,accADC_X,accADC_Y,accADC_Z,GyroX,GyroY,GyroZ,AccX,AccY,AccZ,roll_IMU,pitch_IMU,yaw_IMU,roll_PID,pitch_PID,yaw_PID
0,19,-1,-68,-384,3904,0.12,0.24,0.20,-0.68,-3.84,39.04,-5.67,0.99,0.65,2.77,-0.86,-0.11
0,28,-1,-77,-386,3912,0.11,0.39,0.17,-0.77,-3.86,39.12,-5.67,1.01,0.65,2.77,-1.05,-0.10
2,40,-2,-40,-388,3882,0.11,0.60,0.14,-0.40,-3.88,38.82,-5.67,1.00,0.65,2.74,-1.29,-0.09
1,33,-2,-74,-374,3948,0.10,0.74,0.11,-0.74,-3.74,39.48,-5.65,1.01,0.65,2.75,-1.23,-0.08
1,10,-3,-65,-383,3914,0.10,0.72,0.08,-0.65,-3.83,39.14,-5.64,1.00,0.65,2.74,-0.87,-0.06
3,8,-5,-57,-390,3911,0.11,0.70,0.05,-0.57,-3.90,39.11,-5.64,0.98,0.65,2.71,-0.82,-0.04
3,26,-9,-76,-392,3902,0.12,0.79,-0.01,-0.76,-3.92,39.02,-5.65,1.00,0.65,2.72,-1.13,0.01
4,30,-8,-85,-378,3900,0.13,0.89,-0.06,-0.85,-3.78,39.00,-5.64,1.02,0.65,2.69,-1.24,0.01
6,15,-4,-95,-384,3915,0.15,0.90,-0.08,-0.95,-3.84,39.15,-5.64,1.04,0.65,2.65,-1.02,-0.01
4,9,-2,-84,-392,3912,0.16,0.86,-0.08,-0.84,-3.92,39.12,-5.65,1.06,0.65,2.69,-0.93,-0.03
4,4,-2,-83,-386,3907,0.17,0.80,-0.09,-0.83,-3.86,39.07,-5.65,1.08,0.65,2.68,-0.84,-0.03
4,4,-1,-81,-385,3900,0.18,0.74,-0.08,-0.81,-3.85,39.00,-5.64,1.10,0.65,2.68,-0.83,-0.04
1,2,0,-81,-392,3922,0.17,0.68,-0.08,-0.81,-3.92,39.22,-5.66,1.12,0.65,2.73,-0.79,-0.05
1,3,-1,-83,-388,3919,0.16,0.63,-0.07,-0.83,-3.88,39.19,-5.65,1.14,0.65,2.74,-0.80,-0.04
0,-1,-1,-66,-385,3911,0.14,0.56,-0.07,-0.66,-3.85,39.11,-5.65,1.13,0.65,2.75,-0.71,-0.04
0,0,-1,-78,-389,3913,0.13,0.51,-0.07,-0.78,-3.89,39.13,-5.67,1.13,0.66,2.77,-0.72,-0.04
-2,1,3,-82,-383,3921,0.10,0.46,-0.05,-0.82,-3.83,39.21,-5.65,1.15,0.66,2.80,-0.72,-0.08
-3,1,3,-75,-374,3911,0.07,0.42,-0.02,-0.75,-3.74,39.11,-5.63,1.14,0.66,2.81,-0.71,-0.09
-3,0,-2,-76,-384,3917,0.05,0.38,-0.03,-0.76,-3.84,39.17,-5.62,1.13,0.66,2.81,-0.68,-0.04
-3,0,-2,-73,-382,3906,0.02,0.34,-0.04,-0.73,-3.82,39.06,-5.61,1.12,0.66,2.82,-0.66,-0.04
3,2,-1,-59,-400,3892,0.04,0.32,-0.04,-0.59,-4.00,38.92,-5.63,1.10,0.66,2.73,-0.68,-0.05
1,2,0,-69,-392,3903,0.04,0.30,-0.04,-0.69,-3.92,39.03,-5.64,1.09,0.66,2.76,-0.66,-0.06
-1,-3,-27,-193,-300,3897,0.03,0.25,-0.20,-1.93,-3.00,38.97,-5.63,1.11,0.66,2.79,-0.58,0.21
1,0,-62,-195,-285,3937,0.03,0.23,-0.56,-1.95,-2.85,39.37,-5.62,1.12,0.66,2.75,-0.63,0.59
-1,-4,-87,-44,-386,3942,0.03,0.18,-1.03,-0.44,-3.86,39.42,-5.61,1.11,0.66,2.79,-0.54,0.92
-8,-10,-73,-21,-432,3911,-0.03,0.10,-1.38,-0.21,-4.32,39.11,-5.63,1.09,0.67,2.92,-0.42,0.89
-2,-12,-46,-94,-411,3918,-0.04,0.02,-1.52,-0.94,-4.11,39.18,-5.64,1.10,0.68,2.83,-0.37,0.69
-2,-13,-49,-117,-399,3912,-0.04,-0.06,-1.67,-1.17,-3.99,39.12,-5.65,1.12,0.68,2.84,-0.34,0.75
-1,-30,-72,-127,-366,3907,-0.05,-0.24,-1.94,-1.27,-3.66,39.07,-5.64,1.13,0.69,2.82,-0.03,1.01
0,-30,-82,-123,-375,3892,-0.04,-0.40,-2.24,-1.23,-3.75,38.92,-5.64,1.15,0.70,2.80,0.01,1.17
-1,-28,-93,-37,-368,3871,-0.04,-0.53,-2.59,-0.37,-3.68,38.71,-5.63,1.13,0.71,2.82,0.03,1.35
1,-24,-96,-35,-370,3908,-0.03,-0.62,-2.91,-0.35,-3.70,39.08,-5.63,1.11,0.72,2.78,0.01,1.45
-2,-10,-100,-85,-367,3887,-0.04,-0.62,-3.23,-0.85,-3.67,38.87,-5.61,1.11,0.73,2.82,-0.21,1.57
-1,-8,-115,-116,-325,3911,-0.04,-0.61,-3.61,-1.16,-3.25,39.11,-5.60,1.12,0.75,2.80,-0.25,1.78
3,-9,-147,-106,-359,3906,-0.02,-0.60,-4.15,-1.06,-3.59,39.06,-5.59,1.13,0.76,2.73,-0.24,2.19
2,-13,-145,-91,-350,3883,-0.01,-0.62,-4.62,-0.91,-3.50,38.83,-5.57,1.13,0.78,2.73,-0.17,2.28
10,0,-170,-62,-432,3934,0.05,-0.56,-5.19,-0.62,-4.32,39.34,-5.59,1.12,0.80,2.60,-0.39,2.63
11,-2,-169,-44,-419,3897,0.12,-0.52,-5.70,-0.44,-4.19,38.97,-5.60,1.11,0.82,2.57,-0.36,2.75
-5,-7,-143,-10,-429,3925,0.07,-0.51,-6.01,-0.10,-4.29,39.25,-5.61,1.09,0.85,2.83,-0.28,2.60
6,0,-139,-7,-422,3900,0.10,-0.46,-6.25,-0.07,-4.22,39.00,-5.62,1.07,0.87,2.66,-0.39,2.62
-1,-3,-150,-53,-443,3892,0.09,-0.43,-6.54,-0.53,-4.43,38.92,-5.64,1.06,0.90,2.78,-0.35,2.79
2,-2,-153,-70,-444,3904,0.09,-0.40,-6.82,-0.70,-4.44,39.04,-5.66,1.05,0.93,2.74,-0.37,2.88
6,-2,-151,-59,-415,3879,0.12,-0.37,-7.06,-0.59,-4.15,38.79,-5.67,1.04,0.95,2.68,-0.37,2.92
5,8,-149,-63,-423,3864,0.14,-0.28,-7.26,-0.63,-4.23,38.64,-5.69,1.03,0.98,2.70,-0.55,2.95
0,37,-155,-109,-448,3883,0.12,-0.03,-7.48,-1.09,-4.48,38.83,-5.71,1.04,1.01,2.79,-1.07,3.05
5,56,-150,-124,-453,3870,0.14,0.31,-7.65,-1.24,-4.53,38.70,-5.72,1.05,1.04,2.71,-1.47,3.04
10,26,-146,-81,-443,3950,0.19,0.44,-7.77,-0.81,-4.43,39.50,-5.74,1.05,1.08,2.63,-1.05,3.04
3,18,-139,-66,-441,3920,0.19,0.51,-7.85,-0.66,-4.41,39.20,-5.76,1.05,1.11,2.75,-0.95,2.99
5,7,-125,-63,-407,3946,0.20,0.50,-7.82,-0.63,-4.07,39.46,-5.77,1.03,1.14,2.72,-0.77,2.86
6,7,-130,-40,-369,3902,0.22,0.49,-7.83,-0.40,-3.69,39.02,-5.76,1.02,1.17,2.69,-0.76,2.91
-2,-4,-146,-145,-294,3938,0.18,0.42,-7.94,-1.45,-2.94,39.38,-5.74,1.03,1.20,2.82,-0.58,3.07
-1,-6,-150,-158,-284,3912,0.16,0.34,-8.06,-1.58,-2.84,39.12,-5.73,1.04,1.23,2.80,-0.53,3.13
2,-4,-212,-214,-221,3839,0.15,0.28,-8.55,-2.14,-2.21,38.39,-5.71,1.05,1.27,2.75,-0.54,3.77
-2,-22,-247,-201,-255,3929,0.13,0.12,-9.20,-2.01,-2.55,39.29,-5.70,1.06,1.30,2.81,-0.22,4.22
1,-56,-384,-102,-263,4070,0.12,-0.23,-10.62,-1.02,-2.63,40.70,-5.68,1.06,1.35,2.76,0.40,5.73
4,-83,-431,-66,-418,3879,0.13,-0.72,-12.19,-0.66,-4.18,38.79,-5.70,1.04,1.39,2.72,0.97,6.51
-1,-61,-514,-22,-506,3892,0.11,-1.02,-14.11,-0.22,-5.06,38.92,-5.72,1.03,1.45,2.81,0.73,7.67
9,-56,-532,21,-473,3908,0.16,-1.26,-15.94,0.21,-4.73,39.08,-5.73,1.00,1.51,2.65,0.74,8.27
-4,-32,-534,37,-438,3891,0.12,-1.33,-17.60,0.37,-4.38,38.91,-5.74,0.97,1.58,2.87,0.41,8.69
-9,-32,-519,-12,-470,3846,0.05,-1.39,-19.01,-0.12,-4.70,38.46,-5.76,0.95,1.66,2.97,0.44,8.90
1,-23,-483,21,-395,3893,0.05,-1.39,-20.06,0.21,-3.95,38.93,-5.76,0.92,1.74,2.82,0.32,8.85
14,-16,-473,14,-399,3872,0.13,-1.35,-20.93,0.14,-3.99,38.72,-5.76,0.89,1.82,2.60,0.22,8.97
14,-10,-438,-37,-300,3886,0.20,-1.28,-21.51,-0.37,-3.00,38.86,-5.74,0.87,1.91,2.57,0.11,8.81
17,-2,-427,-39,-280,3908,0.29,-1.16,-21.97,-0.39,-2.80,39.08,-5.72,0.85,1.99,2.49,-0.04,8.81
10,1,-409,-62,-283,3953,0.32,-1.04,-22.26,-0.62,-2.83,39.53,-5.71,0.84,2.08,2.57,-0.11,8.73
14,-2,-419,-31,-343,3940,0.37,-0.95,-22.59,-0.31,-3.43,39.40,-5.69,0.82,2.17,2.49,-0.09,8.88
5,-11,-456,-22,-385,3919,0.37,-0.92,-23.12,-0.22,-3.85,39.19,-5.69,0.79,2.26,2.63,0.06,9.32
3,-11,-464,-52,-382,3907,0.35,-0.89,-23.64,-0.52,-3.82,39.07,-5.67,0.77,2.35,2.65,0.06,9.50
12,-12,-459,-53,-447,3925,0.39,-0.88,-24.07,-0.53,-4.47,39.25,-5.69,0.76,2.45,2.51,0.08,9.56
4,-12,-447,-17,-453,3895,0.37,-0.86,-24.39,-0.17,-4.53,38.95,-5.70,0.73,2.55,2.65,0.08,9.52
8,-18,-411,-57,-491,3906,0.38,-0.89,-24.46,-0.57,-4.91,39.06,-5.72,0.72,2.64,2.59,0.19,9.22
6,-11,-401,-25,-468,3905,0.38,-0.87,-24.46,-0.25,-4.68,39.05,-5.74,0.70,2.74,2.63,0.08,9.13
2,-15,-390,-79,-514,3899,0.36,-0.87,-24.39,-0.79,-5.14,38.99,-5.76,0.69,2.84,2.71,0.15,9.01
1,-15,-395,-82,-481,3933,0.33,-0.87,-24.36,-0.82,-4.81,39.33,-5.77,0.69,2.94,2.74,0.16,9.03
1,-10,-386,-88,-394,3913,0.30,-0.85,-24.28,-0.88,-3.94,39.13,-5.77,0.69,3.03,2.75,0.07,8.93
1,-14,-397,-146,-399,3917,0.28,-0.85,-24.27,-1.46,-3.99,39.17,-5.77,0.70,3.13,2.76,0.13,9.01
6,-10,-409,-127,-336,3876,0.28,-0.82,-24.34,-1.27,-3.36,38.76,-5.76,0.70,3.22,2.67,0.06,9.12
12,-9,-411,-142,-352,3893,0.33,-0.80,-24.41,-1.42,-3.52,38.93,-5.75,0.70,3.32,2.56,0.03,9.14
6,-5,-405,-141,-429,3898,0.33,-0.75,-24.44,-1.41,-4.29,38.98,-5.76,0.71,3.42,2.66,-0.05,9.09
14,-5,-404,-93,-402,3942,0.39,-0.70,-24.46,-0.93,-4.02,39.42,-5.76,0.71,3.52,2.52,-0.06,9.07
18,-14,-407,-29,-374,3978,0.46,-0.72,-24.50,-0.29,-3.74,39.78,-5.75,0.69,3.61,2.43,0.09,9.10
13,-16,-410,24,-332,3922,0.49,-0.74,-24.55,0.24,-3.32,39.22,-5.73,0.66,3.71,2.49,0.14,9.13
2,-14,-441,-53,-345,3854,0.45,-0.76,-24.79,-0.53,-3.45,38.54,-5.72,0.65,3.81,2.66,0.12,9.44
3,-9,-454,-86,-379,3875,0.43,-0.73,-25.08,-0.86,-3.79,38.75,-5.71,0.66,3.91,2.65,0.04,9.61
10,-16,-495,45,-398,3910,0.44,-0.76,-25.59,0.45,-3.98,39.10,-5.71,0.63,4.01,2.54,0.16,10.07
-2,-18,-507,-13,-383,3898,0.39,-0.79,-26.12,-0.13,-3.83,38.98,-5.71,0.60,4.11,2.74,0.22,10.29
3,-19,-552,-58,-274,3933,0.37,-0.83,-26.88,-0.58,-2.74,39.33,-5.69,0.59,4.22,2.66,0.25,10.85
15,-12,-563,-105,-290,3893,0.42,-0.82,-27.62,-1.05,-2.90,38.93,-5.67,0.58,4.33,2.45,0.15,11.11
10,-16,-609,-161,-269,3913,0.44,-0.84,-28.58,-1.61,-2.69,39.13,-5.66,0.58,4.44,2.51,0.21,11.73
3,-26,-619,-88,-300,3916,0.42,-0.91,-29.49,-0.88,-3.00,39.16,-5.64,0.57,4.56,2.62,0.39,12.02
4,-11,-629,-70,-359,3853,0.40,-0.89,-30.38,-0.70,-3.59,38.53,-5.63,0.57,4.68,2.61,0.15,12.32
22,-7,-636,-19,-359,3929,0.49,-0.84,-31.22,-0.19,-3.59,39.29,-5.62,0.55,4.80,2.29,0.09,12.57
2,-12,-645,21,-354,3909,0.46,-0.83,-32.04,0.21,-3.54,39.09,-5.61,0.51,4.93,2.61,0.18,12.83
14,-17,-650,48,-308,3947,0.50,-0.85,-32.80,0.48,-3.08,39.47,-5.59,0.49,5.06,2.40,0.28,13.05
13,-18,-648,92,-255,3912,0.53,-0.88,-33.47,0.92,-2.55,39.12,-5.58,0.46,5.19,2.40,0.32,13.18
10,-19,-642,66,-260,3913,0.53,-0.90,-34.04,0.66,-2.60,39.13,-5.57,0.43,5.33,2.44,0.35,13.26
11,-17,-650,-14,-252,3917,0.55,-0.92,-34.60,-0.14,-2.52,39.17,-5.55,0.41,5.47,2.41,0.34,13.45
5,-21,-651,-15,-266,3888,0.52,-0.95,-35.11,-0.15,-2.66,38.88,-5.53,0.39,5.60,2.50,0.42,13.57
13,-19,-650,-77,-280,3910,0.55,-0.97,-35.57,-0.77,-2.80,39.10,-5.51,0.38,5.75,2.36,0.40,13.66
13,-15,-637,-98,-312,3905,0.57,-0.97,-35.89,-0.98,-3.12,39.05,-5.50,0.38,5.89,2.35,0.34,13.61
8,-12,-585,-128,-355,3905,0.57,-0.94,-35.87,-1.28,-3.55,39.05,-5.49,0.38,6.03,2.42,0.29,13.15
6,-12,-567,-214,-347,3925,0.55,-0.92,-35.74,-2.14,-3.47,39.25,-5.49,0.38,6.17,2.46,0.28,12.95
18,-16,-523,-374,-330,3971,0.60,-0.93,-35.36,-3.74,-3.30,39.71,-5.48,0.38,6.31,2.26,0.34,12.47
3,-25,-523,-391,-339,3883,0.56,-0.99,-35.01,-3.91,-3.39,38.83,-5.48,0.38,6.45,2.50,0.50,12.37
23,-49,-565,-207,-256,3938,0.64,-1.19,-34.96,-2.07,-2.56,39.38,-5.47,0.38,6.59,2.16,0.92,12.70
24,-62,-619,-172,-280,3928,0.73,-1.45,-35.24,-1.72,-2.80,39.28,-5.46,0.37,6.73,2.11,1.20,13.21
34,-104,-752,37,-286,3968,0.86,-1.94,-36.30,0.37,-2.86,39.68,-5.44,0.34,6.87,1.91,2.01,14.58
27,-125,-789,83,-319,4004,0.94,-2.51,-37.49,0.83,-3.19,40.04,-5.43,0.30,7.02,1.99,2.52,15.17
31,-192,-902,157,-289,3963,1.03,-3.43,-39.24,1.57,-2.89,39.63,-5.41,0.26,7.18,1.89,3.85,16.55
22,-204,-922,166,-331,3928,1.07,-4.33,-40.94,1.66,-3.31,39.28,-5.41,0.20,7.34,2.02,4.33,17.12
22,-226,-958,201,-343,3941,1.09,-5.27,-42.69,2.01,-3.43,39.41,-5.40,0.15,7.51,2.00,4.98,17.83
29,-231,-963,208,-363,3962,1.16,-6.16,-44.29,2.08,-3.63,39.62,-5.40,0.09,7.68,1.87,5.36,18.25
26,-243,-958,86,-400,3907,1.20,-7.02,-45.71,0.86,-4.00,39.07,-5.40,0.03,7.86,1.91,5.84,18.54
28,-236,-951,92,-366,3878,1.25,-7.76,-46.94,0.92,-3.66,38.78,-5.39,-0.04,8.04,1.86,5.99,18.76
23,-215,-922,-13,-405,3882,1.27,-8.30,-47.87,-0.13,-4.05,38.82,-5.40,-0.08,8.23,1.94,5.85,18.73
18,-206,-894,-101,-376,3820,1.25,-8.72,-48.54,-1.01,-3.76,38.20,-5.40,-0.12,8.42,2.02,5.86,18.64
23,-139,-834,-169,-332,3836,1.27,-8.70,-48.77,-1.69,-3.32,38.36,-5.39,-0.15,8.61,1.93,4.85,18.16
24,-126,-826,-197,-358,3827,1.29,-8.60,-48.93,-1.97,-3.58,38.27,-5.39,-0.19,8.80,1.91,4.64,18.12
33,-88,-799,-113,-375,3836,1.36,-8.27,-48.91,-1.13,-3.75,38.36,-5.38,-0.22,9.00,1.75,3.98,17.86
46,-74,-789,-51,-370,3801,1.50,-7.90,-48.83,-0.51,-3.70,38.01,-5.38,-0.25,9.19,1.50,3.67,17.74
35,-3,-780,48,-471,3879,1.57,-7.13,-48.71,0.48,-4.71,38.79,-5.39,-0.30,9.38,1.65,2.37,17.61
29,9,-783,-3,-455,3827,1.59,-6.36,-48.61,-0.03,-4.55,38.27,-5.40,-0.34,9.57,1.75,1.98,17.59
22,41,-837,-99,-493,3847,1.56,-5.47,-48.86,-0.99,-4.93,38.47,-5.40,-0.37,9.76,1.86,1.23,18.09
23,52,-867,-97,-485,3883,1.55,-4.61,-49.26,-0.97,-4.85,38.83,-5.41,-0.39,9.96,1.85,0.81,18.42
25,80,-949,-97,-484,3890,1.54,-3.66,-50.12,-0.97,-4.84,38.90,-5.41,-0.41,10.15,1.83,0.10,19.31
22,95,-946,-71,-490,3830,1.52,-2.71,-50.88,-0.71,-4.90,38.30,-5.42,-0.43,10.36,1.88,-0.41,19.45
15,136,-939,22,-513,3860,1.46,-1.61,-51.52,0.22,-5.13,38.60,-5.43,-0.46,10.56,2.01,-1.35,19.53
24,140,-938,49,-504,3864,1.46,-0.60,-52.09,0.49,-5.04,38.64,-5.44,-0.48,10.77,1.88,-1.71,19.64
20,150,-918,77,-491,3857,1.44,0.38,-52.48,0.77,-4.91,38.57,-5.45,-0.51,10.98,1.95,-2.15,19.54
20,164,-909,88,-479,3954,1.42,1.34,-52.78,0.88,-4.79,39.54,-5.46,-0.53,11.19,1.97,-2.65,19.52
23,177,-863,-19,-446,3949,1.42,2.29,-52.77,-0.19,-4.46,39.49,-5.47,-0.53,11.40,1.92,-3.14,19.10
14,169,-844,-22,-425,3862,1.36,3.09,-52.64,-0.22,-4.25,38.62,-5.47,-0.52,11.61,2.08,-3.26,18.89
18,172,-818,-164,-363,4009,1.33,3.83,-52.36,-1.64,-3.63,40.09,-5.46,-0.51,11.82,2.02,-3.54,18.58
-1,164,-807,-182,-362,3809,1.19,4.45,-52.05,-1.82,-3.62,38.09,-5.46,-0.49,12.03,2.35,-3.61,18.38
8,177,-822,-111,-312,3832,1.12,5.08,-51.86,-1.11,-3.12,38.32,-5.44,-0.48,12.24,2.23,-4.02,18.44
-3,172,-854,-107,-344,4015,0.99,5.62,-51.88,-1.07,-3.44,40.15,-5.43,-0.46,12.45,2.43,-4.11,18.70
17,50,-923,72,-304,3981,1.00,5.36,-52.32,0.72,-3.04,39.81,-5.41,-0.46,12.66,2.11,-2.17,19.37
18,23,-935,95,-337,3987,1.01,4.97,-52.80,0.95,-3.37,39.87,-5.40,-0.48,12.87,2.09,-1.63,19.56
12,0,-912,162,-378,4026,0.98,4.47,-53.08,1.62,-3.78,40.26,-5.39,-0.50,13.08,2.19,-1.12,19.42
31,-7,-881,183,-342,3863,1.07,3.98,-53.15,1.83,-3.42,38.63,-5.38,-0.52,13.29,1.86,-0.85,19.15
16,6,-683,127,-325,3935,1.06,3.62,-52.00,1.27,-3.25,39.35,-5.37,-0.54,13.50,2.09,-0.93,17.17
9,6,-628,48,-346,3901,1.01,3.29,-50.63,0.48,-3.46,39.01,-5.34,-0.56,13.71,2.20,-0.82,16.34
21,-2,-527,-43,-321,3933,1.04,2.95,-48.78,-0.43,-3.21,39.33,-5.33,-0.55,13.90,2.00,-0.60,15.01
15,-4,-517,-18,-355,3882,1.02,2.63,-47.06,-0.18,-3.55,38.82,-5.32,-0.54,14.09,2.09,-0.48,14.48
15,6,-505,-121,-316,3856,1.01,2.41,-45.43,-1.21,-3.16,38.56,-5.31,-0.53,14.27,2.09,-0.57,13.96
11,0,-493,-123,-289,3920,0.98,2.17,-43.89,-1.23,-2.89,39.20,-5.30,-0.52,14.45,2.16,-0.41,13.46
5,-6,-521,-28,-347,3885,0.91,1.91,-42.68,-0.28,-3.47,38.85,-5.29,-0.51,14.62,2.26,-0.24,13.38
22,1,-532,-35,-287,3945,0.96,1.73,-41.66,-0.35,-2.87,39.45,-5.27,-0.50,14.78,1.98,-0.29,13.21
23,-3,-565,-27,-334,3907,1.00,1.54,-40.94,-0.27,-3.34,39.07,-5.26,-0.50,14.95,1.95,-0.18,13.29
6,-3,-581,-40,-279,3817,0.94,1.36,-40.39,-0.40,-2.79,38.17,-5.24,-0.49,15.11,2.22,-0.13,13.28
11,-2,-644,-205,-344,3945,0.91,1.22,-40.28,-2.05,-3.44,39.45,-5.23,-0.48,15.27,2.14,-0.10,13.77
7,-4,-656,-242,-327,3872,0.86,1.07,-40.25,-2.42,-3.27,38.72,-5.23,-0.48,15.43,2.22,-0.03,13.84
25,-9,-721,-104,-313,3934,0.93,0.91,-40.63,-1.04,-3.13,39.34,-5.21,-0.47,15.59,1.92,0.09,14.47
21,0,-745,-108,-372,3870,0.96,0.82,-41.11,-1.08,-3.72,38.70,-5.21,-0.46,15.76,1.97,-0.02,14.77
11,3,-819,-235,-351,3915,0.93,0.75,-41.99,-2.35,-3.51,39.15,-5.21,-0.46,15.93,2.12,-0.05,15.60
23,-2,-838,-156,-336,3855,0.98,0.67,-42.91,-1.56,-3.36,38.55,-5.20,-0.45,16.10,1.92,0.05,15.97
13,-12,-885,-101,-339,3925,0.96,0.53,-44.01,-1.01,-3.39,39.25,-5.19,-0.45,16.27,2.08,0.24,16.62
22,-7,-897,-90,-339,3944,1.00,0.43,-45.08,-0.90,-3.39,39.44,-5.18,-0.44,16.45,1.92,0.19,16.97
16,-23,-925,-32,-371,3884,1.00,0.25,-46.22,-0.32,-3.71,38.84,-5.18,-0.44,16.64,2.02,0.49,17.46
2,-7,-934,-82,-399,3922,0.91,0.18,-47.29,-0.82,-3.99,39.22,-5.19,-0.44,16.82,2.26,0.27,17.79
26,-23,-792,38,-343,3913,0.98,0.02,-47.40,0.38,-3.43,39.13,-5.16,-0.47,17.01,1.86,0.58,16.59
16,-23,-766,-1,-393,3854,0.98,-0.12,-47.33,-0.01,-3.93,38.54,-5.17,-0.48,17.20,2.02,0.62,16.33
14,-9,-709,-50,-395,3873,0.97,-0.16,-46.92,-0.50,-3.95,38.73,-5.18,-0.48,17.39,2.05,0.42,15.73
13,-7,-689,-16,-409,3880,0.95,-0.19,-46.43,-0.16,-4.09,38.80,-5.19,-0.48,17.57,2.08,0.40,15.42
12,1,-676,-18,-424,3862,0.93,-0.16,-45.91,-0.18,-4.24,38.62,-5.20,-0.49,17.76,2.11,0.28,15.16
9,20,-624,44,-404,3879,0.89,-0.03,-45.13,0.44,-4.04,38.79,-5.21,-0.51,17.94,2.17,-0.04,14.51
-6,34,-499,117,-445,3883,0.76,0.18,-43.66,1.17,-4.45,38.83,-5.22,-0.54,18.11,2.44,-0.31,13.07
4,39,-454,68,-373,3894,0.71,0.40,-42.06,0.68,-3.73,38.94,-5.22,-0.57,18.28,2.31,-0.44,12.28
18,24,-367,23,-406,3915,0.75,0.51,-40.09,0.23,-4.06,39.15,-5.23,-0.57,18.44,2.09,-0.24,11.04
4,21,-349,36,-352,3922,0.70,0.59,-38.21,0.36,-3.52,39.22,-5.21,-0.58,18.59,2.31,-0.21,10.41
7,-8,-347,34,-334,3962,0.67,0.48,-36.51,0.34,-3.34,39.62,-5.19,-0.58,18.74,2.26,0.27,9.96
1,-12,-356,-56,-280,3935,0.61,0.36,-35.03,-0.56,-2.80,39.35,-5.18,-0.58,18.88,2.36,0.36,9.66
20,-19,-340,-20,-230,3991,0.67,0.21,-33.60,-0.20,-2.30,39.91,-5.16,-0.59,19.01,2.04,0.52,9.15
11,-32,-337,-2,-142,3871,0.67,-0.01,-32.30,-0.02,-1.42,38.71,-5.13,-0.59,19.14,2.17,0.78,8.79
11,-44,-395,-149,-124,3933,0.67,-0.28,-31.48,-1.49,-1.24,39.33,-5.12,-0.59,19.26,2.16,1.05,9.07
18,-49,-463,-195,-123,3925,0.71,-0.55,-31.15,-1.95,-1.23,39.25,-5.10,-0.59,19.39,2.03,1.21,9.55
9,-31,-613,-263,-226,3876,0.70,-0.68,-31.78,-2.63,-2.26,38.76,-5.09,-0.59,19.51,2.17,0.97,10.97
11,-29,-649,-220,-216,3905,0.70,-0.79,-32.56,-2.20,-2.16,39.05,-5.08,-0.59,19.64,2.13,0.98,11.45
10,-15,-729,-168,-321,3902,0.69,-0.80,-33.75,-1.68,-3.21,39.02,-5.07,-0.59,19.78,2.15,0.76,12.41
13,-9,-740,-176,-296,3899,0.70,-0.78,-34.89,-1.76,-2.96,38.99,-5.06,-0.58,19.92,2.09,0.66,12.76
18,1,-741,-35,-391,3959,0.74,-0.69,-35.92,-0.35,-3.91,39.59,-5.06,-0.58,20.06,2.01,0.49,13.01
10,4,-731,-26,-398,3863,0.72,-0.60,-36.79,-0.26,-3.98,38.63,-5.07,-0.58,20.21,2.14,0.41,13.13
18,24,-690,22,-509,3900,0.76,-0.39,-37.32,0.22,-5.09,39.00,-5.09,-0.60,20.35,2.01,0.05,12.89
-1,20,-677,12,-424,3865,0.68,-0.23,-37.72,0.12,-4.24,38.65,-5.10,-0.61,20.50,2.33,0.07,12.86
16,8,-605,76,-399,4020,0.71,-0.16,-37.63,0.76,-3.99,40.20,-5.11,-0.63,20.65,2.07,0.24,12.22
0,5,-586,38,-396,3869,0.64,-0.11,-37.45,0.38,-3.96,38.69,-5.12,-0.64,20.80,2.34,0.28,12.00
9,-14,-576,-9,-326,3931,0.63,-0.19,-37.21,-0.09,-3.26,39.31,-5.11,-0.64,20.95,2.20,0.59,11.84
5,-15,-578,-43,-325,3898,0.60,-0.26,-37.02,-0.43,-3.25,38.98,-5.10,-0.64,21.10,2.27,0.62,11.79
11,-26,-578,51,-295,3956,0.60,-0.39,-36.84,0.51,-2.95,39.56,-5.08,-0.65,21.25,2.16,0.84,11.73
8,-24,-566,111,-293,3878,0.59,-0.50,-36.61,1.11,-2.93,38.78,-5.06,-0.68,21.39,2.20,0.86,11.56
7,-20,-510,23,-344,3889,0.58,-0.57,-36.06,0.23,-3.44,38.89,-5.06,-0.68,21.53,2.22,0.82,10.93
6,-21,-485,0,-378,3945,0.56,-0.64,-35.41,0.00,-3.78,39.45,-5.06,-0.68,21.68,2.25,0.85,10.55
1,-7,-399,-54,-352,3879,0.51,-0.62,-34.31,-0.54,-3.52,38.79,-5.06,-0.68,21.81,2.34,0.63,9.53
15,-8,-383,-38,-385,3900,0.55,-0.61,-33.21,-0.38,-3.85,39.00,-5.07,-0.67,21.94,2.11,0.64,9.11
3,2,-339,-67,-485,3878,0.51,-0.54,-31.96,-0.67,-4.85,38.78,-5.08,-0.68,22.07,2.31,0.47,8.42
1,2,-317,-56,-495,3850,0.47,-0.47,-30.70,-0.56,-4.95,38.50,-5.09,-0.68,22.19,2.36,0.45,7.91
0,41,-178,186,-553,3850,0.42,-0.17,-28.71,1.86,-5.53,38.50,-5.10,-0.70,22.31,2.40,-0.23,6.23
-3,52,-117,128,-527,3889,0.36,0.16,-26.55,1.28,-5.27,38.89,-5.12,-0.72,22.41,2.47,-0.49,5.17
8,35,-27,-41,-431,3957,0.37,0.36,-24.06,-0.41,-4.31,39.57,-5.12,-0.71,22.51,2.30,-0.29,3.79
8,27,-21,-44,-397,3925,0.38,0.49,-21.79,-0.44,-3.97,39.25,-5.13,-0.70,22.60,2.30,-0.22,3.17
12,19,-20,-52,-284,3913,0.42,0.56,-19.73,-0.52,-2.84,39.13,-5.12,-0.69,22.67,2.22,-0.12,2.64
14,17,-27,-57,-290,3907,0.46,0.60,-17.92,-0.57,-2.90,39.07,-5.11,-0.68,22.75,2.17,-0.11,2.25
1,8,-94,-124,-95,3946,0.42,0.59,-16.70,-1.24,-0.95,39.46,-5.09,-0.67,22.81,2.37,0.03,2.51
2,3,-138,-143,47,4058,0.39,0.55,-15.87,-1.43,0.47,40.58,-5.07,-0.66,22.88,2.36,0.11,2.67
-1,-25,-393,-396,-72,3924,0.35,0.34,-16.68,-3.96,-0.72,39.24,-5.06,-0.65,22.94,2.41,0.60,5.03
-1,-21,-491,-291,-169,3863,0.31,0.18,-18.01,-2.91,-1.69,38.63,-5.05,-0.64,23.02,2.42,0.58,6.18
7,-3,-629,-80,-197,3918,0.32,0.14,-20.05,-0.80,-1.97,39.18,-5.03,-0.64,23.10,2.29,0.32,7.84
-5,-27,-658,-63,-185,3928,0.26,-0.03,-22.06,-0.63,-1.85,39.28,-5.01,-0.64,23.18,2.48,0.74,8.57
8,-10,-697,76,-317,3915,0.28,-0.09,-24.10,0.76,-3.17,39.15,-5.00,-0.66,23.28,2.27,0.51,9.39
16,-2,-684,55,-431,3874,0.35,-0.10,-25.86,0.55,-4.31,38.74,-5.01,-0.67,23.38,2.13,0.39,9.71
17,-25,-621,118,-476,3965,0.42,-0.24,-27.07,1.18,-4.76,39.65,-5.03,-0.69,23.49,2.10,0.80,9.46
11,-3,-603,70,-438,3829,0.44,-0.23,-28.04,0.70,-4.38,38.29,-5.04,-0.70,23.60,2.19,0.47,9.53
10,-13,-602,-169,-385,3972,0.46,-0.29,-28.91,-1.69,-3.85,39.72,-5.04,-0.70,23.72,2.20,0.63,9.72
13,-13,-622,-244,-444,3876,0.49,-0.34,-29.81,-2.44,-4.44,38.76,-5.04,-0.69,23.83,2.15,0.64,10.10
9,-19,-709,-174,-462,4025,0.50,-0.42,-31.15,-1.74,-4.62,40.25,-5.05,-0.69,23.96,2.21,0.76,11.16
9,-14,-748,-118,-389,3929,0.50,-0.46,-32.60,-1.18,-3.89,39.29,-5.05,-0.68,24.09,2.21,0.69,11.83
-3,-24,-875,-234,-224,3828,0.43,-0.56,-34.68,-2.34,-2.24,38.28,-5.04,-0.68,24.23,2.41,0.88,13.40
8,-20,-902,-217,-227,3941,0.44,-0.63,-36.71,-2.17,-2.27,39.41,-5.03,-0.68,24.37,2.23,0.83,14.12
20,-3,-1020,-62,-223,3905,0.52,-0.59,-39.26,-0.62,-2.23,39.05,-5.01,-0.68,24.53,2.02,0.56,15.73
20,-15,-1045,32,-288,3918,0.59,-0.62,-41.71,0.32,-2.88,39.18,-4.99,-0.70,24.70,1.98,0.76,16.53
13,-2,-1161,0,-261,3893,0.61,-0.57,-44.62,0.00,-2.61,38.93,-4.97,-0.70,24.87,2.08,0.55,18.21
16,-2,-1178,43,-425,4005,0.65,-0.52,-47.35,0.43,-4.25,40.05,-4.98,-0.72,25.06,2.03,0.55,19.00
21,-5,-1208,-52,-322,3892,0.71,-0.50,-49.98,-0.52,-3.22,38.92,-4.97,-0.72,25.26,1.93,0.59,19.88
24,4,-1210,-4,-385,3846,0.78,-0.43,-52.36,-0.04,-3.85,38.46,-4.98,-0.73,25.47,1.86,0.43,20.46
19,1,-1205,-7,-394,3932,0.82,-0.38,-54.48,-0.07,-3.94,39.32,-4.99,-0.74,25.69,1.93,0.46,20.92
17,-9,-1198,-21,-363,3905,0.84,-0.40,-56.34,-0.21,-3.63,39.05,-4.99,-0.74,25.91,1.95,0.62,21.29
5,-19,-1149,4,-317,3902,0.79,-0.47,-57.71,0.04,-3.17,39.02,-4.97,-0.75,26.14,2.14,0.80,21.19
11,-19,-1130,101,-310,3921,0.78,-0.54,-58.83,1.01,-3.10,39.21,-4.96,-0.78,26.37,2.05,0.84,21.28
-7,-12,-1040,98,-225,3865,0.66,-0.56,-59.29,0.98,-2.25,38.65,-4.93,-0.81,26.61,2.35,0.76,20.61
20,-7,-1007,147,-323,3966,0.71,-0.55,-59.51,1.47,-3.23,39.66,-4.92,-0.85,26.85,1.91,0.70,20.36
23,1,-855,74,-371,3931,0.78,-0.49,-58.77,0.74,-3.71,39.31,-4.93,-0.88,27.08,1.85,0.57,18.86
26,-2,-805,98,-295,3915,0.86,-0.45,-57.81,0.98,-2.95,39.15,-4.91,-0.92,27.31,1.77,0.62,18.18
29,5,-676,131,-428,3901,0.95,-0.37,-56.15,1.31,-4.28,39.01,-4.92,-0.95,27.54,1.70,0.51,16.65
29,2,-642,179,-377,3899,1.04,-0.32,-54.45,1.79,-3.77,38.99,-4.92,-0.99,27.75,1.68,0.56,15.93
28,8,-529,57,-422,3887,1.10,-0.24,-52.23,0.57,-4.22,38.87,-4.93,-1.00,27.96,1.68,0.45,14.40
24,5,-483,49,-431,3849,1.14,-0.19,-49.96,0.49,-4.31,38.49,-4.94,-1.02,28.16,1.73,0.48,13.43
26,16,-364,-134,-456,3952,1.18,-0.07,-47.18,-1.34,-4.56,39.52,-4.94,-1.02,28.35,1.69,0.28,11.72
32,18,-347,-130,-423,3906,1.26,0.05,-44.58,-1.30,-4.23,39.06,-4.94,-1.02,28.52,1.57,0.21,10.92
17,9,-361,-148,-365,3864,1.24,0.10,-42.32,-1.48,-3.65,38.64,-4.93,-1.01,28.69,1.80,0.33,10.46
12,2,-370,-105,-279,3940,1.19,0.10,-40.35,-1.05,-2.79,39.40,-4.92,-1.01,28.85,1.89,0.44,10.04
22,5,-435,-69,-274,3859,1.20,0.12,-38.97,-0.69,-2.74,38.59,-4.90,-1.00,29.01,1.72,0.38,10.23
15,-6,-434,-26,-275,3939,1.17,0.07,-37.72,-0.26,-2.75,39.39,-4.89,-1.00,29.16,1.83,0.57,9.90
18,1,-423,63,-383,4004,1.17,0.07,-36.53,0.63,-3.83,40.04,-4.90,-1.01,29.31,1.79,0.46,9.50
16,1,-424,0,-345,3856,1.15,0.07,-35.46,0.00,-3.45,38.56,-4.89,-1.00,29.45,1.83,0.46,9.23
4,5,-388,-1,-382,3880,1.06,0.09,-34.28,-0.01,-3.82,38.80,-4.90,-1.00,29.58,2.04,0.39,8.62
9,-1,-359,10,-365,3880,1.01,0.08,-33.04,0.10,-3.65,38.80,-4.90,-1.00,29.71,1.98,0.48,8.05
8,0,-310,-81,-360,3955,0.95,0.07,-31.63,-0.81,-3.60,39.55,-4.90,-0.99,29.84,2.01,0.47,7.28
3,-2,-300,-10,-319,3888,0.88,0.05,-30.30,-0.10,-3.19,38.88,-4.89,-0.98,29.96,2.11,0.50,6.85
3,2,-301,-112,-325,3866,0.81,0.06,-29.10,-1.12,-3.25,38.66,-4.88,-0.97,30.08,2.12,0.43,6.55
9,0,-308,-117,-305,3955,0.78,0.05,-28.07,-1.17,-3.05,39.55,-4.87,-0.96,30.19,2.04,0.46,6.35
-4,-7,-329,-173,-156,3863,0.68,0.00,-27.27,-1.73,-1.56,38.63,-4.86,-0.96,30.30,2.26,0.58,6.32
1,-9,-343,-88,-215,3894,0.62,-0.05,-26.64,-0.88,-2.15,38.94,-4.84,-0.95,30.40,2.19,0.62,6.27
12,9,-385,-148,-279,3928,0.63,0.01,-26.32,-1.48,-2.79,39.28,-4.84,-0.94,30.51,2.02,0.33,6.54
17,8,-411,-120,-331,3943,0.67,0.06,-26.20,-1.20,-3.31,39.43,-4.83,-0.93,30.61,1.93,0.32,6.71
40,36,-418,-106,-380,3895,0.85,0.27,-26.13,-1.06,-3.80,38.95,-4.83,-0.92,30.72,1.52,-0.17,6.75
42,46,-389,-11,-434,3877,1.02,0.52,-25.89,-0.11,-4.34,38.77,-4.84,-0.92,30.82,1.44,-0.41,6.43
39,38,-365,104,-327,3852,1.15,0.70,-25.52,1.04,-3.27,38.52,-4.83,-0.94,30.92,1.45,-0.33,6.13
34,25,-359,91,-363,3902,1.25,0.79,-25.16,0.91,-3.63,39.02,-4.84,-0.96,31.02,1.50,-0.15,5.98
23,22,-327,59,-351,3915,1.26,0.84,-24.64,0.59,-3.51,39.15,-4.85,-0.96,31.12,1.67,-0.12,5.57
18,15,-323,71,-331,3907,1.25,0.85,-24.15,0.71,-3.31,39.07,-4.84,-0.98,31.22,1.74,-0.00,5.40
3,-3,-297,2,-279,3912,1.14,0.75,-23.54,0.02,-2.79,39.12,-4.83,-0.97,31.31,1.99,0.30,5.02
6,-4,-277,-20,-280,3897,1.06,0.65,-22.88,-0.20,-2.80,38.97,-4.81,-0.96,31.40,1.97,0.34,4.68
-4,-6,-206,-127,-329,3949,0.93,0.55,-21.85,-1.27,-3.29,39.49,-4.81,-0.95,31.49,2.16,0.39,3.82
1,-8,-206,-135,-358,3946,0.84,0.44,-20.92,-1.35,-3.58,39.46,-4.80,-0.94,31.58,2.10,0.45,3.58
-3,7,-229,-120,-368,3920,0.74,0.44,-20.22,-1.20,-3.68,39.20,-4.80,-0.92,31.66,2.20,0.22,3.59
2,2,-256,-84,-321,3888,0.68,0.41,-19.76,-0.84,-3.21,38.88,-4.80,-0.91,31.73,2.14,0.29,3.70
1,1,-280,-33,-232,3854,0.62,0.37,-19.50,-0.33,-2.32,38.54,-4.78,-0.90,31.81,2.16,0.32,3.83
-2,1,-283,-60,-286,3922,0.54,0.34,-19.27,-0.60,-2.86,39.22,-4.77,-0.89,31.89,2.23,0.32,3.79
4,3,-267,-9,-342,3894,0.51,0.33,-18.97,-0.09,-3.42,38.94,-4.77,-0.88,31.97,2.14,0.29,3.58
3,1,-245,30,-361,3919,0.48,0.30,-18.57,0.30,-3.61,39.19,-4.78,-0.87,32.04,2.18,0.32,3.28
10,8,-211,-61,-331,3902,0.49,0.32,-18.00,-0.61,-3.31,39.02,-4.78,-0.86,32.11,2.06,0.20,2.85
5,11,-224,-104,-309,3878,0.47,0.35,-17.57,-1.04,-3.09,38.78,-4.78,-0.84,32.18,2.14,0.14,2.84
-1,1,-181,-24,-301,3885,0.42,0.32,-16.91,-0.24,-3.01,38.85,-4.77,-0.83,32.25,2.25,0.30,2.31
3,4,-171,-88,-264,3928,0.40,0.32,-16.27,-0.88,-2.64,39.28,-4.76,-0.82,32.31,2.19,0.25,2.06
5,3,-240,-96,-223,3901,0.39,0.30,-16.10,-0.96,-2.23,39.01,-4.75,-0.80,32.38,2.15,0.26,2.60
6,2,-325,-78,-153,3921,0.39,0.29,-16.48,-0.78,-1.53,39.21,-4.73,-0.80,32.44,2.13,0.28,3.40
27,-6,-466,-52,-245,3936,0.51,0.22,-17.67,-0.52,-2.45,39.36,-4.72,-0.79,32.52,1.77,0.41,4.88
23,-1,-462,-38,-275,3890,0.60,0.19,-18.72,-0.38,-2.75,38.90,-4.70,-0.78,32.59,1.79,0.34,5.10
12,0,-474,4,-359,3937,0.61,0.17,-19.74,0.04,-3.59,39.37,-4.71,-0.77,32.67,1.96,0.33,5.44
12,-5,-474,11,-328,3913,0.63,0.12,-20.66,0.11,-3.28,39.13,-4.71,-0.76,32.75,1.96,0.41,5.66
3,13,-466,-65,-354,3804,0.58,0.19,-21.44,-0.65,-3.54,38.04,-4.71,-0.75,32.84,2.11,0.11,5.78
5,2,-458,-126,-304,3990,0.55,0.18,-22.09,-1.26,-3.04,39.90,-4.71,-0.73,32.92,2.08,0.28,5.86
0,5,-381,-56,-320,3907,0.50,0.20,-22.20,-0.56,-3.20,39.07,-4.70,-0.72,33.01,2.18,0.22,5.23
-2,6,-359,-20,-319,3940,0.44,0.21,-22.17,-0.20,-3.19,39.40,-4.70,-0.71,33.10,2.22,0.19,5.02
8,12,-250,45,-317,3884,0.44,0.27,-21.48,0.45,-3.17,38.84,-4.69,-0.70,33.19,2.06,0.08,3.92
3,10,-227,-43,-258,3865,0.42,0.30,-20.72,-0.43,-2.58,38.65,-4.67,-0.69,33.27,2.14,0.10,3.53
4,2,-260,-105,-133,3831,0.40,0.28,-20.23,-1.05,-1.33,38.31,-4.66,-0.68,33.35,2.12,0.22,3.68
0,-1,-284,-109,-148,3862,0.36,0.25,-19.94,-1.09,-1.48,38.62,-4.64,-0.68,33.43,2.19,0.27,3.80
9,-6,-423,-144,-154,3924,0.38,0.19,-20.53,-1.44,-1.54,39.24,-4.63,-0.67,33.51,2.04,0.37,5.12
-1,0,-461,-155,-236,3878,0.33,0.17,-21.29,-1.55,-2.36,38.78,-4.62,-0.66,33.60,2.20,0.27,5.62
11,-12,-576,2,-209,3973,0.37,0.08,-22.67,0.02,-2.09,39.73,-4.60,-0.66,33.69,2.00,0.49,6.92
-8,-3,-587,-38,-277,3869,0.28,0.05,-23.98,-0.38,-2.77,38.69,-4.59,-0.65,33.78,2.31,0.35,7.33
3,-5,-537,-8,-319,3881,0.27,0.02,-24.86,-0.08,-3.19,38.81,-4.59,-0.64,33.88,2.14,0.39,7.11
3,-15,-515,57,-467,3990,0.26,-0.08,-25.52,0.57,-4.67,39.90,-4.61,-0.65,33.99,2.15,0.57,7.07
1,-9,-399,-36,-430,3846,0.24,-0.12,-25.40,-0.36,-4.30,38.46,-4.62,-0.65,34.09,2.20,0.50,6.05
5,-5,-346,-35,-417,3893,0.25,-0.14,-24.97,-0.35,-4.17,38.93,-4.63,-0.65,34.19,2.14,0.44,5.49
3,-2,-187,2,-411,3876,0.24,-0.14,-23.61,0.02,-4.11,38.76,-4.65,-0.65,34.28,2.18,0.39,3.80
-3,-5,-145,-61,-402,3925,0.20,-0.16,-22.14,-0.61,-4.02,39.25,-4.65,-0.64,34.37,2.29,0.44,3.07
-2,-13,-113,-25,-331,3934,0.17,-0.22,-20.61,-0.25,-3.31,39.34,-4.66,-0.63,34.45,2.28,0.58,2.41
1,-17,-132,-57,-265,3921,0.16,-0.30,-19.36,-0.57,-2.65,39.21,-4.65,-0.62,34.53,2.24,0.66,2.26
-5,-17,-328,-94,-208,3915,0.11,-0.38,-19.42,-0.94,-2.08,39.15,-4.63,-0.61,34.60,2.34,0.68,3.93
-1,-12,-392,-84,-121,3895,0.09,-0.41,-19.87,-0.84,-1.21,38.95,-4.62,-0.61,34.68,2.27,0.61,4.57
-6,-7,-537,-60,-251,3902,0.05,-0.41,-21.16,-0.60,-2.51,39.02,-4.61,-0.60,34.77,2.36,0.53,6.11
9,-11,-537,-8,-311,3917,0.10,-0.44,-22.32,-0.08,-3.11,39.17,-4.60,-0.60,34.86,2.11,0.60,6.38
-1,-11,-534,12,-401,3839,0.08,-0.46,-23.34,0.12,-4.01,38.39,-4.62,-0.60,34.95,2.28,0.61,6.60
13,-4,-506,58,-445,3983,0.15,-0.44,-24.10,0.58,-4.45,39.83,-4.64,-0.61,35.05,2.05,0.50,6.54
11,1,-437,28,-459,3886,0.20,-0.39,-24.35,0.28,-4.59,38.86,-4.65,-0.62,35.14,2.07,0.41,6.01
4,-7,-424,-53,-334,3877,0.21,-0.39,-24.50,-0.53,-3.34,38.77,-4.65,-0.61,35.24,2.18,0.53,5.92
15,-14,-458,-152,-316,3932,0.28,-0.44,-24.85,-1.52,-3.16,39.32,-4.65,-0.60,35.34,1.99,0.65,6.28
5,-20,-455,-166,-305,3850,0.28,-0.52,-25.14,-1.66,-3.05,38.50,-4.65,-0.59,35.44,2.14,0.76,6.32
0,4,-445,-239,-278,3780,0.25,-0.44,-25.34,-2.39,-2.78,37.80,-4.64,-0.59,35.54,2.22,0.36,6.27
-3,6,-437,-210,-223,3986,0.21,-0.36,-25.47,-2.10,-2.23,39.86,-4.64,-0.58,35.64,2.28,0.31,6.23
12,-4,-496,-199,-198,3939,0.26,-0.35,-25.95,-1.99,-1.98,39.39,-4.62,-0.57,35.74,2.03,0.45,6.84
8,-9,-523,-227,-285,3918,0.28,-0.37,-26.54,-2.27,-2.85,39.18,-4.62,-0.56,35.85,2.08,0.53,7.20
5,-4,-629,-140,-269,3919,0.29,-0.36,-27.73,-1.40,-2.69,39.19,-4.61,-0.56,35.96,2.12,0.45,8.38
6,-2,-634,-106,-313,3899,0.29,-0.33,-28.82,-1.06,-3.13,38.99,-4.61,-0.55,36.08,2.10,0.40,8.68
8,-5,-556,98,-329,3885,0.31,-0.33,-29.33,0.98,-3.29,38.85,-4.61,-0.58,36.19,2.07,0.46,8.13
14,-3,-542,73,-383,3906,0.37,-0.32,-29.70,0.73,-3.83,39.06,-4.63,-0.60,36.31,1.96,0.44,8.09
2,-11,-501,116,-380,3942,0.34,-0.35,-29.79,1.16,-3.80,39.42,-4.64,-0.62,36.43,2.16,0.58,7.75
6,-6,-491,51,-356,3862,0.35,-0.35,-29.81,0.51,-3.56,38.62,-4.65,-0.64,36.55,2.11,0.51,7.66
9,-10,-464,67,-346,3890,0.37,-0.38,-29.66,0.67,-3.46,38.90,-4.66,-0.66,36.67,2.06,0.59,7.38
7,0,-458,30,-258,3946,0.37,-0.34,-29.48,0.30,-2.58,39.46,-4.64,-0.67,36.78,2.08,0.43,7.27
5,-4,-386,88,-220,3920,0.37,-0.33,-28.89,0.88,-2.20,39.20,-4.62,-0.68,36.90,2.10,0.50,6.51
4,3,-354,32,-261,3914,0.35,-0.28,-28.16,0.32,-2.61,39.14,-4.60,-0.69,37.01,2.11,0.38,6.04
0,15,-220,61,-376,3922,0.32,-0.16,-26.69,0.61,-3.76,39.22,-4.62,-0.70,37.12,2.19,0.17,4.53
3,-1,-173,74,-315,3915,0.30,-0.15,-25.07,0.74,-3.15,39.15,-4.61,-0.73,37.22,2.15,0.42,3.73
-2,-4,-105,27,-336,3895,0.26,-0.16,-23.21,0.27,-3.36,38.95,-4.62,-0.72,37.31,2.24,0.47,2.68
-3,-2,-77,36,-311,3901,0.22,-0.16,-21.36,0.36,-3.11,39.01,-4.62,-0.71,37.39,2.26,0.43,1.98
-3,-2,-16,-38,-303,3904,0.18,-0.15,-19.32,-0.38,-3.03,39.04,-4.61,-0.70,37.47,2.27,0.42,0.96
-3,0,-11,-36,-301,3904,0.14,-0.14,-17.45,-0.36,-3.01,39.04,-4.61,-0.69,37.54,2.28,0.38,0.45
0,-4,-14,-12,-275,3918,0.13,-0.15,-15.79,-0.12,-2.75,39.18,-4.60,-0.68,37.60,2.24,0.44,0.06
-2,-7,-20,-17,-252,3862,0.10,-0.18,-14.34,-0.17,-2.52,38.62,-4.58,-0.67,37.66,2.27,0.49,-0.26
-3,-18,-147,-178,-130,3914,0.07,-0.27,-13.80,-1.78,-1.30,39.14,-4.57,-0.66,37.72,2.29,0.69,0.68
-4,-17,-198,-176,-123,3928,0.04,-0.34,-13.63,-1.76,-1.23,39.28,-4.56,-0.66,37.77,2.30,0.69,1.07
20,-1,-342,-45,-253,3932,0.16,-0.32,-14.35,-0.45,-2.53,39.32,-4.55,-0.65,37.83,1.90,0.43,2.46
15,4,-382,-4,-262,3923,0.24,-0.26,-15.25,-0.04,-2.62,39.23,-4.53,-0.64,37.89,1.94,0.34,3.01
1,14,-392,54,-389,3908,0.22,-0.15,-16.11,0.54,-3.89,39.08,-4.55,-0.65,37.95,2.17,0.15,3.30
4,9,-379,55,-365,3933,0.22,-0.08,-16.81,0.55,-3.65,39.33,-4.56,-0.66,38.02,2.13,0.21,3.36
7,5,-261,155,-417,3884,0.24,-0.04,-16.72,1.55,-4.17,38.84,-4.58,-0.68,38.09,2.08,0.27,2.33
-2,7,-233,127,-454,3899,0.20,0.01,-16.47,1.27,-4.54,38.99,-4.59,-0.69,38.15,2.24,0.23,2.02
0,-2,-197,124,-511,3919,0.18,-0.01,-16.03,1.24,-5.11,39.19,-4.60,-0.70,38.22,2.22,0.38,1.60
0,-3,-189,21,-456,3918,0.17,-0.02,-15.58,0.21,-4.56,39.18,-4.62,-0.70,38.28,2.24,0.40,1.42
2,-10,-156,-176,-257,3879,0.16,-0.08,-14.97,-1.76,-2.57,38.79,-4.62,-0.69,38.34,2.20,0.52,0.98
-7,-13,-150,-172,-232,3852,0.10,-0.15,-14.39,-1.72,-2.32,38.52,-4.61,-0.68,38.39,2.36,0.58,0.78
0,-6,-155,-120,-173,3924,0.09,-0.18,-13.90,-1.20,-1.73,39.24,-4.60,-0.67,38.45,2.25,0.48,0.70
-6,2,-174,-182,-235,3909,0.05,-0.15,-13.57,-1.82,-2.35,39.09,-4.59,-0.66,38.50,2.35,0.34,0.77
-1,-2,-259,-119,-259,3908,0.04,-0.14,-13.79,-1.19,-2.59,39.08,-4.58,-0.65,38.56,2.27,0.39,1.54
5,0,-281,-61,-307,3932,0.06,-0.13,-14.13,-0.61,-3.07,39.32,-4.58,-0.63,38.62,2.17,0.35,1.80
3,-5,-267,4,-354,3885,0.07,-0.15,-14.34,0.04,-3.54,38.85,-4.59,-0.62,38.67,2.20,0.43,1.73
6,10,-241,-6,-311,3951,0.10,-0.07,-14.38,-0.06,-3.11,39.51,-4.59,-0.61,38.73,2.15,0.17,1.51
-1,4,-51,-5,-319,3917,0.09,-0.04,-13.25,-0.05,-3.19,39.17,-4.59,-0.60,38.78,2.26,0.25,-0.38
-1,4,-32,-35,-300,3910,0.07,-0.01,-12.12,-0.35,-3.00,39.10,-4.59,-0.58,38.83,2.26,0.23,-0.82
-3,0,-11,-22,-273,3923,0.05,-0.01,-10.98,-0.22,-2.73,39.23,-4.57,-0.57,38.87,2.30,0.29,-1.29
0,-5,-19,-23,-230,3925,0.04,-0.04,-9.99,-0.23,-2.30,39.25,-4.56,-0.56,38.91,2.24,0.37,-1.47
-4,-10,-115,-134,-112,3859,0.01,-0.10,-9.70,-1.34,-1.12,38.59,-4.55,-0.56,38.95,2.31,0.46,-0.73
-1,-10,-210,-171,-97,3907,0.01,-0.15,-10.01,-1.71,-0.97,39.07,-4.53,-0.55,38.99,2.26,0.47,0.15
2,-5,-362,-86,-226,3888,0.02,-0.16,-11.22,-0.86,-2.26,38.88,-4.52,-0.54,39.04,2.20,0.39,1.73
9,-4,-392,-11,-286,3855,0.07,-0.17,-12.48,-0.11,-2.86,38.55,-4.51,-0.52,39.09,2.08,0.37,2.29
8,4,-382,-35,-378,3903,0.11,-0.13,-13.57,-0.35,-3.78,39.03,-4.53,-0.52,39.14,2.08,0.23,2.47
0,2,-369,-12,-445,3920,0.10,-0.10,-14.46,-0.12,-4.45,39.20,-4.54,-0.51,39.20,2.22,0.26,2.57
7,11,-269,-3,-434,3918,0.13,-0.03,-14.66,-0.03,-4.34,39.18,-4.56,-0.51,39.26,2.11,0.09,1.76
1,3,-243,18,-364,3905,0.13,-0.01,-14.67,0.18,-3.64,39.05,-4.57,-0.51,39.32,2.21,0.21,1.54
4,-6,-168,13,-345,3898,0.14,-0.04,-14.23,0.13,-3.45,38.98,-4.59,-0.51,39.37,2.17,0.36,0.79
4,-5,-156,4,-354,3873,0.15,-0.07,-13.76,0.04,-3.54,38.73,-4.60,-0.50,39.43,2.17,0.35,0.57
-2,-6,-137,-16,-428,3859,0.12,-0.10,-13.22,-0.16,-4.28,38.59,-4.62,-0.50,39.48,2.28,0.37,0.27
-1,-6,-150,-30,-429,3915,0.10,-0.12,-12.81,-0.30,-4.29,39.15,-4.63,-0.49,39.53,2.28,0.37,0.27
0,-16,-114,-13,-243,3887,0.09,-0.21,-12.23,-0.13,-2.43,38.87,-4.62,-0.49,39.58,2.26,0.55,-0.18
-5,-16,-96,3,-219,3884,0.05,-0.29,-11.59,0.03,-2.19,38.84,-4.60,-0.49,39.63,2.34,0.57,-0.50
-3,-15,-36,-23,-252,3917,0.03,-0.35,-10.65,-0.23,-2.52,39.17,-4.59,-0.48,39.67,2.31,0.57,-1.24
-3,-11,-25,-19,-276,3917,0.01,-0.38,-9.74,-0.19,-2.76,39.17,-4.57,-0.47,39.71,2.31,0.52,-1.56
-5,5,-24,25,-352,3922,-0.02,-0.31,-8.91,0.25,-3.52,39.22,-4.59,-0.47,39.74,2.36,0.25,-1.78
-4,9,-37,48,-380,3908,-0.04,-0.23,-8.24,0.48,-3.80,39.08,-4.61,-0.48,39.77,2.36,0.17,-1.83
0,9,-24,-63,-256,3872,-0.04,-0.15,-7.57,-0.63,-2.56,38.72,-4.60,-0.47,39.81,2.29,0.14,-2.11
-2,5,-9,-93,-245,3875,-0.05,-0.10,-6.86,-0.93,-2.45,38.75,-4.59,-0.45,39.83,2.32,0.18,-2.42
-4,4,2,-51,-272,3908,-0.07,-0.07,-6.17,-0.51,-2.72,39.08,-4.58,-0.44,39.86,2.35,0.18,-2.68
-3,1,0,-33,-285,3900,-0.08,-0.06,-5.55,-0.33,-2.85,39.00,-4.58,-0.42,39.88,2.34,0.21,-2.82
2,-3,-10,-19,-298,3916,-0.06,-0.07,-5.06,-0.19,-2.98,39.16,-4.57,-0.41,39.90,2.25,0.27,-2.86
4,-3,-10,-29,-305,3915,-0.03,-0.08,-4.61,-0.29,-3.05,39.15,-4.57,-0.39,39.92,2.21,0.26,-2.97
4,3,-6,-49,-290,3917,-0.00,-0.05,-4.19,-0.49,-2.90,39.17,-4.56,-0.38,39.93,2.20,0.16,-3.11
5,7,-7,-29,-310,3900,0.03,-0.01,-3.81,-0.29,-3.10,39.00,-4.56,-0.36,39.95,2.17,0.07,-3.20
1,5,0,-35,-299,3899,0.03,0.03,-3.43,-0.35,-2.99,38.99,-4.56,-0.34,39.96,2.23,0.09,-3.35
0,4,1,-18,-296,3900,0.03,0.05,-3.08,-0.18,-2.96,39.00,-4.55,-0.33,39.98,2.24,0.09,-3.45
0,1,3,-26,-308,3892,0.03,0.05,-2.75,-0.26,-3.08,38.92,-4.55,-0.31,39.99,2.24,0.12,-3.55
-1,1,2,-30,-307,3895,0.02,0.05,-2.47,-0.30,-3.07,38.95,-4.55,-0.29,40.00,2.26,0.11,-3.61
1,4,-1,-29,-291,3919,0.02,0.07,-2.23,-0.29,-2.91,39.19,-4.54,-0.27,40.01,2.23,0.05,-3.64
1,6,-2,-35,-299,3908,0.03,0.10,-2.02,-0.35,-2.99,39.08,-4.54,-0.26,40.01,2.22,0.00,-3.69
4,5,-8,-25,-290,3907,0.05,0.12,-1.86,-0.25,-2.90,39.07,-4.53,-0.24,40.02,2.17,0.01,-3.68
6,5,-9,-27,-294,3905,0.08,0.14,-1.73,-0.27,-2.94,39.05,-4.52,-0.22,40.03,2.12,-0.01,-3.70
4,9,-9,-60,-305,3904,0.10,0.18,-1.61,-0.60,-3.05,39.04,-4.52,-0.20,40.03,2.15,-0.09,-3.73
4,11,-11,-32,-304,3896,0.11,0.23,-1.52,-0.32,-3.04,38.96,-4.52,-0.18,40.04,2.14,-0.15,-3.74
2,6,-3,-30,-314,3900,0.11,0.24,-1.39,-0.30,-3.14,39.00,-4.52,-0.17,40.05,2.17,-0.08,-3.84
1,5,-1,-27,-314,3899,0.11,0.25,-1.25,-0.27,-3.14,38.99,-4.52,-0.15,40.05,2.19,-0.08,-3.89
-1,8,4,-12,-335,3886,0.09,0.27,-1.10,-0.12,-3.35,38.86,-4.54,-0.14,40.06,2.23,-0.14,-3.97
-3,7,8,-28,-307,3902,0.06,0.29,-0.94,-0.28,-3.07,39.02,-4.54,-0.12,40.06,2.27,-0.14,-4.04
1,0,1,-19,-303,3901,0.06,0.26,-0.84,-0.19,-3.03,39.01,-4.53,-0.10,40.06,2.21,-0.03,-4.01
1,1,2,-30,-307,3911,0.06,0.24,-0.75,-0.30,-3.07,39.11,-4.53,-0.08,40.07,2.21,-0.05,-4.04
1,0,2,-26,-298,3917,0.06,0.22,-0.66,-0.26,-2.98,39.17,-4.52,-0.06,40.07,2.21,-0.04,-4.06
1,0,4,-32,-296,3925,0.06,0.19,-0.57,-0.32,-2.96,39.25,-4.52,-0.04,40.07,2.20,-0.04,-4.10
-2,-2,6,-29,-302,3900,0.04,0.16,-0.48,-0.29,-3.02,39.00,-4.51,-0.02,40.07,2.25,-0.01,-4.14
-3,-4,5,-5,-319,3915,0.02,0.12,-0.40,-0.05,-3.19,39.15,-4.53,-0.01,40.07,2.28,0.03,-4.15
-3,-9,4,-13,-307,3911,0.00,0.05,-0.33,-0.13,-3.07,39.11,-4.52,0.00,40.08,2.29,0.12,-4.16
-3,-13,5,-6,-331,3934,-0.02,-0.03,-0.27,-0.06,-3.31,39.34,-4.54,0.01,40.08,2.30,0.20,-4.18
-4,-17,24,31,-340,3897,-0.04,-0.13,-0.10,0.31,-3.40,38.97,-4.56,-0.00,40.08,2.33,0.30,-4.39
-2,-15,43,61,-365,3899,-0.05,-0.21,0.18,0.61,-3.65,38.99,-4.57,-0.02,40.08,2.31,0.30,-4.62
-6,-12,122,-22,-340,3906,-0.08,-0.26,0.90,-0.22,-3.40,39.06,-4.58,-0.01,40.07,2.38,0.27,-5.46
-7,-6,125,-44,-308,3905,-0.11,-0.27,1.57,-0.44,-3.08,39.05,-4.58,0.01,40.07,2.41,0.17,-5.65
-7,4,142,-46,-309,3893,-0.15,-0.22,2.28,-0.46,-3.09,38.93,-4.58,0.03,40.06,2.42,-0.01,-5.97
-4,6,149,-71,-320,3920,-0.16,-0.16,2.96,-0.71,-3.20,39.20,-4.58,0.05,40.05,2.38,-0.06,-6.20
-1,4,169,-11,-390,3914,-0.15,-0.12,3.70,-0.11,-3.90,39.14,-4.60,0.05,40.03,2.34,-0.05,-6.55
4,13,174,9,-434,3977,-0.11,-0.03,4.39,0.09,-4.34,39.77,-4.62,0.05,40.01,2.26,-0.21,-6.76
5,12,169,-10,-306,3977,-0.07,0.05,4.98,-0.10,-3.06,39.77,-4.60,0.06,39.99,2.22,-0.23,-6.86
4,5,166,-5,-288,3825,-0.04,0.07,5.50,-0.05,-2.88,38.25,-4.58,0.06,39.97,2.22,-0.13,-6.96
-2,3,177,82,-332,3866,-0.04,0.08,6.03,0.82,-3.32,38.66,-4.59,0.04,39.95,2.32,-0.09,-7.18
0,0,184,21,-278,3922,-0.04,0.07,6.55,0.21,-2.78,39.22,-4.57,0.04,39.92,2.28,-0.04,-7.36
-2,-5,155,-81,-260,3883,-0.05,0.04,6.84,-0.81,-2.60,38.83,-4.56,0.05,39.89,2.30,0.04,-7.18
-4,-7,125,-148,-215,3931,-0.07,-0.01,6.92,-1.48,-2.15,39.31,-4.55,0.07,39.87,2.34,0.07,-6.95
-3,-2,22,-171,-249,3909,-0.08,-0.02,6.36,-1.71,-2.49,39.09,-4.55,0.09,39.84,2.32,-0.01,-5.93
-3,2,12,-106,-255,3887,-0.09,-0.01,5.80,-1.06,-2.55,38.87,-4.54,0.11,39.82,2.32,-0.08,-5.71
1,0,8,-15,-377,3903,-0.07,-0.01,5.26,-0.15,-3.77,39.03,-4.56,0.11,39.80,2.26,-0.05,-5.54
1,-1,8,-10,-398,3910,-0.06,-0.01,4.79,-0.10,-3.98,39.10,-4.58,0.11,39.78,2.27,-0.04,-5.42
1,4,-9,-11,-369,3922,-0.05,0.01,4.25,-0.11,-3.69,39.22,-4.60,0.12,39.76,2.27,-0.12,-5.15
5,2,-9,-26,-351,3900,-0.01,0.03,3.77,-0.26,-3.51,39.00,-4.61,0.13,39.75,2.21,-0.10,-5.03
-4,-5,6,-64,-360,3911,-0.04,-0.01,3.43,-0.64,-3.60,39.11,-4.62,0.14,39.73,2.36,0.01,-5.07
-3,0,13,-62,-387,3915,-0.05,-0.01,3.17,-0.62,-3.87,39.15,-4.64,0.15,39.72,2.36,-0.07,-5.06
-5,-7,50,-77,-387,3928,-0.08,-0.05,3.16,-0.77,-3.87,39.28,-4.65,0.17,39.71,2.40,0.04,-5.37
-8,-4,69,-32,-344,3881,-0.12,-0.07,3.26,-0.32,-3.44,38.81,-4.67,0.18,39.69,2.47,-0.01,-5.56
-10,-9,91,-2,-355,3944,-0.17,-0.12,3.49,-0.02,-3.55,39.44,-4.68,0.17,39.68,2.52,0.09,-5.80
8,2,82,-8,-251,3974,-0.10,-0.09,3.64,-0.08,-2.51,39.74,-4.67,0.17,39.67,2.22,-0.09,-5.76
-2,-6,118,-76,-152,3947,-0.10,-0.12,4.00,-0.76,-1.52,39.47,-4.65,0.18,39.65,2.36,0.04,-6.15
-1,-3,107,-93,-119,3890,-0.10,-0.13,4.25,-0.93,-1.19,38.90,-4.63,0.19,39.63,2.34,-0.01,-6.11
-1,6,63,-138,-382,3924,-0.10,-0.08,4.21,-1.38,-3.82,39.24,-4.64,0.21,39.62,2.34,-0.17,-5.73
-3,7,64,-145,-403,3912,-0.10,-0.03,4.18,-1.45,-4.03,39.12,-4.65,0.22,39.60,2.38,-0.21,-5.73
0,9,84,-65,-383,3868,-0.09,0.03,4.27,-0.65,-3.83,38.68,-4.67,0.24,39.58,2.34,-0.26,-5.92
0,2,90,-21,-380,3939,-0.08,0.04,4.40,-0.21,-3.80,39.39,-4.69,0.24,39.57,2.35,-0.16,-6.00
1,6,153,54,-390,3882,-0.07,0.07,4.89,0.54,-3.90,38.82,-4.70,0.23,39.55,2.33,-0.23,-6.65
2,2,188,53,-401,3921,-0.05,0.08,5.55,0.53,-4.01,39.21,-4.71,0.22,39.52,2.32,-0.16,-7.11
-6,8,283,25,-361,3889,-0.08,0.12,6.72,0.25,-3.61,38.89,-4.73,0.21,39.50,2.46,-0.26,-8.20
-5,11,292,-67,-322,3900,-0.10,0.17,7.83,-0.67,-3.22,39.00,-4.73,0.23,39.47,2.45,-0.33,-8.54
-3,13,285,8,-230,3884,-0.11,0.24,8.78,0.08,-2.30,38.84,-4.71,0.23,39.43,2.41,-0.38,-8.72
-8,-2,285,-98,-142,3862,-0.15,0.20,9.64,-0.98,-1.42,38.62,-4.69,0.24,39.39,2.49,-0.15,-8.92
-6,5,260,-42,-190,3957,-0.17,0.21,10.27,-0.42,-1.90,39.57,-4.68,0.25,39.35,2.46,-0.26,-8.86
-4,4,249,-31,-207,3925,-0.18,0.21,10.76,-0.31,-2.07,39.25,-4.66,0.25,39.31,2.42,-0.25,-8.88
0,14,227,-30,-246,3876,-0.16,0.28,11.07,-0.30,-2.46,38.76,-4.64,0.26,39.26,2.35,-0.43,-8.77
-2,10,238,25,-221,3932,-0.16,0.31,11.41,0.25,-2.21,39.32,-4.62,0.26,39.22,2.37,-0.38,-8.94
-1,15,240,52,-340,3916,-0.15,0.37,11.73,0.52,-3.40,39.16,-4.63,0.25,39.17,2.35,-0.46,-9.03
-3,14,276,97,-380,3877,-0.15,0.42,12.24,0.97,-3.80,38.77,-4.64,0.24,39.12,2.39,-0.46,-9.46
-7,2,331,186,-460,3864,-0.18,0.39,13.04,1.86,-4.60,38.64,-4.65,0.23,39.07,2.46,-0.26,-10.12
-5,11,351,135,-467,3899,-0.19,0.42,13.88,1.35,-4.67,38.99,-4.66,0.22,39.02,2.44,-0.41,-10.49
-13,-2,453,250,-583,3961,-0.25,0.36,15.25,2.50,-5.83,39.61,-4.68,0.21,38.96,2.59,-0.19,-11.68
-6,-3,481,314,-647,3942,-0.26,0.31,16.66,3.14,-6.47,39.42,-4.69,0.21,38.89,2.49,-0.15,-12.26
-3,7,676,520,-718,3841,-0.25,0.32,19.12,5.20,-7.18,38.41,-4.70,0.20,38.81,2.45,-0.30,-14.51
1,12,751,560,-730,3933,-0.22,0.36,21.79,5.60,-7.30,39.33,-4.71,0.19,38.73,2.39,-0.39,-15.79
-22,13,1040,549,-688,3958,-0.34,0.41,25.95,5.49,-6.88,39.58,-4.73,0.19,38.62,2.78,-0.42,-19.25
-8,5,1113,588,-676,3907,-0.35,0.40,30.15,5.88,-6.76,39.07,-4.74,0.19,38.50,2.57,-0.29,-20.89
-25,11,1300,273,-430,3905,-0.47,0.42,35.06,2.73,-4.30,39.05,-4.74,0.18,38.36,2.87,-0.39,-23.67
-22,10,1335,42,-337,3866,-0.56,0.44,39.70,0.42,-3.37,38.66,-4.75,0.18,38.21,2.86,-0.38,-25.09
-18,3,1343,-280,-215,3957,-0.61,0.42,43.92,-2.80,-2.15,39.57,-4.75,0.21,38.03,2.81,-0.28,-26.18
-30,14,1334,-298,-197,3844,-0.73,0.46,47.67,-2.98,-1.97,38.44,-4.74,0.25,37.84,3.03,-0.48,-27.01
-38,-6,1229,-405,-17,3900,-0.89,0.38,50.40,-4.05,-0.17,39.00,-4.73,0.28,37.64,3.19,-0.16,-26.77
-36,-11,1172,-390,-116,3946,-1.02,0.27,52.51,-3.90,-1.16,39.46,-4.73,0.31,37.43,3.20,-0.07,-26.78
-31,-3,999,-316,3,3931,-1.11,0.23,53.35,-3.16,0.03,39.31,-4.72,0.34,37.22,3.15,-0.19,-25.50
-28,9,956,-312,-29,3919,-1.17,0.26,53.85,-3.12,-0.29,39.19,-4.71,0.38,37.00,3.11,-0.40,-25.24
-3,22,838,-244,-95,4029,-1.07,0.37,53.57,-2.44,-0.95,40.29,-4.69,0.41,36.79,2.70,-0.65,-24.15
-2,19,820,-174,30,3824,-0.97,0.45,53.22,-1.74,0.30,38.24,-4.68,0.43,36.58,2.64,-0.64,-23.89
0,35,805,-84,-201,3881,-0.88,0.62,52.81,-0.84,-2.01,38.81,-4.67,0.46,36.37,2.58,-0.95,-23.64
11,23,803,-86,-238,3885,-0.72,0.69,52.42,-0.86,-2.38,38.85,-4.65,0.49,36.16,2.36,-0.81,-23.50
4,18,759,-204,-169,3912,-0.63,0.73,51.81,-2.04,-1.69,39.12,-4.64,0.52,35.95,2.43,-0.76,-22.96
7,12,746,-120,-230,3924,-0.52,0.73,51.18,-1.20,-2.30,39.24,-4.63,0.56,35.75,2.34,-0.68,-22.67
-36,-23,694,-175,-342,3894,-0.69,0.52,50.30,-1.75,-3.42,38.94,-4.63,0.59,35.55,3.05,-0.10,-21.99
-18,3,673,-204,-431,3935,-0.73,0.49,49.37,-2.04,-4.31,39.35,-4.64,0.63,35.35,2.80,-0.50,-21.56
-9,12,590,-214,-338,3858,-0.71,0.51,48.03,-2.14,-3.38,38.58,-4.65,0.66,35.16,2.65,-0.67,-20.51
-19,-8,579,-217,-345,3898,-0.76,0.41,46.76,-2.17,-3.45,38.98,-4.65,0.70,34.97,2.82,-0.35,-20.09
-3,6,491,-278,-382,3921,-0.70,0.41,45.08,-2.78,-3.82,39.21,-4.66,0.73,34.79,2.56,-0.58,-18.91
-3,15,457,-244,-334,3888,-0.65,0.46,43.36,-2.44,-3.34,38.88,-4.66,0.76,34.62,2.55,-0.75,-18.18
19,21,320,-248,-270,3929,-0.47,0.54,40.98,-2.48,-2.70,39.29,-4.65,0.80,34.46,2.16,-0.88,-16.41
20,29,256,-180,-284,3919,-0.30,0.66,38.44,-1.80,-2.84,39.19,-4.65,0.83,34.30,2.09,-1.06,-15.23
37,38,155,-8,-215,3913,-0.04,0.83,35.54,-0.08,-2.15,39.13,-4.63,0.84,34.16,1.74,-1.25,-13.65
25,22,137,-59,-276,3847,0.11,0.88,32.82,-0.59,-2.76,38.47,-4.61,0.85,34.03,1.86,-1.03,-12.81
7,5,126,-51,-341,3911,0.15,0.82,30.31,-0.51,-3.41,39.11,-4.62,0.86,33.91,2.14,-0.75,-12.09
0,5,130,-31,-313,3913,0.13,0.77,28.07,-0.31,-3.13,39.13,-4.62,0.85,33.80,2.25,-0.73,-11.56
-2,1,130,-88,-288,3921,0.11,0.70,26.06,-0.88,-2.88,39.21,-4.60,0.88,33.70,2.28,-0.66,-11.05
1,4,125,-80,-307,3902,0.10,0.65,24.21,-0.80,-3.07,39.02,-4.60,0.91,33.60,2.23,-0.71,-10.55
4,8,109,-42,-290,3929,0.12,0.64,22.46,-0.42,-2.90,39.29,-4.58,0.91,33.51,2.17,-0.76,-9.97
4,9,106,-10,-265,3884,0.13,0.63,20.86,-0.10,-2.65,38.84,-4.56,0.90,33.43,2.16,-0.78,-9.54
1,6,113,-41,-293,3894,0.12,0.60,19.46,-0.41,-2.93,38.94,-4.55,0.90,33.35,2.20,-0.72,-9.25
-3,5,114,-60,-297,3919,0.09,0.57,18.21,-0.60,-2.97,39.19,-4.53,0.90,33.28,2.26,-0.70,-8.94
-7,10,122,-63,-251,3899,0.04,0.58,17.13,-0.63,-2.51,38.99,-4.51,0.91,33.21,2.33,-0.78,-8.74
-4,7,104,-59,-221,3955,0.01,0.56,16.06,-0.59,-2.21,39.55,-4.49,0.92,33.14,2.28,-0.73,-8.31
7,6,55,-29,-262,3892,0.05,0.54,14.79,-0.29,-2.62,38.92,-4.48,0.91,33.09,2.09,-0.71,-7.58
4,4,56,-28,-286,3897,0.07,0.51,13.65,-0.28,-2.86,38.97,-4.47,0.90,33.03,2.13,-0.66,-7.30
-1,4,56,-62,-284,3900,0.06,0.49,12.63,-0.62,-2.84,39.00,-4.45,0.91,32.98,2.20,-0.66,-7.04
-1,4,60,-68,-288,3920,0.05,0.46,11.73,-0.68,-2.88,39.20,-4.43,0.92,32.93,2.19,-0.66,-6.85
2,4,130,-56,-281,3872,0.05,0.44,11.35,-0.56,-2.81,38.72,-4.41,0.92,32.89,2.14,-0.65,-7.35
0,-4,161,-32,-271,3892,0.05,0.37,11.20,-0.32,-2.71,38.92,-4.40,0.91,32.84,2.16,-0.50,-7.57
-4,-11,282,-35,-330,3923,0.02,0.27,11.80,-0.35,-3.30,39.23,-4.41,0.90,32.80,2.24,-0.36,-8.74
-5,-2,300,-20,-352,3913,-0.01,0.23,12.45,-0.20,-3.52,39.13,-4.42,0.90,32.75,2.27,-0.48,-9.04
-8,3,290,-145,-304,3887,-0.06,0.22,12.97,-1.45,-3.04,38.87,-4.42,0.92,32.70,2.33,-0.57,-9.08
2,5,270,-111,-255,3946,-0.04,0.23,13.32,-1.11,-2.55,39.46,-4.41,0.94,32.64,2.17,-0.61,-8.99
-8,-1,177,-90,-275,3887,-0.09,0.20,13.07,-0.90,-2.75,38.87,-4.40,0.95,32.59,2.32,-0.52,-8.14
-5,4,156,-57,-301,3913,-0.11,0.21,12.71,-0.57,-3.01,39.13,-4.40,0.94,32.54,2.29,-0.59,-7.87
-2,-1,125,-55,-244,3881,-0.11,0.18,12.20,-0.55,-2.44,38.81,-4.38,0.94,32.49,2.23,-0.51,-7.47
-4,-7,126,-49,-249,3893,-0.12,0.12,11.75,-0.49,-2.49,38.93,-4.36,0.94,32.44,2.26,-0.40,-7.37
-3,-6,122,-114,-293,3894,-0.13,0.07,11.32,-1.14,-2.93,38.94,-4.36,0.96,32.40,2.24,-0.41,-7.22
-5,-5,129,-127,-291,3889,-0.15,0.03,10.98,-1.27,-2.91,38.89,-4.36,0.99,32.35,2.28,-0.42,-7.19
-4,2,168,-129,-314,3924,-0.16,0.04,10.90,-1.29,-3.14,39.24,-4.36,1.01,32.31,2.27,-0.54,-7.50
8,12,192,-114,-309,3927,-0.09,0.11,10.98,-1.14,-3.09,39.27,-4.36,1.03,32.27,2.07,-0.73,-7.72
-1,8,266,-59,-330,3940,-0.09,0.15,11.51,-0.59,-3.30,39.40,-4.38,1.03,32.22,2.21,-0.67,-8.47
-1,7,280,-16,-277,3931,-0.09,0.18,12.07,-0.16,-2.77,39.31,-4.37,1.01,32.17,2.21,-0.66,-8.72
2,4,283,33,-272,3934,-0.07,0.18,12.59,0.33,-2.72,39.34,-4.37,1.00,32.12,2.15,-0.61,-8.87
1,-1,283,41,-291,3921,-0.05,0.16,13.05,0.41,-2.91,39.21,-4.37,0.99,32.07,2.16,-0.52,-8.98
-13,-9,259,14,-298,3909,-0.13,0.09,13.33,0.14,-2.98,39.09,-4.36,0.97,32.02,2.40,-0.37,-8.84
-20,-16,254,27,-290,3899,-0.24,-0.02,13.54,0.27,-2.90,38.99,-4.36,0.96,31.96,2.54,-0.22,-8.84
-24,-13,217,-35,-294,3894,-0.36,-0.10,13.51,-0.35,-2.94,38.94,-4.36,0.94,31.91,2.63,-0.24,-8.51
-25,-18,215,-47,-294,3907,-0.48,-0.20,13.47,-0.47,-2.94,39.07,-4.36,0.93,31.86,2.68,-0.13,-8.48
-27,-24,227,-76,-341,3948,-0.59,-0.32,13.51,-0.76,-3.41,39.48,-4.38,0.94,31.80,2.76,0.00,-8.59
-29,-20,233,-42,-349,3904,-0.71,-0.41,13.58,-0.42,-3.49,39.04,-4.40,0.93,31.75,2.84,-0.03,-8.65
-50,-45,265,-2,-349,3931,-0.94,-0.65,13.84,-0.02,-3.49,39.31,-4.41,0.92,31.69,3.23,0.43,-8.98
-48,-49,271,49,-391,3913,-1.14,-0.88,14.11,0.49,-3.91,39.13,-4.43,0.91,31.64,3.27,0.57,-9.09
-66,-52,287,-21,-329,3889,-1.43,-1.11,14.45,-0.21,-3.29,38.89,-4.44,0.89,31.58,3.64,0.69,-9.30
-70,-64,287,-3,-357,3871,-1.71,-1.39,14.75,-0.03,-3.57,38.71,-4.46,0.88,31.52,3.80,0.97,-9.37
-44,-39,319,-18,-399,3950,-1.81,-1.49,15.22,-0.18,-3.99,39.50,-4.48,0.87,31.46,3.44,0.62,-9.75
-24,-24,325,-53,-341,3941,-1.78,-1.49,15.68,-0.53,-3.41,39.41,-4.51,0.86,31.40,3.14,0.39,-9.91
-5,-1,287,-89,-261,3899,-1.63,-1.34,15.87,-0.89,-2.61,38.99,-4.50,0.87,31.33,2.80,-0.01,-9.63
-8,-4,288,-75,-258,3879,-1.52,-1.23,16.04,-0.75,-2.58,38.79,-4.48,0.88,31.27,2.80,0.00,-9.67
-5,4,314,-20,-311,3927,-1.39,-1.09,16.35,-0.20,-3.11,39.27,-4.49,0.86,31.20,2.72,-0.16,-9.96
-3,5,330,-49,-314,3923,-1.27,-0.95,16.73,-0.49,-3.14,39.23,-4.50,0.85,31.14,2.66,-0.21,-10.18
-10,0,379,28,-418,3951,-1.21,-0.85,17.37,0.28,-4.18,39.51,-4.52,0.84,31.07,2.76,-0.15,-10.75
-14,7,376,31,-422,3915,-1.17,-0.72,17.92,0.31,-4.22,39.15,-4.54,0.83,30.99,2.82,-0.30,-10.85
-9,-4,363,10,-387,3894,-1.11,-0.68,18.35,0.10,-3.87,38.94,-4.56,0.82,30.92,2.73,-0.14,-10.84
-11,-2,368,-29,-358,3896,-1.07,-0.62,18.76,-0.29,-3.58,38.96,-4.58,0.81,30.85,2.76,-0.18,-10.97
-7,-1,371,-22,-412,3878,-1.00,-0.56,19.14,-0.22,-4.12,38.78,-4.60,0.81,30.77,2.69,-0.21,-11.09
-13,-6,366,-12,-411,3890,-0.98,-0.54,19.46,-0.12,-4.11,38.90,-4.62,0.81,30.69,2.78,-0.14,-11.11
-1,-3,352,10,-353,3920,-0.89,-0.51,19.66,0.10,-3.53,39.20,-4.63,0.80,30.61,2.58,-0.19,-11.04
-3,4,363,6,-359,3880,-0.82,-0.43,19.91,0.06,-3.59,38.80,-4.64,0.79,30.53,2.59,-0.32,-11.18
-4,9,411,-74,-404,3887,-0.76,-0.34,20.43,-0.74,-4.04,38.87,-4.66,0.80,30.45,2.60,-0.43,-11.71
-14,6,424,-107,-385,3885,-0.77,-0.26,20.97,-1.07,-3.85,38.85,-4.68,0.81,30.37,2.76,-0.41,-11.94
-5,8,448,-110,-297,3928,-0.72,-0.19,21.61,-1.10,-2.97,39.28,-4.67,0.84,30.28,2.61,-0.48,-12.29
-13,5,456,-53,-362,3896,-0.73,-0.14,22.23,-0.53,-3.62,38.96,-4.69,0.84,30.20,2.74,-0.45,-12.50
-4,12,469,4,-335,3932,-0.68,-0.05,22.87,0.04,-3.35,39.32,-4.70,0.83,30.10,2.59,-0.58,-12.76
-9,2,474,30,-349,3902,-0.67,-0.04,23.47,0.30,-3.49,39.02,-4.70,0.82,30.01,2.67,-0.43,-12.94
-9,2,447,62,-396,3940,-0.66,-0.02,23.85,0.62,-3.96,39.40,-4.71,0.81,29.92,2.67,-0.43,-12.80
-16,2,436,55,-370,3900,-0.69,-0.01,24.12,0.55,-3.70,39.00,-4.72,0.80,29.82,2.79,-0.43,-12.76
-11,1,415,-33,-348,3867,-0.69,0.00,24.24,-0.33,-3.48,38.67,-4.74,0.80,29.72,2.72,-0.41,-12.60
-12,2,415,-66,-387,3883,-0.69,0.01,24.35,-0.66,-3.87,38.83,-4.76,0.81,29.63,2.75,-0.44,-12.62
-6,32,461,-266,-334,3937,-0.66,0.21,24.73,-2.66,-3.34,39.37,-4.76,0.84,29.53,2.65,-0.97,-13.09
3,33,471,-340,-170,3892,-0.57,0.39,25.13,-3.40,-1.70,38.92,-4.75,0.87,29.43,2.48,-1.05,-13.26
2,23,526,-305,-156,3922,-0.50,0.49,25.82,-3.05,-1.56,39.22,-4.74,0.89,29.32,2.47,-0.94,-13.89
8,24,549,-281,-122,3904,-0.41,0.59,26.59,-2.81,-1.22,39.04,-4.73,0.92,29.22,2.34,-1.00,-14.26
4,18,584,-80,-148,3964,-0.34,0.64,27.49,-0.80,-1.48,39.64,-4.71,0.93,29.11,2.37,-0.93,-14.77
-9,1,562,34,-190,3912,-0.36,0.58,28.17,0.34,-1.90,39.12,-4.70,0.93,29.00,2.57,-0.65,-14.74
-20,-15,441,302,-199,3955,-0.45,0.43,28.05,3.02,-1.99,39.55,-4.69,0.92,28.89,2.76,-0.36,-13.67
-26,-20,398,322,-263,3947,-0.56,0.27,27.67,3.22,-2.63,39.47,-4.69,0.92,28.77,2.89,-0.23,-13.20
-18,-23,247,157,-226,3864,-0.61,0.10,26.41,1.57,-2.26,38.64,-4.68,0.91,28.67,2.78,-0.13,-11.60
-17,-21,215,108,-269,3884,-0.66,-0.04,25.08,1.08,-2.69,38.84,-4.68,0.90,28.57,2.77,-0.11,-10.99
-6,-3,184,-72,-302,3890,-0.63,-0.05,23.69,-0.72,-3.02,38.90,-4.66,0.92,28.47,2.59,-0.39,-10.38
2,3,179,-130,-302,3879,-0.55,-0.03,22.42,-1.30,-3.02,38.79,-4.66,0.94,28.39,2.44,-0.50,-10.01
8,18,204,-189,-418,3924,-0.45,0.08,21.42,-1.89,-4.18,39.24,-4.67,0.96,28.30,2.33,-0.78,-9.97
9,20,201,-168,-445,3927,-0.35,0.20,20.50,-1.68,-4.45,39.27,-4.69,0.98,28.22,2.29,-0.85,-9.71
2,21,159,-22,-391,3913,-0.30,0.30,19.42,-0.22,-3.91,39.13,-4.70,0.98,28.14,2.39,-0.90,-9.08
4,20,149,-17,-375,3920,-0.25,0.40,18.39,-0.17,-3.75,39.20,-4.71,0.97,28.07,2.35,-0.91,-8.74
3,6,146,-7,-353,3934,-0.20,0.39,17.44,-0.07,-3.53,39.34,-4.72,0.96,28.00,2.35,-0.69,-8.47
1,5,134,-7,-387,3935,-0.18,0.38,16.51,-0.07,-3.87,39.35,-4.73,0.96,27.93,2.38,-0.67,-8.13
-4,7,81,31,-389,3926,-0.18,0.39,15.36,0.31,-3.89,39.26,-4.74,0.95,27.87,2.47,-0.70,-7.39
-2,7,73,3,-342,3921,-0.18,0.39,14.27,0.03,-3.42,39.21,-4.75,0.94,27.82,2.44,-0.69,-7.05
1,1,100,-98,-232,3900,-0.15,0.36,13.45,-0.98,-2.32,39.00,-4.73,0.95,27.76,2.37,-0.60,-7.07
0,2,144,-89,-159,3827,-0.14,0.34,12.98,-0.89,-1.59,38.27,-4.71,0.96,27.71,2.37,-0.61,-7.32
3,11,215,-48,-242,3916,-0.11,0.37,13.00,-0.48,-2.42,39.16,-4.69,0.96,27.66,2.31,-0.76,-7.92
-5,10,222,-31,-315,3904,-0.13,0.39,13.05,-0.31,-3.15,39.04,-4.69,0.95,27.61,2.44,-0.74,-7.99
-7,5,239,43,-411,3919,-0.16,0.38,13.20,0.43,-4.11,39.19,-4.70,0.94,27.55,2.48,-0.66,-8.17
-6,9,239,53,-462,3922,-0.18,0.40,13.34,0.53,-4.62,39.22,-4.72,0.93,27.50,2.48,-0.72,-8.20
-6,-9,239,63,-438,3885,-0.20,0.31,13.47,0.63,-4.38,38.85,-4.73,0.93,27.45,2.49,-0.42,-8.22
-11,1,247,21,-488,3879,-0.24,0.28,13.63,0.21,-4.88,38.79,-4.74,0.92,27.39,2.59,-0.56,-8.32
-1,-4,235,75,-467,3873,-0.23,0.23,13.70,0.75,-4.67,38.73,-4.76,0.92,27.34,2.44,-0.46,-8.23
0,-3,226,62,-471,3864,-0.20,0.19,13.71,0.62,-4.71,38.64,-4.77,0.91,27.29,2.42,-0.46,-8.15
8,5,240,65,-416,3910,-0.13,0.20,13.80,0.65,-4.16,39.10,-4.78,0.90,27.23,2.29,-0.58,-8.29
2,8,235,46,-437,3911,-0.11,0.23,13.85,0.46,-4.37,39.11,-4.79,0.89,27.18,2.38,-0.63,-8.25
2,10,280,70,-381,3875,-0.09,0.27,14.18,0.70,-3.81,38.75,-4.80,0.88,27.12,2.37,-0.67,-8.71
5,13,299,77,-433,3885,-0.05,0.32,14.58,0.77,-4.33,38.85,-4.81,0.87,27.06,2.32,-0.73,-8.96
-3,9,332,-42,-451,3888,-0.06,0.34,15.15,-0.42,-4.51,38.88,-4.83,0.88,27.00,2.45,-0.68,-9.38
4,4,326,-71,-469,3930,-0.03,0.33,15.62,-0.71,-4.69,39.30,-4.85,0.89,26.94,2.35,-0.60,-9.44
-5,3,347,-27,-375,3902,-0.06,0.32,16.18,-0.27,-3.75,39.02,-4.86,0.88,26.88,2.50,-0.58,-9.74
-3,2,363,-41,-352,3951,-0.07,0.30,16.77,-0.41,-3.52,39.51,-4.87,0.87,26.81,2.48,-0.55,-10.02
-5,5,423,27,-410,3918,-0.09,0.30,17.68,0.27,-4.10,39.18,-4.88,0.87,26.74,2.52,-0.60,-10.74
-18,1,450,48,-417,3885,-0.19,0.27,18.65,0.48,-4.17,38.85,-4.89,0.86,26.66,2.76,-0.53,-11.20
-9,10,560,-36,-539,3916,-0.23,0.31,20.20,-0.36,-5.39,39.16,-4.91,0.87,26.58,2.64,-0.68,-12.51
-8,11,630,-31,-537,3817,-0.26,0.34,22.03,-0.31,-5.37,38.17,-4.93,0.87,26.50,2.64,-0.71,-13.54
-9,15,794,-122,-508,3896,-0.28,0.40,24.67,-1.22,-5.08,38.96,-4.95,0.89,26.40,2.67,-0.79,-15.57
-9,11,826,-83,-442,3913,-0.31,0.43,27.24,-0.83,-4.42,39.13,-4.96,0.90,26.29,2.69,-0.75,-16.46
-10,3,858,-152,-438,3921,-0.34,0.40,29.75,-1.52,-4.38,39.21,-4.98,0.93,26.17,2.72,-0.63,-17.34
-18,1,856,-221,-449,3917,-0.42,0.37,32.00,-2.21,-4.49,39.17,-4.99,0.96,26.05,2.87,-0.60,-17.86
-33,-5,871,-158,-465,3836,-0.58,0.30,34.11,-1.58,-4.65,38.36,-5.00,0.98,25.91,3.15,-0.50,-18.49
0,9,883,-125,-393,3992,-0.52,0.33,36.08,-1.25,-3.93,39.92,-5.01,1.01,25.77,2.64,-0.74,-19.07
-17,4,886,-73,-393,3913,-0.57,0.32,37.88,-0.73,-3.93,39.13,-5.03,1.02,25.62,2.92,-0.67,-19.52
-10,2,878,-73,-325,3915,-0.57,0.30,39.45,-0.73,-3.25,39.15,-5.01,1.04,25.46,2.81,-0.64,-19.82
-14,1,887,-98,-307,3924,-0.60,0.28,40.91,-0.98,-3.07,39.24,-5.00,1.07,25.30,2.87,-0.63,-20.24
-28,-8,891,-77,-354,3877,-0.71,0.20,42.26,-0.77,-3.54,38.77,-5.01,1.09,25.13,3.13,-0.48,-20.59
-18,6,870,-133,-239,3959,-0.75,0.22,43.34,-1.33,-2.39,39.59,-5.00,1.11,24.95,2.98,-0.71,-20.66
-6,9,869,-89,-334,3870,-0.71,0.25,44.31,-0.89,-3.34,38.70,-4.99,1.15,24.78,2.78,-0.78,-20.87
7,18,908,-156,-291,3890,-0.60,0.33,45.41,-1.56,-2.91,38.90,-4.98,1.18,24.60,2.54,-0.96,-21.45
-11,18,927,-130,-306,3946,-0.61,0.41,46.53,-1.30,-3.06,39.46,-4.97,1.21,24.41,2.81,-1.00,-21.87
-13,18,918,-52,-327,3949,-0.62,0.48,47.47,-0.52,-3.27,39.49,-4.96,1.21,24.22,2.84,-1.02,-22.00
-23,16,898,-75,-338,3873,-0.70,0.53,48.21,-0.75,-3.38,38.73,-4.96,1.22,24.03,3.02,-1.01,-21.99
-22,10,848,-104,-277,3879,-0.77,0.54,48.56,-1.04,-2.77,38.79,-4.94,1.24,23.84,3.02,-0.93,-21.64
-12,12,836,-76,-251,3902,-0.76,0.56,48.80,-0.76,-2.51,39.02,-4.92,1.26,23.64,2.85,-0.98,-21.58
-17,6,795,-23,-218,3822,-0.79,0.54,48.77,-0.23,-2.18,38.22,-4.91,1.27,23.45,2.93,-0.88,-21.20
-12,7,772,-9,-182,3977,-0.78,0.53,48.60,-0.09,-1.82,39.77,-4.89,1.28,23.25,2.84,-0.90,-20.94
-19,4,703,30,-276,3911,-0.82,0.50,48.03,0.30,-2.76,39.11,-4.88,1.28,23.06,2.96,-0.85,-20.20
-4,12,691,15,-270,3928,-0.76,0.52,47.44,0.15,-2.70,39.28,-4.87,1.28,22.87,2.70,-0.98,-19.93
-10,5,651,-4,-371,3962,-0.75,0.50,46.67,-0.04,-3.71,39.62,-4.87,1.28,22.69,2.79,-0.86,-19.38
-9,4,644,-12,-353,3879,-0.73,0.47,45.93,-0.12,-3.53,38.79,-4.88,1.28,22.50,2.77,-0.84,-19.12
-6,4,660,-52,-344,3901,-0.69,0.45,45.36,-0.52,-3.44,39.01,-4.88,1.28,22.32,2.72,-0.83,-19.10
-10,5,667,-71,-376,3907,-0.68,0.44,44.90,-0.71,-3.76,39.07,-4.90,1.29,22.14,2.79,-0.85,-19.03
-11,16,680,-228,-434,3932,-0.68,0.49,44.55,-2.28,-4.34,39.32,-4.91,1.33,21.97,2.81,-1.05,-19.03
-8,28,688,-318,-441,3960,-0.66,0.61,44.30,-3.18,-4.41,39.60,-4.91,1.36,21.79,2.76,-1.29,-19.02
-13,12,740,-244,-518,3938,-0.68,0.62,44.38,-2.44,-5.18,39.38,-4.92,1.39,21.61,2.84,-1.06,-19.46
-15,-10,765,-295,-610,3940,-0.70,0.50,44.61,-2.95,-6.10,39.40,-4.94,1.42,21.44,2.89,-0.70,-19.71
-10,5,883,-285,-553,3908,-0.69,0.48,45.53,-2.85,-5.53,39.08,-4.95,1.45,21.26,2.81,-0.94,-20.92
-16,12,913,-255,-542,3861,-0.72,0.51,46.55,-2.55,-5.42,38.61,-4.96,1.48,21.07,2.92,-1.07,-21.40
-8,29,972,-127,-435,3910,-0.70,0.63,47.82,-1.27,-4.35,39.10,-4.98,1.50,20.88,2.80,-1.38,-22.20
-10,35,969,-106,-399,3864,-0.69,0.78,48.95,-1.06,-3.99,38.64,-4.99,1.52,20.69,2.83,-1.53,-22.43
-6,30,904,85,-301,3915,-0.66,0.89,49.57,0.85,-3.01,39.15,-4.99,1.52,20.49,2.76,-1.48,-22.01
-15,18,877,190,-252,3915,-0.68,0.91,49.96,1.90,-2.52,39.15,-4.98,1.53,20.29,2.90,-1.31,-21.86
-14,12,744,253,-200,3916,-0.70,0.89,49.51,2.53,-2.00,39.16,-4.97,1.53,20.09,2.89,-1.21,-20.60
-11,7,707,242,-196,3923,-0.70,0.84,48.87,2.42,-1.96,39.23,-4.96,1.54,19.90,2.84,-1.12,-20.11
-12,-3,580,237,-110,3867,-0.70,0.74,47.52,2.37,-1.10,38.67,-4.95,1.54,19.71,2.85,-0.94,-18.68
-8,-17,524,214,-90,3920,-0.68,0.56,45.96,2.14,-0.90,39.20,-4.94,1.54,19.53,2.77,-0.68,-17.80
-5,-37,448,143,-129,3861,-0.64,0.28,44.10,1.43,-1.29,38.61,-4.92,1.55,19.35,2.71,-0.29,-16.68
-4,-21,440,77,-224,3876,-0.60,0.13,42.37,0.77,-2.24,38.76,-4.91,1.54,19.18,2.68,-0.48,-16.17
-5,-4,440,-23,-282,3887,-0.57,0.09,40.82,-0.23,-2.82,38.87,-4.90,1.54,19.02,2.68,-0.73,-15.77
-2,0,446,-29,-303,3928,-0.53,0.08,39.46,-0.29,-3.03,39.28,-4.89,1.54,18.86,2.61,-0.79,-15.47
-12,-3,480,3,-346,3841,-0.55,0.05,38.44,0.03,-3.46,38.41,-4.89,1.54,18.71,2.77,-0.73,-15.49
-6,-2,485,-4,-360,3939,-0.53,0.04,37.56,-0.04,-3.60,39.39,-4.89,1.53,18.56,2.67,-0.74,-15.30
-4,4,499,0,-316,3889,-0.50,0.06,36.84,0.00,-3.16,38.89,-4.89,1.53,18.41,2.63,-0.83,-15.23
-3,10,502,8,-302,3896,-0.47,0.11,36.22,0.08,-3.02,38.96,-4.88,1.52,18.27,2.60,-0.94,-15.09
-3,7,505,-57,-356,3864,-0.44,0.14,35.68,-0.57,-3.56,38.64,-4.89,1.52,18.12,2.60,-0.90,-14.96
-6,13,514,-73,-368,3934,-0.43,0.21,35.25,-0.73,-3.68,39.34,-4.90,1.52,17.98,2.65,-1.01,-14.92
-2,26,496,-29,-372,3899,-0.40,0.35,34.75,-0.29,-3.72,38.99,-4.90,1.51,17.85,2.58,-1.25,-14.63
-4,13,492,-47,-386,3905,-0.39,0.39,34.27,-0.47,-3.86,39.05,-4.91,1.51,17.71,2.61,-1.07,-14.46
-2,22,500,0,-353,3943,-0.36,0.49,33.90,0.00,-3.53,39.43,-4.91,1.51,17.57,2.57,-1.23,-14.42
5,12,496,-56,-376,3896,-0.29,0.51,33.53,-0.56,-3.76,38.96,-4.92,1.51,17.44,2.45,-1.09,-14.29
2,17,488,-65,-350,3870,-0.25,0.56,33.16,-0.65,-3.50,38.70,-4.93,1.51,17.31,2.49,-1.18,-14.11
-4,9,473,-74,-366,3945,-0.25,0.56,32.73,-0.74,-3.66,39.45,-4.94,1.51,17.18,2.58,-1.05,-13.87
-8,22,449,-147,-276,3983,-0.27,0.64,32.19,-1.47,-2.76,39.83,-4.92,1.53,17.05,2.64,-1.29,-13.52
-8,6,443,-137,-298,3859,-0.30,0.61,31.68,-1.37,-2.98,38.59,-4.91,1.55,16.92,2.64,-1.05,-13.33
-16,3,397,-113,-319,3933,-0.36,0.57,30.93,-1.13,-3.19,39.33,-4.89,1.57,16.80,2.77,-1.00,-12.74
-12,7,385,-106,-260,3915,-0.40,0.56,30.19,-1.06,-2.60,39.15,-4.87,1.59,16.68,2.71,-1.06,-12.44
-5,11,409,-175,-338,3893,-0.39,0.57,29.66,-1.75,-3.38,38.93,-4.87,1.62,16.56,2.60,-1.14,-12.50
-1,15,422,-218,-364,3871,-0.36,0.60,29.27,-2.18,-3.64,38.71,-4.87,1.65,16.45,2.54,-1.23,-12.51
3,24,474,-97,-332,3912,-0.30,0.69,29.23,-0.97,-3.32,39.12,-4.87,1.64,16.33,2.46,-1.39,-12.93
-6,22,493,-98,-299,3894,-0.31,0.75,29.32,-0.98,-2.99,38.94,-4.85,1.65,16.21,2.59,-1.38,-13.09
-7,68,535,-63,-348,3918,-0.32,1.09,29.65,-0.63,-3.48,39.18,-4.85,1.64,16.10,2.61,-2.18,-13.52
-15,82,555,-32,-297,3848,-0.38,1.48,30.07,-0.32,-2.97,38.48,-4.84,1.64,15.98,2.74,-2.52,-13.78
-7,50,552,-37,-360,3905,-0.39,1.64,30.43,-0.37,-3.60,39.05,-4.85,1.64,15.85,2.62,-2.08,-13.83
-2,38,534,-30,-329,3977,-0.36,1.71,30.64,-0.30,-3.29,39.77,-4.84,1.64,15.73,2.54,-1.91,-13.72
-5,21,484,-27,-337,3911,-0.35,1.67,30.53,-0.27,-3.37,39.11,-4.84,1.64,15.61,2.58,-1.64,-13.25
-12,14,489,-31,-389,3901,-0.39,1.58,30.46,-0.31,-3.89,39.01,-4.85,1.64,15.49,2.70,-1.51,-13.27
-12,7,489,-38,-390,3914,-0.43,1.47,30.40,-0.38,-3.90,39.14,-4.86,1.64,15.37,2.72,-1.37,-13.24
-1,16,489,-19,-390,3931,-0.39,1.42,30.34,-0.19,-3.90,39.31,-4.87,1.64,15.25,2.54,-1.49,-13.21
6,24,552,-87,-315,3867,-0.31,1.42,30.67,-0.87,-3.15,38.67,-4.86,1.64,15.13,2.41,-1.61,-13.81
-1,16,579,-32,-331,3882,-0.29,1.38,31.14,-0.32,-3.31,38.82,-4.85,1.64,15.01,2.51,-1.48,-14.14
-12,28,639,18,-390,3897,-0.33,1.41,31.92,0.18,-3.90,38.97,-4.86,1.64,14.88,2.69,-1.67,-14.83
-1,28,655,2,-330,3934,-0.31,1.44,32.73,0.02,-3.30,39.34,-4.86,1.64,14.75,2.51,-1.68,-15.15
-9,18,697,4,-390,3898,-0.33,1.41,33.71,0.04,-3.90,38.98,-4.86,1.64,14.61,2.64,-1.52,-15.74
-2,21,707,-29,-338,3923,-0.31,1.39,34.65,-0.29,-3.38,39.23,-4.86,1.64,14.48,2.53,-1.56,-16.04
-17,10,704,2,-480,3876,-0.38,1.32,35.48,0.02,-4.80,38.76,-4.87,1.64,14.34,2.79,-1.37,-16.20
-14,11,701,24,-427,3934,-0.43,1.25,36.21,0.24,-4.27,39.34,-4.88,1.65,14.19,2.76,-1.37,-16.34
-6,14,727,-19,-367,3902,-0.42,1.21,37.02,-0.19,-3.67,39.02,-4.88,1.65,14.05,2.64,-1.40,-16.75
-3,13,744,-7,-377,3907,-0.40,1.17,37.86,-0.07,-3.77,39.07,-4.89,1.65,13.90,2.59,-1.37,-17.08
-8,16,801,-52,-379,3888,-0.41,1.15,38.96,-0.52,-3.79,38.88,-4.90,1.65,13.74,2.67,-1.41,-17.82
-5,12,810,-78,-423,3914,-0.40,1.11,40.00,-0.78,-4.23,39.14,-4.91,1.66,13.58,2.63,-1.34,-18.13
-7,12,816,-84,-374,3939,-0.40,1.07,40.98,-0.84,-3.74,39.39,-4.92,1.67,13.42,2.67,-1.34,-18.41
-10,0,795,-115,-367,3907,-0.42,0.96,41.73,-1.15,-3.67,39.07,-4.94,1.69,13.25,2.72,-1.13,-18.40
-13,0,730,-138,-382,3920,-0.46,0.87,42.01,-1.38,-3.82,39.20,-4.95,1.71,13.09,2.79,-1.11,-17.90
-17,15,727,-146,-382,3960,-0.52,0.87,42.24,-1.46,-3.82,39.60,-4.96,1.74,12.92,2.87,-1.36,-17.91
-10,13,708,-137,-285,3879,-0.53,0.86,42.34,-1.37,-2.85,38.79,-4.94,1.77,12.75,2.76,-1.34,-17.76
-10,12,693,-127,-283,3947,-0.53,0.85,42.33,-1.27,-2.83,39.47,-4.92,1.79,12.58,2.75,-1.33,-17.61
-7,16,663,-155,-220,3932,-0.52,0.86,42.14,-1.55,-2.20,39.32,-4.90,1.81,12.41,2.69,-1.40,-17.29
-6,25,666,-179,-193,3888,-0.51,0.93,41.99,-1.79,-1.93,38.88,-4.88,1.83,12.25,2.66,-1.57,-17.26
-12,16,692,-128,-242,3872,-0.53,0.93,42.01,-1.28,-2.42,38.72,-4.86,1.85,12.08,2.75,-1.45,-17.47
-7,17,704,-107,-299,3920,-0.52,0.94,42.11,-1.07,-2.99,39.20,-4.84,1.86,11.91,2.66,-1.47,-17.58
1,16,694,-93,-293,3944,-0.46,0.95,42.13,-0.93,-2.93,39.44,-4.82,1.87,11.74,2.51,-1.46,-17.48
-4,5,688,-42,-328,3878,-0.44,0.88,42.11,-0.42,-3.28,38.78,-4.82,1.87,11.57,2.58,-1.27,-17.41
-2,12,661,-88,-380,3887,-0.41,0.87,41.93,-0.88,-3.80,38.87,-4.83,1.87,11.41,2.55,-1.38,-17.12
-9,-3,648,-2,-464,3922,-0.42,0.76,41.69,-0.02,-4.64,39.22,-4.84,1.88,11.24,2.66,-1.12,-16.93
-11,1,578,15,-464,3951,-0.45,0.69,41.05,0.15,-4.64,39.51,-4.85,1.88,11.08,2.70,-1.16,-16.16
-11,4,570,-28,-486,3913,-0.47,0.65,40.42,-0.28,-4.86,39.13,-4.86,1.89,10.92,2.72,-1.19,-15.92
-12,5,547,-140,-305,3938,-0.50,0.61,39.72,-1.40,-3.05,39.38,-4.84,1.91,10.76,2.73,-1.21,-15.54
-15,2,551,-155,-300,3875,-0.54,0.56,39.11,-1.55,-3.00,38.75,-4.82,1.94,10.60,2.78,-1.16,-15.41
-9,13,637,-137,-233,3831,-0.54,0.59,39.08,-1.37,-2.33,38.31,-4.80,1.95,10.45,2.68,-1.34,-16.11
0,25,666,-156,-264,3987,-0.48,0.68,39.24,-1.56,-2.64,39.87,-4.78,1.97,10.29,2.51,-1.57,-16.38
-5,16,695,-120,-366,3950,-0.47,0.71,39.55,-1.20,-3.66,39.50,-4.79,1.98,10.13,2.59,-1.44,-16.69
0,17,683,-87,-325,3906,-0.42,0.74,39.76,-0.87,-3.25,39.06,-4.79,1.98,9.98,2.50,-1.47,-16.62
-7,10,603,-54,-466,3887,-0.42,0.73,39.46,-0.54,-4.66,38.87,-4.80,1.99,9.82,2.61,-1.36,-15.85
-18,5,579,-109,-497,3907,-0.49,0.69,39.05,-1.09,-4.97,39.07,-4.81,2.00,9.66,2.81,-1.28,-15.53
-9,-11,430,-28,-437,3915,-0.49,0.55,37.77,-0.28,-4.37,39.15,-4.82,2.00,9.51,2.68,-0.99,-13.94
-18,-11,381,-20,-461,3912,-0.56,0.43,36.32,-0.20,-4.61,39.12,-4.83,2.00,9.37,2.84,-0.95,-13.15
-7,-16,304,24,-470,3936,-0.54,0.29,34.54,0.24,-4.70,39.36,-4.84,2.00,9.23,2.67,-0.83,-12.05
-7,-9,304,-1,-398,3864,-0.53,0.21,32.94,-0.01,-3.98,38.64,-4.85,2.00,9.10,2.67,-0.91,-11.64
-9,-13,396,-61,-487,3845,-0.53,0.11,32.06,-0.61,-4.87,38.45,-4.86,2.00,8.97,2.71,-0.82,-12.19
-11,-4,398,-62,-517,3887,-0.55,0.07,31.28,-0.62,-5.17,38.87,-4.88,2.00,8.85,2.75,-0.95,-12.00
0,-5,411,-119,-465,3904,-0.49,0.03,30.66,-1.19,-4.65,39.04,-4.89,2.01,8.73,2.57,-0.93,-11.94
-19,-11,421,-73,-449,3890,-0.56,-0.04,30.16,-0.73,-4.49,38.90,-4.91,2.01,8.61,2.89,-0.82,-11.89
-5,-5,398,-127,-423,3888,-0.53,-0.06,29.57,-1.27,-4.23,38.88,-4.92,2.02,8.49,2.68,-0.90,-11.54
-9,-1,391,-182,-466,3928,-0.53,-0.06,29.00,-1.82,-4.66,39.28,-4.94,2.04,8.38,2.75,-0.97,-11.33
-11,5,373,-188,-355,3821,-0.55,-0.03,28.38,-1.88,-3.55,38.21,-4.95,2.06,8.26,2.78,-1.09,-11.01
-1,9,347,-181,-397,3910,-0.50,0.03,27.66,-1.81,-3.97,39.10,-4.96,2.08,8.15,2.62,-1.18,-10.60
-7,7,287,-141,-303,3881,-0.49,0.07,26.64,-1.41,-3.03,38.81,-4.94,2.09,8.05,2.70,-1.16,-9.83
-5,8,272,-133,-284,3947,-0.47,0.11,25.64,-1.33,-2.84,39.47,-4.92,2.10,7.94,2.66,-1.19,-9.45
-1,1,232,-119,-268,3873,-0.43,0.11,24.49,-1.19,-2.68,38.73,-4.90,2.10,7.85,2.57,-1.09,-8.82
-13,5,211,-133,-289,3964,-0.47,0.13,23.33,-1.33,-2.89,39.64,-4.88,2.10,7.75,2.76,-1.16,-8.34
-4,-7,149,-67,-258,3929,-0.45,0.07,21.90,-0.67,-2.58,39.29,-4.87,2.10,7.66,2.61,-0.95,-7.46
-6,-9,136,-71,-228,3932,-0.44,0.01,20.54,-0.71,-2.28,39.32,-4.85,2.10,7.58,2.63,-0.90,-7.00
-4,-7,88,-89,-256,3899,-0.42,-0.03,19.02,-0.89,-2.56,38.99,-4.83,2.09,7.51,2.58,-0.92,-6.22
-3,-6,76,-86,-304,3877,-0.40,-0.07,17.59,-0.86,-3.04,38.77,-4.83,2.08,7.43,2.56,-0.92,-5.75
3,-40,52,-90,-358,3814,-0.34,-0.30,16.14,-0.90,-3.58,38.14,-4.84,2.07,7.37,2.45,-0.32,-5.19
-3,-19,70,-92,-349,3939,-0.32,-0.39,14.96,-0.92,-3.49,39.39,-4.84,2.06,7.31,2.54,-0.61,-5.04
-1,-5,112,-166,-309,3948,-0.30,-0.38,14.14,-1.66,-3.09,39.48,-4.83,2.07,7.25,2.49,-0.83,-5.19
3,-4,124,-112,-331,3899,-0.25,-0.37,13.49,-1.12,-3.31,38.99,-4.83,2.06,7.20,2.42,-0.84,-5.13
0,-33,151,-85,-375,3936,-0.22,-0.53,13.06,-0.85,-3.75,39.36,-4.84,2.04,7.15,2.46,-0.35,-5.24
-4,-22,155,-100,-404,3869,-0.23,-0.61,12.70,-1.00,-4.04,38.69,-4.85,2.04,7.10,2.53,-0.49,-5.18
-3,-7,136,-15,-331,3935,-0.22,-0.59,12.26,-0.15,-3.31,39.35,-4.85,2.02,7.05,2.51,-0.71,-4.91
-6,-8,133,-10,-345,3886,-0.24,-0.58,11.84,-0.10,-3.45,38.86,-4.85,2.00,7.00,2.57,-0.69,-4.78
-2,0,97,-8,-340,3879,-0.22,-0.53,11.25,-0.08,-3.40,38.79,-4.85,1.99,6.96,2.50,-0.82,-4.32
0,-3,93,12,-328,3906,-0.20,-0.49,10.69,0.12,-3.28,39.06,-4.85,1.97,6.91,2.46,-0.78,-4.15
0,3,47,72,-298,3901,-0.18,-0.42,9.91,0.72,-2.98,39.01,-4.85,1.95,6.87,2.46,-0.88,-3.56
3,-2,13,-37,-348,3894,-0.15,-0.39,9.00,-0.37,-3.48,38.94,-4.85,1.94,6.84,2.40,-0.81,-3.04
2,1,1,-62,-387,3896,-0.12,-0.35,8.11,-0.62,-3.87,38.96,-4.86,1.93,6.81,2.41,-0.86,-2.72
0,1,-1,-56,-381,3920,-0.11,-0.31,7.29,-0.56,-3.81,39.20,-4.87,1.91,6.78,2.44,-0.87,-2.50
-1,1,-2,-59,-370,3903,-0.10,-0.27,6.55,-0.59,-3.70,39.03,-4.88,1.90,6.75,2.46,-0.87,-2.30
1,0,-1,-57,-367,3909,-0.09,-0.24,5.89,-0.57,-3.67,39.09,-4.89,1.88,6.73,2.43,-0.86,-2.15
1,0,-1,-65,-371,3910,-0.07,-0.22,5.29,-0.65,-3.71,39.10,-4.89,1.87,6.71,2.43,-0.86,-2.00
1,1,0,-68,-385,3908,-0.06,-0.19,4.76,-0.68,-3.85,39.08,-4.91,1.85,6.69,2.43,-0.87,-1.87
0,-1,-1,-59,-386,3918,-0.05,-0.18,4.28,-0.59,-3.86,39.18,-4.92,1.84,6.67,2.45,-0.84,-1.75
0,0,0,-54,-375,3916,-0.05,-0.16,3.85,-0.54,-3.75,39.16,-4.92,1.82,6.66,2.45,-0.85,-1.65
-1,2,0,-55,-371,3897,-0.05,-0.13,3.47,-0.55,-3.71,38.97,-4.93,1.81,6.64,2.47,-0.88,-1.55
-1,0,2,-57,-377,3908,-0.05,-0.12,3.13,-0.57,-3.77,39.08,-4.94,1.79,6.63,2.48,-0.85,-1.48
0,1,1,-63,-376,3913,-0.04,-0.10,2.83,-0.63,-3.76,39.13,-4.95,1.78,6.62,2.46,-0.86,-1.40
0,0,0,-59,-385,3902,-0.04,-0.09,2.54,-0.59,-3.85,39.02,-4.96,1.76,6.61,2.47,-0.84,-1.32
1,1,1,-61,-374,3906,-0.03,-0.08,2.29,-0.61,-3.74,39.06,-4.97,1.75,6.60,2.45,-0.86,-1.27
1,0,0,-71,-378,3910,-0.02,-0.07,2.07,-0.71,-3.78,39.10,-4.98,1.73,6.59,2.46,-0.84,-1.20
0,1,0,-63,-378,3911,-0.02,-0.06,1.86,-0.63,-3.78,39.11,-4.99,1.72,6.59,2.48,-0.85,-1.15
0,1,0,-60,-374,3906,-0.02,-0.04,1.67,-0.60,-3.74,39.06,-5.00,1.70,6.58,2.48,-0.84,-1.10
1,0,1,-60,-376,3916,-0.01,-0.04,1.51,-0.60,-3.76,39.16,-5.01,1.69,6.57,2.47,-0.82,-1.07
1,0,0,-61,-383,3914,-0.00,-0.04,1.36,-0.61,-3.83,39.14,-5.02,1.67,6.57,2.47,-0.82,-1.02
1,0,0,-58,-372,3900,0.00,-0.03,1.22,-0.58,-3.72,39.00,-5.03,1.66,6.56,2.47,-0.81,-0.99
0,0,0,-56,-372,3908,0.00,-0.03,1.10,-0.56,-3.72,39.08,-5.04,1.64,6.56,2.49,-0.80,-0.96
0,1,0,-59,-372,3897,0.00,-0.02,0.99,-0.59,-3.72,38.97,-5.05,1.62,6.56,2.50,-0.81,-0.93
1,0,0,-57,-374,3908,0.01,-0.02,0.89,-0.57,-3.74,39.08,-5.05,1.61,6.55,2.48,-0.79,-0.91
0,1,0,-61,-376,3909,0.01,-0.01,0.80,-0.61,-3.76,39.09,-5.06,1.59,6.55,2.50,-0.80,-0.89
1,0,0,-62,-382,3904,0.01,-0.01,0.72,-0.62,-3.82,39.04,-5.07,1.58,6.55,2.49,-0.78,-0.87
1,0,-1,-58,-380,3907,0.02,-0.01,0.64,-0.58,-3.80,39.07,-5.08,1.56,6.54,2.50,-0.77,-0.84
1,1,-1,-58,-381,3913,0.02,-0.00,0.57,-0.58,-3.81,39.13,-5.09,1.55,6.54,2.50,-0.78,-0.82
2,0,0,-60,-374,3911,0.03,-0.00,0.52,-0.60,-3.74,39.11,-5.10,1.53,6.54,2.49,-0.76,-0.81
0,1,0,-58,-369,3907,0.03,0.01,0.46,-0.58,-3.69,39.07,-5.11,1.52,6.54,2.52,-0.77,-0.80
1,1,0,-61,-377,3911,0.03,0.01,0.42,-0.61,-3.77,39.11,-5.12,1.50,6.54,2.51,-0.76,-0.79
0,1,-1,-60,-369,3901,0.03,0.02,0.37,-0.60,-3.69,39.01,-5.13,1.48,6.54,2.53,-0.75,-0.77
0,0,0,-57,-370,3915,0.03,0.01,0.33,-0.57,-3.70,39.15,-5.13,1.47,6.54,2.53,-0.73,-0.77
0,1,0,-51,-372,3913,0.02,0.02,0.30,-0.51,-3.72,39.13,-5.14,1.45,6.53,2.54,-0.74,-0.76
0,0,0,-59,-378,3913,0.02,0.02,0.27,-0.59,-3.78,39.13,-5.15,1.44,6.53,2.54,-0.72,-0.75
0,1,0,-64,-381,3906,0.02,0.02,0.24,-0.64,-3.81,39.06,-5.16,1.42,6.53,2.55,-0.73,-0.75
1,1,0,-65,-379,3905,0.02,0.03,0.22,-0.65,-3.79,39.05,-5.17,1.41,6.53,2.54,-0.72,-0.74
1,0,1,-55,-383,3893,0.03,0.02,0.20,-0.55,-3.83,38.93,-5.18,1.39,6.53,2.54,-0.70,-0.74
0,1,0,-59,-370,3903,0.02,0.03,0.18,-0.59,-3.70,39.03,-5.19,1.38,6.53,2.56,-0.70,-0.73
0,1,0,-56,-368,3906,0.02,0.03,0.16,-0.56,-3.68,39.06,-5.20,1.36,6.53,2.57,-0.70,-0.73
0,0,0,-58,-376,3894,0.02,0.03,0.15,-0.58,-3.76,38.94,-5.21,1.34,6.53,2.57,-0.67,-0.72
0,0,0,-62,-381,3902,0.02,0.02,0.13,-0.62,-3.81,39.02,-5.22,1.33,6.53,2.58,-0.67,-0.72
1,0,0,-54,-377,3895,0.02,0.02,0.12,-0.54,-3.77,38.95,-5.23,1.31,6.53,2.57,-0.66,-0.72
0,0,0,-54,-376,3897,0.02,0.02,0.11,-0.54,-3.76,38.97,-5.24,1.30,6.53,2.59,-0.65,-0.71
0,1,0,-59,-378,3900,0.02,0.02,0.10,-0.59,-3.78,39.00,-5.25,1.28,6.53,2.59,-0.66,-0.71
0,1,0,-56,-380,3901,0.02,0.03,0.09,-0.56,-3.80,39.01,-5.26,1.27,6.53,2.60,-0.65,-0.71
0,0,0,-59,-379,3905,0.01,0.02,0.08,-0.59,-3.79,39.05,-5.27,1.25,6.53,2.60,-0.63,-0.70
0,-1,1,-60,-379,3893,0.01,0.02,0.08,-0.60,-3.79,38.93,-5.28,1.24,6.53,2.61,-0.60,-0.71
0,0,1,-59,-377,3908,0.01,0.01,0.08,-0.59,-3.77,39.08,-5.29,1.22,6.53,2.61,-0.61,-0.71
0,-1,0,-62,-379,3899,0.01,0.01,0.07,-0.62,-3.79,38.99,-5.30,1.21,6.53,2.62,-0.59,-0.70
0,0,0,-61,-380,3897,0.01,0.01,0.06,-0.61,-3.80,38.97,-5.31,1.20,6.53,2.63,-0.59,-0.70
0,0,0,-64,-377,3896,0.01,0.01,0.05,-0.64,-3.77,38.96,-5.32,1.18,6.53,2.63,-0.59,-0.70
0,0,1,-59,-372,3912,0.01,0.01,0.06,-0.59,-3.72,39.12,-5.33,1.16,6.53,2.64,-0.58,-0.71
0,0,1,-65,-380,3906,0.01,0.00,0.06,-0.65,-3.80,39.06,-5.34,1.15,6.53,2.64,-0.57,-0.71
0,0,0,-59,-379,3915,0.01,0.00,0.05,-0.59,-3.79,39.15,-5.35,1.14,6.53,2.65,-0.56,-0.70
0,0,-1,-65,-376,3909,0.01,0.00,0.04,-0.65,-3.76,39.09,-5.36,1.12,6.53,2.65,-0.56,-0.69
1,-1,1,-55,-386,3912,0.01,-0.00,0.04,-0.55,-3.86,39.12,-5.38,1.11,6.53,2.64,-0.53,-0.70
0,0,0,-56,-394,3913,0.01,-0.00,0.04,-0.56,-3.94,39.13,-5.39,1.10,6.53,2.66,-0.54,-0.69
0,1,1,-58,-384,3910,0.01,0.00,0.04,-0.58,-3.84,39.10,-5.40,1.08,6.53,2.67,-0.55,-0.70
0,0,1,-61,-380,3908,0.01,0.00,0.04,-0.61,-3.80,39.08,-5.41,1.07,6.53,2.68,-0.53,-0.70
-1,0,0,-65,-374,3895,0.00,0.00,0.04,-0.65,-3.74,38.95,-5.42,1.05,6.53,2.70,-0.52,-0.69
0,0,0,-62,-377,3893,0.00,0.00,0.03,-0.62,-3.77,38.93,-5.43,1.04,6.53,2.69,-0.51,-0.69
1,0,0,-61,-372,3899,0.01,0.00,0.03,-0.61,-3.72,38.99,-5.44,1.02,6.53,2.67,-0.51,-0.69
0,1,1,-62,-372,3900,0.01,0.01,0.03,-0.62,-3.72,39.00,-5.44,1.00,6.53,2.69,-0.51,-0.70
0,1,1,-57,-378,3909,0.01,0.01,0.04,-0.57,-3.78,39.09,-5.45,0.99,6.53,2.69,-0.51,-0.70
0,0,1,-62,-376,3909,0.01,0.01,0.04,-0.62,-3.76,39.09,-5.46,0.97,6.53,2.70,-0.48,-0.70
-1,0,1,-71,-373,3899,-0.00,0.01,0.04,-0.71,-3.73,38.99,-5.46,0.99,6.53,2.72,-0.49,-0.70
0,0,0,-69,-375,3897,-0.00,0.01,0.04,-0.69,-3.75,38.97,-5.47,1.00,6.53,2.71,-0.50,-0.69
0,0,0,-57,-369,3896,-0.00,0.01,0.03,-0.57,-3.69,38.96,-5.47,0.98,6.53,2.71,-0.49,-0.69
0,-1,0,-61,-374,3906,-0.00,0.00,0.03,-0.61,-3.74,39.06,-5.47,0.96,6.53,2.71,-0.46,-0.69
1,1,1,-56,-378,3906,0.01,0.01,0.03,-0.56,-3.78,39.06,-5.47,0.94,6.53,2.69,-0.49,-0.70
0,0,0,-58,-379,3902,0.00,0.01,0.03,-0.58,-3.79,39.02,-5.49,0.93,6.53,2.71,-0.46,-0.69
0,1,0,-61,-376,3900,0.00,0.01,0.03,-0.61,-3.76,39.00,-5.49,0.91,6.53,2.72,-0.47,-0.69
0,0,0,-63,-379,3900,0.00,0.01,0.02,-0.63,-3.79,39.00,-5.51,0.92,6.53,2.73,-0.46,-0.69
0,0,0,-62,-378,3903,0.00,0.01,0.02,-0.62,-3.78,39.03,-5.53,0.91,6.53,2.74,-0.45,-0.69
0,0,1,-58,-381,3909,0.00,0.01,0.03,-0.58,-3.81,39.09,-5.54,0.89,6.53,2.74,-0.44,-0.70
-1,0,0,-54,-379,3916,-0.00,0.01,0.02,-0.54,-3.79,39.16,-5.54,0.87,6.53,2.76,-0.44,-0.69
0,0,1,-53,-379,3912,-0.00,0.01,0.03,-0.53,-3.79,39.12,-5.54,0.86,6.53,2.74,-0.43,-0.70
0,0,0,-56,-376,3907,-0.00,0.01,0.02,-0.56,-3.76,39.07,-5.52,0.84,6.53,2.73,-0.42,-0.69
0,1,0,-61,-374,3906,-0.00,0.01,0.02,-0.61,-3.74,39.06,-5.51,0.86,6.53,2.73,-0.44,-0.69
1,0,0,-59,-370,3902,0.00,0.01,0.02,-0.59,-3.70,39.02,-5.49,0.86,6.53,2.70,-0.43,-0.69
1,0,1,-61,-377,3898,0.01,0.01,0.02,-0.61,-3.77,38.98,-5.50,0.87,6.53,2.71,-0.43,-0.70
0,1,0,-69,-375,3911,0.01,0.01,0.02,-0.69,-3.75,39.11,-5.50,0.89,6.53,2.72,-0.46,-0.69
1,1,0,-67,-374,3917,0.01,0.02,0.02,-0.67,-3.74,39.17,-5.49,0.90,6.53,2.70,-0.47,-0.69
1,0,0,-67,-369,3908,0.02,0.02,0.02,-0.67,-3.69,39.08,-5.48,0.92,6.53,2.69,-0.46,-0.69
1,0,0,-67,-370,3910,0.02,0.02,0.02,-0.67,-3.70,39.10,-5.46,0.93,6.53,2.68,-0.46,-0.69
0,0,1,-61,-379,3905,0.02,0.01,0.02,-0.61,-3.79,39.05,-5.48,0.92,6.53,2.71,-0.46,-0.70
0,0,1,-61,-378,3910,0.02,0.01,0.02,-0.61,-3.78,39.10,-5.49,0.91,6.53,2.71,-0.45,-0.70
0,0,0,-64,-376,3903,0.02,0.01,0.02,-0.64,-3.76,39.03,-5.50,0.93,6.53,2.72,-0.46,-0.69
0,1,-1,-63,-373,3906,0.01,0.02,0.01,-0.63,-3.73,39.06,-5.48,0.92,6.53,2.71,-0.48,-0.68
0,0,0,-54,-376,3902,0.01,0.01,0.01,-0.54,-3.76,39.02,-5.48,0.91,6.53,2.71,-0.45,-0.69
0,0,0,-54,-378,3912,0.01,0.01,0.01,-0.54,-3.78,39.12,-5.49,0.89,6.53,2.71,-0.44,-0.69
0,0,0,-60,-371,3902,0.01,0.01,0.01,-0.60,-3.71,39.02,-5.47,0.89,6.53,2.71,-0.44,-0.69
1,0,1,-57,-376,3902,0.02,0.01,0.01,-0.57,-3.76,39.02,-5.48,0.87,6.53,2.69,-0.43,-0.70
0,0,0,-65,-374,3904,0.01,0.01,0.01,-0.65,-3.74,39.04,-5.48,0.89,6.53,2.71,-0.44,-0.69
0,1,1,-62,-372,3906,0.01,0.01,0.02,-0.62,-3.72,39.06,-5.46,0.90,6.53,2.70,-0.46,-0.70
0,0,1,-58,-378,3903,0.01,0.01,0.02,-0.58,-3.78,39.03,-5.48,0.89,6.53,2.71,-0.44,-0.70
0,0,1,-62,-372,3896,0.01,0.01,0.03,-0.62,-3.72,38.96,-5.46,0.90,6.53,2.70,-0.45,-0.70
1,1,0,-61,-374,3901,0.02,0.02,0.02,-0.61,-3.74,39.01,-5.48,0.89,6.53,2.69,-0.46,-0.69
1,0,0,-55,-376,3907,0.02,0.02,0.02,-0.55,-3.76,39.07,-5.48,0.87,6.53,2.69,-0.44,-0.69
1,0,0,-58,-373,3901,0.02,0.01,0.02,-0.58,-3.73,39.01,-5.47,0.86,6.53,2.69,-0.43,-0.69
0,0,0,-52,-367,3916,0.02,0.01,0.02,-0.52,-3.67,39.16,-5.46,0.85,6.53,2.69,-0.42,-0.69
1,0,1,-54,-372,3904,0.03,0.01,0.02,-0.54,-3.72,39.04,-5.45,0.83,6.53,2.68,-0.41,-0.70
0,0,0,-58,-384,3899,0.02,0.01,0.02,-0.58,-3.84,38.99,-5.47,0.83,6.53,2.70,-0.41,-0.69
1,0,0,-71,-386,3912,0.03,0.01,0.02,-0.71,-3.86,39.12,-5.48,0.85,6.53,2.69,-0.42,-0.69
0,0,0,-66,-382,3900,0.02,0.01,0.02,-0.66,-3.82,39.00,-5.49,0.86,6.53,2.71,-0.43,-0.69
0,0,0,-56,-382,3900,0.02,0.01,0.01,-0.56,-3.82,39.00,-5.51,0.85,6.53,2.72,-0.42,-0.69
0,0,1,-56,-382,3904,0.02,0.01,0.02,-0.56,-3.82,39.04,-5.53,0.84,6.53,2.73,-0.42,-0.70
0,1,0,-59,-376,3915,0.02,0.01,0.02,-0.59,-3.76,39.15,-5.51,0.85,6.53,2.72,-0.44,-0.69
1,1,0,-58,-375,3901,0.02,0.02,0.02,-0.58,-3.75,39.01,-5.49,0.85,6.53,2.70,-0.44,-0.69
1,0,0,-61,-375,3900,0.03,0.02,0.01,-0.61,-3.75,39.00,-5.49,0.87,6.53,2.70,-0.43,-0.69
0,0,0,-63,-372,3907,0.02,0.01,0.01,-0.63,-3.72,39.07,-5.48,0.88,6.53,2.71,-0.44,-0.69
0,0,0,-60,-375,3900,0.02,0.01,0.01,-0.60,-3.75,39.00,-5.50,0.88,6.53,2.71,-0.44,-0.69
0,0,1,-56,-373,3908,0.02,0.01,0.02,-0.56,-3.73,39.08,-5.49,0.86,6.53,2.71,-0.43,-0.70
1,0,1,-63,-369,3913,0.02,0.01,0.02,-0.63,-3.69,39.13,-5.47,0.87,6.53,2.69,-0.43,-0.70
1,1,0,-62,-364,3908,0.03,0.02,0.02,-0.62,-3.64,39.08,-5.45,0.88,6.53,2.68,-0.45,-0.69
0,1,0,-63,-373,3901,0.02,0.02,0.02,-0.63,-3.73,39.01,-5.46,0.89,6.53,2.69,-0.46,-0.69
0,0,0,-62,-376,3900,0.02,0.02,0.02,-0.62,-3.76,39.00,-5.47,0.90,6.53,2.70,-0.45,-0.69
1,0,1,-55,-375,3894,0.03,0.02,0.02,-0.55,-3.75,38.94,-5.48,0.88,6.53,2.69,-0.44,-0.70
0,0,1,-60,-378,3899,0.02,0.01,0.02,-0.60,-3.78,38.99,-5.50,0.88,6.53,2.71,-0.44,-0.70
0,0,0,-70,-380,3897,0.02,0.01,0.02,-0.70,-3.80,38.97,-5.50,0.90,6.53,2.72,-0.45,-0.69
0,1,0,-66,-386,3890,0.02,0.02,0.02,-0.66,-3.86,38.90,-5.52,0.90,6.53,2.73,-0.47,-0.69
-1,0,2,-56,-380,3902,0.01,0.02,0.03,-0.56,-3.80,39.02,-5.53,0.89,6.53,2.75,-0.44,-0.71
-1,0,1,-64,-376,3893,0.00,0.01,0.03,-0.64,-3.76,38.93,-5.52,0.90,6.53,2.75,-0.45,-0.70
0,0,0,-58,-371,3899,0.00,0.01,0.03,-0.58,-3.71,38.99,-5.51,0.90,6.53,2.73,-0.45,-0.69
0,0,0,-57,-371,3902,0.00,0.01,0.03,-0.57,-3.71,39.02,-5.50,0.88,6.53,2.72,-0.44,-0.69
1,0,0,-56,-378,3898,0.01,0.01,0.02,-0.56,-3.78,38.98,-5.51,0.87,6.53,2.71,-0.43,-0.69
0,0,0,-58,-378,3905,0.01,0.01,0.02,-0.58,-3.78,39.05,-5.52,0.86,6.53,2.73,-0.43,-0.69
0,0,1,-62,-377,3905,0.01,0.01,0.03,-0.62,-3.77,39.05,-5.52,0.87,6.53,2.73,-0.44,-0.70
1,0,1,-64,-372,3906,0.01,0.01,0.03,-0.64,-3.72,39.06,-5.50,0.89,6.53,2.70,-0.44,-0.70
0,0,0,-58,-377,3905,0.01,0.01,0.03,-0.58,-3.77,39.05,-5.51,0.87,6.53,2.72,-0.43,-0.69
0,0,0,-58,-364,3906,0.01,0.01,0.02,-0.58,-3.64,39.06,-5.49,0.87,6.52,2.71,-0.43,-0.69
-6,13,-5,-40,-408,3859,-0.03,0.08,-0.01,-0.40,-4.08,38.59,-5.51,0.86,6.53,2.83,-0.65,-0.64
-15,10,8,-11,-382,3863,-0.12,0.14,0.04,-0.11,-3.82,38.63,-5.51,0.84,6.53,2.99,-0.61,-0.76
7,13,-20,-21,-444,3970,-0.06,0.20,-0.09,-0.21,-4.44,39.70,-5.53,0.83,6.53,2.65,-0.67,-0.49
-9,12,-13,53,-502,4015,-0.11,0.26,-0.16,0.53,-5.02,40.15,-5.54,0.82,6.53,2.91,-0.67,-0.54
-1,12,67,129,-871,3949,-0.11,0.30,0.27,1.29,-8.71,39.49,-5.56,0.82,6.53,2.80,-0.68,-1.32
-5,4,89,103,-874,3923,-0.13,0.30,0.78,1.03,-8.74,39.23,-5.57,0.81,6.52,2.87,-0.55,-1.63
-3,17,200,10,-680,3959,-0.13,0.37,1.93,0.10,-6.80,39.59,-5.59,0.81,6.52,2.85,-0.77,-2.85
-6,5,215,-27,-549,3975,-0.15,0.36,3.04,-0.27,-5.49,39.75,-5.61,0.81,6.50,2.92,-0.59,-3.25
-3,7,302,-111,-317,3887,-0.16,0.37,4.58,-1.11,-3.17,38.87,-5.60,0.82,6.49,2.86,-0.63,-4.37
-9,3,353,-150,-321,3898,-0.20,0.35,6.28,-1.50,-3.21,38.98,-5.59,0.84,6.46,2.96,-0.57,-5.21
-1,11,407,-184,-376,3814,-0.18,0.38,8.13,-1.84,-3.76,38.14,-5.59,0.87,6.43,2.84,-0.71,-6.12
-5,4,419,-111,-368,3905,-0.20,0.37,9.88,-1.11,-3.68,39.05,-5.58,0.89,6.39,2.90,-0.61,-6.65
-1,8,414,-164,-308,3914,-0.18,0.38,11.41,-1.64,-3.08,39.14,-5.57,0.91,6.34,2.83,-0.69,-6.98
-2,12,415,-193,-301,3894,-0.18,0.42,12.80,-1.93,-3.01,38.94,-5.56,0.93,6.29,2.84,-0.77,-7.33
-2,10,394,-95,-316,3820,-0.17,0.44,13.93,-0.95,-3.16,38.20,-5.55,0.95,6.24,2.83,-0.76,-7.42
-11,8,400,-68,-305,3965,-0.22,0.44,14.97,-0.68,-3.05,39.65,-5.53,0.96,6.18,2.97,-0.73,-7.72
-4,14,419,120,-247,3929,-0.22,0.48,16.03,1.20,-2.47,39.29,-5.52,0.95,6.11,2.86,-0.83,-8.14
-5,1,412,176,-233,3999,-0.23,0.44,16.94,1.76,-2.33,39.99,-5.51,0.94,6.05,2.87,-0.62,-8.30
0,22,526,22,-438,3972,-0.21,0.53,18.46,0.22,-4.38,39.72,-5.52,0.94,5.97,2.80,-0.96,-9.63
7,31,591,-8,-400,3790,-0.14,0.67,20.22,-0.08,-4.00,37.90,-5.53,0.93,5.89,2.67,-1.14,-10.60
-9,37,655,-28,-348,3760,-0.18,0.83,22.19,-0.28,-3.48,37.60,-5.52,0.93,5.81,2.93,-1.27,-11.62
-4,12,657,149,-229,4042,-0.19,0.82,23.98,1.49,-2.29,40.42,-5.51,0.92,5.71,2.85,-0.89,-12.07
1,29,735,-195,-355,3985,-0.17,0.91,26.06,-1.95,-3.55,39.85,-5.50,0.96,5.61,2.76,-1.19,-13.23
-23,12,747,-175,-338,3858,-0.29,0.89,28.01,-1.75,-3.38,38.58,-5.50,0.99,5.49,3.16,-0.94,-13.80
-5,12,693,-67,-299,3907,-0.29,0.88,29.44,-0.67,-2.99,39.07,-5.48,1.00,5.38,2.88,-0.95,-13.68
0,29,662,-146,-397,3865,-0.26,0.97,30.53,-1.46,-3.97,38.65,-5.48,1.03,5.26,2.79,-1.25,-13.68
5,21,656,-91,-482,3851,-0.21,1.00,31.48,-0.91,-4.82,38.51,-5.50,1.05,5.13,2.71,-1.15,-13.84
-5,23,651,-144,-476,3908,-0.22,1.04,32.31,-1.44,-4.76,39.08,-5.51,1.08,5.00,2.87,-1.20,-13.99
-19,14,618,-209,-414,3918,-0.31,1.02,32.84,-2.09,-4.14,39.18,-5.51,1.12,4.87,3.11,-1.08,-13.83
-13,8,602,-86,-374,3969,-0.36,0.97,33.23,-0.86,-3.74,39.69,-5.50,1.14,4.74,3.03,-0.98,-13.78
-4,21,581,-29,-349,3978,-0.35,1.00,33.45,-0.29,-3.49,39.78,-5.49,1.15,4.61,2.88,-1.19,-13.64
-8,21,596,-56,-352,3873,-0.36,1.03,33.74,-0.56,-3.52,38.73,-5.48,1.15,4.47,2.94,-1.20,-13.82
5,40,667,237,-262,3946,-0.29,1.17,34.44,2.37,-2.62,39.46,-5.47,1.15,4.34,2.72,-1.54,-14.58
-12,79,648,-101,-487,3934,-0.34,1.53,34.95,-1.01,-4.87,39.34,-5.48,1.17,4.20,3.00,-2.25,-14.53
-8,63,741,-192,-378,3921,-0.35,1.76,35.97,-1.92,-3.78,39.21,-5.48,1.21,4.06,2.94,-2.10,-15.56
-7,72,764,-7,-231,3867,-0.36,2.03,37.04,-0.07,-2.31,38.67,-5.46,1.23,3.91,2.92,-2.32,-16.00
-7,29,794,-103,-280,3820,-0.37,2.00,38.18,-1.03,-2.80,38.20,-5.45,1.25,3.76,2.91,-1.67,-16.52
-1,42,800,-147,-352,3782,-0.34,2.06,39.24,-1.47,-3.52,37.82,-5.44,1.29,3.60,2.81,-1.91,-16.81
-10,31,794,-139,-418,3842,-0.36,2.04,40.16,-1.39,-4.18,38.42,-5.45,1.33,3.44,2.96,-1.75,-16.97
-13,19,769,-206,-452,3932,-0.41,1.95,40.83,-2.06,-4.52,39.32,-5.46,1.37,3.28,3.02,-1.56,-16.91
-14,12,740,-155,-375,3907,-0.45,1.83,41.26,-1.55,-3.75,39.07,-5.46,1.41,3.12,3.05,-1.44,-16.75
-4,22,721,-102,-350,3863,-0.43,1.78,41.54,-1.02,-3.50,38.63,-5.44,1.44,2.95,2.88,-1.59,-16.64
-7,27,696,-83,-471,3913,-0.43,1.77,41.63,-0.83,-4.71,39.13,-5.45,1.46,2.79,2.94,-1.67,-16.43
-4,21,706,-58,-427,3876,-0.41,1.72,41.77,-0.58,-4.27,38.76,-5.47,1.47,2.62,2.89,-1.57,-16.54
-8,21,712,-74,-313,3856,-0.42,1.68,41.94,-0.74,-3.13,38.56,-5.45,1.49,2.46,2.95,-1.57,-16.61
-11,13,715,-10,-245,3847,-0.44,1.59,42.10,-0.10,-2.45,38.47,-5.43,1.50,2.29,2.99,-1.42,-16.66
11,22,724,-62,-366,3907,-0.33,1.56,42.31,-0.62,-3.66,39.07,-5.42,1.50,2.12,2.62,-1.56,-16.77
-32,11,729,-141,-419,3967,-0.49,1.47,42.53,-1.41,-4.19,39.67,-5.44,1.54,1.95,3.33,-1.38,-16.85
-5,19,781,-70,-287,4030,-0.48,1.44,43.04,-0.70,-2.87,40.30,-5.42,1.55,1.78,2.90,-1.50,-17.40
-8,18,728,-82,-265,3885,-0.48,1.41,43.18,-0.82,-2.65,38.85,-5.39,1.57,1.61,2.94,-1.48,-16.96
-8,15,707,-141,-380,3890,-0.48,1.36,43.17,-1.41,-3.80,38.90,-5.40,1.61,1.44,2.94,-1.44,-16.77
-9,20,710,-137,-341,3811,-0.49,1.34,43.18,-1.37,-3.41,38.11,-5.39,1.64,1.27,2.95,-1.53,-16.78
-22,9,728,24,-449,3839,-0.57,1.27,43.31,0.24,-4.49,38.39,-5.39,1.65,1.09,3.18,-1.34,-16.94
-3,13,756,-78,-444,3956,-0.53,1.22,43.59,-0.78,-4.44,39.56,-5.41,1.66,0.92,2.88,-1.39,-17.23
-11,16,722,-153,-540,3930,-0.55,1.19,43.63,-1.53,-5.40,39.30,-5.42,1.69,0.75,3.02,-1.44,-16.93
-8,3,703,-130,-475,3948,-0.54,1.09,43.56,-1.30,-4.75,39.48,-5.44,1.71,0.58,2.98,-1.23,-16.74
-9,21,696,-72,-553,3896,-0.54,1.11,43.45,-0.72,-5.53,38.96,-5.45,1.73,0.40,3.00,-1.52,-16.63
-19,10,698,-22,-365,3847,-0.60,1.06,43.36,-0.22,-3.65,38.47,-5.45,1.73,0.23,3.17,-1.33,-16.61
-5,19,627,-95,-365,3855,-0.57,1.07,42.85,-0.95,-3.65,38.55,-5.44,1.73,0.06,2.95,-1.47,-15.86
-2,16,614,-7,-291,3868,-0.53,1.06,42.31,-0.07,-2.91,38.68,-5.43,1.74,-0.11,2.88,-1.43,-15.60
11,24,666,-78,-312,3986,-0.41,1.10,42.14,-0.78,-3.12,39.86,-5.41,1.75,-0.28,2.64,-1.57,-15.99
-9,14,684,-72,-298,3844,-0.42,1.08,42.10,-0.72,-2.98,38.44,-5.39,1.76,-0.44,2.94,-1.41,-16.11
19,26,708,-49,-410,3857,-0.26,1.13,42.21,-0.49,-4.10,38.57,-5.40,1.76,-0.61,2.46,-1.61,-16.32
-38,6,720,-67,-443,3870,-0.47,1.05,42.38,-0.67,-4.43,38.70,-5.41,1.77,-0.78,3.40,-1.29,-16.45
-3,19,720,-22,-490,3845,-0.44,1.06,42.53,-0.22,-4.90,38.45,-5.42,1.78,-0.95,2.86,-1.50,-16.47
-33,13,720,18,-501,3847,-0.60,1.04,42.67,0.18,-5.01,38.47,-5.43,1.79,-1.12,3.37,-1.40,-16.48
-8,-2,692,-101,-505,3934,-0.59,0.92,42.63,-1.01,-5.05,39.34,-5.45,1.81,-1.29,3.00,-1.14,-16.22
-35,6,644,-33,-534,3850,-0.74,0.86,42.29,-0.33,-5.34,38.50,-5.46,1.82,-1.45,3.46,-1.25,-15.71
-12,1,545,-126,-690,3846,-0.74,0.78,41.39,-1.26,-6.90,38.46,-5.48,1.84,-1.62,3.12,-1.16,-14.63
-12,2,455,-64,-720,3916,-0.74,0.72,40.02,-0.64,-7.20,39.16,-5.49,1.85,-1.78,3.13,-1.17,-13.52
2,9,354,-82,-404,3949,-0.65,0.70,38.18,-0.82,-4.04,39.49,-5.50,1.85,-1.93,2.89,-1.27,-12.19
4,12,344,-49,-377,3881,-0.56,0.70,36.46,-0.49,-3.77,38.81,-5.50,1.85,-2.07,2.83,-1.31,-11.67
-3,22,434,-120,-334,3937,-0.53,0.77,35.46,-1.20,-3.34,39.37,-5.48,1.86,-2.21,2.92,-1.49,-12.17
-3,23,461,-70,-327,3918,-0.49,0.83,34.73,-0.70,-3.27,39.18,-5.46,1.87,-2.35,2.90,-1.53,-12.21
-2,21,587,11,-212,3899,-0.45,0.88,34.84,0.11,-2.12,38.99,-5.44,1.87,-2.49,2.86,-1.51,-13.29
-1,22,615,-96,-290,3958,-0.42,0.92,35.10,-0.96,-2.90,39.58,-5.42,1.88,-2.63,2.83,-1.55,-13.57
25,49,699,-52,-368,4025,-0.22,1.13,35.86,-0.52,-3.68,40.25,-5.42,1.88,-2.77,2.37,-2.02,-14.46
34,50,727,-125,-319,3999,0.01,1.32,36.71,-1.25,-3.19,39.99,-5.39,1.90,-2.92,2.15,-2.11,-14.89
69,84,728,-117,-424,3946,0.43,1.70,37.48,-1.17,-4.24,39.46,-5.41,1.91,-3.07,1.49,-2.75,-15.07
78,100,729,-117,-418,3836,0.86,2.14,38.18,-1.17,-4.18,38.36,-5.42,1.93,-3.22,1.23,-3.14,-15.23
22,46,678,-77,-484,3811,0.91,2.21,38.49,-0.77,-4.84,38.11,-5.42,1.95,-3.37,2.07,-2.34,-14.86
11,21,660,-109,-436,3968,0.89,2.12,38.67,-1.09,-4.36,39.68,-5.43,1.96,-3.52,2.25,-1.94,-14.74
-88,-56,610,-132,-534,3867,0.26,1.56,38.52,-1.32,-5.34,38.67,-5.44,1.99,-3.68,3.96,-0.61,-14.26
-106,-84,591,-111,-411,3907,-0.41,0.89,38.28,-1.11,-4.11,39.07,-5.45,1.99,-3.83,4.44,0.02,-14.03
-58,-42,511,-138,-402,3841,-0.72,0.55,37.57,-1.38,-4.02,38.41,-5.47,2.01,-3.98,3.81,-0.52,-13.16
-49,-47,493,-78,-352,3991,-0.95,0.21,36.82,-0.78,-3.52,39.91,-5.46,2.01,-4.12,3.74,-0.34,-12.81
-7,-8,494,-79,-489,3945,-0.90,0.14,36.15,-0.79,-4.89,39.45,-5.48,2.02,-4.27,3.09,-0.92,-12.63
-15,-2,509,-30,-471,3822,-0.90,0.11,35.64,-0.30,-4.71,38.22,-5.49,2.02,-4.41,3.22,-1.00,-12.62
-2,19,511,-99,-411,3786,-0.82,0.22,35.19,-0.99,-4.11,37.86,-5.50,2.02,-4.55,3.00,-1.36,-12.51
0,5,507,-14,-280,3917,-0.74,0.22,34.77,-0.14,-2.80,39.17,-5.49,2.02,-4.69,2.94,-1.14,-12.36
-3,6,483,-86,-356,3901,-0.68,0.24,34.24,-0.86,-3.56,39.01,-5.48,2.02,-4.82,2.97,-1.16,-12.01
-4,17,489,-141,-389,3762,-0.64,0.32,33.79,-1.41,-3.89,37.62,-5.49,2.04,-4.96,2.98,-1.36,-11.94
-5,14,536,-79,-495,3858,-0.61,0.37,33.68,-0.79,-4.95,38.58,-5.51,2.04,-5.09,2.99,-1.34,-12.30
-1,24,527,-56,-366,3853,-0.55,0.48,33.53,-0.56,-3.66,38.53,-5.50,2.04,-5.22,2.91,-1.52,-12.17
2,12,501,-67,-337,3911,-0.49,0.51,33.23,-0.67,-3.37,39.11,-5.49,2.04,-5.36,2.84,-1.35,-11.86
-5,11,501,-98,-385,3940,-0.47,0.52,32.97,-0.98,-3.85,39.40,-5.49,2.03,-5.49,2.94,-1.33,-11.78
4,16,535,-27,-412,4012,-0.40,0.57,32.93,-0.27,-4.12,40.12,-5.49,2.03,-5.62,2.78,-1.42,-12.05
-8,-1,534,-46,-318,3911,-0.41,0.51,32.90,-0.46,-3.18,39.11,-5.48,2.03,-5.75,2.96,-1.14,-12.02
-4,9,499,-66,-394,3957,-0.39,0.51,32.65,-0.66,-3.94,39.57,-5.48,2.03,-5.88,2.89,-1.30,-11.65
-7,12,501,-83,-447,3848,-0.39,0.53,32.44,-0.83,-4.47,38.48,-5.49,2.03,-6.01,2.95,-1.35,-11.60
-11,19,548,-54,-361,3822,-0.42,0.59,32.54,-0.54,-3.61,38.22,-5.49,2.03,-6.14,3.01,-1.48,-12.01
-5,23,523,-97,-322,3905,-0.41,0.68,32.48,-0.97,-3.22,39.05,-5.47,2.03,-6.27,2.91,-1.56,-11.77
-5,17,451,-127,-384,3871,-0.40,0.71,31.98,-1.27,-3.84,38.71,-5.48,2.03,-6.39,2.91,-1.48,-11.02
8,19,450,-180,-392,3989,-0.31,0.76,31.53,-1.80,-3.92,39.89,-5.48,2.07,-6.52,2.69,-1.54,-10.89
-13,5,489,-47,-569,4017,-0.36,0.71,31.36,-0.47,-5.69,40.17,-5.50,2.07,-6.64,3.03,-1.32,-11.16
8,22,504,-62,-530,3888,-0.27,0.77,31.30,-0.62,-5.30,38.88,-5.51,2.08,-6.77,2.69,-1.60,-11.26
3,21,517,-133,-298,3910,-0.23,0.82,31.32,-1.33,-2.98,39.10,-5.49,2.09,-6.89,2.74,-1.61,-11.36
-11,11,514,-170,-288,3848,-0.27,0.81,31.32,-1.70,-2.88,38.48,-5.47,2.11,-7.02,2.96,-1.46,-11.33
-6,8,490,-84,-317,3861,-0.28,0.78,31.18,-0.84,-3.17,38.61,-5.45,2.12,-7.14,2.88,-1.41,-11.08
-8,5,482,-120,-368,3933,-0.30,0.73,31.00,-1.20,-3.68,39.33,-5.44,2.11,-7.26,2.91,-1.35,-10.95
-5,-1,501,-121,-377,3948,-0.30,0.65,30.96,-1.21,-3.77,39.48,-5.44,2.11,-7.39,2.86,-1.23,-11.09
-5,0,484,-92,-362,3805,-0.30,0.59,30.82,-0.92,-3.62,38.05,-5.44,2.10,-7.51,2.86,-1.22,-10.90
-8,8,516,-131,-514,3852,-0.32,0.58,30.88,-1.31,-5.14,38.52,-5.45,2.12,-7.63,2.92,-1.35,-11.17
1,17,534,-83,-498,3899,-0.28,0.62,31.05,-0.83,-4.98,38.99,-5.47,2.12,-7.76,2.78,-1.50,-11.35
-12,12,521,-107,-403,3880,-0.33,0.63,31.12,-1.07,-4.03,38.80,-5.47,2.12,-7.88,2.99,-1.43,-11.25
8,21,511,-57,-320,3934,-0.25,0.70,31.13,-0.57,-3.20,39.34,-5.46,2.12,-8.00,2.66,-1.58,-11.15
-3,26,554,-117,-516,3895,-0.24,0.79,31.39,-1.17,-5.16,38.95,-5.47,2.13,-8.13,2.83,-1.69,-11.57
-10,21,573,-68,-494,3901,-0.28,0.84,31.75,-0.68,-4.94,39.01,-5.49,2.14,-8.25,2.95,-1.64,-11.80
5,29,545,-84,-401,3903,-0.22,0.93,31.90,-0.84,-4.01,39.03,-5.49,2.14,-8.38,2.71,-1.79,-11.59
4,22,532,-112,-475,3879,-0.17,0.97,31.96,-1.12,-4.75,38.79,-5.50,2.15,-8.51,2.72,-1.70,-11.48
-7,15,549,-66,-451,3828,-0.20,0.97,32.11,-0.66,-4.51,38.28,-5.51,2.15,-8.63,2.90,-1.59,-11.65
-7,10,548,19,-522,3877,-0.22,0.93,32.24,0.19,-5.22,38.77,-5.52,2.16,-8.76,2.91,-1.50,-11.66
-10,-9,541,-51,-453,3865,-0.26,0.78,32.32,-0.51,-4.53,38.65,-5.53,2.16,-8.89,2.97,-1.17,-11.60
-8,9,567,-1,-609,3836,-0.28,0.76,32.54,-0.01,-6.09,38.36,-5.54,2.16,-9.02,2.95,-1.44,-11.87
1,10,614,-72,-564,3930,-0.25,0.74,33.03,-0.72,-5.64,39.30,-5.55,2.17,-9.15,2.81,-1.45,-12.37
-11,-1,638,-76,-521,3971,-0.29,0.66,33.62,-0.76,-5.21,39.71,-5.57,2.18,-9.28,3.01,-1.27,-12.71
-7,9,691,-62,-491,3914,-0.30,0.65,34.48,-0.62,-4.91,39.14,-5.58,2.18,-9.42,2.96,-1.42,-13.35
0,18,699,-37,-357,3783,-0.27,0.70,35.29,-0.37,-3.57,37.83,-5.57,2.18,-9.56,2.84,-1.57,-13.60
1,32,690,-99,-405,3779,-0.24,0.82,35.97,-0.99,-4.05,37.79,-5.58,2.18,-9.70,2.82,-1.82,-13.68
1,13,682,-76,-424,3988,-0.21,0.82,36.53,-0.76,-4.24,39.88,-5.58,2.18,-9.85,2.81,-1.53,-13.74
5,23,689,-158,-519,3917,-0.16,0.88,37.08,-1.58,-5.19,39.17,-5.59,2.20,-9.99,2.74,-1.71,-13.92
-20,1,692,28,-459,3895,-0.26,0.80,37.60,0.28,-4.59,38.95,-5.59,2.20,-10.14,3.16,-1.35,-14.05
-7,19,700,13,-518,3803,-0.28,0.83,38.11,0.13,-5.18,38.03,-5.60,2.21,-10.29,2.97,-1.64,-14.23
-21,21,701,9,-486,3828,-0.38,0.88,38.57,0.09,-4.86,38.28,-5.61,2.21,-10.45,3.21,-1.68,-14.34
-11,22,690,-122,-304,3832,-0.41,0.92,38.92,-1.22,-3.04,38.32,-5.59,2.22,-10.60,3.06,-1.72,-14.31
-3,27,692,-96,-254,3973,-0.39,1.00,39.25,-0.96,-2.54,39.73,-5.57,2.24,-10.76,2.92,-1.82,-14.39
-4,24,639,-237,-349,4052,-0.37,1.04,39.23,-2.37,-3.49,40.52,-5.55,2.27,-10.91,2.92,-1.81,-13.92
-6,3,637,-44,-255,3897,-0.37,0.96,39.19,-0.44,-2.55,38.97,-5.53,2.28,-11.07,2.94,-1.47,-13.88
-15,-2,621,-117,-429,3941,-0.43,0.85,39.06,-1.17,-4.29,39.41,-5.54,2.29,-11.22,3.10,-1.36,-13.70
-8,19,632,-118,-471,3877,-0.43,0.88,39.01,-1.18,-4.71,38.77,-5.56,2.30,-11.38,3.00,-1.70,-13.76
-14,3,599,-92,-492,3886,-0.47,0.81,38.76,-0.92,-4.92,38.86,-5.57,2.31,-11.53,3.11,-1.43,-13.40
-6,3,584,-59,-507,3930,-0.46,0.75,38.45,-0.59,-5.07,39.30,-5.58,2.31,-11.68,2.99,-1.42,-13.18
-10,11,562,22,-499,3774,-0.48,0.74,38.03,0.22,-4.99,37.74,-5.58,2.32,-11.84,3.06,-1.54,-12.88
-15,9,571,-93,-588,3955,-0.52,0.72,37.71,-0.93,-5.88,39.55,-5.60,2.33,-11.98,3.16,-1.51,-12.86
4,16,574,-51,-345,3853,-0.45,0.75,37.44,-0.51,-3.45,38.53,-5.59,2.33,-12.13,2.84,-1.62,-12.80
6,20,566,21,-316,3891,-0.36,0.79,37.15,0.21,-3.16,38.91,-5.58,2.33,-12.28,2.78,-1.70,-12.65
0,3,516,-124,-400,3894,-0.33,0.73,36.58,-1.24,-4.00,38.94,-5.58,2.33,-12.43,2.86,-1.42,-12.07
-9,3,519,-192,-423,3972,-0.35,0.68,36.09,-1.92,-4.23,39.72,-5.59,2.36,-12.57,3.01,-1.42,-11.96
-2,1,531,63,-444,3951,-0.33,0.62,35.72,0.63,-4.44,39.51,-5.59,2.36,-12.71,2.90,-1.37,-11.96
-5,14,475,-65,-503,3916,-0.33,0.64,35.05,-0.65,-5.03,39.16,-5.60,2.36,-12.85,2.95,-1.58,-11.30
0,16,526,-18,-480,3998,-0.29,0.67,34.75,-0.18,-4.80,39.98,-5.60,2.36,-12.99,2.86,-1.62,-11.64
-10,13,512,-40,-504,3801,-0.32,0.69,34.40,-0.40,-5.04,38.01,-5.61,2.36,-13.12,3.03,-1.58,-11.43
-6,6,486,-168,-395,3848,-0.33,0.65,33.92,-1.68,-3.95,38.48,-5.63,2.39,-13.26,2.98,-1.47,-11.07
2,26,497,-298,-443,3812,-0.28,0.75,33.56,-2.98,-4.43,38.12,-5.63,2.42,-13.39,2.84,-1.82,-11.06
-11,10,530,-238,-307,3916,-0.32,0.73,33.44,-2.38,-3.07,39.16,-5.61,2.45,-13.53,3.04,-1.59,-11.30
15,18,527,-190,-329,3932,-0.20,0.77,33.31,-1.90,-3.29,39.32,-5.59,2.47,-13.66,2.60,-1.73,-11.23
2,4,480,-135,-398,3970,-0.17,0.72,32.91,-1.35,-3.98,39.70,-5.59,2.47,-13.79,2.79,-1.50,-10.72
-1,7,476,-129,-416,3819,-0.16,0.69,32.52,-1.29,-4.16,38.19,-5.60,2.47,-13.92,2.83,-1.54,-10.57
-9,14,483,-119,-468,3832,-0.20,0.70,32.21,-1.19,-4.68,38.32,-5.61,2.48,-14.05,2.97,-1.66,-10.55
-15,-10,476,-110,-444,3999,-0.27,0.57,31.90,-1.10,-4.44,39.99,-5.62,2.48,-14.17,3.09,-1.25,-10.39
-1,5,446,-98,-402,3817,-0.25,0.55,31.43,-0.98,-4.02,38.17,-5.62,2.48,-14.30,2.87,-1.47,-10.01
-14,5,455,-130,-465,3916,-0.31,0.52,31.06,-1.30,-4.65,39.16,-5.63,2.48,-14.42,3.09,-1.47,-9.99
-8,9,431,-111,-353,3897,-0.33,0.52,30.58,-1.11,-3.53,38.97,-5.62,2.48,-14.54,3.00,-1.53,-9.65
-12,4,419,-127,-430,3920,-0.37,0.50,30.08,-1.27,-4.30,39.20,-5.63,2.48,-14.66,3.08,-1.44,-9.41
-2,10,345,-88,-495,3907,-0.34,0.51,29.18,-0.88,-4.95,39.07,-5.64,2.49,-14.78,2.93,-1.54,-8.55
-16,-7,372,-61,-584,3995,-0.41,0.41,28.53,-0.61,-5.84,39.95,-5.65,2.49,-14.89,3.17,-1.25,-8.61
-6,11,413,-50,-529,3922,-0.40,0.44,28.19,-0.50,-5.29,39.22,-5.66,2.49,-15.00,3.02,-1.53,-8.86
10,20,435,-52,-458,3839,-0.30,0.52,28.03,-0.52,-4.58,38.39,-5.67,2.49,-15.11,2.74,-1.69,-9.00
-15,5,376,-117,-388,3951,-0.36,0.50,27.52,-1.17,-3.88,39.51,-5.66,2.48,-15.22,3.14,-1.46,-8.36
-6,2,344,-92,-362,3915,-0.36,0.46,26.87,-0.92,-3.62,39.15,-5.65,2.48,-15.33,3.00,-1.40,-7.92
-11,1,301,-82,-383,3969,-0.39,0.42,26.02,-0.82,-3.83,39.69,-5.65,2.47,-15.43,3.08,-1.37,-7.33
-7,9,292,-145,-433,3858,-0.40,0.43,25.20,-1.45,-4.33,38.58,-5.66,2.48,-15.53,3.03,-1.49,-7.04
-8,2,280,-118,-435,3901,-0.41,0.40,24.38,-1.18,-4.35,39.01,-5.67,2.47,-15.63,3.05,-1.38,-6.73
-7,6,284,-58,-452,3842,-0.41,0.40,23.68,-0.58,-4.52,38.42,-5.68,2.47,-15.72,3.04,-1.44,-6.58
-6,4,290,-96,-443,3934,-0.40,0.38,23.08,-0.96,-4.43,39.34,-5.69,2.46,-15.81,3.03,-1.40,-6.48
-5,8,294,-80,-471,3852,-0.39,0.39,22.56,-0.80,-4.71,38.52,-5.70,2.46,-15.90,3.02,-1.46,-6.37
-5,8,302,-89,-492,4051,-0.38,0.40,22.15,-0.89,-4.92,40.51,-5.71,2.46,-15.99,3.02,-1.46,-6.33
15,6,289,-21,-238,3902,-0.25,0.40,21.70,-0.21,-2.38,39.02,-5.69,2.46,-16.08,2.67,-1.43,-6.10
6,-6,105,-83,-388,3942,-0.19,0.32,20.17,-0.83,-3.88,39.42,-5.69,2.45,-16.16,2.78,-1.22,-4.16
-3,15,172,-86,-828,3812,-0.19,0.38,19.20,-0.86,-8.28,38.12,-5.71,2.45,-16.23,2.93,-1.56,-4.48
-6,13,344,-15,-502,3903,-0.21,0.42,19.38,-0.15,-5.02,39.03,-5.71,2.45,-16.31,2.98,-1.54,-5.97
-11,10,340,-93,-425,3870,-0.26,0.44,19.52,-0.93,-4.25,38.70,-5.72,2.44,-16.39,3.08,-1.50,-5.96
-2,10,311,-77,-278,3952,-0.24,0.46,19.46,-0.77,-2.78,39.52,-5.70,2.44,-16.46,2.93,-1.50,-5.70
1,11,289,-128,-322,3887,-0.21,0.48,19.28,-1.28,-3.22,38.87,-5.69,2.44,-16.54,2.86,-1.52,-5.46
-5,9,301,-41,-455,3896,-0.22,0.49,19.19,-0.41,-4.55,38.96,-5.69,2.43,-16.62,2.96,-1.49,-5.53
2,12,302,-71,-487,3890,-0.19,0.51,19.11,-0.71,-4.87,38.90,-5.70,2.43,-16.69,2.85,-1.54,-5.51
-4,8,286,-121,-529,3858,-0.19,0.51,18.94,-1.21,-5.29,38.58,-5.72,2.43,-16.77,2.95,-1.48,-5.32
-2,11,306,-18,-514,3915,-0.19,0.53,18.92,-0.18,-5.14,39.15,-5.73,2.43,-16.84,2.92,-1.53,-5.48
-11,10,304,-97,-506,3945,-0.23,0.53,18.88,-0.97,-5.06,39.45,-5.74,2.43,-16.92,3.08,-1.52,-5.45
-8,-3,331,-58,-359,3919,-0.26,0.46,19.01,-0.58,-3.59,39.19,-5.73,2.42,-16.99,3.04,-1.29,-5.70
-5,18,308,-120,-413,3813,-0.26,0.53,18.99,-1.20,-4.13,38.13,-5.74,2.42,-17.07,3.00,-1.63,-5.49
-4,6,323,-89,-525,4042,-0.26,0.51,19.06,-0.89,-5.25,40.42,-5.75,2.42,-17.14,2.99,-1.44,-5.63
-4,-4,300,-137,-451,3919,-0.26,0.43,18.98,-1.37,-4.51,39.19,-5.77,2.42,-17.22,3.00,-1.27,-5.41
-5,-6,328,-91,-423,3975,-0.26,0.35,19.09,-0.91,-4.23,39.75,-5.77,2.41,-17.29,3.01,-1.21,-5.66
-14,-4,390,-97,-455,3993,-0.32,0.29,19.56,-0.97,-4.55,39.93,-5.78,2.40,-17.37,3.17,-1.22,-6.29
-3,13,424,-96,-535,3824,-0.31,0.34,20.19,-0.96,-5.35,38.24,-5.79,2.40,-17.45,3.01,-1.49,-6.73
-14,-1,436,-181,-335,3988,-0.36,0.30,20.83,-1.81,-3.35,39.88,-5.77,2.42,-17.53,3.18,-1.27,-6.98
-6,14,434,-124,-394,3737,-0.36,0.36,21.39,-1.24,-3.94,37.37,-5.78,2.41,-17.62,3.06,-1.52,-7.09
-2,20,422,-43,-377,3845,-0.34,0.44,21.83,-0.43,-3.77,38.45,-5.78,2.40,-17.70,2.99,-1.63,-7.09
-15,-1,413,-105,-402,4001,-0.40,0.39,22.16,-1.05,-4.02,40.01,-5.77,2.40,-17.79,3.21,-1.29,-7.09
1,9,404,-15,-469,3946,-0.35,0.41,22.41,-0.15,-4.69,39.46,-5.78,2.39,-17.88,2.95,-1.44,-7.06
2,22,395,-105,-475,3827,-0.30,0.50,22.58,-1.05,-4.75,38.27,-5.79,2.39,-17.97,2.93,-1.67,-7.02
-7,23,388,-20,-314,4052,-0.32,0.59,22.69,-0.20,-3.14,40.52,-5.78,2.39,-18.06,3.06,-1.71,-6.97
2,5,348,-87,-323,4023,-0.27,0.56,22.54,-0.87,-3.23,40.23,-5.76,2.39,-18.15,2.91,-1.43,-6.59
-8,-24,306,37,-266,3884,-0.29,0.36,22.16,0.37,-2.66,38.84,-5.75,2.38,-18.24,3.06,-0.92,-6.13
-7,10,270,-148,-466,3644,-0.31,0.39,21.59,-1.48,-4.66,36.44,-5.77,2.39,-18.32,3.06,-1.45,-5.68
1,17,315,-80,-545,3827,-0.27,0.45,21.35,-0.80,-5.45,38.27,-5.78,2.39,-18.41,2.93,-1.58,-5.99
-5,2,326,-31,-422,4053,-0.27,0.42,21.20,-0.31,-4.22,40.53,-5.78,2.38,-18.49,3.02,-1.34,-6.04
-7,4,313,-62,-542,3988,-0.29,0.40,20.99,-0.62,-5.42,39.88,-5.79,2.38,-18.58,3.06,-1.36,-5.87
-5,7,344,27,-441,3913,-0.29,0.40,20.99,0.27,-4.41,39.13,-5.79,2.37,-18.66,3.03,-1.41,-6.12
-8,7,320,-59,-440,3906,-0.31,0.41,20.84,-0.59,-4.40,39.06,-5.80,2.37,-18.74,3.09,-1.40,-5.87
-5,4,314,10,-433,3872,-0.31,0.39,20.68,0.10,-4.33,38.72,-5.80,2.36,-18.82,3.04,-1.35,-5.77
-4,13,326,-68,-384,3868,-0.30,0.43,20.60,-0.68,-3.84,38.68,-5.80,2.35,-18.91,3.02,-1.49,-5.85
-3,0,311,-65,-386,4006,-0.29,0.39,20.43,-0.65,-3.86,40.06,-5.79,2.34,-18.99,3.00,-1.28,-5.67
-9,0,306,-53,-402,3920,-0.32,0.35,20.26,-0.53,-4.02,39.20,-5.79,2.33,-19.07,3.10,-1.26,-5.58
-3,8,295,-105,-417,3848,-0.30,0.36,20.03,-1.05,-4.17,38.48,-5.80,2.33,-19.15,3.01,-1.38,-5.42
-10,-1,287,-109,-522,3938,-0.33,0.32,19.78,-1.09,-5.22,39.38,-5.81,2.33,-19.22,3.13,-1.24,-5.28
-5,1,296,-68,-390,3889,-0.33,0.29,19.61,-0.68,-3.90,38.89,-5.81,2.32,-19.30,3.05,-1.25,-5.31
-11,-1,326,-58,-479,3888,-0.37,0.26,19.63,-0.58,-4.79,38.88,-5.82,2.32,-19.38,3.16,-1.21,-5.56
-2,-8,317,-93,-357,3918,-0.34,0.18,19.60,-0.93,-3.57,39.18,-5.81,2.31,-19.46,3.01,-1.08,-5.47
-9,10,369,-163,-523,3836,-0.36,0.23,19.89,-1.63,-5.23,38.36,-5.82,2.32,-19.54,3.13,-1.37,-5.97
1,-8,385,18,-230,4028,-0.32,0.16,20.25,0.18,-2.30,40.28,-5.81,2.31,-19.62,2.96,-1.07,-6.19
-3,11,399,-122,-488,3946,-0.31,0.21,20.66,-1.22,-4.88,39.46,-5.82,2.32,-19.70,3.02,-1.38,-6.40
-19,1,454,-89,-468,3914,-0.39,0.19,21.37,-0.89,-4.68,39.14,-5.83,2.31,-19.78,3.30,-1.22,-7.03
-13,20,585,43,-426,3756,-0.43,0.29,22.80,0.43,-4.26,37.56,-5.83,2.31,-19.87,3.22,-1.54,-8.48
-3,24,591,258,-290,4072,-0.41,0.41,24.12,2.58,-2.90,40.72,-5.83,2.30,-19.97,3.05,-1.63,-8.85
6,51,643,-303,-657,3792,-0.33,0.68,25.63,-3.03,-6.57,37.92,-5.84,2.32,-20.07,2.90,-2.13,-9.65
-23,-8,600,-185,-622,3973,-0.44,0.56,26.73,-1.85,-6.22,39.73,-5.86,2.34,-20.18,3.38,-1.21,-9.54
-8,30,575,94,-530,3878,-0.44,0.69,27.56,0.94,-5.30,38.78,-5.86,2.33,-20.29,3.16,-1.82,-9.53
3,40,612,-14,-646,3892,-0.38,0.87,28.54,-0.14,-6.46,38.92,-5.87,2.34,-20.40,2.98,-2.03,-10.07
15,23,587,12,-455,4054,-0.25,0.92,29.27,0.12,-4.55,40.54,-5.87,2.34,-20.52,2.76,-1.79,-10.02
-6,11,571,-20,-395,3892,-0.26,0.89,29.82,-0.20,-3.95,38.92,-5.87,2.33,-20.63,3.08,-1.60,-10.01
-8,12,564,-170,-420,3813,-0.28,0.88,30.28,-1.70,-4.20,38.13,-5.88,2.36,-20.75,3.12,-1.62,-10.05
1,18,550,-172,-391,3883,-0.25,0.90,30.61,-1.72,-3.91,38.83,-5.87,2.39,-20.88,2.97,-1.73,-10.00
-15,3,490,-27,-316,3787,-0.32,0.83,30.54,-0.27,-3.16,37.87,-5.85,2.39,-21.00,3.22,-1.48,-9.46
-10,19,472,-98,-499,3899,-0.35,0.86,30.36,-0.98,-4.99,38.99,-5.87,2.39,-21.12,3.16,-1.74,-9.25
7,20,444,11,-434,3976,-0.27,0.90,30.03,0.11,-4.34,39.76,-5.86,2.39,-21.24,2.88,-1.76,-8.92
6,-2,391,-4,-256,4047,-0.20,0.80,29.42,-0.04,-2.56,40.47,-5.85,2.39,-21.35,2.87,-1.40,-8.31
7,18,336,28,-560,3995,-0.14,0.83,28.52,0.28,-5.60,39.95,-5.86,2.39,-21.47,2.83,-1.71,-7.61
13,32,354,-45,-496,3868,-0.05,0.94,27.83,-0.45,-4.96,38.68,-5.86,2.40,-21.58,2.72,-1.96,-7.58
3,17,323,19,-455,3962,-0.03,0.95,27.02,0.19,-4.55,39.62,-5.86,2.39,-21.68,2.86,-1.73,-7.11
4,13,320,-25,-406,3964,0.00,0.93,26.27,-0.25,-4.06,39.64,-5.86,2.39,-21.79,2.84,-1.67,-6.89
-2,9,330,-16,-488,3958,-0.01,0.89,25.65,-0.16,-4.88,39.58,-5.86,2.39,-21.89,2.94,-1.59,-6.81
-4,23,330,-105,-414,3879,-0.03,0.95,25.10,-1.05,-4.14,38.79,-5.86,2.38,-21.99,2.97,-1.82,-6.66
-9,-1,321,-141,-423,3913,-0.09,0.84,24.55,-1.41,-4.23,39.13,-5.87,2.38,-22.09,3.07,-1.42,-6.44
6,-1,327,-124,-465,3879,-0.04,0.75,24.09,-1.24,-4.65,38.79,-5.88,2.39,-22.18,2.83,-1.40,-6.37
-4,-5,309,-35,-493,3929,-0.06,0.65,23.57,-0.35,-4.93,39.29,-5.89,2.38,-22.27,3.00,-1.30,-6.08
-6,-8,305,4,-484,3949,-0.09,0.53,23.07,0.04,-4.84,39.49,-5.90,2.38,-22.36,3.04,-1.22,-5.91
-12,-11,291,-68,-395,3918,-0.16,0.41,22.54,-0.68,-3.95,39.18,-5.89,2.37,-22.45,3.15,-1.13,-5.65
-5,1,290,-28,-509,3939,-0.17,0.38,22.05,-0.28,-5.09,39.39,-5.90,2.37,-22.54,3.05,-1.30,-5.52
-16,-6,306,-8,-524,4023,-0.25,0.30,21.71,-0.08,-5.24,40.23,-5.91,2.36,-22.63,3.24,-1.17,-5.56
-9,-1,315,-45,-500,3898,-0.28,0.27,21.46,-0.45,-5.00,38.98,-5.92,2.36,-22.71,3.15,-1.23,-5.57
-7,-9,323,-68,-401,3964,-0.30,0.19,21.29,-0.68,-4.01,39.64,-5.91,2.35,-22.80,3.12,-1.08,-5.58
-1,-4,325,-94,-432,3816,-0.27,0.14,21.14,-0.94,-4.32,38.16,-5.92,2.34,-22.88,3.03,-1.14,-5.55
2,-3,308,-237,-385,3853,-0.23,0.11,20.91,-2.37,-3.85,38.53,-5.91,2.37,-22.96,2.97,-1.16,-5.34
-8,-7,317,-187,-381,3912,-0.26,0.06,20.75,-1.87,-3.81,39.12,-5.90,2.39,-23.05,3.12,-1.09,-5.37
-8,-1,301,-126,-397,3886,-0.28,0.04,20.51,-1.26,-3.97,38.86,-5.89,2.38,-23.13,3.12,-1.18,-5.17
-15,-6,302,-77,-432,3946,-0.34,0.00,20.30,-0.77,-4.32,39.46,-5.90,2.37,-23.21,3.25,-1.08,-5.12
-10,-1,286,-66,-503,3911,-0.37,-0.00,20.02,-0.66,-5.03,39.11,-5.91,2.37,-23.29,3.19,-1.16,-4.90
-10,0,293,-56,-481,3865,-0.39,-0.00,19.80,-0.56,-4.81,38.65,-5.92,2.36,-23.37,3.20,-1.17,-4.90
0,2,288,-1,-414,3965,-0.36,0.01,19.58,-0.01,-4.14,39.65,-5.91,2.35,-23.45,3.04,-1.20,-4.80
-10,-9,262,-12,-400,3872,-0.38,-0.05,19.22,-0.12,-4.00,38.72,-5.91,2.34,-23.52,3.20,-1.01,-4.48
-8,5,289,18,-568,3861,-0.39,-0.01,19.06,0.18,-5.68,38.61,-5.92,2.34,-23.60,3.17,-1.23,-4.66
-10,6,295,83,-547,3874,-0.41,0.03,18.95,0.83,-5.47,38.74,-5.93,2.33,-23.67,3.22,-1.25,-4.68
-9,11,261,-84,-456,3784,-0.43,0.09,18.65,-0.84,-4.56,37.84,-5.94,2.32,-23.75,3.21,-1.34,-4.31
-6,-4,251,-25,-401,4047,-0.42,0.06,18.32,-0.25,-4.01,40.47,-5.94,2.31,-23.82,3.16,-1.10,-4.13
-1,-7,260,-74,-464,3946,-0.38,0.01,18.07,-0.74,-4.64,39.46,-5.95,2.30,-23.89,3.08,-1.04,-4.14
-4,1,264,-106,-481,3780,-0.37,0.01,17.87,-1.06,-4.81,37.80,-5.96,2.30,-23.96,3.13,-1.16,-4.12
-11,0,291,-76,-510,3853,-0.40,0.01,17.86,-0.76,-5.10,38.53,-5.98,2.30,-24.03,3.25,-1.14,-4.34
-6,1,310,-56,-443,3960,-0.40,0.02,17.97,-0.56,-4.43,39.60,-5.98,2.29,-24.10,3.17,-1.15,-4.52
2,1,295,-52,-466,3890,-0.35,0.02,17.97,-0.52,-4.66,38.90,-5.99,2.28,-24.17,3.04,-1.15,-4.38
-6,-9,285,10,-396,3877,-0.35,-0.03,17.91,0.10,-3.96,38.77,-5.98,2.27,-24.25,3.16,-0.98,-4.28
-10,0,308,32,-543,3925,-0.37,-0.03,18.00,0.32,-5.43,39.25,-5.99,2.26,-24.32,3.23,-1.11,-4.49
-11,-2,325,-29,-557,3895,-0.40,-0.04,18.18,-0.29,-5.57,38.95,-6.01,2.26,-24.39,3.26,-1.07,-4.67
-2,8,339,-92,-463,3915,-0.38,0.01,18.43,-0.92,-4.63,39.15,-6.02,2.25,-24.46,3.12,-1.24,-4.84
1,3,333,-139,-406,4051,-0.33,0.03,18.62,-1.39,-4.06,40.51,-6.00,2.25,-24.54,3.06,-1.17,-4.83
-4,5,326,-84,-348,3947,-0.32,0.06,18.75,-0.84,-3.48,39.47,-5.99,2.24,-24.61,3.12,-1.20,-4.79
-4,2,304,-69,-370,3926,-0.32,0.06,18.73,-0.69,-3.70,39.26,-5.98,2.23,-24.69,3.12,-1.15,-4.59
6,11,314,-74,-358,4054,-0.25,0.12,18.77,-0.74,-3.58,40.54,-5.96,2.23,-24.76,2.94,-1.31,-4.68
3,9,310,-88,-471,3790,-0.20,0.17,18.78,-0.88,-4.71,37.90,-5.98,2.22,-24.84,2.97,-1.29,-4.64
-7,2,317,-62,-510,3804,-0.23,0.16,18.84,-0.62,-5.10,38.04,-5.99,2.22,-24.91,3.14,-1.18,-4.71
4,18,326,-32,-485,3933,-0.18,0.26,18.94,-0.32,-4.85,39.33,-6.00,2.21,-24.98,2.96,-1.45,-4.80
6,42,360,5,-482,3792,-0.12,0.49,19.24,0.05,-4.82,37.92,-6.00,2.21,-25.06,2.92,-1.88,-5.15
1,21,370,-27,-467,4025,-0.11,0.57,19.58,-0.27,-4.67,40.25,-6.01,2.20,-25.14,2.99,-1.58,-5.31
-5,0,359,-78,-274,4137,-0.13,0.51,19.81,-0.78,-2.74,41.37,-5.99,2.20,-25.22,3.08,-1.25,-5.27
-7,-4,340,-117,-202,3857,-0.16,0.43,19.90,-1.17,-2.02,38.57,-5.97,2.21,-25.30,3.11,-1.17,-5.12
-7,11,326,-56,-452,3844,-0.18,0.46,19.90,-0.56,-4.52,38.44,-5.97,2.20,-25.38,3.12,-1.40,-5.00
-5,14,303,-42,-399,3893,-0.20,0.50,19.76,-0.42,-3.99,38.93,-5.97,2.20,-25.45,3.09,-1.45,-4.76
-5,14,292,-76,-477,3821,-0.21,0.53,19.56,-0.76,-4.77,38.21,-5.98,2.19,-25.53,3.10,-1.46,-4.61
-3,-3,265,-39,-448,3916,-0.20,0.46,19.22,-0.39,-4.48,39.16,-5.98,2.19,-25.61,3.07,-1.18,-4.29
-10,-13,225,1,-454,3878,-0.24,0.34,18.67,0.01,-4.54,38.78,-5.99,2.18,-25.68,3.19,-0.98,-3.81
-5,-6,207,-28,-468,3906,-0.25,0.27,18.07,-0.28,-4.68,39.06,-5.99,2.17,-25.75,3.12,-1.06,-3.50
1,3,207,39,-441,3932,-0.22,0.26,17.53,0.39,-4.41,39.32,-5.99,2.16,-25.82,3.02,-1.19,-3.36
-1,0,204,11,-452,3914,-0.20,0.23,17.02,0.11,-4.52,39.14,-6.00,2.15,-25.89,3.05,-1.13,-3.20
1,8,188,19,-487,3897,-0.18,0.26,16.46,0.19,-4.87,38.97,-6.00,2.14,-25.96,3.01,-1.26,-2.92
0,9,194,58,-497,3922,-0.16,0.29,16.00,0.58,-4.97,39.22,-6.01,2.13,-26.02,3.02,-1.28,-2.85
-1,14,184,-44,-391,3917,-0.15,0.34,15.52,-0.44,-3.91,39.17,-6.00,2.12,-26.08,3.03,-1.37,-2.64
0,10,183,-99,-390,3945,-0.13,0.37,15.09,-0.99,-3.90,39.45,-5.99,2.11,-26.14,3.01,-1.31,-2.52
-7,-6,179,-43,-534,3887,-0.16,0.30,14.67,-0.43,-5.34,38.87,-6.01,2.11,-26.20,3.13,-1.04,-2.38
-3,2,209,17,-471,3913,-0.17,0.28,14.48,0.17,-4.71,39.13,-6.01,2.10,-26.26,3.07,-1.15,-2.58
-3,0,230,-91,-446,3872,-0.17,0.25,14.43,-0.91,-4.46,38.72,-6.02,2.09,-26.31,3.08,-1.11,-2.74
-10,-11,241,-58,-484,3935,-0.21,0.16,14.46,-0.58,-4.84,39.35,-6.03,2.08,-26.37,3.20,-0.91,-2.83
-6,5,242,-72,-453,3874,-0.23,0.17,14.49,-0.72,-4.53,38.74,-6.04,2.07,-26.43,3.15,-1.16,-2.84
-5,1,246,-142,-498,3919,-0.23,0.16,14.54,-1.42,-4.98,39.19,-6.06,2.08,-26.48,3.15,-1.10,-2.88
-8,-4,226,-12,-516,3855,-0.26,0.12,14.47,-0.12,-5.16,38.55,-6.07,2.07,-26.54,3.20,-1.00,-2.69
-6,-2,228,57,-544,3874,-0.27,0.10,14.41,0.57,-5.44,38.74,-6.08,2.06,-26.60,3.18,-1.02,-2.69
-3,8,232,-154,-379,3956,-0.26,0.14,14.38,-1.54,-3.79,39.56,-6.06,2.08,-26.66,3.12,-1.19,-2.71
1,-4,205,-90,-269,3965,-0.23,0.10,14.20,-0.90,-2.69,39.65,-6.04,2.08,-26.71,3.04,-1.00,-2.43
-8,3,180,-47,-599,3830,-0.26,0.11,13.87,-0.47,-5.99,38.30,-6.05,2.07,-26.77,3.20,-1.11,-2.13
-7,9,206,-77,-602,3869,-0.27,0.15,13.74,-0.77,-6.02,38.69,-6.07,2.08,-26.82,3.20,-1.21,-2.31
-6,0,217,-111,-412,3962,-0.28,0.14,13.69,-1.11,-4.12,39.62,-6.07,2.06,-26.88,3.18,-1.06,-2.39
-1,-1,219,-100,-451,3892,-0.26,0.12,13.66,-1.00,-4.51,38.92,-6.08,2.06,-26.93,3.10,-1.04,-2.39
-6,6,232,-158,-466,3877,-0.27,0.14,13.71,-1.58,-4.66,38.77,-6.09,2.07,-26.98,3.19,-1.16,-2.51
-7,-1,223,-176,-338,4019,-0.29,0.12,13.70,-1.76,-3.38,40.19,-6.07,2.08,-27.04,3.20,-1.05,-2.42
-25,-6,286,-343,-421,3855,-0.41,0.07,14.07,-3.43,-4.21,38.55,-6.08,2.11,-27.10,3.51,-0.97,-3.04
19,8,306,-60,-639,3748,-0.25,0.11,14.53,-0.60,-6.39,37.48,-6.09,2.11,-27.15,2.80,-1.20,-3.32
2,11,286,238,-529,3805,-0.22,0.17,14.82,2.38,-5.29,38.05,-6.10,2.10,-27.21,3.05,-1.26,-3.21
5,11,264,112,-522,3936,-0.16,0.22,14.95,1.12,-5.22,39.36,-6.10,2.09,-27.27,2.99,-1.27,-3.05
-2,1,221,-49,-451,3891,-0.16,0.20,14.80,-0.49,-4.51,38.91,-6.11,2.08,-27.33,3.10,-1.11,-2.65
-2,-2,211,-43,-422,3895,-0.16,0.17,14.61,-0.43,-4.22,38.95,-6.11,2.06,-27.39,3.10,-1.04,-2.51
1,5,193,-29,-370,3809,-0.13,0.18,14.33,-0.29,-3.70,38.09,-6.10,2.05,-27.44,3.04,-1.15,-2.28
9,27,170,-76,-384,3843,-0.07,0.33,13.93,-0.76,-3.84,38.43,-6.09,2.04,-27.50,2.90,-1.52,-1.98
9,18,141,-30,-502,3878,-0.00,0.41,13.40,-0.30,-5.02,38.78,-6.10,2.04,-27.55,2.88,-1.41,-1.60
5,8,130,-45,-418,3953,0.03,0.42,12.85,-0.45,-4.18,39.53,-6.10,2.03,-27.60,2.93,-1.25,-1.37
5,18,133,-47,-496,3843,0.05,0.48,12.38,-0.47,-4.96,38.43,-6.11,2.02,-27.65,2.93,-1.42,-1.27
5,23,140,-85,-489,3936,0.08,0.58,11.99,-0.85,-4.89,39.36,-6.12,2.02,-27.70,2.93,-1.52,-1.23
3,10,136,-50,-405,3944,0.09,0.58,11.62,-0.50,-4.05,39.44,-6.11,2.01,-27.74,2.95,-1.32,-1.10
4,2,132,-101,-382,3900,0.11,0.53,11.27,-1.01,-3.82,39.00,-6.10,2.00,-27.79,2.93,-1.18,-0.97
-2,2,147,-23,-507,3862,0.08,0.49,11.04,-0.23,-5.07,38.62,-6.11,1.99,-27.83,3.03,-1.17,-1.04
-6,0,157,-29,-501,3917,0.04,0.44,10.89,-0.29,-5.01,39.17,-6.12,1.98,-27.88,3.11,-1.12,-1.08
-6,-10,152,-15,-399,3919,-0.00,0.34,10.73,-0.15,-3.99,39.19,-6.11,1.97,-27.92,3.12,-0.93,-1.00
-6,-7,141,-22,-398,3908,-0.04,0.26,10.52,-0.22,-3.98,39.08,-6.11,1.96,-27.96,3.13,-0.94,-0.85
-10,-8,141,-11,-479,3895,-0.10,0.19,10.32,-0.11,-4.79,38.95,-6.12,1.95,-28.00,3.21,-0.90,-0.80
-7,-3,149,-43,-458,3938,-0.13,0.15,10.20,-0.43,-4.58,39.38,-6.12,1.94,-28.04,3.18,-0.96,-0.83
-6,-11,167,12,-452,3984,-0.15,0.07,10.20,0.12,-4.52,39.84,-6.12,1.92,-28.08,3.17,-0.80,-0.98
-12,-18,153,67,-432,3874,-0.21,-0.05,10.11,0.67,-4.32,38.74,-6.13,1.91,-28.12,3.28,-0.65,-0.83
-6,3,121,26,-443,3954,-0.23,-0.03,9.84,0.26,-4.43,39.54,-6.13,1.89,-28.16,3.19,-0.98,-0.49
-2,-4,100,62,-416,3961,-0.22,-0.05,9.47,0.62,-4.16,39.61,-6.13,1.88,-28.20,3.13,-0.85,-0.22
-3,2,96,-6,-525,3875,-0.21,-0.03,9.10,-0.06,-5.25,38.75,-6.14,1.87,-28.23,3.15,-0.95,-0.09
0,5,114,-48,-466,3916,-0.19,0.00,8.89,-0.48,-4.66,39.16,-6.15,1.86,-28.27,3.10,-1.00,-0.19
-2,-7,58,-77,-360,3919,-0.18,-0.04,8.35,-0.77,-3.60,39.19,-6.13,1.85,-28.30,3.12,-0.80,0.42
-3,-8,45,-55,-405,3901,-0.18,-0.08,7.79,-0.55,-4.05,39.01,-6.13,1.83,-28.33,3.14,-0.76,0.68
-6,-10,37,-7,-499,3892,-0.20,-0.14,7.24,-0.07,-4.99,38.92,-6.14,1.82,-28.36,3.19,-0.71,0.88
-4,-9,42,-3,-519,3914,-0.21,-0.18,6.77,-0.03,-5.19,39.14,-6.15,1.81,-28.39,3.17,-0.70,0.96
0,2,81,-8,-570,3914,-0.19,-0.15,6.59,-0.08,-5.70,39.14,-6.16,1.80,-28.42,3.11,-0.88,0.68
-1,4,93,38,-527,3873,-0.17,-0.11,6.50,0.38,-5.27,38.73,-6.17,1.79,-28.44,3.12,-0.91,0.60
2,9,68,-81,-404,3889,-0.14,-0.04,6.26,-0.81,-4.04,38.89,-6.17,1.77,-28.47,3.07,-1.00,0.87
3,6,59,-66,-418,3913,-0.11,-0.00,6.00,-0.66,-4.18,39.13,-6.16,1.76,-28.49,3.04,-0.96,1.02
-2,2,61,-41,-480,3862,-0.11,0.01,5.77,-0.41,-4.80,38.62,-6.18,1.75,-28.51,3.12,-0.90,1.06
-1,2,64,-65,-446,3873,-0.11,0.02,5.58,-0.65,-4.46,38.73,-6.18,1.73,-28.54,3.11,-0.89,1.08
1,0,56,-73,-429,3888,-0.09,0.02,5.37,-0.73,-4.29,38.88,-6.19,1.72,-28.56,3.07,-0.86,1.20
2,-1,50,-86,-412,3916,-0.07,0.01,5.13,-0.86,-4.12,39.16,-6.18,1.70,-28.58,3.05,-0.83,1.31
1,-1,44,-62,-477,3886,-0.06,0.00,4.89,-0.62,-4.77,38.86,-6.19,1.69,-28.60,3.07,-0.82,1.43
-1,0,50,-82,-496,3905,-0.06,0.00,4.71,-0.82,-4.96,39.05,-6.21,1.68,-28.61,3.11,-0.83,1.42
-2,-1,95,-71,-468,3940,-0.06,-0.00,4.81,-0.71,-4.68,39.40,-6.22,1.67,-28.63,3.13,-0.81,1.02
1,1,103,-69,-445,3900,-0.05,0.00,4.96,-0.69,-4.45,39.00,-6.23,1.66,-28.65,3.08,-0.84,0.91
-3,1,107,-58,-491,3905,-0.06,0.01,5.12,-0.58,-4.91,39.05,-6.24,1.65,-28.67,3.15,-0.83,0.84
-6,3,113,-48,-499,3895,-0.09,0.03,5.30,-0.48,-4.99,38.95,-6.25,1.64,-28.69,3.22,-0.86,0.75
3,0,117,-19,-411,3934,-0.07,0.02,5.48,-0.19,-4.11,39.34,-6.25,1.62,-28.72,3.07,-0.81,0.68
-1,0,101,-10,-471,3853,-0.07,0.02,5.55,-0.10,-4.71,38.53,-6.26,1.61,-28.74,3.13,-0.80,0.80
-3,-3,146,-33,-569,3920,-0.08,0.00,5.88,-0.33,-5.69,39.20,-6.27,1.60,-28.76,3.17,-0.75,0.33
-5,3,164,-51,-546,3850,-0.10,0.02,6.30,-0.51,-5.46,38.50,-6.29,1.60,-28.78,3.22,-0.84,0.08
-3,6,152,-65,-432,3933,-0.11,0.05,6.59,-0.65,-4.32,39.33,-6.29,1.58,-28.81,3.19,-0.89,0.11
-4,5,143,-51,-412,3902,-0.12,0.08,6.81,-0.51,-4.12,39.02,-6.28,1.57,-28.84,3.21,-0.88,0.14
-1,-1,109,-12,-438,3915,-0.12,0.07,6.79,-0.12,-4.38,39.15,-6.28,1.55,-28.86,3.16,-0.77,0.44
0,3,104,-71,-477,3905,-0.10,0.08,6.75,-0.71,-4.77,39.05,-6.30,1.55,-28.89,3.15,-0.83,0.49
0,6,99,-28,-473,3906,-0.09,0.11,6.68,-0.28,-4.73,39.06,-6.31,1.53,-28.92,3.15,-0.88,0.55
0,7,92,11,-447,3874,-0.08,0.14,6.57,0.11,-4.47,38.74,-6.31,1.52,-28.94,3.15,-0.90,0.64
1,6,78,-73,-469,3925,-0.07,0.16,6.39,-0.73,-4.69,39.25,-6.32,1.51,-28.97,3.14,-0.89,0.81
1,-5,44,33,-380,3897,-0.06,0.11,6.02,0.33,-3.80,38.97,-6.32,1.50,-28.99,3.13,-0.70,1.19
-1,1,8,2,-441,3895,-0.06,0.11,5.46,0.02,-4.41,38.95,-6.32,1.48,-29.01,3.16,-0.78,1.63
0,2,4,-17,-444,3903,-0.05,0.11,4.94,-0.17,-4.44,39.03,-6.32,1.46,-29.03,3.14,-0.79,1.80
4,3,1,-40,-463,3891,-0.02,0.12,4.45,-0.40,-4.63,38.91,-6.33,1.45,-29.05,3.08,-0.80,1.95
-3,-1,-1,-13,-457,3935,-0.04,0.10,4.00,-0.13,-4.57,39.35,-6.33,1.43,-29.07,3.19,-0.73,2.08
-1,-2,-6,-34,-459,3892,-0.04,0.08,3.57,-0.34,-4.59,38.92,-6.34,1.42,-29.08,3.16,-0.70,2.23
-1,-2,-6,-31,-460,3900,-0.04,0.06,3.17,-0.31,-4.60,39.00,-6.34,1.40,-29.09,3.17,-0.68,2.32
0,2,-7,-21,-464,3893,-0.04,0.06,2.81,-0.21,-4.64,38.93,-6.35,1.39,-29.10,3.16,-0.74,2.42
-1,-1,-7,-20,-448,3879,-0.04,0.05,2.49,-0.20,-4.48,38.79,-6.36,1.37,-29.11,3.17,-0.68,2.50
-2,-1,-1,10,-482,3869,-0.05,0.04,2.23,0.10,-4.82,38.69,-6.36,1.36,-29.12,3.20,-0.67,2.52
-3,-3,4,-12,-474,3913,-0.06,0.02,2.03,-0.12,-4.74,39.13,-6.37,1.34,-29.13,3.22,-0.62,2.52
-2,-6,20,-56,-471,3902,-0.07,-0.02,1.95,-0.56,-4.71,39.02,-6.38,1.33,-29.14,3.21,-0.56,2.41
-1,-5,23,-62,-461,3905,-0.07,-0.05,1.90,-0.62,-4.61,39.05,-6.40,1.32,-29.15,3.20,-0.56,2.40
0,-6,32,-43,-466,3902,-0.06,-0.08,1.90,-0.43,-4.66,39.02,-6.41,1.30,-29.15,3.19,-0.53,2.32
-1,-6,34,-46,-467,3906,-0.06,-0.11,1.92,-0.46,-4.67,39.06,-6.42,1.29,-29.16,3.21,-0.51,2.30
1,-3,36,-36,-463,3899,-0.05,-0.12,1.95,-0.36,-4.63,38.99,-6.42,1.27,-29.17,3.18,-0.55,2.28
-2,-3,36,-42,-472,3905,-0.06,-0.12,1.97,-0.42,-4.72,39.05,-6.43,1.25,-29.18,3.23,-0.54,2.27
-1,0,23,-70,-426,3914,-0.06,-0.11,1.92,-0.70,-4.26,39.14,-6.42,1.24,-29.18,3.21,-0.58,2.40
0,-1,16,-71,-428,3911,-0.05,-0.11,1.82,-0.71,-4.28,39.11,-6.41,1.23,-29.19,3.19,-0.56,2.48
1,0,3,-42,-464,3910,-0.04,-0.10,1.66,-0.42,-4.64,39.10,-6.42,1.21,-29.20,3.17,-0.57,2.63
1,1,1,-34,-470,3909,-0.03,-0.08,1.50,-0.34,-4.70,39.09,-6.43,1.20,-29.20,3.18,-0.58,2.69
3,0,-2,-32,-469,3898,-0.01,-0.07,1.34,-0.32,-4.69,38.98,-6.44,1.18,-29.21,3.14,-0.56,2.75
3,0,-3,-31,-467,3901,0.01,-0.06,1.18,-0.31,-4.67,39.01,-6.45,1.17,-29.21,3.14,-0.56,2.80
2,-1,-4,-39,-461,3906,0.02,-0.06,1.04,-0.39,-4.61,39.06,-6.45,1.15,-29.22,3.16,-0.53,2.85
2,-1,-3,-34,-459,3907,0.03,-0.06,0.92,-0.34,-4.59,39.07,-6.46,1.13,-29.22,3.16,-0.53,2.87
-1,3,-7,-54,-475,3870,0.02,-0.04,0.78,-0.54,-4.75,38.70,-6.48,1.12,-29.22,3.21,-0.59,2.93
0,1,-3,-37,-473,3909,0.02,-0.03,0.69,-0.37,-4.73,39.09,-6.49,1.11,-29.23,3.20,-0.56,2.92
0,-2,3,-52,-463,3886,0.02,-0.04,0.64,-0.52,-4.63,38.86,-6.50,1.09,-29.23,3.21,-0.50,2.89
0,-1,4,-49,-464,3903,0.02,-0.04,0.60,-0.49,-4.64,39.03,-6.51,1.08,-29.23,3.22,-0.51,2.89
4,-12,18,-107,-470,3993,0.04,-0.11,0.65,-1.07,-4.70,39.93,-6.52,1.10,-29.23,3.15,-0.33,2.76
-7,-115,65,-108,-435,3847,-0.01,-0.80,0.98,-1.08,-4.35,38.47,-6.51,1.11,-29.24,3.33,1.45,2.28
-6,-31,45,-97,-462,3928,-0.04,-0.91,1.16,-0.97,-4.62,39.28,-6.52,1.12,-29.24,3.33,0.19,2.40
-1,-18,57,-112,-473,3910,-0.04,-0.93,1.39,-1.12,-4.73,39.10,-6.53,1.14,-29.25,3.26,-0.00,2.25
-2,2,73,96,-508,3846,-0.05,-0.82,1.69,0.96,-5.08,38.46,-6.54,1.12,-29.25,3.28,-0.33,2.04
-5,4,66,31,-497,3884,-0.08,-0.72,1.93,0.31,-4.97,38.84,-6.55,1.10,-29.26,3.34,-0.39,2.04
0,5,77,26,-491,3898,-0.07,-0.61,2.20,0.26,-4.91,38.98,-6.56,1.08,-29.27,3.27,-0.42,1.88
4,7,77,11,-472,3908,-0.04,-0.51,2.45,0.11,-4.72,39.08,-6.56,1.06,-29.28,3.20,-0.48,1.82
3,2,25,-31,-422,3895,-0.02,-0.45,2.36,-0.31,-4.22,38.95,-6.55,1.04,-29.29,3.20,-0.41,2.28
3,2,15,-21,-450,3901,0.00,-0.39,2.22,-0.21,-4.50,39.01,-6.55,1.03,-29.30,3.20,-0.42,2.40
4,3,4,-25,-468,3897,0.03,-0.33,2.02,-0.25,-4.68,38.97,-6.56,1.01,-29.31,3.18,-0.44,2.55
5,3,2,-38,-457,3901,0.06,-0.28,1.83,-0.38,-4.57,39.01,-6.56,0.99,-29.32,3.16,-0.45,2.61
3,1,-7,-36,-463,3908,0.07,-0.25,1.60,-0.36,-4.63,39.08,-6.57,0.97,-29.32,3.19,-0.42,2.74
3,1,-8,-31,-458,3904,0.08,-0.22,1.39,-0.31,-4.58,39.04,-6.57,0.96,-29.33,3.18,-0.42,2.80
-3,0,-10,-25,-470,3892,0.05,-0.19,1.19,-0.25,-4.70,38.92,-6.58,0.94,-29.33,3.29,-0.41,2.87
-4,-3,-10,-39,-464,3911,0.02,-0.19,1.01,-0.39,-4.64,39.11,-6.59,0.92,-29.34,3.32,-0.35,2.92
-5,-4,-12,-34,-473,3896,-0.01,-0.20,0.84,-0.34,-4.73,38.96,-6.60,0.91,-29.34,3.35,-0.33,2.98
-4,-3,-10,-31,-482,3909,-0.03,-0.20,0.69,-0.31,-4.82,39.09,-6.61,0.89,-29.34,3.35,-0.34,2.99
-3,-3,-7,3,-495,3894,-0.05,-0.20,0.58,0.03,-4.95,38.94,-6.62,0.88,-29.34,3.34,-0.33,3.00
-1,0,-5,21,-499,3901,-0.05,-0.18,0.49,0.21,-4.99,39.01,-6.63,0.86,-29.35,3.31,-0.37,3.00
2,4,-4,-52,-470,3916,-0.03,-0.13,0.42,-0.52,-4.70,39.16,-6.65,0.85,-29.35,3.27,-0.44,3.01
2,3,-6,-85,-442,3898,-0.02,-0.10,0.34,-0.85,-4.42,38.98,-6.64,0.87,-29.35,3.26,-0.44,3.05
1,4,-1,-48,-466,3902,-0.01,-0.07,0.30,-0.48,-4.66,39.02,-6.66,0.86,-29.35,3.28,-0.46,3.02
2,4,-1,-43,-466,3894,0.00,-0.04,0.26,-0.43,-4.66,38.94,-6.67,0.84,-29.35,3.27,-0.47,3.03
1,3,2,-38,-469,3897,0.01,-0.01,0.25,-0.38,-4.69,38.97,-6.68,0.83,-29.35,3.29,-0.45,3.00
0,2,3,-34,-464,3909,0.01,-0.00,0.24,-0.34,-4.64,39.09,-6.68,0.81,-29.35,3.30,-0.43,3.00
0,1,1,-33,-464,3899,0.01,0.01,0.23,-0.33,-4.64,38.99,-6.69,0.79,-29.35,3.31,-0.41,3.02
-1,1,1,-32,-465,3900,0.00,0.01,0.21,-0.32,-4.65,39.00,-6.69,0.77,-29.35,3.33,-0.40,3.02
1,-1,8,-11,-475,3890,0.01,0.00,0.24,-0.11,-4.75,38.90,-6.70,0.76,-29.36,3.30,-0.36,2.96
3,1,4,-30,-454,3897,0.02,0.01,0.24,-0.30,-4.54,38.97,-6.70,0.74,-29.36,3.26,-0.38,2.99
-2,-1,-4,-6,-485,3902,0.01,0.00,0.19,-0.06,-4.85,39.02,-6.71,0.72,-29.36,3.35,-0.34,3.07
2,2,-7,11,-482,3921,0.02,0.01,0.13,0.11,-4.82,39.21,-6.71,0.71,-29.36,3.29,-0.38,3.11
-1,4,-8,35,-523,3871,0.01,0.04,0.07,0.35,-5.23,38.71,-6.72,0.69,-29.36,3.34,-0.42,3.13
0,5,-10,13,-516,3924,0.01,0.06,-0.00,0.13,-5.16,39.24,-6.74,0.68,-29.36,3.33,-0.43,3.17
3,10,-15,-37,-460,3906,0.03,0.12,-0.09,-0.37,-4.60,39.06,-6.73,0.66,-29.36,3.28,-0.52,3.23
4,9,-16,-23,-465,3887,0.05,0.16,-0.18,-0.23,-4.65,38.87,-6.74,0.64,-29.36,3.26,-0.51,3.26
3,7,-15,17,-498,3866,0.06,0.19,-0.25,0.17,-4.98,38.66,-6.75,0.63,-29.35,3.27,-0.48,3.27
1,5,-15,31,-500,3878,0.06,0.20,-0.32,0.31,-5.00,38.78,-6.76,0.61,-29.35,3.31,-0.44,3.29
1,2,-14,-21,-453,3887,0.06,0.19,-0.37,-0.21,-4.53,38.87,-6.75,0.60,-29.35,3.31,-0.39,3.29
3,2,-17,-40,-417,3899,0.08,0.19,-0.44,-0.40,-4.17,38.99,-6.73,0.60,-29.35,3.26,-0.38,3.33
1,-1,-41,-14,-431,3883,0.07,0.16,-0.65,-0.14,-4.31,38.83,-6.72,0.59,-29.35,3.29,-0.32,3.59
0,-3,-48,-90,-430,3940,0.07,0.13,-0.87,-0.90,-4.30,39.40,-6.71,0.60,-29.34,3.30,-0.29,3.70
3,-3,-46,4,-466,3886,0.08,0.10,-1.07,0.04,-4.66,38.86,-6.71,0.58,-29.34,3.25,-0.27,3.73
1,-1,-47,-41,-449,3901,0.08,0.08,-1.25,-0.41,-4.49,39.01,-6.69,0.58,-29.34,3.27,-0.30,3.79
0,1,-53,-37,-459,3910,0.07,0.08,-1.45,-0.37,-4.59,39.10,-6.69,0.57,-29.33,3.29,-0.32,3.88
2,1,-52,-38,-475,3901,0.07,0.08,-1.62,-0.38,-4.75,39.01,-6.71,0.56,-29.32,3.27,-0.32,3.92
1,1,-51,-43,-453,3896,0.07,0.07,-1.77,-0.43,-4.53,38.96,-6.70,0.58,-29.32,3.28,-0.32,3.95
