gyroADC_X,gyroADC_Y,gyroADC_Z,accADC_X,accADC_Y,accADC_Z,GyroX,GyroY,GyroZ,AccX,AccY,AccZ,roll_IMU,pitch_IMU,yaw_IMU,roll_PID,pitch_PID,yaw_PID
-4,-9,-56,-34,-361,3958,-0.34,-0.53,-8.48,-0.34,-3.61,39.58,-3.51,-1.19,112.42,2.49,1.11,-10.46
-1,-5,-47,-103,-298,3924,-0.31,-0.51,-7.92,-1.03,-2.98,39.24,-3.52,-1.18,112.45,2.43,1.02,-10.71
6,3,-75,-120,-283,3977,-0.24,-0.44,-7.58,-1.20,-2.83,39.77,-3.52,-1.16,112.48,2.27,0.83,-10.58
-2,12,-82,-43,-274,3916,-0.23,-0.32,-7.32,-0.43,-2.74,39.16,-3.53,-1.15,112.51,2.43,0.60,-10.60
7,7,-71,41,-288,3912,-0.16,-0.25,-7.03,0.41,-2.88,39.12,-3.54,-1.14,112.54,2.24,0.68,-10.79
7,6,-66,62,-269,3913,-0.11,-0.19,-6.73,0.62,-2.69,39.13,-3.56,-1.13,112.57,2.24,0.68,-10.92
6,11,-93,72,-328,3956,-0.06,-0.10,-6.62,0.72,-3.28,39.56,-3.58,-1.13,112.59,2.25,0.55,-10.73
7,20,-119,0,-339,3928,-0.01,0.03,-6.68,0.00,-3.39,39.28,-3.59,-1.12,112.62,2.23,0.33,-10.49
3,9,-149,21,-294,3901,0.01,0.08,-6.92,0.21,-2.94,39.01,-3.60,-1.11,112.65,2.31,0.53,-10.17
7,9,-125,44,-328,3903,0.05,0.13,-6.99,0.44,-3.28,39.03,-3.62,-1.11,112.68,2.23,0.51,-10.36
-7,-6,-67,22,-337,3911,0.00,0.08,-6.70,0.22,-3.37,39.11,-3.63,-1.10,112.70,2.54,0.82,-10.94
-7,-9,-67,17,-324,3916,-0.04,0.02,-6.44,0.17,-3.24,39.16,-3.65,-1.09,112.73,2.56,0.90,-11.02
-7,-12,-67,37,-336,3907,-0.08,-0.06,-6.21,0.37,-3.36,39.07,-3.66,-1.08,112.75,2.58,0.97,-11.09
-9,-9,-38,40,-308,3907,-0.13,-0.11,-5.82,0.40,-3.08,39.07,-3.68,-1.07,112.78,2.65,0.92,-11.46
-10,-8,-33,-5,-314,3921,-0.17,-0.14,-5.44,-0.05,-3.14,39.21,-3.69,-1.06,112.80,2.69,0.90,-11.62
-1,-4,-75,-142,-327,3933,-0.16,-0.15,-5.35,-1.42,-3.27,39.33,-3.70,-1.05,112.82,2.51,0.81,-11.29
3,1,-106,-158,-298,3957,-0.13,-0.13,-5.46,-1.58,-2.98,39.57,-3.70,-1.03,112.84,2.42,0.70,-11.00
11,17,-180,-88,-301,3901,-0.05,-0.02,-6.01,-0.88,-3.01,39.01,-3.71,-1.01,112.86,2.24,0.33,-10.21
6,16,-188,-63,-307,3900,-0.01,0.08,-6.56,-0.63,-3.07,39.00,-3.71,-1.00,112.89,2.33,0.31,-9.98
12,16,-219,-23,-349,3903,0.07,0.17,-7.24,-0.23,-3.49,39.03,-3.73,-0.99,112.92,2.20,0.28,-9.51
1,9,-231,-15,-396,3872,0.07,0.21,-7.92,-0.15,-3.96,38.72,-3.74,-0.98,112.95,2.43,0.41,-9.21
9,-1,-225,50,-93,3881,0.11,0.18,-8.50,0.50,-0.93,38.81,-3.72,-0.98,112.98,2.24,0.62,-9.09
-2,-10,-239,6,-220,3858,0.09,0.10,-9.11,0.06,-2.20,38.58,-3.71,-0.97,113.02,2.47,0.81,-8.79
-7,-1,-247,-130,-527,3890,0.04,0.09,-9.71,-1.30,-5.27,38.90,-3.73,-0.96,113.06,2.59,0.63,-8.55
-11,3,-248,-79,-569,3955,-0.03,0.10,-10.25,-0.79,-5.69,39.55,-3.74,-0.95,113.10,2.70,0.54,-8.38
10,7,-209,-1,-254,3913,0.03,0.13,-10.50,-0.01,-2.54,39.13,-3.74,-0.94,113.14,2.26,0.44,-8.64
4,12,-217,-27,-224,3903,0.05,0.19,-10.77,-0.27,-2.24,39.03,-3.73,-0.92,113.18,2.37,0.31,-8.50
5,20,-326,3,-18,3938,0.08,0.29,-11.68,0.03,-0.18,39.38,-3.71,-0.92,113.23,2.33,0.12,-7.31
3,19,-324,-6,-44,3925,0.09,0.38,-12.49,-0.06,-0.44,39.25,-3.70,-0.91,113.28,2.35,0.11,-7.09
-4,8,-352,-50,-269,3898,0.06,0.39,-13.39,-0.50,-2.69,38.98,-3.70,-0.90,113.34,2.51,0.32,-6.59
-5,-4,-373,-47,-216,3928,0.02,0.33,-14.33,-0.47,-2.16,39.28,-3.69,-0.88,113.39,2.53,0.57,-6.13
26,2,-491,7,-321,3970,0.18,0.31,-15.89,0.07,-3.21,39.70,-3.70,-0.87,113.46,1.87,0.45,-4.67
4,4,-436,-10,-270,3930,0.18,0.30,-16.96,-0.10,-2.70,39.30,-3.71,-0.86,113.52,2.31,0.40,-4.82
-5,-21,-449,72,-541,4009,0.13,0.14,-18.00,0.72,-5.41,40.09,-3.72,-0.86,113.60,2.52,0.96,-4.41
-7,8,-426,-58,-617,3904,0.08,0.18,-18.80,-0.58,-6.17,39.04,-3.74,-0.86,113.67,2.59,0.36,-4.37
7,6,-277,82,-544,3866,0.11,0.20,-18.61,0.82,-5.44,38.66,-3.75,-0.87,113.74,2.31,0.40,-5.70
-2,5,-215,169,-482,3876,0.09,0.21,-18.06,1.69,-4.82,38.76,-3.77,-0.88,113.82,2.50,0.42,-6.40
-23,5,-164,-20,-348,3893,-0.06,0.22,-17.26,-0.20,-3.48,38.93,-3.78,-0.87,113.88,2.98,0.41,-7.08
-14,-6,-156,3,-349,3954,-0.14,0.16,-16.48,0.03,-3.49,39.54,-3.80,-0.86,113.95,2.83,0.65,-7.39
0,8,-121,68,-207,3862,-0.13,0.19,-15.57,0.68,-2.07,38.62,-3.78,-0.87,114.01,2.53,0.36,-7.97
0,17,-115,44,-275,3925,-0.11,0.28,-14.72,0.44,-2.75,39.25,-3.79,-0.86,114.07,2.53,0.15,-8.28
2,5,-34,100,-346,3933,-0.09,0.28,-13.45,1.00,-3.46,39.33,-3.81,-0.87,114.13,2.50,0.40,-9.36
1,5,-15,5,-336,3947,-0.07,0.28,-12.20,0.05,-3.36,39.47,-3.82,-0.86,114.17,2.52,0.39,-9.90
4,0,-7,1,-332,3939,-0.04,0.25,-11.02,0.01,-3.32,39.39,-3.84,-0.85,114.22,2.46,0.49,-10.33
3,1,-2,-4,-341,3927,-0.02,0.23,-9.93,-0.04,-3.41,39.27,-3.85,-0.84,114.26,2.48,0.47,-10.70
1,3,2,-4,-301,3938,-0.01,0.23,-8.93,-0.04,-3.01,39.38,-3.86,-0.83,114.29,2.53,0.42,-11.04
2,-1,1,-7,-296,3930,0.00,0.20,-8.03,-0.07,-2.96,39.30,-3.87,-0.81,114.32,2.51,0.50,-11.31
1,-2,0,-9,-330,3910,0.01,0.17,-7.22,-0.09,-3.30,39.10,-3.88,-0.80,114.35,2.54,0.52,-11.55
0,-3,-1,-13,-331,3914,0.01,0.13,-6.51,-0.13,-3.31,39.14,-3.89,-0.79,114.38,2.57,0.55,-11.76
-2,-5,-2,-17,-299,3902,-0.01,0.09,-5.87,-0.17,-2.99,39.02,-3.90,-0.77,114.40,2.61,0.59,-11.94
-2,-4,-4,-18,-306,3910,-0.02,0.06,-5.31,-0.18,-3.06,39.10,-3.91,-0.76,114.42,2.62,0.57,-12.10
-4,-5,-4,-12,-319,3921,-0.04,0.02,-4.80,-0.12,-3.19,39.21,-3.92,-0.75,114.44,2.68,0.59,-12.25
-6,-6,-1,-13,-319,3902,-0.07,-0.02,-4.33,-0.13,-3.19,39.02,-3.93,-0.73,114.46,2.74,0.61,-12.42
-10,-4,2,-7,-322,3909,-0.13,-0.04,-3.88,-0.07,-3.22,39.09,-3.94,-0.72,114.47,2.84,0.57,-12.59
-5,-7,1,-53,-353,3871,-0.14,-0.08,-3.49,-0.53,-3.53,38.71,-3.95,-0.71,114.49,2.75,0.63,-12.70
-1,-5,-28,-46,-353,3937,-0.14,-0.10,-3.31,-0.46,-3.53,39.37,-3.97,-0.70,114.50,2.68,0.59,-12.51
-1,-3,-25,-10,-319,3931,-0.13,-0.11,-3.13,-0.10,-3.19,39.31,-3.98,-0.68,114.51,2.68,0.54,-12.59
-1,-2,-17,19,-296,3912,-0.12,-0.11,-2.92,0.19,-2.96,39.12,-3.99,-0.67,114.53,2.69,0.51,-12.72
-3,-2,-13,21,-308,3909,-0.13,-0.11,-2.71,0.21,-3.08,39.09,-4.01,-0.66,114.54,2.74,0.51,-12.82
-1,0,-13,-4,-299,3899,-0.12,-0.10,-2.52,-0.04,-2.99,38.99,-4.02,-0.65,114.55,2.70,0.45,-12.88
-1,0,-13,-4,-304,3908,-0.12,-0.09,-2.34,-0.04,-3.04,39.08,-4.03,-0.63,114.56,2.71,0.44,-12.93
-3,-2,-7,-4,-321,3912,-0.12,-0.09,-2.15,-0.04,-3.21,39.12,-4.04,-0.62,114.56,2.76,0.48,-13.04
-4,-3,-2,-19,-340,3903,-0.13,-0.10,-1.95,-0.19,-3.40,39.03,-4.05,-0.61,114.57,2.79,0.49,-13.14
-3,-4,-7,-84,-346,3897,-0.14,-0.12,-1.80,-0.84,-3.46,38.97,-4.06,-0.59,114.58,2.78,0.50,-13.15
-4,-6,-15,-105,-372,3892,-0.15,-0.14,-1.71,-1.05,-3.72,38.92,-4.07,-0.58,114.59,2.81,0.54,-13.11
5,10,-45,43,-369,3983,-0.10,-0.07,-1.81,0.43,-3.69,39.83,-4.09,-0.58,114.59,2.63,0.20,-12.82
3,16,-65,-8,-414,3904,-0.08,0.04,-2.03,-0.08,-4.14,39.04,-4.11,-0.57,114.60,2.67,0.04,-12.59
-3,3,-67,-7,-253,3861,-0.09,0.05,-2.23,-0.07,-2.53,38.61,-4.10,-0.56,114.61,2.79,0.29,-12.51
-3,-2,-59,25,-254,3890,-0.10,0.03,-2.37,0.25,-2.54,38.90,-4.08,-0.55,114.62,2.78,0.39,-12.54
-6,-4,-17,35,-286,3930,-0.12,0.01,-2.24,0.35,-2.86,39.30,-4.10,-0.54,114.63,2.86,0.44,-12.94
-6,-5,-14,16,-302,3919,-0.15,-0.02,-2.10,0.16,-3.02,39.19,-4.11,-0.53,114.64,2.88,0.46,-13.01
-5,-5,-12,-15,-317,3920,-0.16,-0.05,-1.96,-0.15,-3.17,39.20,-4.12,-0.52,114.64,2.87,0.46,-13.06
-3,-2,-12,-17,-308,3922,-0.16,-0.06,-1.84,-0.17,-3.08,39.22,-4.13,-0.50,114.65,2.83,0.39,-13.10
1,0,-24,-33,-327,3918,-0.14,-0.05,-1.80,-0.33,-3.27,39.18,-4.14,-0.49,114.66,2.75,0.33,-13.01
2,0,-29,-26,-334,3920,-0.12,-0.05,-1.80,-0.26,-3.34,39.20,-4.16,-0.47,114.66,2.73,0.32,-12.97
5,-2,-21,49,-307,3938,-0.07,-0.06,-1.75,0.49,-3.07,39.38,-4.17,-0.48,114.67,2.67,0.38,-13.06
3,-6,-18,30,-297,3947,-0.05,-0.09,-1.68,0.30,-2.97,39.47,-4.19,-0.48,114.68,2.72,0.46,-13.10
3,-5,-16,-16,-334,3946,-0.03,-0.11,-1.61,-0.16,-3.34,39.46,-4.20,-0.47,114.68,2.72,0.44,-13.14
4,-3,-16,-23,-342,3940,0.00,-0.12,-1.55,-0.23,-3.42,39.40,-4.21,-0.45,114.69,2.70,0.39,-13.16
9,5,-23,-54,-378,3917,0.06,-0.07,-1.53,-0.54,-3.78,39.17,-4.23,-0.44,114.70,2.59,0.21,-13.11
15,13,-54,-94,-434,3947,0.14,0.01,-1.71,-0.94,-4.34,39.47,-4.24,-0.43,114.70,2.45,0.02,-12.79
8,15,-191,-69,-219,3992,0.18,0.10,-2.70,-0.69,-2.19,39.92,-4.23,-0.42,114.71,2.58,-0.06,-11.33
3,-8,-154,-6,-531,3886,0.18,0.04,-3.37,-0.06,-5.31,38.86,-4.24,-0.41,114.73,2.69,0.42,-11.45
5,2,-127,-44,-282,3785,0.19,0.05,-3.81,-0.44,-2.82,37.85,-4.24,-0.40,114.74,2.65,0.21,-11.55
-1,-9,-122,18,-365,3793,0.17,-0.01,-4.17,0.18,-3.65,37.93,-4.26,-0.40,114.76,2.79,0.45,-11.48
-9,0,-73,156,-189,3889,0.09,-0.01,-4.20,1.56,-1.89,38.89,-4.25,-0.41,114.78,2.96,0.27,-11.89
-10,-2,-63,157,-261,3958,0.02,-0.02,-4.17,1.57,-2.61,39.58,-4.24,-0.43,114.79,3.00,0.33,-11.99
-16,-17,-21,-10,-350,3953,-0.08,-0.12,-3.88,-0.10,-3.50,39.53,-4.26,-0.42,114.81,3.16,0.66,-12.43
-15,-16,-15,-63,-367,3935,-0.16,-0.21,-3.58,-0.63,-3.67,39.35,-4.27,-0.41,114.82,3.17,0.65,-12.57
-3,5,-35,24,-296,3924,-0.16,-0.16,-3.44,0.24,-2.96,39.24,-4.28,-0.40,114.84,2.93,0.20,-12.45
0,11,-40,60,-292,3941,-0.15,-0.07,-3.34,0.60,-2.92,39.41,-4.28,-0.42,114.85,2.87,0.07,-12.44
-5,4,-48,29,-266,3882,-0.16,-0.04,-3.30,0.29,-2.66,38.82,-4.26,-0.42,114.86,2.96,0.21,-12.38
-3,-3,-34,11,-278,3932,-0.16,-0.06,-3.17,0.11,-2.78,39.32,-4.25,-0.40,114.88,2.91,0.34,-12.54
-1,-6,-11,-6,-318,3934,-0.15,-0.09,-2.92,-0.06,-3.18,39.34,-4.26,-0.39,114.89,2.88,0.40,-12.81
0,-5,-8,-4,-318,3924,-0.14,-0.11,-2.68,-0.04,-3.18,39.24,-4.28,-0.38,114.90,2.86,0.38,-12.91
1,1,2,-12,-329,3933,-0.12,-0.09,-2.40,-0.12,-3.29,39.33,-4.29,-0.37,114.91,2.84,0.25,-13.08
0,2,7,-21,-325,3912,-0.11,-0.07,-2.12,-0.21,-3.25,39.12,-4.30,-0.35,114.92,2.87,0.21,-13.21
1,2,6,-21,-326,3907,-0.09,-0.05,-1.87,-0.21,-3.26,39.07,-4.31,-0.34,114.92,2.85,0.20,-13.28
2,1,4,-24,-317,3907,-0.07,-0.04,-1.66,-0.24,-3.17,39.07,-4.32,-0.32,114.93,2.83,0.20,-13.33
2,0,0,-16,-324,3915,-0.05,-0.04,-1.49,-0.16,-3.24,39.15,-4.33,-0.31,114.93,2.83,0.21,-13.34
2,-1,-1,-10,-322,3918,-0.03,-0.04,-1.35,-0.10,-3.22,39.18,-4.34,-0.29,114.94,2.83,0.22,-13.38
1,0,-1,-7,-323,3926,-0.02,-0.03,-1.22,-0.07,-3.23,39.26,-4.35,-0.28,114.94,2.86,0.19,-13.42
1,0,0,-9,-326,3927,-0.01,-0.03,-1.10,-0.09,-3.26,39.27,-4.37,-0.27,114.95,2.87,0.19,-13.46
0,2,6,-27,-315,3921,-0.01,-0.02,-0.95,-0.27,-3.15,39.21,-4.37,-0.25,114.95,2.89,0.13,-13.56
-2,2,7,-15,-320,3911,-0.02,-0.00,-0.81,-0.15,-3.20,39.11,-4.38,-0.24,114.96,2.94,0.12,-13.61
-9,-1,12,-10,-341,3914,-0.08,-0.01,-0.66,-0.10,-3.41,39.14,-4.40,-0.23,114.96,3.11,0.17,-13.70
-4,-2,15,19,-419,3837,-0.09,-0.02,-0.50,0.19,-4.19,38.37,-4.42,-0.23,114.96,3.02,0.20,-13.77
13,14,213,-268,-829,3991,-0.00,0.07,0.85,-2.68,-8.29,39.91,-4.43,-0.22,114.96,2.66,-0.16,-15.85
3,10,283,-15,-462,3995,0.01,0.12,2.49,-0.15,-4.62,39.95,-4.45,-0.21,114.95,2.87,-0.10,-16.94
-12,-7,162,-17,-26,3878,-0.06,0.07,3.23,-0.17,-0.26,38.78,-4.43,-0.21,114.93,3.19,0.26,-16.14
-11,-9,104,48,6,3881,-0.12,0.01,3.54,0.48,0.06,38.81,-4.42,-0.21,114.92,3.17,0.32,-15.74
-7,-8,12,59,-258,3967,-0.15,-0.04,3.26,0.59,-2.58,39.67,-4.40,-0.22,114.91,3.09,0.32,-14.87
3,-8,0,23,-302,3942,-0.12,-0.09,2.93,0.23,-3.02,39.42,-4.40,-0.24,114.90,2.88,0.34,-14.67
14,6,2,41,-302,3979,-0.02,-0.04,2.65,0.41,-3.02,39.79,-4.40,-0.26,114.89,2.62,0.06,-14.60
16,8,5,30,-332,3958,0.08,0.01,2.42,0.30,-3.32,39.58,-4.41,-0.26,114.88,2.57,0.01,-14.56
13,2,22,4,-333,3915,0.15,0.02,2.31,0.04,-3.33,39.15,-4.43,-0.26,114.87,2.62,0.12,-14.67
11,-1,23,-31,-344,3906,0.20,0.01,2.22,-0.31,-3.44,39.06,-4.44,-0.24,114.86,2.65,0.18,-14.65
5,-3,20,-46,-332,3884,0.21,-0.01,2.12,-0.46,-3.32,38.84,-4.45,-0.22,114.85,2.78,0.21,-14.59
2,-3,25,-63,-307,3899,0.20,-0.02,2.06,-0.63,-3.07,38.99,-4.45,-0.20,114.84,2.84,0.20,-14.61
3,1,25,-19,-311,3908,0.20,-0.02,2.01,-0.19,-3.11,39.08,-4.45,-0.19,114.83,2.82,0.11,-14.60
2,0,28,-31,-312,3919,0.19,-0.01,1.98,-0.31,-3.12,39.19,-4.45,-0.17,114.82,2.85,0.11,-14.61
3,-2,22,-6,-308,3908,0.19,-0.02,1.91,-0.06,-3.08,39.08,-4.46,-0.15,114.82,2.83,0.15,-14.54
5,-2,14,11,-325,3915,0.20,-0.03,1.81,0.11,-3.25,39.15,-4.47,-0.15,114.81,2.80,0.15,-14.44
3,-4,8,-25,-314,3927,0.20,-0.06,1.68,-0.25,-3.14,39.27,-4.48,-0.13,114.80,2.84,0.18,-14.35
4,-1,11,-51,-264,3940,0.21,-0.06,1.57,-0.51,-2.64,39.40,-4.46,-0.12,114.80,2.81,0.11,-14.34
-2,0,21,-11,-357,3897,0.17,-0.05,1.55,-0.11,-3.57,38.97,-4.48,-0.11,114.79,2.95,0.09,-14.42
-6,-2,14,16,-340,3900,0.12,-0.06,1.48,0.16,-3.40,39.00,-4.50,-0.11,114.78,3.06,0.13,-14.34
-15,9,36,-71,-421,3902,0.02,0.00,1.55,-0.71,-4.21,39.02,-4.51,-0.10,114.78,3.28,-0.12,-14.54
-14,10,62,-38,-361,3857,-0.07,0.06,1.77,-0.38,-3.61,38.57,-4.53,-0.09,114.77,3.29,-0.16,-14.83
1,16,68,-124,-306,3953,-0.06,0.16,2.01,-1.24,-3.06,39.53,-4.53,-0.07,114.76,2.98,-0.32,-14.95
-10,6,70,21,-377,3829,-0.11,0.18,2.24,0.21,-3.77,38.29,-4.55,-0.07,114.75,3.23,-0.12,-15.04
-14,-15,198,-35,-291,3948,-0.19,0.07,3.22,-0.35,-2.91,39.48,-4.54,-0.06,114.74,3.33,0.32,-16.42
-11,-5,188,-101,-340,3910,-0.24,0.03,4.04,-1.01,-3.40,39.10,-4.54,-0.04,114.73,3.29,0.12,-16.58
-5,-6,208,-82,-171,3919,-0.24,-0.01,4.91,-0.82,-1.71,39.19,-4.53,-0.03,114.71,3.16,0.14,-17.01
-5,-1,218,-80,-148,3986,-0.25,-0.01,5.75,-0.80,-1.48,39.86,-4.51,-0.02,114.68,3.15,0.04,-17.34
-20,1,256,-126,-435,3947,-0.35,-0.01,6.73,-1.26,-4.35,39.47,-4.53,-0.00,114.66,3.49,-0.02,-17.96
-13,32,252,-3,-338,3939,-0.39,0.19,7.60,-0.03,-3.38,39.39,-4.55,0.00,114.63,3.37,-0.70,-18.18
10,-12,257,-53,-366,3898,-0.29,0.10,8.41,-0.53,-3.66,38.98,-4.56,0.02,114.59,2.89,0.20,-18.46
-12,0,208,-55,-585,3890,-0.33,0.09,8.83,-0.55,-5.85,38.90,-4.58,0.03,114.56,3.36,-0.04,-18.17
7,15,99,129,-416,3943,-0.26,0.17,8.55,1.29,-4.16,39.43,-4.59,0.02,114.52,2.96,-0.36,-17.16
7,6,103,109,-402,3910,-0.19,0.19,8.33,1.09,-4.02,39.10,-4.60,0.00,114.49,2.95,-0.18,-17.12
18,1,104,0,-370,3912,-0.06,0.18,8.13,0.00,-3.70,39.12,-4.62,0.01,114.46,2.70,-0.07,-17.06
17,-2,99,-7,-362,3905,0.05,0.15,7.92,-0.07,-3.62,39.05,-4.64,0.01,114.43,2.70,-0.01,-16.95
22,-54,184,199,-1187,4141,0.18,-0.20,8.25,1.99,-11.87,41.41,-4.66,0.01,114.39,2.58,1.14,-17.77
26,-4,475,53,-1552,3655,0.32,-0.20,10.32,0.53,-15.52,36.55,-4.68,0.01,114.35,2.47,0.13,-20.00
2,-34,1884,96,-1981,4043,0.30,-0.39,20.78,0.96,-19.81,40.43,-4.69,0.02,114.27,2.97,0.79,-20.00
19,37,2186,131,-1707,3627,0.39,-0.12,32.04,1.31,-17.07,36.27,-4.71,0.03,114.14,2.62,-0.73,-20.00
8,18,2019,109,370,3963,0.40,-0.00,41.15,1.09,3.70,39.63,-4.69,0.04,113.98,2.82,-0.39,-20.00
38,42,1684,46,581,3892,0.59,0.25,47.31,0.46,5.81,38.92,-4.67,0.05,113.79,2.15,-0.96,-20.00
-12,11,1054,-8,329,3697,0.46,0.30,49.01,-0.08,3.29,36.97,-4.65,0.07,113.59,3.19,-0.35,-20.00
-14,-8,839,87,466,3871,0.32,0.22,49.22,0.87,4.66,38.71,-4.63,0.08,113.40,3.25,0.05,-20.00
-14,-36,205,-194,367,3776,0.21,-0.02,45.55,-1.94,3.67,37.76,-4.61,0.10,113.22,3.27,0.67,-20.00
-28,-25,59,-295,129,3899,0.02,-0.17,41.36,-2.95,1.29,38.99,-4.59,0.13,113.05,3.60,0.47,-20.00
-33,-17,-32,-249,-195,3958,-0.19,-0.26,37.03,-2.49,-1.95,39.58,-4.59,0.15,112.90,3.75,0.32,-20.00
-37,-16,-30,-154,-273,3897,-0.39,-0.33,33.14,-1.54,-2.73,38.97,-4.58,0.18,112.77,3.88,0.30,-20.00
-27,-16,-5,-154,-512,3963,-0.52,-0.40,29.80,-1.54,-5.12,39.63,-4.60,0.20,112.65,3.73,0.30,-20.00
-23,-14,16,-192,-541,3957,-0.61,-0.44,26.91,-1.92,-5.41,39.57,-4.61,0.22,112.54,3.68,0.26,-20.00
9,-10,93,-293,-661,3959,-0.49,-0.46,24.79,-2.93,-6.61,39.59,-4.63,0.23,112.45,3.01,0.17,-20.00
6,-4,147,-169,-533,4128,-0.41,-0.44,23.21,-1.69,-5.33,41.28,-4.65,0.25,112.35,3.06,0.03,-20.00
15,21,269,-106,-375,3940,-0.27,-0.27,22.53,-1.06,-3.75,39.40,-4.66,0.27,112.26,2.84,-0.53,-20.00
15,19,282,-89,-369,3968,-0.16,-0.12,22.00,-0.89,-3.69,39.68,-4.67,0.29,112.18,2.82,-0.55,-20.00
8,22,266,19,-251,3879,-0.09,0.02,21.42,0.19,-2.51,38.79,-4.65,0.29,112.09,2.93,-0.65,-20.00
17,9,225,114,-52,3904,0.02,0.08,20.65,1.14,-0.52,39.04,-4.63,0.29,112.01,2.71,-0.40,-20.00
7,3,102,186,-32,3843,0.06,0.09,19.21,1.86,-0.32,38.43,-4.62,0.29,111.93,2.89,-0.27,-20.00
3,-3,58,180,-90,3856,0.07,0.06,17.64,1.80,-0.90,38.56,-4.60,0.28,111.86,2.96,-0.14,-19.23
-10,-9,13,154,-265,3903,0.01,-0.00,15.95,1.54,-2.65,39.03,-4.60,0.27,111.80,3.24,0.01,-18.33
-11,-10,12,130,-280,3922,-0.06,-0.06,14.43,1.30,-2.80,39.22,-4.60,0.25,111.74,3.27,0.05,-17.86
-10,-12,29,-46,-391,3947,-0.12,-0.13,13.17,-0.46,-3.91,39.47,-4.61,0.26,111.69,3.28,0.10,-17.61
-9,-10,44,-81,-450,3943,-0.16,-0.18,12.12,-0.81,-4.50,39.43,-4.63,0.28,111.64,3.28,0.07,-17.42
-4,5,130,-109,-462,3912,-0.17,-0.13,11.70,-1.09,-4.62,39.12,-4.65,0.29,111.59,3.19,-0.26,-18.02
7,8,154,-121,-479,4004,-0.11,-0.07,11.47,-1.21,-4.79,40.04,-4.66,0.30,111.55,2.96,-0.34,-18.14
10,11,211,-62,-333,3924,-0.04,0.01,11.61,-0.62,-3.33,39.24,-4.67,0.32,111.50,2.89,-0.44,-18.66
-9,14,207,-15,-253,3904,-0.09,0.09,11.71,-0.15,-2.53,39.04,-4.65,0.33,111.45,3.27,-0.52,-18.65
1,-10,177,-20,-123,3859,-0.07,0.02,11.62,-0.20,-1.23,38.59,-4.63,0.33,111.41,3.06,-0.02,-18.37
-6,-3,192,19,-129,3877,-0.10,0.00,11.63,0.19,-1.29,38.77,-4.61,0.33,111.36,3.19,-0.16,-18.49
-5,2,224,-12,-277,3906,-0.12,0.01,11.83,-0.12,-2.77,39.06,-4.59,0.33,111.31,3.17,-0.26,-18.82
-7,-3,240,46,-276,3912,-0.15,-0.01,12.11,0.46,-2.76,39.12,-4.59,0.32,111.26,3.21,-0.15,-19.03
-15,-11,318,60,-155,3935,-0.23,-0.07,12.84,0.60,-1.55,39.35,-4.57,0.31,111.21,3.38,0.04,-19.91
-11,-14,274,6,-263,3969,-0.27,-0.15,13.23,0.06,-2.63,39.69,-4.56,0.31,111.16,3.30,0.12,-19.64
-1,-1,270,-72,-478,3935,-0.25,-0.14,13.55,-0.72,-4.78,39.35,-4.57,0.32,111.11,3.11,-0.15,-19.70
-3,5,315,-64,-470,3926,-0.25,-0.10,14.12,-0.64,-4.70,39.26,-4.59,0.33,111.05,3.16,-0.29,-20.00
-3,0,478,-70,-370,3941,-0.24,-0.09,15.62,-0.70,-3.70,39.41,-4.61,0.34,110.99,3.17,-0.20,-20.00
3,-10,528,-130,-353,3934,-0.20,-0.14,17.28,-1.30,-3.53,39.34,-4.61,0.36,110.92,3.04,0.00,-20.00
7,12,547,-66,-407,3873,-0.13,-0.05,18.89,-0.66,-4.07,38.73,-4.63,0.38,110.84,2.95,-0.48,-20.00
-13,1,543,-68,-299,3929,-0.20,-0.04,20.31,-0.68,-2.99,39.29,-4.62,0.40,110.76,3.37,-0.27,-20.00
0,6,483,27,-184,3904,-0.18,-0.00,21.23,0.27,-1.84,39.04,-4.60,0.40,110.68,3.09,-0.39,-20.00
-2,8,489,32,-122,3878,-0.17,0.05,22.09,0.32,-1.22,38.78,-4.59,0.40,110.59,3.12,-0.44,-20.00
1,4,516,-34,-187,3932,-0.15,0.07,23.03,-0.34,-1.87,39.32,-4.57,0.41,110.50,3.04,-0.37,-20.00
-3,5,512,-49,-270,3923,-0.15,0.09,23.85,-0.49,-2.70,39.23,-4.55,0.43,110.40,3.11,-0.41,-20.00
-6,3,522,-76,-377,3873,-0.18,0.10,24.65,-0.76,-3.77,38.73,-4.57,0.45,110.30,3.18,-0.38,-20.00
-16,3,527,-36,-405,3938,-0.26,0.11,25.40,-0.36,-4.05,39.38,-4.59,0.45,110.20,3.42,-0.39,-20.00
-14,10,543,-8,-419,3901,-0.32,0.16,26.17,-0.08,-4.19,39.01,-4.60,0.46,110.10,3.41,-0.55,-20.00
-22,-1,549,33,-414,3900,-0.42,0.14,26.90,0.33,-4.14,39.00,-4.62,0.46,109.99,3.61,-0.32,-20.00
-39,-17,568,57,-366,3912,-0.61,0.02,27.68,0.57,-3.66,39.12,-4.63,0.45,109.88,4.02,0.04,-20.00
-17,-13,554,138,-439,3869,-0.66,-0.06,28.29,1.38,-4.39,38.69,-4.64,0.45,109.77,3.59,-0.01,-20.00
-32,-34,559,42,-342,3885,-0.79,-0.26,28.87,0.42,-3.42,38.85,-4.65,0.44,109.65,3.94,0.47,-20.00
-50,-39,571,-74,-368,3904,-1.01,-0.47,29.47,-0.74,-3.68,39.04,-4.67,0.46,109.54,4.37,0.62,-20.00
-53,-51,640,83,-276,3858,-1.23,-0.74,30.42,0.83,-2.76,38.58,-4.67,0.45,109.42,4.49,0.94,-20.00
-76,-71,599,96,-298,3926,-1.57,-1.10,31.03,0.96,-2.98,39.26,-4.67,0.43,109.29,5.06,1.46,-20.00
-47,-35,440,52,-278,4071,-1.70,-1.20,30.61,0.52,-2.78,40.71,-4.67,0.42,109.17,4.50,0.76,-20.00
-42,-38,405,7,-348,3864,-1.79,-1.31,30.02,0.07,-3.48,38.64,-4.68,0.42,109.05,4.43,0.86,-20.00
-44,-33,402,-55,-325,3869,-1.88,-1.38,29.47,-0.55,-3.25,38.69,-4.70,0.44,108.93,4.51,0.76,-20.00
-94,-62,402,-72,-341,3848,-2.26,-1.62,28.98,-0.72,-3.41,38.48,-4.71,0.46,108.81,5.64,1.40,-20.00
-25,-13,455,20,-400,3928,-2.19,-1.54,28.86,0.20,-4.00,39.28,-4.74,0.45,108.70,4.23,0.39,-20.00
-33,-18,495,14,-410,3883,-2.17,-1.50,28.99,0.14,-4.10,38.83,-4.76,0.44,108.58,4.41,0.48,-20.00
-26,-11,704,-103,-310,3990,-2.11,-1.41,30.39,-1.03,-3.10,39.90,-4.76,0.47,108.46,4.25,0.30,-20.00
-32,-19,733,4,-452,3939,-2.10,-1.39,31.82,0.04,-4.52,39.39,-4.79,0.47,108.33,4.38,0.46,-20.00
-26,-14,664,-84,-374,4079,-2.05,-1.33,32.69,-0.84,-3.74,40.79,-4.80,0.49,108.20,4.26,0.33,-20.00
-2,-5,609,-86,-332,3881,-1.85,-1.23,33.13,-0.86,-3.32,38.81,-4.81,0.51,108.07,3.72,0.10,-20.00
-6,-10,439,-8,-300,3890,-1.71,-1.17,32.50,-0.08,-3.00,38.90,-4.80,0.51,107.94,3.76,0.19,-20.00
-8,1,422,-63,-280,3882,-1.58,-1.05,31.82,-0.63,-2.80,38.82,-4.79,0.52,107.81,3.76,-0.08,-20.00
-14,-4,392,62,-326,3927,-1.51,-0.97,31.03,0.62,-3.26,39.27,-4.80,0.51,107.69,3.86,0.01,-20.00
-15,2,401,-8,-370,3895,-1.45,-0.86,30.37,-0.08,-3.70,38.95,-4.82,0.51,107.57,3.88,-0.14,-20.00
-26,-2,404,155,-288,3916,-1.46,-0.78,29.80,1.55,-2.88,39.16,-4.82,0.50,107.45,4.11,-0.07,-20.00
8,5,390,123,-269,3946,-1.27,-0.67,29.20,1.23,-2.69,39.46,-4.82,0.49,107.33,3.36,-0.24,-20.00
10,-3,397,141,-348,3842,-1.08,-0.63,28.70,1.41,-3.48,38.42,-4.82,0.47,107.22,3.27,-0.08,-20.00
-25,6,403,130,-343,3853,-1.13,-0.53,28.29,1.30,-3.43,38.53,-4.83,0.46,107.11,4.00,-0.28,-20.00
-23,-14,340,-70,-399,3883,-1.15,-0.56,27.53,-0.70,-3.99,38.83,-4.85,0.48,107.00,3.98,0.12,-20.00
13,2,347,-80,-381,3958,-0.96,-0.49,26.90,-0.80,-3.81,39.58,-4.86,0.50,106.89,3.21,-0.24,-20.00
-11,-7,327,9,-363,3966,-0.93,-0.48,26.20,0.09,-3.63,39.66,-4.88,0.49,106.78,3.70,-0.05,-20.00
1,-4,312,-21,-406,3912,-0.83,-0.46,25.49,-0.21,-4.06,39.12,-4.90,0.49,106.68,3.44,-0.12,-20.00
-12,0,460,77,-326,3876,-0.82,-0.41,25.74,0.77,-3.26,38.76,-4.90,0.48,106.58,3.70,-0.21,-20.00
-21,-5,460,95,-419,3878,-0.87,-0.40,25.97,0.95,-4.19,38.78,-4.91,0.48,106.48,3.90,-0.10,-20.00
13,8,482,-15,-158,3977,-0.70,-0.31,26.32,-0.15,-1.58,39.77,-4.89,0.48,106.37,3.16,-0.39,-20.00
17,14,533,-44,-209,3891,-0.53,-0.20,26.94,-0.44,-2.09,38.91,-4.88,0.49,106.26,3.02,-0.56,-20.00
-7,13,667,44,-322,3940,-0.52,-0.10,28.31,0.44,-3.22,39.40,-4.88,0.48,106.15,3.50,-0.56,-20.00
-2,22,693,76,-328,3961,-0.48,0.05,29.71,0.76,-3.28,39.61,-4.87,0.47,106.03,3.39,-0.77,-20.00
-25,16,690,19,-449,3856,-0.58,0.14,30.95,0.19,-4.49,38.56,-4.89,0.48,105.91,3.90,-0.68,-20.00
-13,13,659,-26,-453,4000,-0.60,0.20,31.87,-0.26,-4.53,40.00,-4.91,0.49,105.78,3.67,-0.64,-20.00
-10,12,462,40,-443,3896,-0.60,0.26,31.50,0.40,-4.43,38.96,-4.93,0.49,105.66,3.62,-0.64,-20.00
-15,5,406,107,-417,3880,-0.64,0.26,30.83,1.07,-4.17,38.80,-4.94,0.49,105.53,3.74,-0.49,-20.00
-5,7,273,88,-320,3918,-0.60,0.28,29.41,0.88,-3.20,39.18,-4.94,0.48,105.42,3.53,-0.53,-20.00
-9,17,259,17,-339,3865,-0.60,0.35,28.05,0.17,-3.39,38.65,-4.94,0.47,105.30,3.61,-0.75,-20.00
-12,3,230,-45,-363,3914,-0.61,0.34,26.65,-0.45,-3.63,39.14,-4.96,0.49,105.20,3.68,-0.48,-20.00
-5,18,242,24,-387,3960,-0.58,0.41,25.46,0.24,-3.87,39.60,-4.97,0.49,105.10,3.54,-0.80,-20.00
5,38,395,-93,-569,3906,-0.49,0.60,25.32,-0.93,-5.69,39.06,-4.99,0.50,105.00,3.33,-1.27,-20.00
7,31,459,-110,-508,3898,-0.40,0.73,25.59,-1.10,-5.08,38.98,-5.01,0.52,104.90,3.27,-1.17,-20.00
1,24,626,7,-256,3931,-0.35,0.81,26.85,0.07,-2.56,39.31,-4.99,0.53,104.79,3.37,-1.06,-20.00
5,23,597,39,-183,3998,-0.29,0.87,27.81,0.39,-1.83,39.98,-4.98,0.53,104.68,3.26,-1.06,-20.00
2,13,438,152,-314,3890,-0.25,0.86,27.70,1.52,-3.14,38.90,-4.97,0.53,104.57,3.31,-0.85,-20.00
1,17,404,11,-263,3908,-0.22,0.88,27.39,0.11,-2.63,39.08,-4.96,0.53,104.46,3.31,-0.93,-20.00
-5,-3,355,59,-388,3914,-0.22,0.77,26.82,0.59,-3.88,39.14,-4.97,0.53,104.35,3.44,-0.50,-20.00
0,-1,344,37,-413,3922,-0.20,0.69,26.24,0.37,-4.13,39.22,-4.98,0.53,104.25,3.34,-0.51,-20.00
11,29,331,-98,-8,4040,-0.11,0.80,25.63,-0.98,-0.08,40.40,-4.96,0.54,104.15,3.08,-1.16,-20.00
-19,14,427,-73,40,3824,-0.22,0.80,25.67,-0.73,0.40,38.24,-4.94,0.55,104.04,3.71,-0.87,-20.00
-25,21,604,-42,-219,3834,-0.35,0.85,26.79,-0.42,-2.19,38.34,-4.92,0.57,103.94,3.85,-1.03,-20.00
-45,22,613,-50,-230,3937,-0.59,0.90,27.85,-0.50,-2.30,39.37,-4.91,0.58,103.83,4.31,-1.08,-20.00
-18,25,516,4,-309,3882,-0.64,0.96,28.21,0.04,-3.09,38.82,-4.90,0.58,103.71,3.77,-1.15,-20.00
15,13,500,-185,-291,3792,-0.48,0.94,28.44,-1.85,-2.91,37.92,-4.90,0.61,103.60,3.06,-0.93,-20.00
-13,-3,310,85,-588,3939,-0.52,0.83,27.49,0.85,-5.88,39.39,-4.91,0.62,103.49,3.65,-0.57,-20.00
-4,8,242,31,-597,3927,-0.49,0.80,26.22,0.31,-5.97,39.27,-4.93,0.62,103.39,3.47,-0.79,-20.00
20,23,113,-5,-169,3856,-0.32,0.86,24.28,-0.05,-1.69,38.56,-4.91,0.63,103.29,2.92,-1.12,-20.00
1,-2,141,-57,-469,3823,-0.28,0.76,22.72,-0.57,-4.69,38.23,-4.93,0.64,103.20,3.31,-0.59,-20.00
2,6,113,-12,-458,3976,-0.24,0.72,21.13,-0.12,-4.58,39.76,-4.95,0.65,103.12,3.29,-0.75,-19.69
2,10,110,-6,-422,4000,-0.20,0.71,19.69,-0.06,-4.22,40.00,-4.97,0.65,103.04,3.29,-0.83,-19.23
-5,3,156,-7,-378,3899,-0.21,0.66,18.67,-0.07,-3.78,38.99,-4.98,0.65,102.97,3.45,-0.67,-19.30
0,10,165,-6,-348,3915,-0.19,0.65,17.81,-0.06,-3.48,39.15,-4.98,0.64,102.89,3.34,-0.80,-19.11
-3,0,114,-70,-309,3932,-0.19,0.59,16.73,-0.70,-3.09,39.32,-4.97,0.66,102.83,3.39,-0.59,-18.34
-6,3,110,-82,-309,3923,-0.21,0.55,15.72,-0.82,-3.09,39.23,-4.96,0.68,102.77,3.45,-0.66,-18.00
-3,0,59,-101,-269,3924,-0.21,0.49,14.51,-1.01,-2.69,39.24,-4.94,0.70,102.71,3.38,-0.59,-17.19
-2,7,47,-73,-276,3918,-0.20,0.49,13.35,-0.73,-2.76,39.18,-4.92,0.71,102.65,3.34,-0.74,-16.74
0,4,21,-12,-322,3919,-0.18,0.46,12.14,-0.12,-3.22,39.19,-4.92,0.70,102.61,3.29,-0.67,-16.15
0,2,13,-31,-333,3940,-0.16,0.43,11.01,-0.31,-3.33,39.40,-4.91,0.69,102.56,3.29,-0.61,-15.73
-15,11,95,152,-488,3893,-0.24,0.45,10.49,1.52,-4.88,38.93,-4.92,0.68,102.52,3.62,-0.79,-16.26
-4,23,119,132,-409,3958,-0.24,0.55,10.16,1.32,-4.09,39.58,-4.93,0.67,102.48,3.40,-1.06,-16.37
-6,-2,99,40,-388,3926,-0.25,0.48,9.75,0.40,-3.88,39.26,-4.94,0.66,102.44,3.45,-0.52,-16.07
-5,5,121,69,-412,3894,-0.26,0.46,9.51,0.69,-4.12,38.94,-4.95,0.65,102.40,3.44,-0.65,-16.18
-9,-1,178,35,-328,3900,-0.28,0.41,9.65,0.35,-3.28,39.00,-4.95,0.63,102.37,3.53,-0.51,-16.70
-12,-2,186,41,-230,3868,-0.33,0.36,9.82,0.41,-2.30,38.68,-4.94,0.63,102.33,3.59,-0.47,-16.81
-8,-6,123,-67,-346,3952,-0.35,0.28,9.59,-0.67,-3.46,39.52,-4.94,0.65,102.29,3.52,-0.38,-16.20
-7,-1,141,14,-442,3940,-0.35,0.25,9.49,0.14,-4.42,39.40,-4.96,0.64,102.25,3.51,-0.47,-16.32
-7,3,232,131,-472,3942,-0.36,0.24,9.95,1.31,-4.72,39.42,-4.97,0.63,102.21,3.52,-0.54,-17.23
-1,8,293,150,-518,3933,-0.33,0.27,10.75,1.50,-5.18,39.33,-4.98,0.62,102.17,3.40,-0.65,-17.98
-14,12,518,244,-746,3902,-0.38,0.31,12.83,2.44,-7.46,39.02,-5.00,0.62,102.12,3.69,-0.74,-20.00
-17,26,587,271,-537,3907,-0.45,0.44,15.13,2.71,-5.37,39.07,-5.01,0.61,102.06,3.77,-1.05,-20.00
-15,8,669,-40,-400,3928,-0.50,0.45,17.70,-0.40,-4.00,39.28,-5.03,0.62,101.99,3.76,-0.69,-20.00
-11,-3,663,-53,-201,3914,-0.51,0.38,19.97,-0.53,-2.01,39.14,-5.01,0.63,101.91,3.67,-0.46,-20.00
-16,-11,540,-268,-74,3851,-0.56,0.28,21.27,-2.68,-0.74,38.51,-5.00,0.65,101.82,3.78,-0.28,-20.00
-15,13,478,-339,-42,3931,-0.59,0.33,22.06,-3.39,-0.42,39.31,-4.99,0.67,101.74,3.76,-0.80,-20.00
-10,2,222,-317,-98,3939,-0.60,0.31,21.21,-3.17,-0.98,39.39,-4.98,0.69,101.65,3.65,-0.58,-20.00
1,0,166,-229,-170,3941,-0.53,0.28,20.10,-2.29,-1.70,39.41,-4.96,0.71,101.57,3.40,-0.55,-19.65
2,15,71,-60,-305,3936,-0.47,0.34,18.52,-0.60,-3.05,39.36,-4.95,0.73,101.50,3.35,-0.88,-18.36
4,13,38,-59,-251,3924,-0.39,0.39,16.90,-0.59,-2.51,39.24,-4.93,0.74,101.43,3.28,-0.86,-17.58
2,9,25,22,-328,3928,-0.34,0.40,15.36,0.22,-3.28,39.28,-4.93,0.72,101.37,3.31,-0.77,-17.00
2,6,30,-1,-375,3927,-0.30,0.40,14.01,-0.01,-3.75,39.27,-4.94,0.72,101.31,3.30,-0.70,-16.63
1,2,83,46,-441,3946,-0.26,0.37,13.12,0.46,-4.41,39.46,-4.95,0.71,101.26,3.32,-0.61,-16.80
0,7,103,54,-411,3903,-0.23,0.38,12.43,0.54,-4.11,39.03,-4.96,0.70,101.21,3.34,-0.71,-16.76
-2,3,122,9,-308,3902,-0.22,0.36,11.93,0.09,-3.08,39.02,-4.96,0.69,101.16,3.37,-0.61,-16.77
-1,1,124,-33,-291,3921,-0.21,0.33,11.50,-0.33,-2.91,39.21,-4.94,0.69,101.12,3.34,-0.57,-16.65
2,2,75,-70,-269,3919,-0.17,0.31,10.80,-0.70,-2.69,39.19,-4.92,0.70,101.08,3.25,-0.59,-16.02
0,4,66,-65,-273,3915,-0.16,0.30,10.13,-0.65,-2.73,39.15,-4.90,0.71,101.03,3.28,-0.63,-15.73
1,3,26,-55,-317,3938,-0.13,0.29,9.27,-0.55,-3.17,39.38,-4.89,0.72,101.00,3.24,-0.61,-15.13
0,2,22,-31,-345,3929,-0.12,0.27,8.48,-0.31,-3.45,39.29,-4.89,0.71,100.96,3.26,-0.58,-14.86
-8,1,55,22,-394,3932,-0.16,0.25,7.97,0.22,-3.94,39.32,-4.91,0.70,100.93,3.44,-0.55,-14.98
-11,-3,75,40,-425,3957,-0.21,0.21,7.63,0.40,-4.25,39.57,-4.92,0.69,100.90,3.53,-0.45,-15.04
-19,-2,147,83,-343,3904,-0.30,0.17,7.76,0.83,-3.43,39.04,-4.92,0.67,100.87,3.72,-0.45,-15.69
-12,-9,151,62,-359,3900,-0.35,0.10,7.91,0.62,-3.59,39.00,-4.93,0.66,100.84,3.59,-0.28,-15.76
-7,-9,142,-41,-303,3905,-0.36,0.04,7.98,-0.41,-3.03,39.05,-4.91,0.66,100.81,3.48,-0.26,-15.70
-9,-8,125,-47,-280,3900,-0.37,-0.02,7.95,-0.47,-2.80,39.00,-4.89,0.66,100.78,3.51,-0.27,-15.54
1,0,104,-31,-325,3926,-0.33,-0.01,7.79,-0.31,-3.25,39.26,-4.88,0.65,100.74,3.29,-0.42,-15.31
2,0,92,-50,-346,3939,-0.29,-0.01,7.57,-0.50,-3.46,39.39,-4.90,0.66,100.71,3.27,-0.43,-15.14
-4,-8,104,190,-441,3869,-0.28,-0.06,7.45,1.90,-4.41,38.69,-4.91,0.65,100.69,3.40,-0.25,-15.21
0,-13,175,321,-515,3875,-0.25,-0.13,7.77,3.21,-5.15,38.75,-4.92,0.63,100.65,3.31,-0.12,-15.90
-10,-12,424,104,-556,4019,-0.29,-0.19,9.58,1.04,-5.56,40.19,-4.93,0.62,100.62,3.54,-0.11,-18.55
-18,-13,464,83,-470,3990,-0.37,-0.25,11.45,0.83,-4.70,39.90,-4.95,0.61,100.57,3.73,-0.07,-19.45
-21,-21,475,-31,-201,3915,-0.46,-0.36,13.20,-0.31,-2.01,39.15,-4.93,0.62,100.52,3.81,0.12,-20.00
-11,-22,453,-114,-293,4004,-0.48,-0.45,14.65,-1.14,-2.93,40.04,-4.92,0.63,100.46,3.60,0.15,-20.00
-19,-14,388,-107,-277,3902,-0.55,-0.49,15.55,-1.07,-2.77,39.02,-4.91,0.65,100.40,3.78,-0.01,-20.00
-11,-15,370,-83,-290,3924,-0.56,-0.54,16.25,-0.83,-2.90,39.24,-4.90,0.67,100.33,3.61,0.01,-20.00
-17,-12,285,-94,-300,3892,-0.61,-0.56,16.36,-0.94,-3.00,38.92,-4.89,0.68,100.27,3.74,-0.06,-19.37
-13,-3,254,-136,-283,3926,-0.63,-0.52,16.28,-1.36,-2.83,39.26,-4.88,0.70,100.20,3.66,-0.26,-19.08
0,9,169,-34,-343,3915,-0.56,-0.41,15.68,-0.34,-3.43,39.15,-4.89,0.69,100.14,3.38,-0.53,-18.17
-16,13,183,9,-410,3881,-0.61,-0.29,15.23,0.09,-4.10,38.81,-4.91,0.68,100.08,3.73,-0.64,-18.15
8,6,114,-104,-293,3909,-0.50,-0.23,14.40,-1.04,-2.93,39.09,-4.90,0.70,100.02,3.20,-0.52,-17.30
0,16,106,-58,-338,3935,-0.45,-0.11,13.61,-0.58,-3.38,39.35,-4.90,0.73,99.97,3.36,-0.78,-16.99
5,19,135,-9,-284,3924,-0.37,0.02,13.07,-0.09,-2.84,39.24,-4.89,0.72,99.91,3.22,-0.87,-17.07
8,-7,128,-51,-315,3922,-0.29,-0.02,12.54,-0.51,-3.15,39.22,-4.87,0.72,99.86,3.13,-0.33,-16.85
-8,19,134,49,-407,3917,-0.31,0.09,12.11,0.49,-4.07,39.17,-4.88,0.71,99.82,3.47,-0.88,-16.76
-4,27,152,34,-386,3922,-0.30,0.25,11.82,0.34,-3.86,39.22,-4.89,0.70,99.77,3.39,-1.08,-16.82
2,4,140,-29,-396,3967,-0.26,0.25,11.50,-0.29,-3.96,39.67,-4.91,0.70,99.72,3.27,-0.61,-16.61
0,3,141,-12,-437,3952,-0.23,0.24,11.21,-0.12,-4.37,39.52,-4.93,0.70,99.68,3.31,-0.59,-16.53
-3,-8,162,75,-433,3912,-0.23,0.17,11.07,0.75,-4.33,39.12,-4.94,0.69,99.63,3.38,-0.34,-16.66
-13,3,219,105,-443,3970,-0.28,0.17,11.30,1.05,-4.43,39.70,-4.95,0.68,99.59,3.61,-0.56,-17.21
-7,5,239,-27,-289,3857,-0.30,0.18,11.63,-0.27,-2.89,38.57,-4.93,0.68,99.54,3.48,-0.60,-17.47
4,8,226,-92,-365,3968,-0.24,0.21,11.85,-0.92,-3.65,39.68,-4.94,0.70,99.50,3.25,-0.68,-17.42
2,9,181,-108,-308,3985,-0.21,0.25,11.76,-1.08,-3.08,39.85,-4.93,0.72,99.45,3.27,-0.73,-17.01
1,3,166,-43,-390,3939,-0.18,0.24,11.60,-0.43,-3.90,39.39,-4.95,0.72,99.40,3.30,-0.60,-16.83
-1,10,218,60,-420,3908,-0.17,0.28,11.77,0.60,-4.20,39.08,-4.96,0.71,99.36,3.34,-0.75,-17.31
2,-3,244,-48,-479,3791,-0.14,0.23,12.08,-0.48,-4.79,37.91,-4.98,0.72,99.31,3.28,-0.48,-17.62
-27,33,323,75,-263,4064,-0.29,0.41,12.84,0.75,-2.63,40.64,-4.97,0.71,99.26,3.91,-1.25,-18.51
-9,26,334,22,-278,3716,-0.32,0.53,13.60,0.22,-2.78,37.16,-4.96,0.70,99.20,3.54,-1.13,-18.83
-48,30,1220,-484,273,3734,-0.58,0.66,19.68,-4.84,2.73,37.34,-4.95,0.72,99.13,4.40,-1.27,-20.00
11,47,1710,-369,278,3914,-0.45,0.88,28.14,-3.69,2.78,39.14,-4.93,0.74,99.01,3.15,-1.69,-20.00
7,48,2175,-322,-173,4001,-0.36,1.08,38.60,-3.22,-1.73,40.01,-4.92,0.78,98.86,3.20,-1.78,-20.00
-26,62,2203,-149,-607,3952,-0.49,1.35,48.17,-1.49,-6.07,39.52,-4.94,0.80,98.67,3.92,-2.16,-20.00
-8,53,1994,13,-895,4012,-0.49,1.54,55.52,0.13,-8.95,40.12,-4.95,0.83,98.45,3.56,-2.04,-20.00
-10,21,1865,42,-820,4007,-0.50,1.52,61.34,0.42,-8.20,40.07,-4.97,0.85,98.20,3.62,-1.40,-20.00
-10,11,1324,221,-682,3934,-0.51,1.43,63.29,2.21,-6.82,39.34,-4.98,0.87,97.95,3.63,-1.19,-20.00
-18,12,1182,145,-625,3928,-0.57,1.36,64.17,1.45,-6.25,39.28,-4.99,0.88,97.70,3.82,-1.20,-20.00
0,0,818,71,-229,3861,-0.51,1.23,62.74,0.71,-2.29,38.61,-4.98,0.90,97.45,3.43,-0.93,-20.00
-19,-2,766,126,-148,3885,-0.58,1.09,61.14,1.26,-1.48,38.85,-4.97,0.91,97.20,3.82,-0.86,-20.00
-10,10,681,138,-214,3906,-0.58,1.04,59.18,1.38,-2.14,39.06,-4.96,0.92,96.97,3.63,-1.09,-20.00
-6,1,635,63,-214,3933,-0.56,0.94,57.14,0.63,-2.14,39.33,-4.94,0.93,96.74,3.54,-0.89,-20.00
-10,13,516,61,-473,3961,-0.56,0.93,54.57,0.61,-4.73,39.61,-4.95,0.94,96.52,3.63,-1.14,-20.00
-13,2,463,57,-518,3919,-0.59,0.85,51.94,0.57,-5.18,39.19,-4.97,0.95,96.32,3.70,-0.90,-20.00
-2,-8,299,-41,-378,3896,-0.54,0.71,48.57,-0.41,-3.78,38.96,-4.98,0.96,96.12,3.48,-0.67,-20.00
-17,-9,296,-80,-406,3890,-0.59,0.59,45.52,-0.80,-4.06,38.90,-5.00,0.98,95.94,3.81,-0.62,-20.00
-7,-5,296,-171,-391,3927,-0.57,0.50,42.77,-1.71,-3.91,39.27,-5.01,1.01,95.77,3.60,-0.70,-20.00
-6,2,301,-175,-439,3931,-0.55,0.46,40.33,-1.75,-4.39,39.31,-5.02,1.04,95.61,3.58,-0.86,-20.00
-9,7,345,-147,-378,3942,-0.55,0.46,38.40,-1.47,-3.78,39.42,-5.02,1.08,95.46,3.65,-0.98,-20.00
-8,1,366,-138,-345,3871,-0.55,0.42,36.79,-1.38,-3.45,38.71,-5.02,1.11,95.31,3.63,-0.87,-20.00
-10,10,467,-112,-353,3888,-0.55,0.44,35.96,-1.12,-3.53,38.88,-5.03,1.14,95.17,3.67,-1.08,-20.00
4,6,503,-110,-347,3910,-0.47,0.43,35.43,-1.10,-3.47,39.10,-5.03,1.17,95.03,3.37,-1.01,-20.00
0,18,531,-25,-444,3907,-0.43,0.50,35.13,-0.25,-4.44,39.07,-5.04,1.18,94.89,3.45,-1.28,-20.00
0,21,529,-50,-417,3924,-0.38,0.58,34.84,-0.50,-4.17,39.24,-5.06,1.19,94.75,3.44,-1.37,-20.00
-5,12,523,24,-365,3941,-0.38,0.59,34.55,0.24,-3.65,39.41,-5.06,1.18,94.61,3.54,-1.19,-20.00
4,12,492,83,-355,3937,-0.31,0.61,34.10,0.83,-3.55,39.37,-5.06,1.18,94.48,3.34,-1.19,-20.00
-7,12,363,91,-312,3904,-0.32,0.62,32.90,0.91,-3.12,39.04,-5.06,1.17,94.35,3.57,-1.19,-20.00
-2,13,345,39,-262,3901,-0.30,0.64,31.72,0.39,-2.62,39.01,-5.04,1.17,94.22,3.45,-1.21,-20.00
-1,1,375,-35,-299,3924,-0.28,0.58,30.83,-0.35,-2.99,39.24,-5.03,1.17,94.10,3.42,-0.95,-20.00
-9,4,377,-8,-317,3927,-0.31,0.54,30.05,-0.08,-3.17,39.27,-5.02,1.17,93.98,3.58,-1.00,-20.00
-6,4,400,-5,-395,3972,-0.31,0.51,29.48,-0.05,-3.95,39.72,-5.03,1.17,93.86,3.53,-0.99,-20.00
-5,7,399,4,-453,3952,-0.31,0.51,28.97,0.04,-4.53,39.52,-5.04,1.17,93.75,3.51,-1.05,-20.00
5,11,410,-33,-388,3905,-0.25,0.52,28.57,-0.33,-3.88,39.05,-5.05,1.17,93.63,3.30,-1.14,-20.00
-1,16,425,-73,-392,3914,-0.23,0.57,28.31,-0.73,-3.92,39.14,-5.07,1.17,93.52,3.43,-1.26,-20.00
-7,7,522,-37,-424,3907,-0.25,0.55,28.66,-0.37,-4.24,39.07,-5.09,1.18,93.41,3.57,-1.07,-20.00
5,9,551,-79,-361,3913,-0.20,0.55,29.16,-0.79,-3.61,39.13,-5.10,1.19,93.29,3.32,-1.12,-20.00
-3,4,655,-24,-339,3963,-0.19,0.52,30.24,-0.24,-3.39,39.63,-5.10,1.18,93.17,3.48,-1.00,-20.00
-16,-1,674,-34,-297,3931,-0.27,0.46,31.32,-0.34,-2.97,39.31,-5.08,1.18,93.05,3.75,-0.89,-20.00
-7,7,714,19,-253,3947,-0.29,0.46,32.55,0.19,-2.53,39.47,-5.07,1.18,92.92,3.56,-1.05,-20.00
-12,7,717,62,-213,3932,-0.33,0.46,33.67,0.62,-2.13,39.32,-5.05,1.18,92.78,3.67,-1.05,-20.00
-22,2,707,76,-261,3939,-0.43,0.42,34.61,0.76,-2.61,39.39,-5.04,1.18,92.64,3.89,-0.94,-20.00
-16,16,706,20,-241,3885,-0.49,0.48,35.46,0.20,-2.41,38.85,-5.03,1.18,92.50,3.78,-1.24,-20.00
-18,2,681,2,-310,3928,-0.55,0.44,36.07,0.02,-3.10,39.28,-5.02,1.18,92.36,3.83,-0.94,-20.00
-8,17,686,-24,-374,3847,-0.54,0.50,36.64,-0.24,-3.74,38.47,-5.03,1.18,92.21,3.63,-1.26,-20.00
3,11,789,-31,-319,3950,-0.47,0.52,37.79,-0.31,-3.19,39.50,-5.02,1.18,92.06,3.38,-1.14,-20.00
-6,8,809,22,-323,3943,-0.46,0.52,38.95,0.22,-3.23,39.43,-5.01,1.18,91.91,3.56,-1.08,-20.00
-4,24,870,-93,-393,3897,-0.44,0.61,40.36,-0.93,-3.93,38.97,-5.03,1.20,91.75,3.52,-1.45,-20.00
-6,16,897,-97,-364,3917,-0.43,0.65,41.80,-0.97,-3.64,39.17,-5.04,1.23,91.58,3.57,-1.31,-20.00
-13,23,973,-165,-462,3908,-0.47,0.72,43.55,-1.65,-4.62,39.08,-5.06,1.26,91.41,3.73,-1.49,-20.00
-13,30,995,-135,-480,3924,-0.50,0.83,45.27,-1.35,-4.80,39.24,-5.07,1.28,91.23,3.75,-1.68,-20.00
-11,18,1060,-86,-471,3952,-0.52,0.86,47.21,-0.86,-4.71,39.52,-5.09,1.30,91.04,3.72,-1.46,-20.00
-19,20,1061,-23,-442,3932,-0.58,0.90,48.96,-0.23,-4.42,39.32,-5.10,1.31,90.85,3.91,-1.52,-20.00
-44,12,1068,-89,-536,3918,-0.79,0.88,50.58,-0.89,-5.36,39.18,-5.12,1.33,90.65,4.49,-1.36,-20.00
-13,21,1064,-71,-556,3975,-0.79,0.92,52.01,-0.71,-5.56,39.75,-5.13,1.35,90.44,3.87,-1.57,-20.00
-17,21,1141,-43,-651,3883,-0.82,0.96,53.77,-0.43,-6.51,38.83,-5.15,1.37,90.23,3.97,-1.59,-20.00
-14,14,1184,-45,-654,3927,-0.82,0.95,55.61,-0.45,-6.54,39.27,-5.17,1.39,90.01,3.92,-1.46,-20.00
-14,11,1318,44,-573,3911,-0.82,0.92,58.09,0.44,-5.73,39.11,-5.18,1.41,89.77,3.93,-1.40,-20.00
-13,2,1344,51,-487,3933,-0.82,0.84,60.48,0.51,-4.87,39.33,-5.19,1.42,89.53,3.91,-1.21,-20.00
-29,4,1495,5,-342,3935,-0.92,0.78,63.55,0.05,-3.42,39.35,-5.18,1.43,89.28,4.26,-1.24,-20.00
-36,10,1539,-3,-334,3793,-1.04,0.76,66.59,-0.03,-3.34,37.93,-5.18,1.44,89.02,4.43,-1.36,-20.00
-9,39,1618,486,182,3936,-0.99,0.92,69.80,4.86,1.82,39.36,-5.16,1.45,88.74,3.86,-2.00,-20.00
-20,36,1566,429,420,4012,-1.02,1.05,72.37,4.29,4.20,40.12,-5.14,1.47,88.45,4.08,-1.99,-20.00
6,20,1369,-64,413,3988,-0.88,1.07,73.48,-0.64,4.13,39.88,-5.12,1.50,88.16,3.50,-1.69,-20.00
-18,7,1288,-54,365,3927,-0.90,1.00,73.99,-0.54,3.65,39.27,-5.10,1.53,87.86,3.98,-1.43,-20.00
-26,13,1062,-157,-171,3977,-0.97,0.98,73.07,-1.57,-1.71,39.77,-5.08,1.57,87.57,4.14,-1.57,-20.00
-27,15,1036,-185,-276,3931,-1.04,0.98,72.08,-1.85,-2.76,39.31,-5.06,1.61,87.28,4.17,-1.63,-20.00
-10,32,1017,-225,-542,3953,-0.99,1.07,71.08,-2.25,-5.42,39.53,-5.07,1.65,87.00,3.82,-2.03,-20.00
-7,32,1017,-382,-551,3811,-0.94,1.16,70.17,-3.82,-5.51,38.11,-5.08,1.69,86.72,3.75,-2.08,-20.00
8,37,976,-222,-518,3930,-0.79,1.27,69.11,-2.22,-5.18,39.30,-5.09,1.73,86.45,3.41,-2.24,-20.00
-5,38,954,-160,-479,3911,-0.75,1.38,68.02,-1.60,-4.79,39.11,-5.10,1.77,86.18,3.67,-2.31,-20.00
-10,39,867,-42,-446,3927,-0.73,1.48,66.51,-0.42,-4.46,39.27,-5.11,1.78,85.91,3.78,-2.37,-20.00
-7,45,798,-11,-429,3926,-0.70,1.60,64.72,-0.11,-4.29,39.26,-5.12,1.80,85.66,3.71,-2.54,-20.00
2,34,613,-32,-313,3890,-0.62,1.65,61.99,-0.32,-3.13,38.90,-5.10,1.81,85.41,3.50,-2.34,-20.00
5,33,557,-68,-315,3891,-0.53,1.69,59.19,-0.68,-3.15,38.91,-5.09,1.82,85.17,3.40,-2.33,-20.00
0,18,400,107,-389,3937,-0.47,1.63,55.71,1.07,-3.89,39.37,-5.09,1.83,84.95,3.49,-2.02,-20.00
-6,20,356,86,-396,3902,-0.46,1.59,52.31,0.86,-3.96,39.02,-5.09,1.84,84.74,3.61,-2.05,-20.00
-8,2,230,46,-373,3896,-0.47,1.44,48.48,0.46,-3.73,38.96,-5.09,1.84,84.55,3.65,-1.65,-20.00
2,3,206,8,-404,3938,-0.41,1.31,44.89,0.08,-4.04,39.38,-5.09,1.85,84.37,3.43,-1.64,-20.00
-2,4,180,10,-391,3907,-0.38,1.21,41.50,0.10,-3.91,39.07,-5.09,1.85,84.21,3.50,-1.63,-20.00
-5,2,195,-19,-460,3936,-0.37,1.10,38.54,-0.19,-4.60,39.36,-5.10,1.85,84.06,3.57,-1.56,-20.00
-9,7,237,-5,-598,3905,-0.39,1.03,36.13,-0.05,-5.98,39.05,-5.11,1.86,83.91,3.66,-1.65,-20.00
-1,8,254,2,-602,3948,-0.36,0.98,34.07,0.02,-6.02,39.48,-5.13,1.87,83.78,3.50,-1.66,-20.00
-9,11,293,-56,-520,3959,-0.38,0.95,32.45,-0.56,-5.20,39.59,-5.14,1.88,83.65,3.68,-1.72,-20.00
-7,8,312,13,-503,3931,-0.38,0.90,31.11,0.13,-5.03,39.31,-5.15,1.88,83.53,3.65,-1.65,-20.00
-7,-8,365,-36,-549,3901,-0.39,0.76,30.22,-0.36,-5.49,39.01,-5.16,1.88,83.41,3.66,-1.29,-20.00
-7,-4,366,-29,-555,3889,-0.39,0.66,29.43,-0.29,-5.55,38.89,-5.18,1.89,83.29,3.67,-1.35,-20.00
-18,1,354,15,-529,3936,-0.46,0.60,28.65,0.15,-5.29,39.36,-5.19,1.89,83.18,3.92,-1.43,-20.00
-2,6,343,10,-491,3932,-0.43,0.58,27.88,0.10,-4.91,39.32,-5.20,1.89,83.07,3.59,-1.53,-20.00
-16,17,402,-142,-370,3930,-0.48,0.62,27.54,-1.42,-3.70,39.30,-5.21,1.91,82.96,3.90,-1.78,-20.00
-5,22,426,-147,-333,3899,-0.46,0.70,27.39,-1.47,-3.33,38.99,-5.20,1.94,82.85,3.66,-1.92,-20.00
-7,17,511,-166,-268,3929,-0.46,0.73,27.76,-1.66,-2.68,39.29,-5.18,1.96,82.74,3.68,-1.84,-20.00
-9,13,549,-167,-209,3906,-0.47,0.74,28.34,-1.67,-2.09,39.06,-5.16,1.97,82.62,3.71,-1.77,-20.00
1,12,529,-201,-242,3939,-0.42,0.74,28.73,-2.01,-2.42,39.39,-5.14,2.00,82.51,3.48,-1.76,-20.00
-6,6,502,-196,-270,3940,-0.41,0.70,28.92,-1.96,-2.70,39.40,-5.12,2.02,82.39,3.61,-1.65,-20.00
-7,2,429,-160,-298,3926,-0.41,0.64,28.64,-1.60,-2.98,39.26,-5.10,2.04,82.28,3.62,-1.56,-20.00
-3,-2,414,-233,-306,3949,-0.39,0.56,28.30,-2.33,-3.06,39.49,-5.09,2.07,82.16,3.53,-1.48,-20.00
-4,2,304,-147,-195,3961,-0.38,0.52,27.33,-1.47,-1.95,39.61,-5.07,2.08,82.06,3.53,-1.56,-20.00
-5,1,272,-102,-175,3958,-0.37,0.47,26.26,-1.02,-1.75,39.58,-5.05,2.09,81.95,3.54,-1.53,-20.00
0,11,204,-89,-301,3880,-0.33,0.49,24.87,-0.89,-3.01,38.80,-5.04,2.08,81.85,3.41,-1.73,-19.04
4,15,192,-59,-302,3912,-0.27,0.54,23.56,-0.59,-3.02,39.12,-5.03,2.08,81.76,3.31,-1.82,-18.53
6,17,151,-93,-264,3910,-0.21,0.59,22.12,-0.93,-2.64,39.10,-5.01,2.08,81.67,3.24,-1.88,-17.74
5,15,123,-33,-285,3935,-0.16,0.62,20.66,-0.33,-2.85,39.35,-5.00,2.07,81.59,3.24,-1.84,-17.05
-2,5,76,-26,-334,3912,-0.15,0.59,19.06,-0.26,-3.34,39.12,-4.99,2.06,81.51,3.38,-1.62,-16.16
-1,2,81,-23,-313,3922,-0.15,0.54,17.65,-0.23,-3.13,39.22,-4.99,2.05,81.44,3.35,-1.54,-15.77
-3,-7,81,-79,-300,3917,-0.15,0.44,16.38,-0.79,-3.00,39.17,-4.98,2.05,81.37,3.39,-1.33,-15.38
-2,-4,78,-101,-289,3911,-0.15,0.38,15.21,-1.01,-2.89,39.11,-4.96,2.04,81.31,3.35,-1.37,-15.00
1,-14,119,-122,-234,3938,-0.13,0.25,14.42,-1.22,-2.34,39.38,-4.94,2.04,81.25,3.27,-1.13,-15.10
-3,-13,133,-129,-265,3922,-0.13,0.15,13.79,-1.29,-2.65,39.22,-4.92,2.05,81.20,3.34,-1.13,-15.02
7,-1,190,-145,-199,3914,-0.08,0.13,13.57,-1.45,-1.99,39.14,-4.90,2.05,81.14,3.11,-1.37,-15.43
-4,-5,204,-54,-244,3984,-0.09,0.08,13.46,-0.54,-2.44,39.84,-4.89,2.05,81.09,3.33,-1.27,-15.51
-1,-5,164,-34,-331,3937,-0.09,0.05,13.11,-0.34,-3.31,39.37,-4.88,2.03,81.04,3.27,-1.25,-15.06
-7,-18,162,-28,-375,3925,-0.12,-0.07,12.79,-0.28,-3.75,39.25,-4.89,2.02,80.99,3.40,-0.95,-14.94
-8,-1,183,110,-301,3944,-0.16,-0.07,12.63,1.10,-3.01,39.44,-4.88,2.00,80.94,3.43,-1.28,-15.06
3,3,200,78,-316,3923,-0.13,-0.04,12.58,0.78,-3.16,39.23,-4.88,1.99,80.89,3.19,-1.36,-15.19
7,4,303,67,-345,3939,-0.07,-0.01,13.17,0.67,-3.45,39.39,-4.88,1.98,80.83,3.10,-1.38,-16.23
-1,9,332,95,-364,3912,-0.07,0.04,13.88,0.95,-3.64,39.12,-4.88,1.96,80.78,3.26,-1.49,-16.69
-1,-2,388,2,-352,3957,-0.07,0.03,14.86,0.02,-3.52,39.57,-4.88,1.95,80.72,3.26,-1.25,-17.45
-10,-8,404,-21,-367,3931,-0.12,-0.03,15.84,-0.21,-3.67,39.31,-4.88,1.94,80.66,3.46,-1.11,-17.87
-1,8,450,-158,-389,3870,-0.12,0.03,17.00,-1.58,-3.89,38.70,-4.90,1.95,80.59,3.29,-1.46,-18.60
-7,5,458,-189,-378,3915,-0.15,0.05,18.09,-1.89,-3.78,39.15,-4.91,1.97,80.52,3.42,-1.42,-18.99
5,11,506,-215,-421,3894,-0.10,0.12,19.37,-2.15,-4.21,38.94,-4.92,1.99,80.44,3.17,-1.57,-19.77
-5,4,468,-154,-446,3937,-0.12,0.13,20.29,-1.54,-4.46,39.37,-4.94,2.00,80.36,3.39,-1.44,-19.72
-6,3,456,-92,-475,3938,-0.15,0.13,21.04,-0.92,-4.75,39.38,-4.95,2.00,80.28,3.43,-1.42,-19.83
-1,0,443,-118,-473,3907,-0.14,0.12,21.64,-1.18,-4.73,39.07,-4.97,2.01,80.19,3.34,-1.36,-19.89
-10,9,386,-64,-390,3932,-0.19,0.16,21.83,-0.64,-3.90,39.32,-4.97,2.00,80.11,3.54,-1.55,-19.46
-9,0,388,-61,-432,3935,-0.22,0.15,22.01,-0.61,-4.32,39.35,-4.99,2.00,80.02,3.53,-1.36,-19.52
7,14,475,-24,-442,3901,-0.16,0.22,22.71,-0.24,-4.42,39.01,-5.00,1.99,79.93,3.20,-1.66,-20.00
2,19,502,-48,-416,3894,-0.13,0.31,23.50,-0.48,-4.16,38.94,-5.00,1.99,79.83,3.30,-1.78,-20.00
-16,10,484,108,-428,3991,-0.21,0.34,24.10,1.08,-4.28,39.91,-5.01,1.98,79.74,3.69,-1.60,-20.00
13,24,453,123,-317,3963,-0.11,0.45,24.46,1.23,-3.17,39.63,-5.00,1.97,79.64,3.07,-1.91,-20.00
8,36,345,-174,-194,4016,-0.05,0.63,24.12,-1.74,-1.94,40.16,-4.98,1.99,79.54,3.14,-2.22,-19.73
-4,18,260,-41,-127,3944,-0.07,0.67,23.29,-0.41,-1.27,39.44,-4.96,1.99,79.45,3.38,-1.86,-18.75
-6,17,220,13,-302,3912,-0.10,0.71,22.30,0.13,-3.02,39.12,-4.95,1.98,79.36,3.42,-1.85,-18.10
3,11,235,-37,-281,3979,-0.07,0.71,21.51,-0.37,-2.81,39.79,-4.94,1.98,79.28,3.22,-1.72,-17.98
-13,31,352,-49,-777,3764,-0.14,0.83,21.50,-0.49,-7.77,37.64,-4.96,1.99,79.19,3.58,-2.17,-18.96
-28,2,438,-119,-848,3857,-0.30,0.76,22.02,-1.19,-8.48,38.57,-4.97,2.00,79.11,3.93,-1.56,-19.84
-9,3,759,2,-457,4011,-0.33,0.70,24.45,0.02,-4.57,40.11,-4.98,1.99,79.01,3.56,-1.57,-20.00
-19,5,799,25,-326,4020,-0.41,0.66,26.88,0.25,-3.26,40.20,-4.98,1.99,78.90,3.78,-1.59,-20.00
-21,-3,721,-262,-313,3829,-0.50,0.57,28.59,-2.62,-3.13,38.29,-4.97,2.02,78.79,3.85,-1.43,-20.00
-13,-5,653,-325,-430,3884,-0.53,0.49,29.71,-3.25,-4.30,38.84,-4.98,2.05,78.67,3.69,-1.38,-20.00
-5,-18,484,51,-467,3940,-0.50,0.33,29.70,0.51,-4.67,39.40,-4.99,2.04,78.55,3.53,-1.07,-20.00
-8,-19,470,85,-564,3942,-0.50,0.18,29.59,0.85,-5.64,39.42,-5.00,2.04,78.43,3.60,-1.01,-20.00
-8,2,426,45,-514,3929,-0.50,0.17,29.23,0.45,-5.14,39.29,-5.01,2.04,78.32,3.60,-1.43,-20.00
3,6,400,-112,-450,3907,-0.43,0.19,28.75,-1.12,-4.50,39.07,-5.02,2.04,78.20,3.37,-1.52,-20.00
1,23,375,-54,-282,3937,-0.38,0.31,28.16,-0.54,-2.82,39.37,-5.01,2.04,78.09,3.39,-1.90,-20.00
-10,2,377,-29,-174,3977,-0.41,0.29,27.65,-0.29,-1.74,39.77,-4.99,2.04,77.98,3.61,-1.47,-20.00
-1,10,377,-61,-283,3869,-0.37,0.33,27.18,-0.61,-2.83,38.69,-4.98,2.04,77.87,3.41,-1.64,-20.00
2,15,377,-34,-341,3868,-0.32,0.39,26.76,-0.34,-3.41,38.68,-4.98,2.03,77.77,3.33,-1.75,-20.00
-8,4,397,-88,-290,3880,-0.34,0.37,26.51,-0.88,-2.90,38.80,-4.96,2.03,77.66,3.53,-1.52,-20.00
-5,5,403,-69,-292,3904,-0.34,0.36,26.32,-0.69,-2.92,39.04,-4.95,2.02,77.55,3.46,-1.54,-20.00
-12,-8,348,-3,-233,3952,-0.37,0.28,25.81,-0.03,-2.33,39.52,-4.94,2.02,77.45,3.60,-1.25,-20.00
-10,-11,317,22,-242,3966,-0.40,0.18,25.16,0.22,-2.42,39.66,-4.93,2.01,77.35,3.56,-1.15,-19.54
-17,-22,311,-17,-332,3907,-0.46,0.03,24.54,-0.17,-3.32,39.07,-4.92,2.00,77.25,3.72,-0.88,-19.29
-20,-28,325,21,-357,3934,-0.54,-0.14,24.07,0.21,-3.57,39.34,-4.92,1.99,77.16,3.80,-0.71,-19.26
-16,-26,443,-11,-156,3858,-0.58,-0.29,24.36,-0.11,-1.56,38.58,-4.91,1.99,77.06,3.72,-0.71,-20.00
-17,-35,532,69,-171,3932,-0.63,-0.47,25.17,0.69,-1.71,39.32,-4.90,1.98,76.96,3.75,-0.47,-20.00
-11,-2,989,-244,-204,3887,-0.63,-0.44,28.69,-2.44,-2.04,38.87,-4.88,2.00,76.84,3.62,-1.16,-20.00
-37,-8,1159,-298,-272,3818,-0.79,-0.44,32.89,-2.98,-2.72,38.18,-4.87,2.03,76.71,4.18,-1.05,-20.00
-13,-39,1453,-135,-196,3967,-0.79,-0.64,38.46,-1.35,-1.96,39.67,-4.85,2.04,76.56,3.68,-0.38,-20.00
-20,-10,1471,-157,-410,3861,-0.84,-0.63,43.59,-1.57,-4.10,38.61,-4.87,2.05,76.38,3.85,-0.98,-20.00
-19,38,1266,-14,-362,3867,-0.87,-0.34,46.95,-0.14,-3.62,38.67,-4.87,2.05,76.20,3.84,-2.03,-20.00
-4,26,1094,-55,-363,3934,-0.81,-0.15,48.93,-0.55,-3.63,39.34,-4.87,2.05,76.00,3.52,-1.84,-20.00
-14,32,750,-111,-286,3852,-0.81,0.06,48.61,-1.11,-2.86,38.52,-4.85,2.06,75.81,3.71,-2.03,-20.00
-7,56,678,-177,-333,3874,-0.77,0.40,47.89,-1.77,-3.33,38.74,-4.85,2.09,75.62,3.55,-2.63,-20.00
-1,86,449,-210,-336,3873,-0.70,0.88,45.84,-2.10,-3.36,38.73,-4.85,2.13,75.43,3.41,-3.39,-20.00
-16,49,387,-204,-374,3913,-0.73,1.09,43.62,-2.04,-3.74,39.13,-4.85,2.16,75.26,3.73,-2.72,-20.00
-14,15,319,12,-510,4026,-0.74,1.08,41.20,0.12,-5.10,40.26,-4.86,2.17,75.10,3.70,-2.03,-20.00
-6,17,302,-82,-492,3911,-0.70,1.07,38.92,-0.82,-4.92,39.11,-4.88,2.18,74.94,3.53,-2.08,-20.00
-10,-2,345,-33,-461,3932,-0.69,0.95,37.13,-0.33,-4.61,39.32,-4.89,2.18,74.80,3.62,-1.66,-20.00
-7,7,379,-27,-423,3980,-0.67,0.90,35.73,-0.27,-4.23,39.80,-4.90,2.18,74.65,3.56,-1.83,-20.00
-12,21,510,-269,-435,3813,-0.67,0.94,35.27,-2.69,-4.35,38.13,-4.91,2.21,74.51,3.67,-2.14,-20.00
-7,31,583,-172,-456,3921,-0.65,1.03,35.30,-1.72,-4.56,39.21,-4.92,2.23,74.37,3.57,-2.39,-20.00
-2,32,650,20,-398,3954,-0.60,1.13,35.73,0.20,-3.98,39.54,-4.92,2.23,74.23,3.45,-2.43,-20.00
-2,29,650,19,-384,3883,-0.55,1.19,36.13,0.19,-3.84,38.83,-4.93,2.23,74.09,3.44,-2.39,-20.00
-9,7,555,52,-420,3949,-0.55,1.11,35.90,0.52,-4.20,39.49,-4.93,2.23,73.95,3.59,-1.92,-20.00
-11,-4,506,64,-436,3921,-0.56,0.98,35.40,0.64,-4.36,39.21,-4.93,2.23,73.81,3.63,-1.66,-20.00
-11,-20,315,55,-381,3929,-0.57,0.76,33.78,0.55,-3.81,39.29,-4.93,2.23,73.67,3.64,-1.27,-20.00
-12,-22,251,-1,-352,3942,-0.59,0.55,31.93,-0.01,-3.52,39.42,-4.93,2.22,73.54,3.66,-1.17,-20.00
-7,-25,68,-102,-334,3920,-0.57,0.34,29.15,-1.02,-3.34,39.20,-4.93,2.21,73.43,3.55,-1.05,-18.17
-5,-26,39,-72,-348,3926,-0.55,0.15,26.48,-0.72,-3.48,39.26,-4.93,2.21,73.32,3.50,-0.97,-17.10
-5,-24,9,-64,-393,3913,-0.52,-0.01,23.88,-0.64,-3.93,39.13,-4.94,2.20,73.23,3.50,-0.96,-16.05
-9,-17,7,-46,-404,3907,-0.52,-0.12,21.54,-0.46,-4.04,39.07,-4.95,2.19,73.14,3.59,-1.07,-15.32
2,-5,35,79,-539,3893,-0.46,-0.13,19.60,0.79,-5.39,38.93,-4.96,2.18,73.06,3.36,-1.30,-14.97
-2,-2,71,122,-623,3923,-0.43,-0.13,18.07,1.22,-6.23,39.23,-4.97,2.18,72.99,3.44,-1.36,-14.80
-1,7,213,-15,-698,3911,-0.39,-0.08,17.56,-0.15,-6.98,39.11,-4.98,2.17,72.92,3.42,-1.56,-15.84
-6,4,235,-33,-687,3892,-0.39,-0.05,17.24,-0.33,-6.87,38.92,-5.00,2.17,72.86,3.53,-1.50,-15.92
6,27,282,-2,-507,3886,-0.31,0.12,17.24,-0.02,-5.07,38.86,-5.01,2.17,72.79,3.27,-2.01,-16.31
4,21,285,24,-498,3892,-0.26,0.24,17.25,0.24,-4.98,38.92,-5.02,2.16,72.72,3.30,-1.92,-16.34
1,18,276,31,-145,3938,-0.22,0.33,17.21,0.31,-1.45,39.38,-5.01,2.16,72.65,3.35,-1.88,-16.24
-2,12,269,-18,-140,3908,-0.21,0.37,17.13,-0.18,-1.40,39.08,-4.99,2.16,72.58,3.39,-1.77,-16.15
-8,25,276,-296,-150,3860,-0.24,0.48,17.10,-2.96,-1.50,38.60,-4.98,2.17,72.51,3.51,-2.08,-16.19
-13,23,225,-172,-160,3887,-0.30,0.57,16.76,-1.72,-1.60,38.87,-4.96,2.19,72.45,3.62,-2.07,-15.65
-6,14,119,-160,-329,3921,-0.30,0.60,15.81,-1.60,-3.29,39.21,-4.94,2.21,72.38,3.47,-1.90,-14.46
-5,12,104,-131,-340,3923,-0.30,0.62,14.87,-1.31,-3.40,39.23,-4.94,2.19,72.32,3.45,-1.86,-14.04
-3,-2,95,-107,-418,3934,-0.29,0.54,13.96,-1.07,-4.18,39.34,-4.96,2.19,72.27,3.41,-1.55,-13.68
-6,-2,99,-110,-405,3910,-0.30,0.48,13.17,-1.10,-4.05,39.10,-4.97,2.19,72.22,3.48,-1.53,-13.47
-5,3,133,-94,-459,4014,-0.30,0.45,12.66,-0.94,-4.59,40.14,-4.99,2.19,72.17,3.47,-1.63,-13.60
-2,-2,147,-36,-453,3932,-0.28,0.39,12.29,-0.36,-4.53,39.32,-5.00,2.18,72.12,3.42,-1.50,-13.60
-5,-2,224,-92,-434,3954,-0.28,0.34,12.43,-0.92,-4.34,39.54,-5.01,2.17,72.07,3.49,-1.49,-14.29
1,7,243,-94,-430,3934,-0.25,0.35,12.67,-0.94,-4.30,39.34,-5.03,2.17,72.02,3.37,-1.67,-14.52
1,13,280,-158,-395,3878,-0.22,0.39,13.11,-1.58,-3.95,38.78,-5.04,2.18,71.97,3.37,-1.81,-14.96
13,18,289,-233,-385,3871,-0.12,0.46,13.56,-2.33,-3.85,38.71,-5.05,2.20,71.91,3.10,-1.95,-15.16
-2,18,240,-98,-287,3818,-0.12,0.53,13.67,-0.98,-2.87,38.18,-5.04,2.20,71.86,3.40,-1.96,-14.77
-3,19,224,-80,-331,3918,-0.12,0.59,13.67,-0.80,-3.31,39.18,-5.03,2.19,71.81,3.42,-1.99,-14.63
-7,7,190,12,-334,3926,-0.15,0.57,13.46,0.12,-3.34,39.26,-5.03,2.17,71.75,3.50,-1.73,-14.27
-2,10,199,-19,-382,3897,-0.15,0.58,13.33,-0.19,-3.82,38.97,-5.03,2.16,71.70,3.40,-1.79,-14.30
-3,-1,216,-53,-373,3916,-0.15,0.51,13.31,-0.53,-3.73,39.16,-5.04,2.15,71.65,3.43,-1.54,-14.44
-14,-3,218,-30,-361,3992,-0.22,0.44,13.31,-0.30,-3.61,39.92,-5.04,2.14,71.59,3.67,-1.47,-14.45
-2,-5,237,4,-388,3922,-0.21,0.37,13.43,0.04,-3.88,39.22,-5.04,2.13,71.54,3.43,-1.40,-14.64
-5,-9,242,42,-393,3925,-0.22,0.28,13.56,0.42,-3.93,39.25,-5.04,2.12,71.49,3.49,-1.29,-14.71
-7,-7,214,-21,-385,3937,-0.24,0.21,13.51,-0.21,-3.85,39.37,-5.05,2.11,71.43,3.54,-1.30,-14.45
-5,1,228,-118,-417,3992,-0.25,0.19,13.55,-1.18,-4.17,39.92,-5.06,2.10,71.38,3.51,-1.46,-14.58
-8,-1,355,-98,-507,3895,-0.27,0.17,14.36,-0.98,-5.07,38.95,-5.08,2.10,71.32,3.59,-1.41,-15.89
-5,3,360,42,-445,3954,-0.28,0.17,15.12,0.42,-4.45,39.54,-5.09,2.09,71.26,3.53,-1.49,-16.15
-4,4,328,51,-462,3881,-0.27,0.18,15.61,0.51,-4.62,38.81,-5.09,2.08,71.20,3.52,-1.51,-16.02
0,-1,336,112,-438,3994,-0.25,0.15,16.10,1.12,-4.38,39.94,-5.10,2.07,71.14,3.43,-1.39,-16.23
4,1,347,60,-432,3975,-0.20,0.14,16.60,0.60,-4.32,39.75,-5.10,2.06,71.07,3.34,-1.42,-16.47
-5,2,318,-59,-443,3898,-0.21,0.14,16.88,-0.59,-4.43,38.98,-5.12,2.06,71.00,3.53,-1.44,-16.30
3,14,307,-50,-415,3983,-0.17,0.21,17.07,-0.50,-4.15,39.83,-5.12,2.05,70.94,3.37,-1.69,-16.25
7,9,304,-126,-320,3921,-0.11,0.25,17.22,-1.26,-3.20,39.21,-5.11,2.05,70.87,3.26,-1.60,-16.26
-19,4,267,-98,-265,3823,-0.21,0.25,17.12,-0.98,-2.65,38.23,-5.09,2.05,70.80,3.80,-1.50,-15.91
11,22,287,71,-258,4035,-0.13,0.36,17.16,0.71,-2.58,40.35,-5.08,2.04,70.73,3.16,-1.89,-16.09
8,10,190,-45,-257,3911,-0.06,0.38,16.60,-0.45,-2.57,39.11,-5.06,2.03,70.66,3.20,-1.65,-15.09
5,14,175,-145,-333,3901,-0.03,0.43,16.01,-1.45,-3.33,39.01,-5.04,2.05,70.60,3.24,-1.75,-14.78
0,26,156,-115,-327,3885,-0.02,0.54,15.36,-1.15,-3.27,38.85,-5.03,2.04,70.54,3.33,-2.02,-14.41
9,25,167,-134,-381,3969,0.03,0.64,14.84,-1.34,-3.81,39.69,-5.05,2.04,70.48,3.14,-2.03,-14.34
1,26,209,-230,-460,3994,0.04,0.74,14.63,-2.30,-4.60,39.94,-5.06,2.06,70.42,3.31,-2.09,-14.63
2,29,213,-167,-441,3841,0.04,0.84,14.47,-1.67,-4.41,38.41,-5.08,2.08,70.37,3.30,-2.19,-14.61
7,31,222,-55,-445,3943,0.08,0.94,14.38,-0.55,-4.45,39.43,-5.09,2.07,70.31,3.19,-2.26,-14.65
13,22,234,-118,-384,3965,0.15,0.98,14.37,-1.18,-3.84,39.65,-5.10,2.07,70.25,3.06,-2.08,-14.74
-4,13,211,-135,-331,3911,0.11,0.97,14.22,-1.35,-3.31,39.11,-5.08,2.07,70.20,3.40,-1.89,-14.49
7,5,159,-107,-286,3964,0.15,0.90,13.77,-1.07,-2.86,39.64,-5.06,2.07,70.14,3.16,-1.71,-13.91
-4,-7,55,-12,-314,3936,0.11,0.77,12.72,-0.12,-3.14,39.36,-5.05,2.06,70.09,3.39,-1.43,-12.71
-5,-11,39,-39,-349,3922,0.07,0.62,11.69,-0.39,-3.49,39.22,-5.05,2.05,70.04,3.42,-1.30,-12.26
-6,-16,39,-80,-402,3913,0.02,0.46,10.76,-0.80,-4.02,39.13,-5.06,2.04,70.00,3.46,-1.15,-11.97
-7,-18,38,-66,-395,3916,-0.02,0.31,9.91,-0.66,-3.95,39.16,-5.07,2.03,69.96,3.50,-1.06,-11.70
-1,-5,40,-116,-408,3928,-0.03,0.25,9.17,-1.16,-4.08,39.28,-5.09,2.03,69.93,3.38,-1.30,-11.49
-1,-2,52,-153,-440,3924,-0.03,0.21,8.57,-1.53,-4.40,39.24,-5.10,2.03,69.89,3.40,-1.36,-11.41
-3,8,140,-181,-425,3883,-0.05,0.24,8.57,-1.81,-4.25,38.83,-5.12,2.05,69.86,3.45,-1.58,-12.15
0,15,168,-154,-408,3926,-0.04,0.30,8.73,-1.54,-4.08,39.26,-5.14,2.06,69.83,3.40,-1.74,-12.43
6,15,208,-15,-401,3918,-0.00,0.37,9.13,-0.15,-4.01,39.18,-5.14,2.04,69.79,3.27,-1.75,-12.89
5,3,210,4,-433,3928,0.03,0.35,9.50,0.04,-4.33,39.28,-5.15,2.03,69.75,3.29,-1.50,-13.01
-3,-7,178,36,-365,3949,0.01,0.27,9.63,0.36,-3.65,39.49,-5.15,2.02,69.71,3.46,-1.26,-12.77
-7,-1,153,10,-373,3912,-0.03,0.24,9.60,0.10,-3.73,39.12,-5.15,2.00,69.68,3.55,-1.37,-12.55
2,-4,74,-58,-348,3931,-0.02,0.19,9.09,-0.58,-3.48,39.31,-5.15,1.99,69.64,3.36,-1.28,-11.72
-4,-3,73,-80,-358,3888,-0.04,0.15,8.63,-0.80,-3.58,38.88,-5.15,1.98,69.61,3.49,-1.28,-11.57
-2,-2,111,-57,-453,3926,-0.05,0.12,8.44,-0.57,-4.53,39.26,-5.16,1.97,69.57,3.46,-1.29,-11.83
-1,-3,126,-63,-505,3928,-0.05,0.09,8.37,-0.63,-5.05,39.28,-5.18,1.96,69.54,3.45,-1.26,-11.93
2,0,157,-28,-537,3881,-0.03,0.08,8.49,-0.28,-5.37,38.81,-5.19,1.96,69.51,3.39,-1.32,-12.23
1,1,176,-23,-528,3859,-0.02,0.08,8.71,-0.23,-5.28,38.59,-5.21,1.95,69.47,3.42,-1.33,-12.45
-4,-3,208,99,-383,3888,-0.05,0.06,9.11,0.99,-3.83,38.88,-5.21,1.94,69.44,3.53,-1.23,-12.84
-3,-2,231,106,-450,3921,-0.06,0.04,9.61,1.06,-4.50,39.21,-5.21,1.92,69.40,3.52,-1.24,-13.18
-1,-4,290,59,-560,3955,-0.06,0.01,10.42,0.59,-5.60,39.55,-5.22,1.91,69.36,3.48,-1.18,-13.92
-13,-4,311,77,-595,3864,-0.13,-0.02,11.27,0.77,-5.95,38.64,-5.24,1.91,69.31,3.76,-1.17,-14.35
-1,3,378,94,-531,3883,-0.13,0.00,12.45,0.94,-5.31,38.83,-5.25,1.90,69.26,3.52,-1.31,-15.26
-9,-8,396,93,-499,3996,-0.17,-0.05,13.62,0.93,-4.99,39.96,-5.26,1.89,69.21,3.70,-1.07,-15.76
-16,-11,432,126,-317,3974,-0.25,-0.11,14.89,1.26,-3.17,39.74,-5.25,1.87,69.15,3.86,-0.98,-16.44
-5,-10,424,10,-302,3929,-0.25,-0.16,15.99,0.10,-3.02,39.29,-5.24,1.86,69.09,3.63,-0.98,-16.70
-11,-19,381,-266,-203,3903,-0.30,-0.26,16.72,-2.66,-2.03,39.03,-5.23,1.88,69.02,3.76,-0.78,-16.54
6,-24,358,-297,-134,3938,-0.23,-0.38,17.23,-2.97,-1.34,39.38,-5.21,1.89,68.95,3.38,-0.66,-16.49
-8,-82,227,-332,-220,3734,-0.26,-0.84,16.89,-3.32,-2.20,37.34,-5.20,1.91,68.88,3.67,0.63,-15.27
-12,-37,192,-325,-192,3951,-0.30,-0.98,16.37,-3.25,-1.92,39.51,-5.19,1.93,68.81,3.75,-0.25,-14.81
-5,-22,93,-342,-262,3972,-0.30,-1.02,15.30,-3.42,-2.62,39.72,-5.18,1.95,68.75,3.60,-0.56,-13.65
-7,-19,61,-292,-245,3886,-0.32,-1.03,14.14,-2.92,-2.45,38.86,-5.17,1.96,68.70,3.64,-0.63,-13.02
-3,-6,13,-90,-353,3898,-0.30,-0.97,12.81,-0.90,-3.53,38.98,-5.17,1.95,68.64,3.56,-0.90,-12.20
-1,-4,9,-97,-378,3919,-0.28,-0.89,11.58,-0.97,-3.78,39.19,-5.18,1.93,68.60,3.51,-0.95,-11.80
2,-1,3,-61,-389,3923,-0.24,-0.81,10.44,-0.61,-3.89,39.23,-5.19,1.91,68.56,3.45,-1.02,-11.40
-2,1,4,-41,-395,3910,-0.23,-0.72,9.42,-0.41,-3.95,39.10,-5.19,1.90,68.52,3.53,-1.08,-11.09
-2,0,2,-52,-377,3923,-0.22,-0.65,8.49,-0.52,-3.77,39.23,-5.20,1.88,68.49,3.53,-1.06,-10.79
1,-1,2,-65,-385,3925,-0.19,-0.59,7.66,-0.65,-3.85,39.25,-5.20,1.86,68.45,3.47,-1.05,-10.54
0,0,1,-55,-374,3916,-0.17,-0.53,6.90,-0.55,-3.74,39.16,-5.21,1.85,68.43,3.48,-1.07,-10.30
1,0,2,-44,-378,3916,-0.15,-0.48,6.22,-0.44,-3.78,39.16,-5.21,1.83,68.40,3.46,-1.08,-10.10
1,0,1,-47,-388,3915,-0.13,-0.43,5.60,-0.47,-3.88,39.15,-5.22,1.81,68.38,3.46,-1.08,-9.90
0,-1,2,-65,-392,3922,-0.11,-0.39,5.06,-0.65,-3.92,39.22,-5.23,1.80,68.36,3.48,-1.06,-9.74
1,0,2,-66,-393,3922,-0.10,-0.36,4.56,-0.66,-3.93,39.22,-5.24,1.78,68.34,3.46,-1.08,-9.59
0,1,1,-46,-396,3916,-0.09,-0.31,4.11,-0.46,-3.96,39.16,-5.24,1.77,68.33,3.49,-1.10,-9.45
0,1,1,-50,-395,3907,-0.08,-0.28,3.71,-0.50,-3.95,39.07,-5.25,1.75,68.31,3.49,-1.10,-9.32
1,0,2,-64,-392,3915,-0.06,-0.25,3.35,-0.64,-3.92,39.15,-5.26,1.73,68.30,3.47,-1.08,-9.22
1,-1,2,-62,-388,3906,-0.05,-0.23,3.03,-0.62,-3.88,39.06,-5.27,1.72,68.29,3.47,-1.05,-9.12
0,0,1,-59,-389,3909,-0.05,-0.21,2.73,-0.59,-3.89,39.09,-5.28,1.70,68.28,3.50,-1.07,-9.02
1,0,2,-59,-388,3915,-0.04,-0.19,2.47,-0.59,-3.88,39.15,-5.29,1.68,68.27,3.48,-1.06,-8.95
1,-1,2,-60,-390,3906,-0.03,-0.17,2.23,-0.60,-3.90,39.06,-5.29,1.67,68.26,3.48,-1.03,-8.88
0,-1,2,-65,-391,3926,-0.02,-0.16,2.02,-0.65,-3.91,39.26,-5.30,1.65,68.25,3.51,-1.03,-8.82
0,0,1,-54,-389,3929,-0.02,-0.15,1.83,-0.54,-3.89,39.29,-5.31,1.64,68.24,3.51,-1.04,-8.75
0,0,2,-47,-390,3911,-0.02,-0.13,1.66,-0.47,-3.90,39.11,-5.32,1.62,68.24,3.51,-1.03,-8.70
0,-1,2,-54,-392,3924,-0.02,-0.12,1.50,-0.54,-3.92,39.24,-5.32,1.60,68.23,3.52,-1.00,-8.66
0,-1,2,-57,-390,3918,-0.02,-0.12,1.36,-0.57,-3.90,39.18,-5.33,1.59,68.22,3.52,-0.99,-8.61
0,0,2,-54,-389,3910,-0.01,-0.11,1.24,-0.54,-3.89,39.10,-5.34,1.57,68.22,3.53,-1.01,-8.58
1,0,2,-60,-393,3923,-0.01,-0.10,1.13,-0.60,-3.93,39.23,-5.35,1.55,68.22,3.51,-1.00,-8.54
0,-1,2,-62,-389,3919,-0.01,-0.09,1.03,-0.62,-3.89,39.19,-5.35,1.54,68.21,3.54,-0.97,-8.51
0,-1,1,-50,-386,3925,-0.01,-0.09,0.93,-0.50,-3.86,39.25,-5.36,1.52,68.21,3.54,-0.96,-8.47
0,-1,1,-51,-387,3928,-0.00,-0.09,0.84,-0.51,-3.87,39.28,-5.37,1.50,68.20,3.54,-0.95,-8.45
1,0,1,-61,-390,3909,0.00,-0.08,0.77,-0.61,-3.90,39.09,-5.37,1.49,68.20,3.53,-0.96,-8.42
0,-1,2,-56,-386,3909,0.00,-0.08,0.70,-0.56,-3.86,39.09,-5.38,1.47,68.20,3.55,-0.93,-8.41
1,-1,3,-59,-387,3920,0.01,-0.07,0.65,-0.59,-3.87,39.20,-5.39,1.45,68.20,3.53,-0.92,-8.40
1,-1,3,-62,-389,3915,0.01,-0.07,0.60,-0.62,-3.89,39.15,-5.40,1.43,68.19,3.54,-0.91,-8.39
0,0,2,-50,-385,3916,0.01,-0.07,0.55,-0.50,-3.85,39.16,-5.40,1.42,68.19,3.56,-0.92,-8.37
1,0,2,-52,-383,3914,0.02,-0.06,0.51,-0.52,-3.83,39.14,-5.41,1.40,68.19,3.54,-0.91,-8.35
0,0,3,-62,-391,3911,0.02,-0.05,0.48,-0.62,-3.91,39.11,-5.42,1.38,68.19,3.57,-0.90,-8.35
0,-1,3,-63,-397,3915,0.01,-0.05,0.45,-0.63,-3.97,39.15,-5.43,1.37,68.19,3.58,-0.87,-8.34
1,-1,3,-54,-396,3910,0.02,-0.05,0.42,-0.54,-3.96,39.10,-5.44,1.35,68.19,3.56,-0.86,-8.33
0,-1,3,-59,-404,3909,0.02,-0.06,0.40,-0.59,-4.04,39.09,-5.45,1.34,68.18,3.59,-0.85,-8.33
0,-1,3,-57,-392,3926,0.01,-0.06,0.38,-0.57,-3.92,39.26,-5.46,1.32,68.18,3.60,-0.84,-8.32
0,-1,2,-55,-393,3925,0.01,-0.06,0.35,-0.55,-3.93,39.25,-5.47,1.31,68.18,3.60,-0.83,-8.30
0,0,1,-59,-393,3913,0.01,-0.05,0.32,-0.59,-3.93,39.13,-5.48,1.29,68.18,3.61,-0.84,-8.29
0,0,2,-64,-390,3925,0.01,-0.05,0.30,-0.64,-3.90,39.25,-5.48,1.28,68.18,3.62,-0.83,-8.29
0,-1,3,-53,-397,3922,0.01,-0.05,0.29,-0.53,-3.97,39.22,-5.49,1.26,68.18,3.62,-0.80,-8.29
0,0,3,-58,-396,3926,0.01,-0.04,0.28,-0.58,-3.96,39.26,-5.50,1.24,68.18,3.63,-0.81,-8.29
0,-1,2,-61,-394,3921,0.01,-0.04,0.26,-0.61,-3.94,39.21,-5.51,1.23,68.18,3.64,-0.78,-8.28
0,-1,2,-60,-394,3923,0.01,-0.05,0.25,-0.60,-3.94,39.23,-5.52,1.21,68.18,3.64,-0.77,-8.27
0,-1,2,-57,-399,3922,0.01,-0.05,0.24,-0.57,-3.99,39.22,-5.53,1.20,68.18,3.65,-0.76,-8.27
0,-1,2,-61,-396,3906,0.01,-0.05,0.23,-0.61,-3.96,39.06,-5.55,1.18,68.17,3.66,-0.75,-8.27
0,-1,1,-49,-388,3918,0.01,-0.05,0.21,-0.49,-3.88,39.18,-5.55,1.17,68.17,3.66,-0.74,-8.25
1,-1,1,-47,-388,3927,0.01,-0.05,0.19,-0.47,-3.88,39.27,-5.55,1.15,68.17,3.64,-0.72,-8.25
-1,0,1,-65,-383,3925,0.00,-0.05,0.18,-0.65,-3.83,39.25,-5.55,1.13,68.17,3.69,-0.73,-8.24
-1,0,1,-68,-385,3914,-0.00,-0.04,0.17,-0.68,-3.85,39.14,-5.56,1.11,68.17,3.69,-0.72,-8.24
-1,0,2,-57,-382,3929,-0.01,-0.04,0.16,-0.57,-3.82,39.29,-5.56,1.09,68.17,3.69,-0.71,-8.25
-1,1,2,-56,-385,3927,-0.01,-0.03,0.16,-0.56,-3.85,39.27,-5.56,1.08,68.17,3.70,-0.72,-8.25
-3,1,3,-55,-385,3922,-0.03,-0.02,0.16,-0.55,-3.85,39.22,-5.57,1.06,68.17,3.74,-0.71,-8.25
-2,1,3,-52,-387,3917,-0.04,-0.01,0.16,-0.52,-3.87,39.17,-5.57,1.04,68.17,3.73,-0.70,-8.26
-2,1,3,-47,-396,3900,-0.05,-0.00,0.17,-0.47,-3.96,39.00,-5.58,1.02,68.17,3.74,-0.70,-8.26
-2,1,3,-51,-402,3906,-0.06,0.00,0.17,-0.51,-4.02,39.06,-5.60,1.01,68.17,3.75,-0.69,-8.26
-4,1,2,-56,-394,3916,-0.07,0.01,0.16,-0.56,-3.94,39.16,-5.61,1.00,68.17,3.80,-0.68,-8.25
-4,1,2,-55,-397,3909,-0.09,0.01,0.16,-0.55,-3.97,39.09,-5.62,0.98,68.17,3.82,-0.67,-8.25
-4,1,2,-62,-394,3920,-0.11,0.02,0.16,-0.62,-3.94,39.20,-5.64,0.97,68.17,3.83,-0.67,-8.24
-4,1,2,-59,-395,3918,-0.12,0.02,0.15,-0.59,-3.95,39.18,-5.65,0.96,68.17,3.84,-0.66,-8.24
-4,1,1,-59,-393,3907,-0.13,0.03,0.14,-0.59,-3.93,39.07,-5.66,0.95,68.17,3.85,-0.65,-8.23
-3,2,1,-64,-396,3915,-0.14,0.04,0.13,-0.64,-3.96,39.15,-5.68,0.95,68.17,3.85,-0.68,-8.23
-2,1,1,-63,-394,3909,-0.14,0.04,0.13,-0.63,-3.94,39.09,-5.70,0.94,68.17,3.84,-0.65,-8.23
-2,0,0,-57,-393,3912,-0.13,0.03,0.11,-0.57,-3.93,39.12,-5.70,0.92,68.17,3.84,-0.62,-8.21
-1,0,2,-56,-392,3911,-0.13,0.03,0.12,-0.56,-3.92,39.11,-5.71,0.91,68.17,3.82,-0.61,-8.23
-1,1,1,-56,-382,3917,-0.12,0.03,0.11,-0.56,-3.82,39.17,-5.69,0.90,68.17,3.81,-0.62,-8.22
0,1,2,-66,-383,3912,-0.11,0.04,0.11,-0.66,-3.83,39.12,-5.68,0.91,68.16,3.78,-0.63,-8.23
-1,1,2,-62,-392,3914,-0.10,0.04,0.11,-0.62,-3.92,39.14,-5.70,0.90,68.16,3.81,-0.63,-8.23
-2,1,2,-59,-392,3914,-0.11,0.04,0.11,-0.59,-3.92,39.14,-5.71,0.89,68.16,3.84,-0.62,-8.23
-2,0,2,-65,-388,3919,-0.11,0.04,0.11,-0.65,-3.88,39.19,-5.69,0.90,68.16,3.83,-0.61,-8.23
0,0,2,-65,-396,3917,-0.10,0.03,0.11,-0.65,-3.96,39.17,-5.71,0.91,68.16,3.80,-0.61,-8.23
-1,0,1,-63,-399,3908,-0.09,0.03,0.11,-0.63,-3.99,39.08,-5.73,0.91,68.16,3.83,-0.61,-8.22
-1,-1,2,-67,-382,3922,-0.09,0.02,0.11,-0.67,-3.82,39.22,-5.71,0.92,68.16,3.81,-0.59,-8.23
-1,0,2,-63,-382,3912,-0.09,0.02,0.11,-0.63,-3.82,39.12,-5.69,0.92,68.16,3.80,-0.61,-8.23
-1,0,1,-52,-384,3900,-0.08,0.02,0.11,-0.52,-3.84,39.00,-5.69,0.90,68.16,3.80,-0.60,-8.22
-1,0,2,-46,-389,3912,-0.08,0.02,0.11,-0.46,-3.89,39.12,-5.69,0.88,68.16,3.80,-0.59,-8.23
0,0,1,-59,-390,3918,-0.07,0.01,0.10,-0.59,-3.90,39.18,-5.69,0.87,68.16,3.77,-0.58,-8.22
0,0,1,-61,-390,3912,-0.07,0.01,0.10,-0.61,-3.90,39.12,-5.69,0.88,68.16,3.77,-0.59,-8.22
0,0,1,-56,-392,3908,-0.06,0.01,0.10,-0.56,-3.92,39.08,-5.70,0.87,68.16,3.78,-0.58,-8.22
-1,0,3,-61,-388,3909,-0.06,0.01,0.10,-0.61,-3.88,39.09,-5.69,0.88,68.16,3.79,-0.58,-8.24
0,1,2,-64,-394,3923,-0.05,0.02,0.11,-0.64,-3.94,39.23,-5.70,0.89,68.16,3.78,-0.61,-8.23
0,0,2,-58,-386,3921,-0.05,0.01,0.11,-0.58,-3.86,39.21,-5.68,0.88,68.16,3.76,-0.59,-8.23
1,0,2,-60,-392,3909,-0.04,0.01,0.11,-0.60,-3.92,39.09,-5.70,0.88,68.16,3.75,-0.58,-8.23
1,-1,2,-66,-396,3918,-0.03,0.00,0.11,-0.66,-3.96,39.18,-5.71,0.89,68.16,3.76,-0.57,-8.23
1,-1,2,-65,-396,3917,-0.02,-0.00,0.11,-0.65,-3.96,39.17,-5.73,0.91,68.16,3.76,-0.58,-8.23
1,0,3,-54,-402,3914,-0.01,-0.00,0.12,-0.54,-4.02,39.14,-5.74,0.89,68.16,3.77,-0.59,-8.24
1,0,3,-57,-399,3919,-0.00,-0.00,0.13,-0.57,-3.99,39.19,-5.75,0.88,68.16,3.78,-0.58,-8.24
0,0,3,-63,-399,3912,-0.00,-0.00,0.13,-0.63,-3.99,39.12,-5.77,0.89,68.16,3.81,-0.59,-8.24
1,0,3,-63,-401,3911,0.00,-0.00,0.14,-0.63,-4.01,39.11,-5.79,0.90,68.16,3.80,-0.59,-8.25
1,0,3,-65,-401,3919,0.01,-0.00,0.14,-0.65,-4.01,39.19,-5.80,0.91,68.16,3.81,-0.60,-8.25
0,1,1,-58,-393,3910,0.01,0.01,0.13,-0.58,-3.93,39.10,-5.79,0.90,68.16,3.82,-0.61,-8.23
0,0,1,-54,-396,3914,0.01,0.00,0.13,-0.54,-3.96,39.14,-5.79,0.88,68.15,3.82,-0.58,-8.22
-1,-10,5,11,-370,3905,0.00,-0.06,0.14,0.11,-3.70,39.05,-5.78,0.86,68.15,3.84,-0.35,-8.26
0,-23,15,-5,-370,3911,0.00,-0.19,0.22,-0.05,-3.70,39.11,-5.77,0.84,68.15,3.81,-0.04,-8.37
-3,-16,15,-76,-376,3945,-0.02,-0.27,0.29,-0.76,-3.76,39.45,-5.76,0.85,68.15,3.87,-0.16,-8.39
-5,-30,25,-15,-249,3879,-0.05,-0.43,0.41,-0.15,-2.49,38.79,-5.74,0.85,68.15,3.90,0.17,-8.51
-8,-5,178,394,46,3874,-0.09,-0.41,1.46,3.94,0.46,38.74,-5.73,0.83,68.14,3.97,-0.33,-10.12
-12,-8,221,278,20,3988,-0.15,-0.42,2.66,2.78,0.20,39.88,-5.71,0.82,68.13,4.06,-0.26,-10.85
0,13,350,-8,-5,3983,-0.14,-0.30,4.53,-0.08,-0.05,39.83,-5.70,0.82,68.11,3.80,-0.72,-12.50
16,24,374,-58,-64,3902,-0.03,-0.12,6.36,-0.58,-0.64,39.02,-5.68,0.82,68.09,3.43,-1.00,-13.25
-11,23,370,-189,-406,3809,-0.09,0.03,7.98,-1.89,-4.06,38.09,-5.68,0.84,68.06,4.00,-1.03,-13.70
-9,-1,334,-145,-563,3802,-0.14,0.02,9.22,-1.45,-5.63,38.02,-5.70,0.85,68.02,3.98,-0.55,-13.77
-1,-11,131,-79,-741,3738,-0.13,-0.05,9.10,-0.79,-7.41,37.38,-5.72,0.86,67.98,3.83,-0.33,-12.01
-18,-21,94,-70,-723,3966,-0.23,-0.17,8.76,-0.70,-7.23,39.66,-5.74,0.86,67.95,4.21,-0.09,-11.59
-17,-22,115,-85,-714,3904,-0.31,-0.29,8.59,-0.85,-7.14,39.04,-5.75,0.86,67.92,4.23,-0.04,-11.71
-17,-17,163,-34,-620,4033,-0.38,-0.36,8.72,-0.34,-6.20,40.33,-5.77,0.86,67.88,4.26,-0.13,-12.15
-3,-16,204,76,-603,3966,-0.36,-0.43,9.09,0.76,-6.03,39.66,-5.79,0.86,67.84,3.98,-0.12,-12.61
-6,-11,212,5,-591,3911,-0.36,-0.45,9.48,0.05,-5.91,39.11,-5.81,0.85,67.81,4.05,-0.22,-12.79
-4,0,234,0,-396,3957,-0.35,-0.40,9.96,0.00,-3.96,39.57,-5.81,0.84,67.77,4.01,-0.44,-13.11
-15,5,249,-102,-381,3926,-0.41,-0.33,10.48,-1.02,-3.81,39.26,-5.80,0.86,67.73,4.24,-0.58,-13.39
2,12,263,-167,-382,3969,-0.35,-0.23,11.04,-1.67,-3.82,39.69,-5.80,0.88,67.68,3.88,-0.76,-13.67
3,1,285,-233,-562,3917,-0.30,-0.20,11.67,-2.33,-5.62,39.17,-5.81,0.90,67.64,3.86,-0.56,-14.05
-3,19,457,-184,-773,3862,-0.29,-0.06,13.29,-1.84,-7.73,38.62,-5.83,0.91,67.58,3.99,-0.97,-15.98
-16,18,522,-141,-783,3897,-0.36,0.05,15.15,-1.41,-7.83,38.97,-5.85,0.92,67.52,4.28,-0.99,-17.09
-12,23,638,-196,-393,3934,-0.39,0.19,17.52,-1.96,-3.93,39.34,-5.85,0.94,67.45,4.21,-1.14,-18.78
-10,19,645,-220,-334,3885,-0.42,0.29,19.71,-2.20,-3.34,38.85,-5.84,0.97,67.37,4.17,-1.10,-19.48
-7,0,582,20,-416,3859,-0.42,0.26,21.29,0.20,-4.16,38.59,-5.84,0.96,67.29,4.11,-0.70,-19.41
-19,10,591,-34,-530,3901,-0.49,0.29,22.76,-0.34,-5.30,39.01,-5.86,0.97,67.20,4.39,-0.92,-19.92
-21,18,705,-26,-507,4015,-0.57,0.37,24.79,-0.26,-5.07,40.15,-5.88,0.97,67.10,4.46,-1.11,-20.00
-4,19,722,-52,-466,3937,-0.54,0.45,26.71,-0.52,-4.66,39.37,-5.90,0.98,67.00,4.12,-1.16,-20.00
-10,18,742,21,-408,3895,-0.54,0.52,28.57,0.21,-4.08,38.95,-5.90,0.97,66.88,4.25,-1.15,-20.00
4,25,742,46,-435,3922,-0.47,0.62,30.24,0.46,-4.35,39.22,-5.90,0.97,66.76,3.94,-1.32,-20.00
-11,22,777,178,-478,3977,-0.49,0.69,31.95,1.78,-4.78,39.77,-5.91,0.97,66.64,4.26,-1.28,-20.00
-9,20,774,210,-418,3952,-0.49,0.74,33.48,2.10,-4.18,39.52,-5.91,0.97,66.50,4.22,-1.25,-20.00
-10,18,713,239,-408,3779,-0.50,0.78,34.48,2.39,-4.08,37.79,-5.91,0.97,66.37,4.24,-1.22,-20.00
-2,16,724,218,-467,4029,-0.47,0.80,35.45,2.18,-4.67,40.29,-5.91,0.97,66.22,4.07,-1.18,-20.00
5,17,789,86,-349,3933,-0.39,0.82,36.72,0.86,-3.49,39.33,-5.90,0.97,66.08,3.90,-1.21,-20.00
-4,26,802,85,-461,3844,-0.37,0.90,37.94,0.85,-4.61,38.44,-5.91,0.97,65.93,4.08,-1.41,-20.00
-21,17,830,42,-494,3872,-0.47,0.91,39.21,0.42,-4.94,38.72,-5.92,0.98,65.77,4.46,-1.24,-20.00
0,21,831,6,-473,3924,-0.42,0.95,40.35,0.06,-4.73,39.24,-5.93,0.98,65.61,4.03,-1.33,-20.00
-15,16,896,8,-483,3951,-0.47,0.95,41.78,0.08,-4.83,39.51,-5.94,0.99,65.45,4.36,-1.24,-20.00
-11,14,897,-13,-431,3873,-0.49,0.94,43.08,-0.13,-4.31,38.73,-5.95,1.00,65.28,4.28,-1.20,-20.00
-8,15,908,-119,-499,3864,-0.49,0.94,44.31,-1.19,-4.99,38.64,-5.97,1.03,65.10,4.23,-1.24,-20.00
-16,15,907,-114,-500,3896,-0.54,0.94,45.41,-1.14,-5.00,38.96,-5.98,1.06,64.92,4.42,-1.26,-20.00
-14,6,872,-222,-455,3966,-0.57,0.88,46.19,-2.22,-4.55,39.66,-5.99,1.10,64.74,4.39,-1.09,-20.00
-21,16,845,-234,-521,3842,-0.64,0.89,46.72,-2.34,-5.21,38.42,-5.99,1.14,64.55,4.56,-1.32,-20.00
-14,5,751,-189,-295,3931,-0.66,0.83,46.63,-1.89,-2.95,39.31,-5.98,1.17,64.37,4.41,-1.10,-20.00
-11,15,746,-164,-201,3921,-0.66,0.84,46.52,-1.64,-2.01,39.21,-5.96,1.20,64.18,4.34,-1.33,-20.00
-7,10,694,-259,-247,3933,-0.64,0.82,46.10,-2.59,-2.47,39.33,-5.95,1.24,64.00,4.24,-1.24,-20.00
-12,8,686,-211,-288,3922,-0.65,0.78,45.68,-2.11,-2.88,39.22,-5.93,1.27,63.82,4.34,-1.22,-20.00
-3,20,625,-264,-229,3974,-0.60,0.83,44.92,-2.64,-2.29,39.74,-5.92,1.31,63.64,4.13,-1.49,-20.00
-13,-2,612,-308,-291,3987,-0.62,0.73,44.16,-3.08,-2.91,39.87,-5.91,1.34,63.46,4.33,-1.05,-20.00
-18,6,629,-336,-478,3878,-0.67,0.70,43.58,-3.36,-4.78,38.78,-5.91,1.38,63.29,4.45,-1.22,-20.00
6,25,654,-348,-494,3889,-0.57,0.78,43.21,-3.48,-4.94,38.89,-5.92,1.42,63.12,3.94,-1.66,-20.00
-20,25,694,-187,-465,3856,-0.63,0.85,43.13,-1.87,-4.65,38.56,-5.93,1.46,62.95,4.49,-1.70,-20.00
-3,21,705,-128,-440,3922,-0.59,0.90,43.11,-1.28,-4.40,39.22,-5.94,1.49,62.78,4.14,-1.65,-20.00
-6,24,696,-59,-391,3883,-0.56,0.95,43.05,-0.59,-3.91,38.83,-5.93,1.49,62.60,4.19,-1.73,-20.00
-7,20,690,-71,-368,3931,-0.55,0.98,42.95,-0.71,-3.68,39.31,-5.91,1.50,62.43,4.20,-1.67,-20.00
-24,4,676,-133,-349,3918,-0.64,0.91,42.78,-1.33,-3.49,39.18,-5.90,1.53,62.26,4.55,-1.34,-20.00
-9,8,681,-125,-251,3900,-0.63,0.86,42.66,-1.25,-2.51,39.00,-5.88,1.56,62.09,4.23,-1.43,-20.00
-12,22,730,-158,-423,3822,-0.64,0.91,42.84,-1.58,-4.23,38.22,-5.88,1.59,61.92,4.30,-1.75,-20.00
-14,10,706,73,-159,3973,-0.66,0.88,42.87,0.73,-1.59,39.73,-5.87,1.60,61.75,4.34,-1.50,-20.00
-12,18,655,-70,-427,3864,-0.67,0.90,42.58,-0.70,-4.27,38.64,-5.88,1.61,61.58,4.30,-1.67,-20.00
-3,22,640,-26,-365,3931,-0.62,0.95,42.22,-0.26,-3.65,39.31,-5.87,1.61,61.42,4.10,-1.77,-20.00
-14,29,654,-142,-468,3864,-0.64,1.03,41.99,-1.42,-4.68,38.64,-5.88,1.64,61.25,4.34,-1.95,-20.00
-1,29,659,-62,-565,3863,-0.59,1.10,41.81,-0.62,-5.65,38.63,-5.89,1.66,61.08,4.07,-1.99,-20.00
-26,9,603,-74,-419,3833,-0.69,1.05,41.31,-0.74,-4.19,38.33,-5.90,1.67,60.92,4.61,-1.57,-20.00
-4,24,615,-193,-767,3959,-0.64,1.09,40.93,-1.93,-7.67,39.59,-5.92,1.69,60.76,4.16,-1.90,-20.00
-6,23,728,-59,-672,3924,-0.61,1.12,41.28,-0.59,-6.72,39.24,-5.93,1.71,60.60,4.21,-1.90,-20.00
-9,18,713,-112,-633,3982,-0.61,1.12,41.50,-1.12,-6.33,39.82,-5.95,1.73,60.43,4.28,-1.81,-20.00
-4,15,592,-54,-357,4049,-0.57,1.10,40.96,-0.54,-3.57,40.49,-5.93,1.74,60.27,4.15,-1.75,-20.00
-5,12,550,-94,-518,3953,-0.54,1.06,40.22,-0.94,-5.18,39.53,-5.95,1.75,60.11,4.18,-1.69,-20.00
-11,11,514,-198,-324,3927,-0.56,1.02,39.33,-1.98,-3.24,39.27,-5.93,1.79,59.95,4.29,-1.68,-20.00
-7,10,483,-176,-324,3913,-0.54,0.98,38.34,-1.76,-3.24,39.13,-5.91,1.82,59.80,4.19,-1.67,-20.00
-6,1,393,-104,-319,3931,-0.53,0.89,36.91,-1.04,-3.19,39.31,-5.89,1.83,59.65,4.16,-1.47,-20.00
-7,-6,360,-10,-229,3953,-0.52,0.76,35.41,-0.10,-2.29,39.53,-5.88,1.84,59.51,4.16,-1.30,-20.00
-9,3,312,-136,-323,3866,-0.52,0.71,33.77,-1.36,-3.23,38.66,-5.86,1.86,59.38,4.19,-1.48,-19.94
-7,2,317,-93,-281,4028,-0.51,0.65,32.33,-0.93,-2.81,40.28,-5.84,1.87,59.25,4.13,-1.45,-19.53
-7,3,315,-119,-362,3942,-0.50,0.60,31.02,-1.19,-3.62,39.42,-5.82,1.88,59.12,4.12,-1.46,-19.10
-7,12,325,-106,-399,3898,-0.49,0.61,29.90,-1.06,-3.99,38.98,-5.82,1.87,59.01,4.12,-1.65,-18.84
-2,8,325,-98,-343,3928,-0.46,0.60,28.89,-0.98,-3.43,39.28,-5.80,1.88,58.89,3.99,-1.57,-18.52
-7,4,343,-53,-341,3932,-0.45,0.57,28.10,-0.53,-3.41,39.32,-5.79,1.88,58.78,4.08,-1.48,-18.42
-7,5,371,57,-340,3901,-0.45,0.54,27.55,0.57,-3.40,39.01,-5.78,1.87,58.67,4.08,-1.49,-18.48
-2,21,375,-40,-521,3835,-0.42,0.61,27.08,-0.40,-5.21,38.35,-5.79,1.88,58.56,3.98,-1.83,-18.36
-10,9,432,-106,-476,3891,-0.44,0.61,27.01,-1.06,-4.76,38.91,-5.81,1.89,58.45,4.16,-1.59,-18.81
-3,15,494,-60,-510,3818,-0.41,0.64,27.32,-0.60,-5.10,38.18,-5.82,1.89,58.35,4.02,-1.73,-19.41
-4,3,562,123,-229,3981,-0.40,0.59,28.02,1.23,-2.29,39.81,-5.81,1.89,58.24,4.02,-1.47,-20.00
-9,17,555,-190,-603,3836,-0.41,0.64,28.60,-1.90,-6.03,38.36,-5.83,1.91,58.12,4.14,-1.78,-20.00
-5,33,687,2,-410,3967,-0.40,0.77,29.93,0.02,-4.10,39.67,-5.82,1.91,58.00,4.05,-2.14,-20.00
-6,22,701,31,-520,3959,-0.40,0.83,31.21,0.31,-5.20,39.59,-5.83,1.91,57.88,4.08,-1.93,-20.00
-29,16,720,14,-421,3898,-0.53,0.85,32.49,0.14,-4.21,38.98,-5.83,1.91,57.75,4.58,-1.81,-20.00
-9,23,723,30,-444,3873,-0.54,0.90,33.65,0.30,-4.44,38.73,-5.84,1.91,57.62,4.18,-1.97,-20.00
-16,21,685,-52,-419,3868,-0.58,0.94,34.46,-0.52,-4.19,38.68,-5.84,1.91,57.48,4.34,-1.94,-20.00
-12,16,671,50,-367,3896,-0.59,0.94,35.11,0.50,-3.67,38.96,-5.83,1.91,57.34,4.26,-1.84,-20.00
-12,-2,593,-52,-418,3935,-0.61,0.84,35.21,-0.52,-4.18,39.35,-5.83,1.91,57.20,4.26,-1.44,-20.00
-9,16,624,9,-489,3809,-0.60,0.85,35.50,0.09,-4.89,38.09,-5.84,1.91,57.06,4.20,-1.82,-20.00
-10,5,582,-88,-328,3909,-0.60,0.80,35.50,-0.88,-3.28,39.09,-5.82,1.92,56.92,4.21,-1.58,-20.00
-26,-6,582,-55,-330,3966,-0.70,0.68,35.50,-0.55,-3.30,39.66,-5.81,1.92,56.78,4.55,-1.33,-20.00
1,14,649,-114,-386,3985,-0.63,0.70,35.91,-1.14,-3.86,39.85,-5.80,1.92,56.63,3.98,-1.74,-20.00
-18,3,653,-67,-331,3938,-0.67,0.65,36.30,-0.67,-3.31,39.38,-5.78,1.93,56.49,4.36,-1.51,-20.00
-14,10,669,-93,-527,3882,-0.69,0.64,36.75,-0.93,-5.27,38.82,-5.80,1.94,56.34,4.30,-1.66,-20.00
-8,22,682,-74,-498,3855,-0.67,0.71,37.24,-0.74,-4.98,38.55,-5.81,1.95,56.20,4.18,-1.93,-20.00
-6,16,643,-90,-341,3938,-0.64,0.74,37.44,-0.90,-3.41,39.38,-5.79,1.96,56.05,4.12,-1.82,-20.00
-15,9,657,-109,-463,3981,-0.67,0.72,37.70,-1.09,-4.63,39.81,-5.81,1.97,55.90,4.32,-1.68,-20.00
-8,14,616,-140,-440,3956,-0.65,0.73,37.69,-1.40,-4.40,39.56,-5.82,1.99,55.75,4.18,-1.80,-20.00
-8,12,621,-75,-429,3887,-0.63,0.73,37.71,-0.75,-4.29,38.87,-5.83,1.99,55.60,4.18,-1.76,-20.00
-12,9,628,40,-326,3922,-0.64,0.71,37.77,0.40,-3.26,39.22,-5.82,1.99,55.45,4.26,-1.69,-20.00
-14,30,610,-152,-447,3886,-0.66,0.83,37.71,-1.52,-4.47,38.86,-5.83,2.02,55.30,4.32,-2.17,-20.00
-2,24,653,-118,-359,3984,-0.61,0.89,37.92,-1.18,-3.59,39.84,-5.81,2.03,55.15,4.04,-2.07,-20.00
-1,16,661,-115,-447,3911,-0.56,0.90,38.16,-1.15,-4.47,39.11,-5.83,2.04,55.00,4.02,-1.91,-20.00
-25,14,661,-65,-394,3923,-0.65,0.89,38.38,-0.65,-3.94,39.23,-5.82,2.04,54.85,4.53,-1.87,-20.00
-2,25,660,-89,-421,3844,-0.60,0.96,38.57,-0.89,-4.21,38.44,-5.83,2.04,54.69,4.05,-2.12,-20.00
-14,16,619,107,-340,3969,-0.62,0.96,38.49,1.07,-3.40,39.69,-5.82,2.04,54.54,4.30,-1.94,-20.00
-1,16,603,31,-424,3937,-0.57,0.96,38.32,0.31,-4.24,39.37,-5.82,2.04,54.39,4.02,-1.94,-20.00
-13,29,651,-45,-461,3841,-0.59,1.04,38.46,-0.45,-4.61,38.41,-5.83,2.05,54.24,4.27,-2.23,-20.00
-6,19,639,-117,-453,3995,-0.57,1.05,38.51,-1.17,-4.53,39.95,-5.84,2.06,54.08,4.13,-2.03,-20.00
-10,12,620,-15,-394,3867,-0.57,1.02,38.44,-0.15,-3.94,38.67,-5.84,2.06,53.93,4.21,-1.88,-20.00
-13,14,664,25,-586,3871,-0.59,1.00,38.65,0.25,-5.86,38.71,-5.85,2.07,53.78,4.29,-1.92,-20.00
11,26,660,-108,-518,4047,-0.47,1.06,38.81,-1.08,-5.18,40.47,-5.86,2.08,53.62,3.77,-2.19,-20.00
-3,2,616,-157,-498,3973,-0.44,0.97,38.68,-1.57,-4.98,39.73,-5.88,2.10,53.47,4.06,-1.69,-20.00
-15,0,580,-63,-365,3921,-0.49,0.87,38.35,-0.63,-3.65,39.21,-5.86,2.11,53.32,4.31,-1.63,-20.00
-8,14,580,-24,-382,3867,-0.49,0.87,38.06,-0.24,-3.82,38.67,-5.86,2.11,53.17,4.16,-1.91,-20.00
-11,15,575,-98,-588,3874,-0.51,0.87,37.76,-0.98,-5.88,38.74,-5.87,2.12,53.02,4.24,-1.94,-20.00
-8,17,592,65,-422,3938,-0.50,0.89,37.59,0.65,-4.22,39.38,-5.87,2.12,52.87,4.17,-1.99,-20.00
6,8,534,-8,-442,3980,-0.42,0.85,37.09,-0.08,-4.42,39.80,-5.87,2.12,52.72,3.87,-1.80,-20.00
-4,10,563,-5,-405,3926,-0.40,0.83,36.82,-0.05,-4.05,39.26,-5.87,2.12,52.57,4.06,-1.83,-20.00
-15,15,572,-37,-430,3940,-0.45,0.84,36.62,-0.37,-4.30,39.40,-5.87,2.12,52.43,4.30,-1.93,-20.00
-3,7,563,-31,-286,4034,-0.42,0.79,36.40,-0.31,-2.86,40.34,-5.85,2.13,52.28,4.04,-1.76,-20.00
-20,9,550,-62,-473,3895,-0.50,0.77,36.11,-0.62,-4.73,38.95,-5.86,2.13,52.14,4.41,-1.80,-20.00
-5,10,542,-48,-383,4011,-0.48,0.75,35.81,-0.48,-3.83,40.11,-5.85,2.13,52.00,4.10,-1.82,-20.00
-10,5,516,-38,-476,3927,-0.50,0.71,35.37,-0.38,-4.76,39.27,-5.86,2.14,51.86,4.21,-1.70,-20.00
-9,-13,488,46,-296,3938,-0.50,0.56,34.81,0.46,-2.96,39.38,-5.85,2.14,51.72,4.18,-1.30,-20.00
-14,6,463,-93,-438,3863,-0.54,0.54,34.16,-0.93,-4.38,38.63,-5.85,2.14,51.58,4.30,-1.68,-20.00
-8,8,468,-140,-465,4041,-0.53,0.53,33.60,-1.40,-4.65,40.41,-5.87,2.15,51.45,4.18,-1.73,-20.00
-4,4,436,-140,-437,3925,-0.50,0.51,32.90,-1.40,-4.37,39.25,-5.88,2.16,51.32,4.10,-1.65,-19.76
-5,12,465,-34,-400,3897,-0.48,0.53,32.44,-0.34,-4.00,38.97,-5.88,2.16,51.19,4.12,-1.81,-19.85
-15,18,491,-113,-397,3928,-0.53,0.58,32.19,-1.13,-3.97,39.28,-5.87,2.16,51.06,4.33,-1.95,-19.98
-13,16,474,-102,-424,3888,-0.55,0.62,31.87,-1.02,-4.24,38.88,-5.88,2.16,50.94,4.30,-1.92,-19.72
-10,26,478,-2,-509,3812,-0.56,0.72,31.59,-0.02,-5.09,38.12,-5.89,2.16,50.81,4.24,-2.15,-19.66
0,27,469,75,-470,3924,-0.50,0.81,31.30,0.75,-4.70,39.24,-5.89,2.16,50.69,4.03,-2.19,-19.48
2,13,450,44,-512,3899,-0.44,0.81,30.91,0.44,-5.12,38.99,-5.90,2.16,50.57,3.97,-1.91,-19.19
-4,15,457,-75,-559,3916,-0.42,0.82,30.61,-0.75,-5.59,39.16,-5.91,2.16,50.45,4.10,-1.96,-19.14
-13,20,491,-77,-581,3863,-0.46,0.86,30.54,-0.77,-5.81,38.63,-5.93,2.17,50.33,4.30,-2.08,-19.40
-6,17,487,-99,-350,3977,-0.45,0.88,30.46,-0.99,-3.50,39.77,-5.91,2.18,50.20,4.14,-2.02,-19.32
-9,16,469,-159,-641,3858,-0.46,0.89,30.27,-1.59,-6.41,38.58,-5.93,2.19,50.08,4.22,-2.02,-19.10
0,21,500,-116,-452,3875,-0.41,0.93,30.30,-1.16,-4.52,38.75,-5.94,2.20,49.96,4.03,-2.13,-19.35
0,1,435,-93,-180,3997,-0.37,0.84,29.92,-0.93,-1.80,39.97,-5.92,2.21,49.85,4.01,-1.71,-18.68
-10,-15,428,-175,-484,3959,-0.40,0.67,29.54,-1.75,-4.84,39.59,-5.93,2.23,49.73,4.23,-1.35,-18.49
-23,3,530,-55,-442,3949,-0.50,0.62,29.82,-0.55,-4.42,39.49,-5.93,2.23,49.61,4.52,-1.70,-19.42
-14,11,529,-40,-357,3957,-0.53,0.62,30.06,-0.40,-3.57,39.57,-5.92,2.23,49.49,4.34,-1.86,-19.47
6,2,493,43,-512,3894,-0.44,0.57,30.06,0.43,-5.12,38.94,-5.93,2.23,49.37,3.91,-1.67,-19.15
-16,5,496,66,-473,3858,-0.50,0.55,30.08,0.66,-4.73,38.58,-5.93,2.22,49.25,4.38,-1.72,-19.17
-6,-3,440,-51,-325,3914,-0.48,0.47,29.76,-0.51,-3.25,39.14,-5.92,2.22,49.13,4.16,-1.53,-18.58
-11,-11,409,16,-335,3922,-0.50,0.36,29.28,0.16,-3.35,39.22,-5.91,2.22,49.02,4.26,-1.34,-18.16
-17,5,429,-47,-423,3884,-0.56,0.35,28.97,-0.47,-4.23,38.84,-5.91,2.21,48.90,4.40,-1.66,-18.23
-2,-8,338,-102,-349,3941,-0.51,0.27,28.13,-1.02,-3.49,39.41,-5.89,2.21,48.79,4.07,-1.37,-17.19
-6,5,399,-78,-572,3866,-0.50,0.27,27.75,-0.78,-5.72,38.66,-5.91,2.22,48.68,4.16,-1.64,-17.58
-12,11,407,-99,-485,3980,-0.52,0.31,27.46,-0.99,-4.85,39.80,-5.92,2.22,48.57,4.29,-1.78,-17.55
-3,-6,367,4,-447,3907,-0.49,0.24,26.95,0.04,-4.47,39.07,-5.92,2.22,48.46,4.10,-1.41,-17.04
-9,3,376,-46,-470,3928,-0.49,0.24,26.55,-0.46,-4.70,39.28,-5.93,2.21,48.36,4.23,-1.59,-16.98
-16,5,335,-97,-575,3818,-0.54,0.25,25.94,-0.97,-5.75,38.18,-5.95,2.22,48.26,4.40,-1.63,-16.44
-12,17,371,-46,-631,3875,-0.56,0.32,25.61,-0.46,-6.31,38.75,-5.96,2.22,48.15,4.33,-1.90,-16.63
-4,-2,283,-77,-452,3933,-0.53,0.28,24.77,-0.77,-4.52,39.33,-5.97,2.22,48.06,4.16,-1.50,-15.62
-10,8,316,-90,-647,3835,-0.54,0.30,24.22,-0.90,-6.47,38.35,-5.98,2.23,47.96,4.30,-1.71,-15.73
-5,7,335,-67,-388,3955,-0.51,0.31,23.85,-0.67,-3.88,39.55,-5.98,2.22,47.87,4.19,-1.69,-15.76
-6,8,327,-29,-452,3890,-0.50,0.33,23.46,-0.29,-4.52,38.90,-5.98,2.21,47.77,4.21,-1.71,-15.57
1,17,338,-64,-430,3944,-0.44,0.40,23.17,-0.64,-4.30,39.44,-5.98,2.21,47.68,4.05,-1.91,-15.56
-5,8,319,-34,-438,3934,-0.43,0.41,22.80,-0.34,-4.38,39.34,-5.99,2.20,47.59,4.17,-1.73,-15.28
-1,10,331,-69,-534,3939,-0.39,0.43,22.54,-0.69,-5.34,39.39,-6.00,2.20,47.50,4.09,-1.77,-15.29
1,-3,315,56,-301,3967,-0.35,0.37,22.21,0.56,-3.01,39.67,-5.99,2.19,47.41,4.03,-1.49,-15.05
-1,12,304,28,-728,3884,-0.32,0.40,21.84,0.28,-7.28,38.84,-6.00,2.20,47.33,4.07,-1.80,-14.83
-3,24,335,22,-643,3888,-0.30,0.51,21.70,0.22,-6.43,38.88,-6.01,2.20,47.24,4.11,-2.08,-15.04
3,28,452,-262,-533,3887,-0.26,0.63,22.29,-2.62,-5.33,38.87,-6.03,2.22,47.15,3.99,-2.21,-16.20
6,19,462,-155,-479,3985,-0.19,0.68,22.88,-1.55,-4.79,39.85,-6.04,2.23,47.06,3.92,-2.05,-16.45
-8,3,468,64,-286,4022,-0.22,0.63,23.44,0.64,-2.86,40.22,-6.03,2.23,46.97,4.20,-1.71,-16.66
-4,8,442,3,-521,4017,-0.23,0.62,23.80,0.03,-5.21,40.17,-6.04,2.23,46.88,4.13,-1.80,-16.53
-7,24,472,-98,-635,3878,-0.25,0.70,24.30,-0.98,-6.35,38.78,-6.05,2.24,46.78,4.20,-2.15,-16.93
-3,14,467,-48,-313,3977,-0.24,0.72,24.71,-0.48,-3.13,39.77,-6.03,2.24,46.68,4.11,-1.96,-17.00
-16,6,475,-26,-594,3928,-0.31,0.68,25.14,-0.26,-5.94,39.28,-6.05,2.24,46.58,4.40,-1.79,-17.18
-8,20,482,-78,-510,3864,-0.33,0.74,25.57,-0.78,-5.10,38.64,-6.06,2.24,46.48,4.25,-2.09,-17.36
-11,14,497,-82,-540,3911,-0.36,0.75,26.04,-0.82,-5.40,39.11,-6.07,2.25,46.38,4.33,-1.97,-17.62
-17,6,491,13,-466,3880,-0.43,0.71,26.43,0.13,-4.66,38.80,-6.08,2.24,46.27,4.47,-1.80,-17.67
-2,5,481,-85,-513,3917,-0.40,0.67,26.72,-0.85,-5.13,39.17,-6.09,2.25,46.17,4.17,-1.77,-17.66
-9,0,470,-4,-439,3991,-0.42,0.60,26.92,-0.04,-4.39,39.91,-6.09,2.24,46.06,4.31,-1.64,-17.61
-9,9,375,-38,-469,3843,-0.43,0.60,26.51,-0.38,-4.69,38.43,-6.09,2.24,45.96,4.32,-1.82,-16.68
-2,11,405,-128,-565,3935,-0.40,0.60,26.33,-1.28,-5.65,39.35,-6.11,2.25,45.85,4.18,-1.87,-16.86
0,16,407,-64,-531,3855,-0.36,0.64,26.18,-0.64,-5.31,38.55,-6.12,2.25,45.75,4.14,-1.99,-16.82
-4,6,408,-25,-309,3977,-0.35,0.61,26.05,-0.25,-3.09,39.77,-6.11,2.25,45.65,4.21,-1.78,-16.78
-5,17,425,-94,-440,3954,-0.34,0.66,26.04,-0.94,-4.40,39.54,-6.11,2.25,45.54,4.23,-2.01,-16.91
-13,3,426,-70,-387,3951,-0.39,0.61,26.03,-0.70,-3.87,39.51,-6.10,2.24,45.44,4.39,-1.71,-16.90
-6,15,451,-67,-388,3920,-0.39,0.64,26.18,-0.67,-3.88,39.20,-6.09,2.24,45.33,4.25,-1.96,-17.14
-19,15,449,-148,-496,3908,-0.46,0.67,26.30,-1.48,-4.96,39.08,-6.11,2.25,45.23,4.54,-1.97,-17.15
-8,9,427,12,-397,3975,-0.47,0.66,26.28,0.12,-3.97,39.75,-6.10,2.25,45.13,4.32,-1.85,-16.95
-5,17,433,-107,-535,3934,-0.45,0.69,26.29,-1.07,-5.35,39.34,-6.11,2.26,45.02,4.26,-2.02,-16.99
-11,5,404,-11,-591,3922,-0.47,0.65,26.13,-0.11,-5.91,39.22,-6.13,2.26,44.92,4.40,-1.77,-16.68
-11,18,472,29,-557,3832,-0.49,0.70,26.39,0.29,-5.57,38.32,-6.14,2.26,44.81,4.41,-2.05,-17.32
0,7,486,-7,-400,3900,-0.44,0.67,26.72,-0.07,-4.00,39.00,-6.13,2.25,44.71,4.17,-1.81,-17.53
-7,9,495,-54,-491,3876,-0.44,0.66,27.07,-0.54,-4.91,38.76,-6.14,2.25,44.60,4.31,-1.85,-17.70
-18,-6,472,-90,-490,3908,-0.51,0.56,27.24,-0.90,-4.90,39.08,-6.15,2.25,44.49,4.56,-1.52,-17.54
-3,2,478,33,-371,3910,-0.47,0.51,27.43,0.33,-3.71,39.10,-6.14,2.25,44.39,4.25,-1.67,-17.64
-7,-3,466,-50,-593,3940,-0.47,0.44,27.53,-0.50,-5.93,39.40,-6.16,2.25,44.28,4.33,-1.55,-17.55
-27,-5,488,-42,-634,3823,-0.59,0.37,27.75,-0.42,-6.34,38.23,-6.17,2.26,44.17,4.78,-1.49,-17.79
5,-5,517,97,-398,3899,-0.50,0.30,28.13,0.97,-3.98,38.99,-6.17,2.25,44.05,4.10,-1.47,-18.14
-20,13,549,100,-526,3834,-0.57,0.35,28.67,1.00,-5.26,38.34,-6.17,2.25,43.94,4.64,-1.85,-18.56
1,9,590,-125,-317,3907,-0.51,0.37,29.40,-1.25,-3.17,39.07,-6.15,2.26,43.82,4.18,-1.78,-19.11
2,8,577,-81,-378,3976,-0.44,0.38,29.98,-0.81,-3.78,39.76,-6.14,2.26,43.70,4.13,-1.76,-19.16
-16,15,577,-123,-370,3947,-0.50,0.44,30.50,-1.23,-3.70,39.47,-6.12,2.26,43.58,4.50,-1.92,-19.30
-3,15,579,-30,-420,3914,-0.47,0.48,30.98,-0.30,-4.20,39.14,-6.12,2.26,43.46,4.23,-1.93,-19.45
6,-11,399,-12,-338,3739,-0.38,0.37,30.32,-0.12,-3.38,37.39,-6.11,2.26,43.34,4.01,-1.37,-17.71
6,-17,378,-31,-373,4051,-0.31,0.23,29.59,-0.31,-3.73,40.51,-6.10,2.26,43.22,3.99,-1.21,-17.30
-10,18,586,-102,-456,4008,-0.34,0.31,30.21,-1.02,-4.56,40.08,-6.10,2.25,43.10,4.32,-1.94,-19.23
-9,-5,555,13,-359,4020,-0.36,0.25,30.57,0.13,-3.59,40.20,-6.09,2.25,42.98,4.30,-1.45,-19.07
-18,26,589,-123,-598,3793,-0.43,0.39,31.11,-1.23,-5.98,37.93,-6.11,2.26,42.86,4.51,-2.13,-19.50
-16,7,558,122,-368,3970,-0.49,0.39,31.40,1.22,-3.68,39.70,-6.10,2.26,42.73,4.48,-1.74,-19.31
-13,9,520,-59,-721,3848,-0.52,0.41,31.43,-0.59,-7.21,38.48,-6.11,2.27,42.61,4.44,-1.79,-18.98
-15,1,550,-36,-584,3946,-0.56,0.37,31.64,-0.36,-5.84,39.46,-6.12,2.27,42.48,4.50,-1.62,-19.29
-14,6,528,-26,-637,3893,-0.59,0.37,31.70,-0.26,-6.37,38.93,-6.14,2.28,42.36,4.50,-1.73,-19.10
-17,4,538,1,-657,3894,-0.63,0.36,31.81,0.01,-6.57,38.94,-6.15,2.28,42.23,4.58,-1.69,-19.20
-15,17,560,-19,-632,3885,-0.66,0.43,32.05,-0.19,-6.32,38.85,-6.16,2.29,42.10,4.55,-1.97,-19.45
-21,20,570,-36,-608,3903,-0.72,0.51,32.32,-0.36,-6.08,39.03,-6.18,2.29,41.98,4.70,-2.06,-19.60
-3,16,547,-106,-490,3894,-0.67,0.55,32.42,-1.06,-4.90,38.94,-6.19,2.30,41.85,4.33,-1.99,-19.42
-7,7,536,-21,-322,4024,-0.64,0.54,32.45,-0.21,-3.22,40.24,-6.17,2.30,41.72,4.39,-1.81,-19.32
-18,13,514,22,-595,3959,-0.69,0.57,32.34,0.22,-5.95,39.59,-6.18,2.30,41.59,4.64,-1.94,-19.08
3,10,525,19,-350,3930,-0.60,0.57,32.31,0.19,-3.50,39.30,-6.17,2.30,41.46,4.18,-1.88,-19.15
-13,8,531,-80,-577,3986,-0.62,0.56,32.32,-0.80,-5.77,39.86,-6.19,2.31,41.33,4.52,-1.84,-19.19
-16,5,561,32,-544,4036,-0.66,0.54,32.51,0.32,-5.44,40.36,-6.19,2.31,41.20,4.59,-1.77,-19.49
-17,2,559,37,-520,3951,-0.70,0.49,32.67,0.37,-5.20,39.51,-6.20,2.31,41.08,4.63,-1.70,-19.50
-13,3,558,99,-325,3937,-0.70,0.46,32.80,0.99,-3.25,39.37,-6.19,2.31,40.94,4.54,-1.71,-19.52
-14,7,565,-57,-383,4033,-0.72,0.46,32.97,-0.57,-3.83,40.33,-6.18,2.31,40.81,4.56,-1.79,-19.61
-19,-16,544,-109,-247,4085,-0.76,0.32,32.99,-1.09,-2.47,40.85,-6.16,2.32,40.68,4.66,-1.29,-19.42
-16,0,525,-43,-464,3792,-0.78,0.28,32.90,-0.43,-4.64,37.92,-6.17,2.32,40.55,4.61,-1.61,-19.22
-7,34,546,-82,-672,3795,-0.75,0.46,32.94,-0.82,-6.72,37.95,-6.18,2.33,40.42,4.43,-2.36,-19.39
-13,14,517,-53,-439,3919,-0.75,0.50,32.80,-0.53,-4.39,39.19,-6.18,2.33,40.29,4.55,-1.96,-19.09
-16,-1,496,53,-435,3925,-0.78,0.45,32.54,0.53,-4.35,39.25,-6.18,2.32,40.16,4.62,-1.64,-18.82
-6,8,451,-78,-369,3934,-0.73,0.45,32.04,-0.78,-3.69,39.34,-6.17,2.33,40.03,4.39,-1.82,-18.27
2,-1,429,-4,-438,3887,-0.65,0.40,31.45,-0.04,-4.38,38.87,-6.17,2.32,39.91,4.21,-1.62,-17.89
-9,9,432,-73,-562,3870,-0.64,0.41,30.94,-0.73,-5.62,38.70,-6.18,2.33,39.79,4.44,-1.83,-17.75
-15,12,436,-21,-510,3867,-0.67,0.45,30.51,-0.21,-5.10,38.67,-6.19,2.33,39.67,4.57,-1.90,-17.64
2,13,410,-49,-418,3849,-0.59,0.48,29.96,-0.49,-4.18,38.49,-6.19,2.32,39.55,4.20,-1.93,-17.24
-3,0,372,44,-341,3989,-0.55,0.43,29.23,0.44,-3.41,39.89,-6.18,2.32,39.43,4.29,-1.65,-16.69
-5,13,395,27,-605,4111,-0.52,0.47,28.72,0.27,-6.05,41.11,-6.18,2.32,39.32,4.33,-1.92,-16.71
-5,-3,394,51,-453,3860,-0.50,0.40,28.25,0.51,-4.53,38.60,-6.19,2.32,39.20,4.32,-1.58,-16.55
-6,-1,410,-39,-508,3846,-0.49,0.36,27.93,-0.39,-5.08,38.46,-6.19,2.32,39.09,4.34,-1.61,-16.57
-9,17,419,24,-530,3777,-0.49,0.43,27.69,0.24,-5.30,37.77,-6.20,2.31,38.98,4.41,-1.99,-16.57
5,2,390,-20,-455,3850,-0.41,0.39,27.30,-0.20,-4.55,38.50,-6.20,2.31,38.88,4.11,-1.67,-16.19
-16,-13,384,-45,-388,3859,-0.47,0.28,26.91,-0.45,-3.88,38.59,-6.20,2.31,38.77,4.54,-1.33,-16.01
-7,-6,389,-9,-450,3889,-0.47,0.21,26.59,-0.09,-4.50,38.89,-6.20,2.30,38.66,4.36,-1.45,-15.94
-11,6,392,-35,-498,3808,-0.49,0.23,26.33,-0.35,-4.98,38.08,-6.21,2.30,38.56,4.45,-1.70,-15.87
-3,-5,389,-87,-290,3982,-0.46,0.17,26.07,-0.87,-2.90,39.82,-6.19,2.30,38.45,4.27,-1.46,-15.76
-6,-21,357,52,-274,3985,-0.45,0.03,25.64,0.52,-2.74,39.85,-6.17,2.30,38.35,4.32,-1.10,-15.35
-13,14,432,53,-640,3872,-0.48,0.11,25.71,0.53,-6.40,38.72,-6.18,2.30,38.25,4.48,-1.83,-15.99
-17,10,461,61,-464,4003,-0.54,0.16,25.95,0.61,-4.64,40.03,-6.19,2.29,38.15,4.57,-1.76,-16.30
-24,0,494,-60,-509,3822,-0.63,0.14,26.37,-0.60,-5.09,38.22,-6.20,2.29,38.04,4.75,-1.55,-16.69
-15,7,493,110,-440,3906,-0.66,0.17,26.74,1.10,-4.40,39.06,-6.20,2.28,37.94,4.57,-1.70,-16.78
-8,12,477,-35,-502,3915,-0.64,0.23,26.97,-0.35,-5.02,39.15,-6.20,2.28,37.83,4.43,-1.81,-16.70
-9,13,471,-69,-565,3828,-0.63,0.29,27.15,-0.69,-5.65,38.28,-6.22,2.28,37.72,4.46,-1.85,-16.69
-5,36,481,-61,-596,3817,-0.60,0.48,27.37,-0.61,-5.96,38.17,-6.23,2.29,37.61,4.38,-2.37,-16.83
4,29,503,79,-497,4110,-0.52,0.61,27.70,0.79,-4.97,41.10,-6.23,2.29,37.50,4.17,-2.26,-17.10
0,-39,420,24,-184,4020,-0.46,0.31,27.49,0.24,-1.84,40.20,-6.22,2.29,37.39,4.23,-0.80,-16.32
-3,-8,414,-132,-599,3629,-0.44,0.23,27.27,-1.32,-5.99,36.29,-6.23,2.30,37.29,4.29,-1.42,-16.19
-7,20,521,-25,-481,3994,-0.43,0.33,27.72,-0.25,-4.81,39.94,-6.24,2.30,37.18,4.38,-2.01,-17.22
-12,7,509,5,-367,3949,-0.46,0.34,28.05,0.05,-3.67,39.49,-6.23,2.29,37.06,4.48,-1.75,-17.21
0,24,489,-104,-525,3975,-0.42,0.45,28.23,-1.04,-5.25,39.75,-6.24,2.30,36.95,4.23,-2.13,-17.08
-5,4,486,-11,-380,4052,-0.41,0.43,28.37,-0.11,-3.80,40.52,-6.23,2.29,36.84,4.32,-1.71,-17.08
-11,-11,501,150,-322,4054,-0.43,0.32,28.59,1.50,-3.22,40.54,-6.22,2.29,36.73,4.45,-1.37,-17.26
-11,26,501,76,-738,3827,-0.46,0.45,28.79,0.76,-7.38,38.27,-6.23,2.29,36.61,4.46,-2.16,-17.31
-12,22,618,65,-538,4042,-0.48,0.54,29.68,0.65,-5.38,40.42,-6.24,2.29,36.50,4.49,-2.11,-18.55
0,7,620,12,-416,4065,-0.44,0.52,30.49,0.12,-4.16,40.65,-6.23,2.29,36.37,4.23,-1.80,-18.80
9,38,654,6,-626,3916,-0.34,0.70,31.43,0.06,-6.26,39.16,-6.24,2.29,36.25,4.03,-2.48,-19.36
2,30,661,37,-611,3912,-0.29,0.82,32.32,0.37,-6.11,39.12,-6.25,2.30,36.12,4.16,-2.35,-19.67
-3,32,655,-47,-462,3857,-0.28,0.93,33.09,-0.47,-4.62,38.57,-6.25,2.30,35.99,4.26,-2.42,-19.83
-16,22,652,-35,-529,3954,-0.35,0.97,33.75,-0.35,-5.29,39.54,-6.26,2.30,35.86,4.55,-2.23,-19.99
-7,27,608,-1,-388,3979,-0.36,1.04,34.09,-0.01,-3.88,39.79,-6.25,2.30,35.72,4.36,-2.35,-19.70
-5,21,600,-80,-511,3915,-0.35,1.06,34.34,-0.80,-5.11,39.15,-6.26,2.31,35.59,4.33,-2.24,-19.69
-3,-6,590,-56,-349,3996,-0.34,0.92,34.50,-0.56,-3.49,39.96,-6.24,2.31,35.45,4.27,-1.66,-19.64
-15,22,584,-80,-672,3836,-0.39,0.96,34.62,-0.80,-6.72,38.36,-6.26,2.33,35.31,4.54,-2.25,-19.61
-9,15,556,48,-400,3869,-0.41,0.96,34.55,0.48,-4.00,38.69,-6.25,2.33,35.18,4.42,-2.10,-19.33
-10,-6,527,29,-355,4051,-0.43,0.83,34.31,0.29,-3.55,40.51,-6.24,2.33,35.04,4.44,-1.64,-19.00
-3,-2,493,49,-336,4133,-0.40,0.73,33.88,0.49,-3.36,41.33,-6.23,2.33,34.90,4.28,-1.70,-18.57
-10,-2,472,-137,-298,3791,-0.43,0.65,33.37,-1.37,-2.98,37.91,-6.20,2.35,34.77,4.41,-1.68,-18.22
-8,15,436,44,-578,3829,-0.43,0.67,32.70,0.44,-5.78,38.29,-6.21,2.35,34.64,4.38,-2.04,-17.70
-8,36,450,-53,-450,3913,-0.44,0.82,32.17,-0.53,-4.50,39.13,-6.21,2.35,34.51,4.38,-2.51,-17.64
-2,9,385,42,-379,4197,-0.41,0.80,31.30,0.42,-3.79,41.97,-6.20,2.35,34.39,4.24,-1.95,-16.81
-13,-12,369,-69,-422,3807,-0.44,0.64,30.42,-0.69,-4.22,38.07,-6.20,2.35,34.27,4.48,-1.48,-16.40
0,19,331,-36,-662,3682,-0.40,0.70,29.40,-0.36,-6.62,36.82,-6.21,2.35,34.15,4.21,-2.13,-15.76
-11,0,367,78,-578,4051,-0.43,0.63,28.70,0.78,-5.78,40.51,-6.22,2.35,34.04,4.45,-1.72,-15.84
-5,-5,362,-87,-404,3910,-0.41,0.53,28.04,-0.87,-4.04,39.10,-6.21,2.35,33.93,4.31,-1.59,-15.58
-7,3,350,-147,-441,3800,-0.42,0.50,27.37,-1.47,-4.41,38.00,-6.23,2.36,33.82,4.37,-1.75,-15.26
-7,21,328,-30,-387,3937,-0.42,0.58,26.63,-0.30,-3.87,39.37,-6.22,2.35,33.71,4.36,-2.14,-14.84
-12,-11,286,-50,-206,4088,-0.45,0.45,25.71,-0.50,-2.06,40.88,-6.20,2.36,33.61,4.46,-1.46,-14.20
-12,8,265,-90,-483,3978,-0.48,0.46,24.76,-0.90,-4.83,39.78,-6.21,2.35,33.51,4.47,-1.84,-13.72
0,2,257,-32,-247,4041,-0.43,0.42,23.85,-0.32,-2.47,40.41,-6.19,2.36,33.42,4.20,-1.71,-13.37
-19,12,266,43,-687,3914,-0.50,0.45,23.09,0.43,-6.87,39.14,-6.20,2.36,33.33,4.62,-1.92,-13.20
-8,13,296,28,-553,3925,-0.50,0.49,22.58,0.28,-5.53,39.25,-6.21,2.35,33.24,4.40,-1.95,-13.30
-7,-4,270,0,-380,3925,-0.49,0.41,21.97,0.00,-3.80,39.25,-6.21,2.35,33.15,4.37,-1.58,-12.88
-4,7,254,16,-427,3927,-0.47,0.42,21.33,0.16,-4.27,39.27,-6.20,2.34,33.06,4.30,-1.80,-12.54
0,17,247,-124,-553,3996,-0.42,0.48,20.70,-1.24,-5.53,39.96,-6.22,2.34,32.98,4.22,-2.02,-12.28
4,9,256,67,-567,3900,-0.36,0.48,20.19,0.67,-5.67,39.00,-6.23,2.34,32.90,4.13,-1.86,-12.20
-9,19,345,110,-550,3845,-0.37,0.55,20.28,1.10,-5.50,38.45,-6.23,2.33,32.82,4.40,-2.08,-12.97
-5,7,332,151,-374,4013,-0.37,0.54,20.27,1.51,-3.74,40.13,-6.23,2.33,32.74,4.31,-1.83,-12.85
-14,1,335,-36,-494,3945,-0.42,0.49,20.29,-0.36,-4.94,39.45,-6.23,2.32,32.66,4.51,-1.69,-12.87
0,15,347,42,-471,3801,-0.37,0.53,20.38,0.42,-4.71,38.01,-6.24,2.31,32.58,4.22,-1.98,-12.99
-13,0,356,26,-441,3869,-0.42,0.48,20.51,0.26,-4.41,38.69,-6.24,2.31,32.50,4.49,-1.65,-13.09
-3,-19,335,6,-226,4129,-0.39,0.32,20.50,0.06,-2.26,41.29,-6.22,2.31,32.42,4.27,-1.22,-12.90
-7,-19,326,120,-386,4058,-0.40,0.17,20.44,1.20,-3.86,40.58,-6.22,2.30,32.34,4.35,-1.18,-12.80
-7,0,304,-44,-593,3845,-0.40,0.15,20.25,-0.44,-5.93,38.45,-6.23,2.30,32.26,4.36,-1.56,-12.54
-5,1,387,10,-369,4023,-0.39,0.14,20.59,0.10,-3.69,40.23,-6.22,2.29,32.18,4.31,-1.57,-13.34
-10,-12,360,42,-394,3944,-0.41,0.06,20.73,0.42,-3.94,39.44,-6.22,2.28,32.09,4.42,-1.28,-13.14
-10,5,359,8,-462,3811,-0.43,0.08,20.84,0.08,-4.62,38.11,-6.22,2.27,32.01,4.43,-1.62,-13.16
-7,2,338,53,-387,3931,-0.43,0.08,20.82,0.53,-3.87,39.31,-6.22,2.26,31.93,4.36,-1.56,-12.96
-14,1,313,-7,-500,3942,-0.47,0.08,20.65,-0.07,-5.00,39.42,-6.22,2.26,31.85,4.52,-1.53,-12.69
-10,-3,310,16,-474,3936,-0.49,0.06,20.47,0.16,-4.74,39.36,-6.22,2.25,31.76,4.44,-1.44,-12.60
-7,5,304,-13,-486,3934,-0.48,0.08,20.28,-0.13,-4.86,39.34,-6.23,2.24,31.68,4.39,-1.60,-12.48
-4,0,301,21,-415,3969,-0.46,0.07,20.09,0.21,-4.15,39.69,-6.23,2.23,31.60,4.32,-1.49,-12.39
-4,17,293,36,-531,3999,-0.44,0.17,19.87,0.36,-5.31,39.99,-6.23,2.22,31.52,4.31,-1.86,-12.25
1,26,308,-69,-607,3828,-0.39,0.31,19.76,-0.69,-6.07,38.28,-6.25,2.23,31.45,4.21,-2.08,-12.33
-3,26,303,-19,-446,3974,-0.37,0.44,19.63,-0.19,-4.46,39.74,-6.25,2.22,31.37,4.29,-2.11,-12.24
3,19,294,-68,-445,3962,-0.31,0.51,19.46,-0.68,-4.45,39.62,-6.25,2.21,31.29,4.15,-1.98,-12.11
-4,20,279,158,-380,3894,-0.30,0.58,19.22,1.58,-3.80,38.94,-6.25,2.20,31.22,4.29,-2.02,-11.90
1,7,257,67,-384,3982,-0.27,0.57,18.86,0.67,-3.84,39.82,-6.24,2.20,31.14,4.17,-1.75,-11.59
-10,-5,201,-113,-482,3780,-0.30,0.48,18.20,-1.13,-4.82,37.80,-6.25,2.20,31.07,4.41,-1.48,-10.91
-7,1,216,-16,-561,3929,-0.31,0.44,17.70,-0.16,-5.61,39.29,-6.27,2.19,31.00,4.36,-1.59,-10.88
-12,-19,273,63,-373,3976,-0.36,0.28,17.60,0.63,-3.73,39.76,-6.26,2.19,30.93,4.47,-1.13,-11.32
-8,-9,257,-1,-411,3831,-0.37,0.19,17.40,-0.01,-4.11,38.31,-6.26,2.18,30.86,4.39,-1.31,-11.12
-23,2,243,3,-431,3920,-0.47,0.19,17.15,0.03,-4.31,39.20,-6.26,2.17,30.79,4.73,-1.52,-10.92
-18,-15,201,34,-401,3910,-0.54,0.08,16.66,0.34,-4.01,39.10,-6.25,2.15,30.73,4.64,-1.14,-10.41
-6,7,239,-43,-601,3883,-0.52,0.11,16.45,-0.43,-6.01,38.83,-6.27,2.15,30.66,4.40,-1.59,-10.66
-10,4,247,26,-574,3937,-0.53,0.13,16.31,0.26,-5.74,39.37,-6.28,2.15,30.60,4.49,-1.53,-10.68
1,-1,254,30,-487,3904,-0.47,0.11,16.23,0.30,-4.87,39.04,-6.28,2.14,30.53,4.26,-1.42,-10.70
-4,4,258,39,-601,3827,-0.45,0.12,16.18,0.39,-6.01,38.27,-6.30,2.13,30.47,4.36,-1.52,-10.71
6,2,262,-12,-393,3990,-0.37,0.12,16.16,-0.12,-3.93,39.90,-6.29,2.12,30.40,4.13,-1.47,-10.73
-9,0,248,-70,-477,3941,-0.38,0.11,16.06,-0.70,-4.77,39.41,-6.30,2.11,30.34,4.44,-1.42,-10.58
-11,-5,241,-105,-454,3968,-0.41,0.07,15.92,-1.05,-4.54,39.68,-6.30,2.10,30.28,4.50,-1.30,-10.47
7,8,256,-182,-576,3914,-0.33,0.11,15.89,-1.82,-5.76,39.14,-6.32,2.11,30.21,4.12,-1.59,-10.58
14,4,261,-61,-393,3926,-0.21,0.12,15.89,-0.61,-3.93,39.26,-6.31,2.11,30.15,3.94,-1.50,-10.62
-2,-1,257,-15,-414,3899,-0.20,0.10,15.87,-0.15,-4.14,38.99,-6.31,2.09,30.09,4.26,-1.39,-10.57
-29,-8,225,-16,-471,3912,-0.36,0.05,15.66,-0.16,-4.71,39.12,-6.31,2.08,30.03,4.85,-1.23,-10.22
-6,6,224,-11,-448,3798,-0.36,0.08,15.46,-0.11,-4.48,37.98,-6.31,2.07,29.96,4.39,-1.51,-10.15
-13,8,230,53,-508,3864,-0.40,0.12,15.32,0.53,-5.08,38.64,-6.32,2.06,29.90,4.55,-1.56,-10.15
-13,12,235,28,-503,3879,-0.44,0.18,15.22,0.28,-5.03,38.79,-6.33,2.05,29.84,4.56,-1.65,-10.15
-7,3,216,-20,-422,3915,-0.44,0.18,15.01,-0.20,-4.22,39.15,-6.33,2.04,29.78,4.44,-1.46,-9.92
-5,10,219,-28,-518,3847,-0.43,0.22,14.85,-0.28,-5.18,38.47,-6.34,2.04,29.73,4.40,-1.61,-9.89
-5,10,194,58,-423,3929,-0.41,0.26,14.55,0.58,-4.23,39.29,-6.34,2.03,29.67,4.40,-1.61,-9.58
-7,2,174,-3,-369,3930,-0.42,0.25,14.15,-0.03,-3.69,39.30,-6.33,2.02,29.61,4.43,-1.44,-9.29
-2,-1,114,-5,-406,3902,-0.39,0.22,13.43,-0.05,-4.06,39.02,-6.32,2.01,29.56,4.32,-1.36,-8.56
-1,0,107,-1,-477,3913,-0.35,0.20,12.74,-0.01,-4.77,39.13,-6.33,1.99,29.51,4.29,-1.37,-8.28
2,1,145,42,-542,3887,-0.31,0.18,12.35,0.42,-5.42,38.87,-6.34,1.99,29.46,4.23,-1.38,-8.48
-6,-3,161,1,-548,3844,-0.31,0.15,12.10,0.01,-5.48,38.44,-6.35,1.98,29.41,4.40,-1.28,-8.54
3,0,165,-12,-391,3854,-0.26,0.13,11.90,-0.12,-3.91,38.54,-6.34,1.97,29.36,4.20,-1.33,-8.50
15,-2,147,-25,-336,3949,-0.14,0.11,11.60,-0.25,-3.36,39.49,-6.33,1.96,29.32,3.91,-1.28,-8.26
3,-4,107,-2,-470,3906,-0.11,0.07,11.10,-0.02,-4.70,39.06,-6.33,1.95,29.27,4.15,-1.22,-7.76
-1,-10,101,19,-430,3949,-0.11,0.00,10.60,0.19,-4.30,39.49,-6.33,1.93,29.23,4.23,-1.07,-7.56
1,-9,63,20,-490,3902,-0.09,-0.05,9.93,0.20,-4.90,39.02,-6.34,1.92,29.19,4.19,-1.07,-7.03
0,-6,67,20,-539,3896,-0.08,-0.08,9.34,0.20,-5.39,38.96,-6.35,1.91,29.15,4.21,-1.11,-6.88
-3,-2,87,-10,-477,3918,-0.09,-0.09,8.94,-0.10,-4.77,39.18,-6.35,1.89,29.12,4.28,-1.19,-6.92
-3,3,77,-2,-445,3921,-0.10,-0.06,8.51,-0.02,-4.45,39.21,-6.35,1.88,29.09,4.28,-1.28,-6.71
2,8,41,-34,-453,3932,-0.08,-0.01,7.91,-0.34,-4.53,39.32,-6.35,1.86,29.05,4.17,-1.39,-6.22
4,7,34,-14,-461,3913,-0.05,0.04,7.33,-0.14,-4.61,39.13,-6.36,1.85,29.02,4.13,-1.37,-5.98
5,9,14,14,-478,3909,-0.01,0.09,6.68,0.14,-4.78,39.09,-6.36,1.84,29.00,4.10,-1.42,-5.61
5,9,12,13,-477,3916,0.02,0.13,6.09,0.13,-4.77,39.16,-6.37,1.82,28.97,4.09,-1.42,-5.41
4,7,9,-7,-485,3907,0.04,0.16,5.53,-0.07,-4.85,39.07,-6.37,1.81,28.95,4.11,-1.38,-5.22
4,7,9,-3,-489,3906,0.06,0.19,5.03,-0.03,-4.89,39.06,-6.38,1.79,28.93,4.11,-1.38,-5.06
0,2,28,-1,-513,3904,0.06,0.18,4.70,-0.01,-5.13,39.04,-6.39,1.78,28.91,4.20,-1.27,-5.12
-2,2,39,-5,-525,3897,0.04,0.18,4.47,-0.05,-5.25,38.97,-6.40,1.77,28.90,4.25,-1.26,-5.14
-2,-2,67,10,-464,3947,0.02,0.15,4.43,0.10,-4.64,39.47,-6.40,1.75,28.88,4.26,-1.16,-5.37
-3,-6,67,3,-484,3896,0.00,0.10,4.40,0.03,-4.84,38.96,-6.41,1.74,28.86,4.29,-1.05,-5.36
-2,-5,102,74,-583,3883,-0.01,0.06,4.58,0.74,-5.83,38.83,-6.42,1.73,28.84,4.28,-1.05,-5.70
-2,-3,117,71,-605,3879,-0.02,0.03,4.84,0.71,-6.05,38.79,-6.43,1.71,28.83,4.29,-1.08,-5.91
-4,-2,108,-39,-431,3873,-0.04,0.02,5.01,-0.39,-4.31,38.73,-6.43,1.70,28.81,4.33,-1.08,-5.88
-3,1,98,-52,-433,3941,-0.06,0.02,5.11,-0.52,-4.33,39.41,-6.42,1.68,28.79,4.32,-1.14,-5.82
1,2,78,25,-485,3929,-0.05,0.03,5.07,0.25,-4.85,39.29,-6.43,1.67,28.77,4.23,-1.15,-5.64
0,3,82,32,-534,3896,-0.04,0.05,5.07,0.32,-5.34,38.96,-6.44,1.65,28.75,4.26,-1.17,-5.67
0,-4,91,0,-406,3939,-0.04,0.02,5.11,0.00,-4.06,39.39,-6.43,1.64,28.73,4.25,-1.01,-5.76
1,-2,83,-15,-428,3853,-0.03,0.00,5.11,-0.15,-4.28,38.53,-6.43,1.62,28.70,4.23,-1.03,-5.69
-1,-6,38,-24,-415,3904,-0.03,-0.03,4.83,-0.24,-4.15,39.04,-6.42,1.61,28.69,4.27,-0.93,-5.22
-2,-7,22,-4,-440,3906,-0.04,-0.07,4.48,-0.04,-4.40,39.06,-6.42,1.59,28.67,4.29,-0.89,-4.98
0,-5,10,4,-473,3909,-0.04,-0.10,4.09,0.04,-4.73,39.09,-6.43,1.58,28.65,4.25,-0.91,-4.76
0,-5,9,10,-478,3910,-0.03,-0.12,3.74,0.10,-4.78,39.10,-6.43,1.56,28.64,4.26,-0.90,-4.64
2,0,6,-1,-480,3924,-0.02,-0.11,3.40,-0.01,-4.80,39.24,-6.44,1.54,28.62,4.21,-0.99,-4.51
3,0,6,0,-479,3914,0.00,-0.09,3.10,0.00,-4.79,39.14,-6.45,1.53,28.61,4.19,-0.98,-4.42
2,2,7,-1,-483,3924,0.02,-0.07,2.83,-0.01,-4.83,39.24,-6.45,1.51,28.60,4.21,-1.02,-4.34
3,2,5,-8,-486,3914,0.03,-0.05,2.58,-0.08,-4.86,39.14,-6.46,1.49,28.59,4.19,-1.01,-4.25
3,5,-1,-5,-482,3909,0.05,-0.02,2.31,-0.05,-4.82,39.09,-6.47,1.48,28.58,4.19,-1.07,-4.12
3,5,-2,-10,-488,3920,0.06,0.01,2.07,-0.10,-4.88,39.20,-6.47,1.46,28.57,4.19,-1.07,-4.04
0,2,-2,3,-487,3928,0.05,0.03,1.85,0.03,-4.87,39.28,-6.48,1.45,28.57,4.26,-1.00,-3.97
0,0,0,0,-484,3896,0.05,0.02,1.67,0.00,-4.84,38.96,-6.49,1.43,28.56,4.27,-0.95,-3.93
1,-4,4,11,-475,3922,0.05,-0.00,1.52,0.11,-4.75,39.22,-6.49,1.41,28.55,4.25,-0.85,-3.92
1,-4,4,16,-476,3913,0.05,-0.03,1.40,0.16,-4.76,39.13,-6.49,1.40,28.55,4.25,-0.83,-3.88
1,-4,1,9,-485,3902,0.05,-0.05,1.26,0.09,-4.85,39.02,-6.50,1.38,28.54,4.26,-0.82,-3.81
2,-2,0,7,-486,3915,0.06,-0.06,1.14,0.07,-4.86,39.15,-6.51,1.36,28.54,4.24,-0.84,-3.77
1,-2,-4,-7,-490,3910,0.06,-0.06,1.00,-0.07,-4.90,39.10,-6.51,1.35,28.53,4.26,-0.83,-3.69
1,-2,-4,-16,-492,3927,0.06,-0.07,0.87,-0.16,-4.92,39.27,-6.52,1.33,28.53,4.27,-0.82,-3.65
-3,1,-3,-5,-491,3919,0.04,-0.06,0.77,-0.05,-4.91,39.19,-6.53,1.31,28.53,4.36,-0.87,-3.63
-4,0,-4,10,-479,3898,0.01,-0.05,0.67,0.10,-4.79,38.98,-6.54,1.30,28.53,4.39,-0.84,-3.59
-3,-30,-18,-7,-503,3943,-0.01,-0.23,0.49,-0.07,-5.03,39.43,-6.55,1.28,28.52,4.38,-0.17,-3.42
0,-25,-7,139,-577,3853,-0.01,-0.36,0.40,1.39,-5.77,38.53,-6.56,1.26,28.52,4.33,-0.23,-3.48
-8,8,41,89,-512,3905,-0.06,-0.27,0.61,0.89,-5.12,39.05,-6.56,1.25,28.52,4.51,-0.91,-3.95
-2,3,57,80,-554,3999,-0.06,-0.23,0.90,0.80,-5.54,39.99,-6.57,1.23,28.52,4.40,-0.81,-4.17
-2,-1,102,58,-474,4058,-0.07,-0.21,1.43,0.58,-4.74,40.58,-6.57,1.21,28.51,4.40,-0.72,-4.72
1,-5,101,28,-453,3925,-0.06,-0.22,1.90,0.28,-4.53,39.25,-6.57,1.19,28.50,4.33,-0.63,-4.85
0,-14,84,-50,-414,3881,-0.05,-0.28,2.22,-0.50,-4.14,38.81,-6.56,1.18,28.49,4.34,-0.42,-4.80
5,-17,76,-18,-429,3926,-0.02,-0.36,2.47,-0.18,-4.29,39.26,-6.55,1.16,28.48,4.23,-0.32,-4.80
11,-30,89,52,-539,3905,0.05,-0.51,2.76,0.52,-5.39,39.05,-6.56,1.15,28.47,4.09,-0.01,-5.00
4,-30,98,49,-532,3870,0.07,-0.64,3.08,0.49,-5.32,38.70,-6.57,1.13,28.46,4.24,0.04,-5.17
-3,17,120,-32,-470,3951,0.05,-0.47,3.51,-0.32,-4.70,39.51,-6.58,1.11,28.45,4.39,-0.95,-5.49
3,-4,125,-3,-488,4016,0.06,-0.45,3.92,-0.03,-4.88,40.16,-6.58,1.10,28.43,4.27,-0.52,-5.65
-1,-12,121,-11,-482,3828,0.05,-0.48,4.26,-0.11,-4.82,38.28,-6.59,1.08,28.41,4.36,-0.34,-5.72
-13,3,114,18,-531,3774,-0.04,-0.41,4.53,0.18,-5.31,37.74,-6.61,1.07,28.40,4.63,-0.65,-5.74
-7,60,167,50,-509,4382,-0.08,-0.00,5.10,0.50,-5.09,43.82,-6.61,1.05,28.38,4.52,-1.91,-6.36
-4,10,155,-77,-358,4092,-0.09,0.06,5.53,-0.77,-3.58,40.92,-6.59,1.05,28.35,4.45,-0.92,-6.38
4,34,126,-3,-459,4004,-0.06,0.26,5.75,-0.03,-4.59,40.04,-6.59,1.04,28.33,4.28,-1.45,-6.20
6,8,111,-110,-269,4084,-0.02,0.28,5.85,-1.10,-2.69,40.84,-6.57,1.05,28.31,4.22,-0.93,-6.10
4,4,32,-49,-392,3928,0.01,0.28,5.46,-0.49,-3.92,39.28,-6.55,1.04,28.29,4.24,-0.85,-5.31
6,7,29,-28,-462,3922,0.05,0.29,5.09,-0.28,-4.62,39.22,-6.55,1.03,28.27,4.19,-0.90,-5.17
-1,-6,49,36,-539,3884,0.03,0.23,4.88,0.36,-5.39,38.84,-6.57,1.02,28.25,4.34,-0.61,-5.27
-4,4,65,20,-542,3911,0.01,0.23,4.79,0.20,-5.42,39.11,-6.58,1.01,28.23,4.42,-0.81,-5.38
-5,-26,92,38,-631,3813,-0.02,0.05,4.87,0.38,-6.31,38.13,-6.59,1.00,28.21,4.46,-0.15,-5.63
-6,-1,112,113,-633,3747,-0.06,0.04,5.07,1.13,-6.33,37.47,-6.61,0.99,28.19,4.50,-0.65,-5.86
13,-16,90,-161,-145,4023,0.03,-0.06,5.11,-1.61,-1.45,40.23,-6.59,1.00,28.17,4.08,-0.32,-5.68
22,-10,49,-222,-249,3889,0.16,-0.12,4.90,-2.22,-2.49,38.89,-6.57,1.01,28.15,3.85,-0.43,-5.27
10,6,-10,-27,-434,3890,0.20,-0.07,4.35,-0.27,-4.34,38.90,-6.57,1.00,28.13,4.08,-0.76,-4.60
7,23,-8,10,-451,3861,0.23,0.08,3.86,0.10,-4.51,38.61,-6.57,0.98,28.12,4.13,-1.14,-4.47
-8,15,29,31,-459,4022,0.15,0.16,3.65,0.31,-4.59,40.22,-6.57,0.97,28.10,4.45,-0.99,-4.72
-3,-5,19,24,-329,4034,0.12,0.11,3.41,0.24,-3.29,40.34,-6.55,0.96,28.09,4.35,-0.56,-4.56
7,9,-17,6,-452,3873,0.15,0.16,2.96,0.06,-4.52,38.73,-6.55,0.94,28.08,4.14,-0.85,-4.12
6,8,-17,29,-440,3931,0.17,0.19,2.56,0.29,-4.40,39.31,-6.55,0.92,28.07,4.15,-0.82,-4.00
4,5,-8,29,-452,3906,0.18,0.20,2.26,0.29,-4.52,39.06,-6.55,0.91,28.06,4.19,-0.76,-3.98
4,5,-5,19,-467,3909,0.19,0.21,2.00,0.19,-4.67,39.09,-6.55,0.89,28.05,4.19,-0.75,-3.93
1,0,7,22,-477,3921,0.17,0.19,1.84,0.22,-4.77,39.21,-6.56,0.88,28.04,4.26,-0.63,-3.98
-1,-2,9,11,-484,3932,0.15,0.16,1.71,0.11,-4.84,39.32,-6.56,0.86,28.04,4.31,-0.57,-3.96
-3,-5,18,3,-477,3910,0.12,0.11,1.65,0.03,-4.77,39.10,-6.57,0.85,28.03,4.37,-0.49,-4.01
-2,-6,19,1,-476,3921,0.09,0.07,1.60,0.01,-4.76,39.21,-6.58,0.83,28.02,4.36,-0.44,-4.01
-1,-5,21,-7,-486,3911,0.08,0.03,1.57,-0.07,-4.86,39.11,-6.59,0.82,28.02,4.35,-0.44,-4.01
0,-5,19,-10,-486,3913,0.07,-0.01,1.53,-0.10,-4.86,39.13,-6.60,0.80,28.01,4.33,-0.43,-3.98
1,0,15,-6,-486,3922,0.07,-0.00,1.47,-0.06,-4.86,39.22,-6.61,0.79,28.00,4.32,-0.52,-3.93
1,2,8,-7,-481,3915,0.07,0.01,1.37,-0.07,-4.81,39.15,-6.62,0.77,28.00,4.33,-0.55,-3.84
4,6,-1,16,-476,3916,0.09,0.04,1.23,0.16,-4.76,39.16,-6.62,0.75,27.99,4.26,-0.63,-3.72
4,7,-4,11,-473,3916,0.10,0.08,1.08,0.11,-4.73,39.16,-6.62,0.74,27.99,4.26,-0.65,-3.65
3,4,-5,1,-479,3903,0.11,0.10,0.94,0.01,-4.79,39.03,-6.63,0.72,27.99,4.29,-0.58,-3.60
3,4,-5,3,-475,3916,0.12,0.11,0.82,0.03,-4.75,39.16,-6.64,0.71,27.98,4.29,-0.58,-3.56
2,1,-4,6,-484,3898,0.12,0.11,0.71,0.06,-4.84,38.98,-6.65,0.69,27.98,4.31,-0.51,-3.54
1,1,-3,8,-482,3916,0.11,0.10,0.62,0.08,-4.82,39.16,-6.65,0.67,27.98,4.34,-0.49,-3.52
0,-1,-2,3,-482,3907,0.10,0.09,0.55,0.03,-4.82,39.07,-6.66,0.66,27.98,4.37,-0.44,-3.50
0,-1,-3,5,-481,3909,0.09,0.07,0.47,0.05,-4.81,39.09,-6.67,0.64,27.97,4.38,-0.42,-3.47
-4,-3,-6,6,-471,3904,0.06,0.05,0.39,0.06,-4.71,39.04,-6.67,0.63,27.97,4.47,-0.36,-3.42
-2,-2,-6,12,-472,3913,0.04,0.03,0.31,0.12,-4.72,39.13,-6.68,0.61,27.97,4.44,-0.37,-3.40
0,0,-8,15,-479,3936,0.04,0.03,0.23,0.15,-4.79,39.36,-6.68,0.59,27.97,4.40,-0.40,-3.36
-4,-2,-9,2,-474,3905,0.01,0.01,0.16,0.02,-4.74,39.05,-6.69,0.57,27.97,4.50,-0.34,-3.33
-4,0,-14,7,-470,3914,-0.02,0.01,0.05,0.07,-4.70,39.14,-6.69,0.56,27.97,4.50,-0.37,-3.25
-5,0,-17,2,-467,3910,-0.05,0.01,-0.05,0.02,-4.67,39.10,-6.70,0.54,27.97,4.54,-0.36,-3.20
-4,3,-28,8,-474,3915,-0.07,0.03,-0.22,0.08,-4.74,39.15,-6.70,0.52,27.97,4.52,-0.41,-3.05
-3,2,-38,42,-445,3908,-0.08,0.04,-0.43,0.42,-4.45,39.08,-6.70,0.50,27.97,4.51,-0.38,-2.91
1,12,-63,-56,-536,3906,-0.06,0.11,-0.77,-0.56,-5.36,39.06,-6.72,0.51,27.98,4.43,-0.61,-2.59
-3,11,-60,-17,-492,3948,-0.08,0.16,-1.06,-0.17,-4.92,39.48,-6.73,0.50,27.98,4.53,-0.60,-2.53
-5,4,-82,-25,-389,3949,-0.10,0.17,-1.45,-0.25,-3.89,39.49,-6.72,0.50,27.99,4.56,-0.45,-2.23
6,-8,-177,31,-345,3776,-0.05,0.10,-2.39,0.31,-3.45,37.76,-6.70,0.48,28.00,4.32,-0.19,-1.14
-1,13,-127,-51,-706,3856,-0.05,0.17,-2.92,-0.51,-7.06,38.56,-6.72,0.49,28.01,4.47,-0.63,-1.40
-8,7,-91,28,-584,3967,-0.10,0.20,-3.19,0.28,-5.84,39.67,-6.74,0.48,28.02,4.64,-0.51,-1.63
-1,6,-83,98,-445,3894,-0.09,0.22,-3.37,0.98,-4.45,38.94,-6.74,0.46,28.03,4.49,-0.48,-1.64
-1,11,-96,10,-455,3878,-0.09,0.26,-3.62,0.10,-4.55,38.78,-6.73,0.44,28.05,4.49,-0.58,-1.46
-5,-3,-100,-61,-484,3893,-0.11,0.22,-3.87,-0.61,-4.84,38.93,-6.75,0.45,28.06,4.58,-0.30,-1.36
10,-44,-164,69,26,4166,-0.04,-0.07,-4.48,0.69,0.26,41.66,-6.73,0.45,28.08,4.25,0.62,-0.63
6,-9,-413,-404,-692,3763,0.00,-0.12,-6.55,-4.04,-6.92,37.63,-6.74,0.46,28.11,4.33,-0.09,2.10
-2,-4,-344,-214,-687,4021,-0.01,-0.13,-8.00,-2.14,-6.87,40.21,-6.75,0.46,28.14,4.50,-0.19,1.95
7,18,-270,242,-873,3799,0.03,-0.01,-8.84,2.42,-8.73,37.99,-6.77,0.45,28.18,4.32,-0.66,1.57
-3,9,-160,96,-739,3954,0.01,0.05,-8.94,0.96,-7.39,39.54,-6.79,0.44,28.21,4.54,-0.49,0.66
2,-25,-196,3,70,4237,0.02,-0.11,-9.24,0.03,0.70,42.37,-6.77,0.43,28.25,4.42,0.25,1.05
12,-37,-321,-188,245,3874,0.09,-0.33,-10.27,-1.88,2.45,38.74,-6.75,0.43,28.29,4.19,0.56,2.42
9,-21,-518,-192,-729,3752,0.14,-0.42,-12.41,-1.92,-7.29,37.52,-6.77,0.43,28.34,4.24,0.26,4.72
-4,-9,-452,-35,-776,3890,0.10,-0.43,-13.92,-0.35,-7.76,38.90,-6.78,0.42,28.39,4.53,0.02,4.61
12,-20,-354,248,-641,3921,0.16,-0.51,-14.69,2.48,-6.41,39.21,-6.79,0.40,28.45,4.19,0.28,4.01
11,-10,-326,182,-595,3879,0.21,-0.52,-15.21,1.82,-5.95,38.79,-6.80,0.38,28.51,4.21,0.10,3.92
7,-1,-287,-5,-432,3961,0.24,-0.48,-15.44,-0.05,-4.32,39.61,-6.79,0.36,28.57,4.27,-0.09,3.65
10,-5,-312,-49,-406,3917,0.27,-0.46,-15.80,-0.49,-4.06,39.17,-6.77,0.36,28.63,4.19,-0.01,3.96
9,-14,-345,-2,-494,4016,0.30,-0.50,-16.32,-0.02,-4.94,40.16,-6.78,0.33,28.70,4.21,0.20,4.39
7,-12,-366,-35,-425,3898,0.31,-0.52,-16.92,-0.35,-4.25,38.98,-6.76,0.33,28.77,4.23,0.17,4.74
5,-2,-416,-20,-458,3881,0.31,-0.48,-17.77,-0.20,-4.58,38.81,-6.75,0.30,28.84,4.27,-0.03,5.41
6,-8,-426,12,-495,3958,0.32,-0.48,-18.59,0.12,-4.95,39.58,-6.76,0.28,28.91,4.25,0.11,5.74
8,-17,-417,11,-445,3950,0.33,-0.54,-19.27,0.11,-4.45,39.50,-6.75,0.25,28.99,4.20,0.33,5.86
6,-21,-434,-35,-435,3894,0.34,-0.61,-19.99,-0.35,-4.35,38.94,-6.73,0.25,29.07,4.23,0.43,6.21
5,-18,-471,-101,-445,3930,0.33,-0.66,-20.87,-1.01,-4.45,39.30,-6.72,0.26,29.15,4.25,0.38,6.78
16,-16,-477,-39,-463,3945,0.40,-0.69,-21.69,-0.39,-4.63,39.45,-6.72,0.26,29.23,4.00,0.34,7.06
8,-12,-513,5,-422,3900,0.41,-0.70,-22.65,0.05,-4.22,39.00,-6.70,0.24,29.32,4.15,0.28,7.65
22,-14,-518,-16,-418,3924,0.50,-0.71,-23.55,-0.16,-4.18,39.24,-6.68,0.22,29.42,3.83,0.33,7.95
22,-3,-539,-47,-443,3974,0.59,-0.66,-24.48,-0.47,-4.43,39.74,-6.67,0.23,29.51,3.80,0.09,8.40
16,-14,-551,-36,-356,3889,0.62,-0.68,-25.39,-0.36,-3.56,38.89,-6.65,0.21,29.61,3.89,0.33,8.76
13,-14,-544,30,-475,3860,0.64,-0.70,-26.17,0.30,-4.75,38.60,-6.66,0.18,29.72,3.96,0.35,8.92
23,-2,-548,39,-449,3890,0.72,-0.64,-26.90,0.39,-4.49,38.90,-6.65,0.15,29.82,3.73,0.12,9.16
12,-17,-544,-91,-544,3943,0.72,-0.68,-27.53,-0.91,-5.44,39.43,-6.67,0.15,29.93,3.96,0.43,9.31
13,-16,-546,17,-475,3914,0.73,-0.71,-28.10,0.17,-4.75,39.14,-6.67,0.12,30.04,3.94,0.44,9.48
9,-12,-558,-28,-487,3983,0.71,-0.71,-28.70,-0.28,-4.87,39.83,-6.68,0.11,30.16,4.03,0.36,9.75
10,-22,-565,8,-386,3933,0.70,-0.77,-29.27,0.08,-3.86,39.33,-6.66,0.09,30.27,4.00,0.60,9.97
18,-14,-561,-12,-434,3909,0.74,-0.78,-29.77,-0.12,-4.34,39.09,-6.64,0.08,30.39,3.82,0.45,10.07
3,-11,-564,-41,-478,3888,0.68,-0.77,-30.23,-0.41,-4.78,38.88,-6.65,0.08,30.51,4.14,0.38,10.22
11,-13,-584,6,-515,3847,0.68,-0.77,-30.77,0.06,-5.15,38.47,-6.67,0.06,30.63,3.99,0.44,10.54
13,-19,-579,-56,-421,3978,0.69,-0.81,-31.23,-0.56,-4.21,39.78,-6.65,0.05,30.76,3.94,0.57,10.62
20,-16,-598,50,-435,3894,0.75,-0.83,-31.75,0.50,-4.35,38.94,-6.64,0.02,30.88,3.77,0.54,10.92
18,-14,-593,47,-483,3938,0.78,-0.83,-32.19,0.47,-4.83,39.38,-6.65,-0.02,31.01,3.81,0.52,11.00
10,-17,-608,-17,-510,3981,0.76,-0.85,-32.68,-0.17,-5.10,39.81,-6.66,-0.03,31.14,3.98,0.60,11.26
22,-15,-605,-23,-511,3893,0.82,-0.86,-33.11,-0.23,-5.11,38.93,-6.67,-0.04,31.27,3.73,0.56,11.34
19,-13,-622,-25,-570,4067,0.86,-0.85,-33.59,-0.25,-5.70,40.67,-6.69,-0.05,31.40,3.79,0.53,11.62
6,-25,-623,50,-570,3890,0.81,-0.92,-34.03,0.50,-5.70,38.90,-6.70,-0.08,31.54,4.08,0.81,11.74
12,-14,-625,96,-480,3932,0.80,-0.91,-34.44,0.96,-4.80,39.32,-6.70,-0.12,31.68,3.96,0.61,11.86
19,-8,-631,92,-504,3835,0.83,-0.87,-34.84,0.92,-5.04,38.35,-6.71,-0.15,31.81,3.81,0.50,12.02
16,-5,-651,52,-536,3797,0.85,-0.81,-35.33,0.52,-5.36,37.97,-6.72,-0.18,31.95,3.88,0.44,12.32
17,-16,-672,13,-467,3981,0.87,-0.83,-35.90,0.13,-4.67,39.81,-6.70,-0.20,32.10,3.84,0.69,12.65
12,-36,-732,8,-453,3863,0.85,-0.97,-36.77,0.08,-4.53,38.63,-6.69,-0.21,32.24,3.94,1.13,13.41
18,-25,-738,25,-477,3894,0.88,-1.02,-37.60,0.25,-4.77,38.94,-6.70,-0.24,32.39,3.82,0.94,13.69
10,-16,-825,16,-448,3911,0.85,-1.02,-38.87,0.16,-4.48,39.11,-6.68,-0.26,32.54,3.97,0.77,14.79
14,-15,-843,-46,-477,3997,0.85,-1.01,-40.13,-0.46,-4.77,39.97,-6.68,-0.26,32.70,3.89,0.75,15.30
39,-53,-929,-60,-482,3928,1.00,-1.23,-41.78,-0.60,-4.82,39.28,-6.68,-0.27,32.87,3.34,1.59,16.51
45,-20,-960,-10,-282,3756,1.18,-1.23,-43.46,-0.10,-2.82,37.56,-6.66,-0.29,33.04,3.16,0.93,17.25
44,-14,-974,39,-477,3737,1.33,-1.19,-45.05,0.39,-4.77,37.37,-6.67,-0.33,33.22,3.14,0.82,17.83
24,10,-973,-91,-530,3800,1.34,-1.01,-46.48,-0.91,-5.30,38.00,-6.67,-0.34,33.40,3.55,0.29,18.23
27,3,-974,109,-505,3869,1.37,-0.89,-47.78,1.09,-5.05,38.69,-6.67,-0.38,33.59,3.48,0.43,18.61
13,2,-926,176,-440,3983,1.32,-0.79,-48.65,1.76,-4.40,39.83,-6.66,-0.42,33.79,3.78,0.45,18.44
19,11,-845,37,-552,3905,1.30,-0.64,-48.94,0.37,-5.52,39.05,-6.68,-0.45,33.98,3.67,0.25,17.82
20,8,-824,58,-526,3961,1.29,-0.53,-49.07,0.58,-5.26,39.61,-6.69,-0.48,34.17,3.65,0.30,17.66
29,-8,-787,-31,-469,3885,1.34,-0.53,-48.96,-0.31,-4.69,38.85,-6.68,-0.49,34.37,3.46,0.63,17.29
23,5,-771,-99,-376,3948,1.35,-0.44,-48.77,-0.99,-3.76,39.48,-6.67,-0.50,34.56,3.57,0.35,17.07
10,-2,-747,6,-423,3867,1.27,-0.41,-48.45,0.06,-4.23,38.67,-6.65,-0.51,34.75,3.84,0.49,16.75
17,4,-729,-24,-406,3936,1.25,-0.35,-48.05,-0.24,-4.06,39.36,-6.63,-0.52,34.95,3.69,0.35,16.45
16,0,-651,11,-473,4024,1.22,-0.31,-47.22,0.11,-4.73,40.24,-6.62,-0.52,35.13,3.71,0.43,15.52
6,-6,-618,-17,-509,3901,1.14,-0.32,-46.27,-0.17,-5.09,39.01,-6.63,-0.53,35.32,3.95,0.56,14.93
17,-7,-532,-54,-484,3854,1.13,-0.33,-44.88,-0.54,-4.84,38.54,-6.63,-0.54,35.49,3.72,0.59,13.76
16,-9,-521,-97,-527,3930,1.11,-0.35,-43.57,-0.97,-5.27,39.30,-6.63,-0.54,35.67,3.75,0.64,13.25
9,-4,-469,16,-560,3944,1.05,-0.34,-42.08,0.16,-5.60,39.44,-6.65,-0.56,35.83,3.92,0.54,12.34
7,-9,-457,18,-526,3912,0.99,-0.36,-40.66,0.18,-5.26,39.12,-6.66,-0.58,36.00,3.98,0.66,11.79
6,-10,-422,-121,-572,3921,0.93,-0.39,-39.17,-1.21,-5.72,39.21,-6.66,-0.58,36.15,4.02,0.69,11.03
1,-7,-404,-120,-517,3953,0.84,-0.39,-37.71,-1.20,-5.17,39.53,-6.66,-0.58,36.30,4.15,0.63,10.42
-4,-9,-345,-81,-551,3915,0.73,-0.41,-36.05,-0.81,-5.51,39.15,-6.67,-0.59,36.44,4.28,0.68,9.40
-3,-18,-335,-72,-559,3883,0.64,-0.47,-34.49,-0.72,-5.59,38.83,-6.68,-0.59,36.58,4.29,0.88,8.83
0,-27,-310,-106,-505,3872,0.58,-0.59,-32.93,-1.06,-5.05,38.72,-6.68,-0.59,36.71,4.25,1.10,8.14
1,-19,-289,-65,-465,3920,0.53,-0.65,-31.40,-0.65,-4.65,39.20,-6.68,-0.59,36.83,4.24,0.95,7.48
2,-7,-254,-37,-483,3919,0.49,-0.63,-29.81,-0.37,-4.83,39.19,-6.68,-0.59,36.95,4.24,0.70,6.69
5,-4,-234,-105,-475,3926,0.47,-0.59,-28.25,-1.05,-4.75,39.26,-6.68,-0.59,37.06,4.18,0.63,6.04
6,-2,-198,-65,-477,3934,0.46,-0.54,-26.64,-0.65,-4.77,39.34,-6.68,-0.58,37.17,4.16,0.57,5.24
4,-3,-191,-67,-446,3903,0.44,-0.51,-25.14,-0.67,-4.46,39.03,-6.68,-0.58,37.27,4.21,0.58,4.72
14,1,-180,-120,-509,3915,0.48,-0.45,-23.72,-1.20,-5.09,39.15,-6.68,-0.57,37.36,3.99,0.48,4.18
8,-1,-171,-133,-490,3892,0.48,-0.41,-22.39,-1.33,-4.90,38.92,-6.68,-0.57,37.45,4.12,0.51,3.70
7,2,-191,-60,-436,3902,0.47,-0.36,-21.32,-0.60,-4.36,39.02,-6.67,-0.56,37.54,4.13,0.43,3.53
5,-1,-201,-15,-443,3922,0.46,-0.33,-20.41,-0.15,-4.43,39.22,-6.67,-0.55,37.62,4.17,0.47,3.34
9,-4,-241,-97,-444,3932,0.47,-0.32,-19.84,-0.97,-4.44,39.32,-6.66,-0.55,37.70,4.09,0.53,3.49
12,1,-250,-118,-445,3894,0.49,-0.28,-19.38,-1.18,-4.45,38.94,-6.66,-0.54,37.77,4.02,0.41,3.42
-1,-5,-298,-104,-453,3888,0.44,-0.28,-19.26,-1.04,-4.53,38.88,-6.65,-0.53,37.85,4.29,0.53,3.78
2,-13,-327,-88,-422,3886,0.41,-0.33,-19.33,-0.88,-4.22,38.86,-6.65,-0.52,37.93,4.24,0.70,4.04
11,-7,-386,-23,-461,3861,0.43,-0.34,-19.75,-0.23,-4.61,38.61,-6.65,-0.51,38.01,4.05,0.58,4.66
12,-6,-392,-5,-475,3903,0.46,-0.35,-20.17,-0.05,-4.75,39.03,-6.65,-0.51,38.09,4.02,0.55,4.82
1,-8,-425,-38,-451,3954,0.42,-0.36,-20.74,-0.38,-4.51,39.54,-6.65,-0.50,38.17,4.25,0.59,5.27
4,-7,-448,-17,-410,3894,0.40,-0.37,-21.40,-0.17,-4.10,38.94,-6.63,-0.50,38.25,4.19,0.57,5.65
12,-10,-525,21,-372,3856,0.44,-0.39,-22.46,0.21,-3.72,38.56,-6.61,-0.51,38.34,4.00,0.65,6.61
8,-3,-551,2,-369,3871,0.44,-0.37,-23.58,0.02,-3.69,38.71,-6.59,-0.51,38.44,4.07,0.50,7.16
27,7,-599,-29,-463,3873,0.56,-0.29,-24.88,-0.29,-4.63,38.73,-6.60,-0.51,38.53,3.65,0.27,7.94
12,-17,-603,-49,-415,3995,0.58,-0.37,-26.07,-0.49,-4.15,39.95,-6.58,-0.51,38.64,3.94,0.78,8.32
-3,-18,-610,-66,-457,4044,0.50,-0.44,-27.18,-0.66,-4.57,40.44,-6.58,-0.50,38.75,4.27,0.82,8.70
10,-13,-624,8,-448,3820,0.51,-0.47,-28.27,0.08,-4.48,38.20,-6.58,-0.50,38.86,4.00,0.72,9.14
10,-17,-630,-8,-503,3965,0.52,-0.53,-29.28,-0.08,-5.03,39.65,-6.59,-0.50,38.97,4.00,0.82,9.48
-5,-22,-635,0,-474,3846,0.44,-0.61,-30.23,0.00,-4.74,38.46,-6.60,-0.50,39.09,4.34,0.95,9.79
3,-17,-617,-16,-529,3854,0.41,-0.65,-30.97,-0.16,-5.29,38.54,-6.61,-0.51,39.22,4.19,0.86,9.85
14,-10,-621,-92,-451,3932,0.46,-0.65,-31.66,-0.92,-4.51,39.32,-6.61,-0.51,39.34,3.95,0.72,10.07
10,-21,-623,-43,-466,3964,0.47,-0.71,-32.30,-0.43,-4.66,39.64,-6.61,-0.51,39.47,4.03,0.96,10.27
4,-20,-625,-17,-447,3865,0.45,-0.76,-32.88,-0.17,-4.47,38.65,-6.61,-0.51,39.60,4.16,0.95,10.44
10,-20,-638,14,-455,3935,0.47,-0.81,-33.48,0.14,-4.55,39.35,-6.60,-0.51,39.73,4.03,0.96,10.72
20,-16,-648,10,-431,3931,0.54,-0.83,-34.09,0.10,-4.31,39.31,-6.59,-0.52,39.87,3.79,0.89,10.97
7,-13,-655,12,-486,3902,0.53,-0.82,-34.67,0.12,-4.86,39.02,-6.60,-0.52,40.00,4.07,0.83,11.19
17,-16,-643,82,-594,3862,0.58,-0.84,-35.13,0.82,-5.94,38.62,-6.61,-0.55,40.14,3.86,0.92,11.21
16,-16,-590,-17,-566,4043,0.62,-0.85,-35.21,-0.17,-5.66,40.43,-6.62,-0.56,40.28,3.88,0.93,10.77
14,-19,-593,-79,-501,3939,0.64,-0.88,-35.31,-0.79,-5.01,39.39,-6.63,-0.56,40.42,3.91,1.00,10.81
-2,-18,-573,11,-498,3897,0.57,-0.90,-35.27,0.11,-4.98,38.97,-6.64,-0.57,40.56,4.27,0.99,10.61
20,-8,-581,61,-469,3891,0.63,-0.86,-35.29,0.61,-4.69,38.91,-6.64,-0.61,40.70,3.81,0.80,10.66
1,-5,-564,-6,-505,3965,0.58,-0.81,-35.20,-0.06,-5.05,39.65,-6.65,-0.61,40.84,4.21,0.73,10.48
20,-12,-558,-66,-440,3920,0.64,-0.80,-35.09,-0.66,-4.40,39.20,-6.65,-0.61,40.98,3.81,0.87,10.37
22,-9,-552,-90,-484,4034,0.71,-0.77,-34.94,-0.90,-4.84,40.34,-6.64,-0.62,41.12,3.74,0.80,10.26
3,-15,-546,-18,-377,3957,0.66,-0.79,-34.78,-0.18,-3.77,39.57,-6.62,-0.62,41.26,4.13,0.93,10.15
14,-4,-531,-39,-450,3885,0.68,-0.73,-34.54,-0.39,-4.50,38.85,-6.62,-0.62,41.39,3.90,0.69,9.93
9,-8,-532,13,-479,3887,0.66,-0.71,-34.33,0.13,-4.79,38.87,-6.63,-0.63,41.53,4.01,0.77,9.86
8,-14,-497,-70,-487,3936,0.65,-0.72,-33.93,-0.70,-4.87,39.36,-6.63,-0.63,41.66,4.04,0.90,9.43
6,-6,-482,-78,-535,3833,0.62,-0.69,-33.48,-0.78,-5.35,38.33,-6.64,-0.63,41.80,4.09,0.73,9.15
9,5,-445,-47,-472,3845,0.61,-0.59,-32.85,-0.47,-4.72,38.45,-6.64,-0.63,41.93,4.03,0.48,8.63
-1,-10,-432,-97,-537,4044,0.54,-0.59,-32.20,-0.97,-5.37,40.44,-6.64,-0.63,42.05,4.25,0.78,8.31
5,-5,-408,-118,-462,4001,0.52,-0.56,-31.47,-1.18,-4.62,40.01,-6.64,-0.63,42.18,4.14,0.67,7.87
7,-12,-388,-124,-491,3898,0.51,-0.58,-30.69,-1.24,-4.91,38.98,-6.64,-0.63,42.30,4.10,0.82,7.45
5,-13,-373,-55,-436,3911,0.49,-0.60,-29.89,-0.55,-4.36,39.11,-6.63,-0.63,42.42,4.14,0.84,7.07
11,-11,-380,-23,-384,3880,0.51,-0.61,-29.22,-0.23,-3.84,38.80,-6.61,-0.63,42.54,4.00,0.81,6.91
3,-9,-379,41,-546,3900,0.48,-0.60,-28.61,0.41,-5.46,39.00,-6.63,-0.65,42.65,4.18,0.77,6.71
8,-8,-405,33,-380,3976,0.48,-0.59,-28.22,0.33,-3.80,39.76,-6.61,-0.66,42.76,4.07,0.76,6.80
8,-5,-456,4,-544,3941,0.48,-0.56,-28.18,0.04,-5.44,39.41,-6.62,-0.67,42.87,4.08,0.70,7.20
4,-3,-465,-37,-547,3874,0.45,-0.52,-28.20,-0.37,-5.47,38.74,-6.63,-0.67,42.98,4.17,0.65,7.27
4,-1,-465,-125,-527,3880,0.43,-0.48,-28.21,-1.25,-5.27,38.80,-6.64,-0.67,43.10,4.18,0.59,7.26
16,3,-453,-150,-504,3924,0.49,-0.41,-28.16,-1.50,-5.04,39.24,-6.64,-0.67,43.21,3.92,0.49,7.13
10,14,-383,-141,-549,3930,0.50,-0.29,-27.68,-1.41,-5.49,39.30,-6.64,-0.66,43.32,4.04,0.23,6.38
11,-12,-382,-70,-464,3915,0.52,-0.33,-27.24,-0.70,-4.64,39.15,-6.64,-0.66,43.43,4.02,0.77,6.23
8,-12,-315,-119,-466,3948,0.51,-0.37,-26.44,-1.19,-4.66,39.48,-6.64,-0.65,43.53,4.08,0.78,5.41
-5,-5,-300,-117,-522,3938,0.43,-0.36,-25.62,-1.17,-5.22,39.38,-6.64,-0.65,43.63,4.37,0.63,5.02
6,-5,-246,55,-477,3870,0.43,-0.36,-24.56,0.55,-4.77,38.70,-6.66,-0.67,43.73,4.15,0.64,4.23
16,-7,-278,51,-388,3963,0.48,-0.36,-23.80,0.51,-3.88,39.63,-6.63,-0.68,43.82,3.92,0.69,4.26
12,-5,-290,-35,-461,3932,0.51,-0.36,-23.19,-0.35,-4.61,39.32,-6.63,-0.68,43.92,4.00,0.65,4.17
12,-10,-299,-107,-465,3992,0.53,-0.38,-22.70,-1.07,-4.65,39.92,-6.63,-0.67,44.01,3.99,0.75,4.09
8,-8,-311,-96,-464,3927,0.52,-0.39,-22.32,-0.96,-4.64,39.27,-6.63,-0.67,44.09,4.07,0.71,4.07
3,-10,-307,-129,-451,3927,0.49,-0.42,-21.96,-1.29,-4.51,39.27,-6.62,-0.66,44.18,4.18,0.75,3.91
7,-8,-237,8,-361,3891,0.48,-0.42,-21.21,0.08,-3.61,38.91,-6.60,-0.66,44.27,4.08,0.72,3.08
2,-17,-250,63,-359,3886,0.45,-0.48,-20.62,0.63,-3.59,38.86,-6.58,-0.68,44.35,4.18,0.93,3.00
3,-5,-309,-144,-463,3971,0.42,-0.47,-20.44,-1.44,-4.63,39.71,-6.58,-0.67,44.43,4.17,0.67,3.44
4,-15,-300,-65,-428,3906,0.40,-0.51,-20.23,-0.65,-4.28,39.06,-6.57,-0.66,44.51,4.15,0.88,3.29
