gyroADC_X,gyroADC_Y,gyroADC_Z,accADC_X,accADC_Y,accADC_Z,GyroX,GyroY,GyroZ,AccX,AccY,AccZ,roll_IMU,pitch_IMU,yaw_IMU,roll_PID,pitch_PID,yaw_PID
0,0,-1,-67,-382,3911,-0.00,0.02,-0.05,-0.67,-3.82,39.11,-5.49,0.96,1.57,3.02,-0.53,-0.09
1,-1,-1,-63,-382,3901,0.00,0.02,-0.05,-0.63,-3.82,39.01,-5.51,0.95,1.57,3.01,-0.51,-0.09
0,2,-1,-70,-379,3909,0.00,0.03,-0.05,-0.70,-3.79,39.09,-5.51,0.97,1.57,3.03,-0.57,-0.09
-1,2,0,-57,-404,3913,-0.00,0.04,-0.05,-0.57,-4.04,39.13,-5.53,0.96,1.57,3.06,-0.57,-0.10
-2,0,-1,-65,-385,3905,-0.01,0.03,-0.05,-0.65,-3.85,39.05,-5.55,0.96,1.57,3.09,-0.54,-0.09
-1,1,0,-83,-378,3907,-0.02,0.04,-0.04,-0.83,-3.78,39.07,-5.55,0.98,1.57,3.07,-0.56,-0.10
-1,0,-1,-80,-379,3905,-0.02,0.03,-0.05,-0.80,-3.79,39.05,-5.55,1.00,1.57,3.07,-0.56,-0.09
1,-2,-1,-63,-372,3893,-0.02,0.02,-0.05,-0.63,-3.72,38.93,-5.53,0.99,1.57,3.03,-0.52,-0.09
2,0,-1,-48,-381,3900,-0.00,0.01,-0.05,-0.48,-3.81,39.00,-5.54,0.97,1.57,3.01,-0.54,-0.09
3,0,-1,-36,-379,3902,0.02,0.01,-0.05,-0.36,-3.79,39.02,-5.54,0.95,1.57,2.99,-0.53,-0.09
2,-1,0,-52,-388,3896,0.03,0.01,-0.05,-0.52,-3.88,38.96,-5.55,0.93,1.57,3.01,-0.50,-0.10
1,0,-1,-70,-386,3902,0.03,0.01,-0.05,-0.70,-3.86,39.02,-5.56,0.95,1.57,3.03,-0.52,-0.09
1,0,-1,-70,-378,3901,0.03,0.00,-0.05,-0.70,-3.78,39.01,-5.56,0.96,1.57,3.03,-0.53,-0.09
0,1,-1,-72,-371,3914,0.03,0.01,-0.05,-0.72,-3.71,39.14,-5.54,0.97,1.57,3.04,-0.55,-0.09
-1,1,-2,-75,-372,3908,0.02,0.02,-0.06,-0.75,-3.72,39.08,-5.53,0.99,1.57,3.05,-0.56,-0.08
-1,1,-1,-72,-376,3897,0.01,0.02,-0.06,-0.72,-3.76,38.97,-5.52,1.01,1.57,3.05,-0.57,-0.09
1,1,-1,-59,-372,3907,0.02,0.02,-0.06,-0.59,-3.72,39.07,-5.51,0.99,1.57,3.01,-0.57,-0.09
0,0,0,-59,-376,3907,0.02,0.02,-0.05,-0.59,-3.76,39.07,-5.51,0.97,1.57,3.03,-0.54,-0.10
-1,0,0,-71,-386,3911,0.01,0.02,-0.05,-0.71,-3.86,39.11,-5.53,0.98,1.57,3.05,-0.54,-0.10
-1,1,0,-66,-387,3909,0.00,0.02,-0.04,-0.66,-3.87,39.09,-5.55,0.98,1.57,3.06,-0.56,-0.10
0,1,1,-54,-380,3912,0.00,0.03,-0.03,-0.54,-3.80,39.12,-5.55,0.96,1.57,3.05,-0.55,-0.11
0,1,-1,-58,-379,3913,0.00,0.03,-0.03,-0.58,-3.79,39.13,-5.54,0.94,1.57,3.05,-0.54,-0.09
0,1,0,-67,-381,3912,0.00,0.03,-0.03,-0.67,-3.81,39.12,-5.55,0.96,1.57,3.05,-0.55,-0.10
0,1,0,-68,-378,3914,0.00,0.04,-0.03,-0.68,-3.78,39.14,-5.54,0.97,1.57,3.05,-0.56,-0.10
1,0,-1,-60,-382,3917,0.01,0.03,-0.03,-0.60,-3.82,39.17,-5.54,0.95,1.57,3.03,-0.53,-0.09
0,0,-1,-69,-379,3900,0.01,0.03,-0.03,-0.69,-3.79,39.00,-5.55,0.97,1.57,3.05,-0.54,-0.09
0,1,0,-70,-384,3909,0.01,0.03,-0.03,-0.70,-3.84,39.09,-5.56,0.98,1.57,3.06,-0.57,-0.10
-1,0,-1,-73,-390,3896,-0.00,0.03,-0.03,-0.73,-3.90,38.96,-5.58,0.99,1.57,3.08,-0.55,-0.09
-1,0,-1,-72,-382,3905,-0.01,0.03,-0.04,-0.72,-3.82,39.05,-5.58,1.01,1.57,3.09,-0.56,-0.09
-1,0,0,-68,-377,3902,-0.01,0.02,-0.03,-0.68,-3.77,39.02,-5.56,1.00,1.57,3.08,-0.56,-0.10
-1,1,0,-67,-378,3907,-0.02,0.03,-0.03,-0.67,-3.78,39.07,-5.55,0.99,1.57,3.07,-0.57,-0.10
0,0,-1,-58,-390,3904,-0.02,0.02,-0.03,-0.58,-3.90,39.04,-5.56,0.98,1.57,3.06,-0.55,-0.09
0,0,-1,-60,-381,3902,-0.01,0.02,-0.04,-0.60,-3.81,39.02,-5.56,0.96,1.57,3.06,-0.54,-0.09
0,0,0,-57,-373,3900,-0.01,0.02,-0.03,-0.57,-3.73,39.00,-5.55,0.95,1.57,3.06,-0.53,-0.10
1,0,0,-59,-374,3909,-0.01,0.02,-0.03,-0.59,-3.74,39.09,-5.54,0.94,1.57,3.03,-0.52,-0.10
1,1,0,-66,-382,3907,0.00,0.02,-0.03,-0.66,-3.82,39.07,-5.56,0.95,1.57,3.04,-0.54,-0.10
1,0,0,-70,-388,3904,0.01,0.02,-0.02,-0.70,-3.88,39.04,-5.57,0.96,1.57,3.05,-0.53,-0.10
0,0,0,-69,-380,3916,0.01,0.02,-0.02,-0.69,-3.80,39.16,-5.56,0.97,1.57,3.06,-0.54,-0.11
0,1,-1,-63,-381,3914,0.01,0.02,-0.03,-0.63,-3.81,39.14,-5.56,0.95,1.57,3.06,-0.55,-0.10
0,0,-1,-56,-374,3906,0.01,0.02,-0.03,-0.56,-3.74,39.06,-5.55,0.94,1.57,3.05,-0.52,-0.09
0,0,0,-54,-372,3900,0.00,0.02,-0.03,-0.54,-3.72,39.00,-5.54,0.92,1.57,3.05,-0.51,-0.10
1,1,-1,-54,-370,3906,0.01,0.02,-0.03,-0.54,-3.70,39.06,-5.53,0.91,1.57,3.02,-0.52,-0.09
1,0,-1,-55,-375,3901,0.02,0.02,-0.03,-0.55,-3.75,39.01,-5.52,0.89,1.57,3.02,-0.50,-0.09
0,0,0,-64,-381,3906,0.01,0.02,-0.03,-0.64,-3.81,39.06,-5.54,0.90,1.57,3.04,-0.50,-0.10
0,0,-1,-65,-380,3908,0.01,0.02,-0.03,-0.65,-3.80,39.08,-5.54,0.92,1.57,3.04,-0.51,-0.09
0,0,0,-67,-374,3908,0.01,0.01,-0.03,-0.67,-3.74,39.08,-5.53,0.93,1.57,3.04,-0.52,-0.10
1,0,-1,-65,-380,3901,0.02,0.01,-0.03,-0.65,-3.80,39.01,-5.54,0.94,1.57,3.03,-0.52,-0.09
0,1,-2,-63,-385,3900,0.01,0.02,-0.04,-0.63,-3.85,39.00,-5.56,0.94,1.58,3.05,-0.54,-0.08
0,0,-1,-60,-375,3909,0.01,0.02,-0.04,-0.60,-3.75,39.09,-5.55,0.93,1.58,3.05,-0.51,-0.09
0,1,0,-64,-380,3916,0.01,0.02,-0.04,-0.64,-3.80,39.16,-5.54,0.94,1.58,3.04,-0.54,-0.10
0,0,-1,-63,-381,3912,0.01,0.02,-0.04,-0.63,-3.81,39.12,-5.55,0.93,1.58,3.05,-0.52,-0.09
0,1,0,-65,-375,3905,0.01,0.02,-0.04,-0.65,-3.75,39.05,-5.53,0.93,1.58,3.04,-0.54,-0.10
0,0,0,-60,-377,3899,0.01,0.02,-0.03,-0.60,-3.77,38.99,-5.53,0.92,1.58,3.04,-0.51,-0.10
1,0,-1,-65,-368,3903,0.01,0.02,-0.04,-0.65,-3.68,39.03,-5.51,0.92,1.58,3.01,-0.51,-0.09
0,0,-1,-67,-372,3903,0.01,0.02,-0.04,-0.67,-3.72,39.03,-5.50,0.93,1.58,3.02,-0.52,-0.09
0,0,0,-67,-375,3907,0.01,0.02,-0.03,-0.67,-3.75,39.07,-5.49,0.95,1.58,3.02,-0.53,-0.10
3,-4,-5,-18,-382,3893,0.03,-0.01,-0.06,-0.18,-3.82,38.93,-5.49,0.93,1.58,2.97,-0.45,-0.05
2,1,7,-72,-400,3917,0.04,-0.00,-0.01,-0.72,-4.00,39.17,-5.51,0.94,1.58,2.99,-0.53,-0.17
-2,7,12,-90,-402,3893,0.02,0.04,0.06,-0.90,-4.02,38.93,-5.52,0.95,1.58,3.06,-0.64,-0.23
-1,3,5,-74,-391,3915,0.01,0.05,0.09,-0.74,-3.91,39.15,-5.54,0.96,1.58,3.06,-0.59,-0.17
-2,0,3,-35,-354,3901,-0.00,0.05,0.10,-0.35,-3.54,39.01,-5.53,0.95,1.58,3.07,-0.54,-0.16
-1,3,5,-64,-365,3896,-0.01,0.06,0.12,-0.64,-3.65,38.96,-5.51,0.95,1.57,3.05,-0.59,-0.18
0,0,4,-48,-390,3900,-0.01,0.06,0.13,-0.48,-3.90,39.00,-5.52,0.93,1.57,3.04,-0.53,-0.18
-2,0,6,-68,-392,3902,-0.02,0.05,0.15,-0.68,-3.92,39.02,-5.54,0.94,1.57,3.08,-0.53,-0.20
0,0,-2,-81,-376,3908,-0.02,0.05,0.13,-0.81,-3.76,39.08,-5.54,0.96,1.57,3.05,-0.54,-0.12
-1,1,3,-77,-361,3915,-0.02,0.05,0.13,-0.77,-3.61,39.15,-5.52,0.97,1.57,3.06,-0.56,-0.17
1,-1,-5,-52,-379,3904,-0.01,0.04,0.09,-0.52,-3.79,39.04,-5.52,0.95,1.57,3.03,-0.52,-0.09
1,-1,-5,-72,-380,3899,-0.00,0.03,0.05,-0.72,-3.80,38.99,-5.53,0.97,1.57,3.03,-0.52,-0.08
0,2,-1,-74,-370,3900,-0.00,0.04,0.04,-0.74,-3.70,39.00,-5.52,0.98,1.57,3.04,-0.58,-0.11
11,-8,-81,78,-369,3879,0.06,-0.02,-0.46,0.78,-3.69,38.79,-5.52,0.96,1.57,2.85,-0.40,0.69
8,-12,-142,78,-495,3955,0.11,-0.09,-1.28,0.78,-4.95,39.55,-5.53,0.94,1.58,2.89,-0.31,1.41
17,-2,-603,342,-619,3735,0.20,-0.09,-4.83,3.42,-6.19,37.35,-5.54,0.93,1.60,2.73,-0.45,6.19
8,-8,-694,298,-525,3920,0.23,-0.13,-8.58,2.98,-5.25,39.20,-5.54,0.91,1.63,2.86,-0.34,7.88
3,-22,-390,-469,-196,3854,0.22,-0.25,-10.10,-4.69,-1.96,38.54,-5.54,0.92,1.67,2.93,-0.09,5.67
-5,-18,-284,-604,-178,3919,0.17,-0.34,-10.82,-6.04,-1.78,39.19,-5.53,0.93,1.72,3.07,-0.13,4.95
-3,-3,-10,-244,-198,3854,0.14,-0.32,-9.80,-2.44,-1.98,38.54,-5.52,0.94,1.75,3.04,-0.37,2.37
-3,-6,-9,-118,-311,3943,0.10,-0.33,-8.88,-1.18,-3.11,39.43,-5.50,0.94,1.79,3.04,-0.33,2.14
-1,-2,-1,-57,-376,3919,0.09,-0.31,-8.00,-0.57,-3.76,39.19,-5.50,0.92,1.82,3.01,-0.38,1.85
-1,0,-2,-46,-378,3916,0.07,-0.27,-7.21,-0.46,-3.78,39.16,-5.50,0.90,1.85,3.02,-0.41,1.66
1,0,0,-41,-369,3904,0.07,-0.25,-6.49,-0.41,-3.69,39.04,-5.49,0.88,1.88,2.98,-0.41,1.47
0,0,0,-57,-378,3923,0.06,-0.22,-5.84,-0.57,-3.78,39.23,-5.50,0.86,1.90,3.00,-0.40,1.30
0,-1,-1,-74,-374,3914,0.06,-0.21,-5.26,-0.74,-3.74,39.14,-5.49,0.87,1.92,3.00,-0.40,1.17
0,0,0,-70,-380,3916,0.05,-0.19,-4.73,-0.70,-3.80,39.16,-5.50,0.89,1.94,3.01,-0.43,1.03
1,1,-3,-60,-373,3913,0.05,-0.16,-4.28,-0.60,-3.73,39.13,-5.48,0.88,1.95,2.98,-0.45,0.94
1,0,0,-66,-384,3903,0.05,-0.15,-3.85,-0.66,-3.84,39.03,-5.50,0.89,1.97,2.99,-0.44,0.81
0,0,0,-60,-378,3904,0.05,-0.13,-3.47,-0.60,-3.78,39.04,-5.52,0.88,1.98,3.02,-0.44,0.71
0,1,1,-58,-374,3902,0.04,-0.11,-3.11,-0.58,-3.74,39.02,-5.50,0.87,2.00,3.01,-0.46,0.62
1,1,1,-62,-376,3909,0.05,-0.09,-2.80,-0.62,-3.76,39.09,-5.50,0.88,2.01,2.99,-0.47,0.54
0,1,0,-62,-374,3918,0.04,-0.08,-2.52,-0.62,-3.74,39.18,-5.48,0.89,2.02,3.00,-0.48,0.48
-1,0,0,-59,-377,3908,0.03,-0.07,-2.27,-0.59,-3.77,39.08,-5.49,0.88,2.03,3.03,-0.46,0.42
0,0,-1,-57,-376,3909,0.03,-0.06,-2.04,-0.57,-3.76,39.09,-5.49,0.86,2.03,3.01,-0.45,0.37
0,0,0,-62,-374,3904,0.02,-0.06,-1.84,-0.62,-3.74,39.04,-5.49,0.87,2.04,3.01,-0.46,0.31
1,1,0,-62,-378,3909,0.03,-0.05,-1.66,-0.62,-3.78,39.09,-5.50,0.88,2.05,3.00,-0.49,0.26
1,0,0,-62,-378,3916,0.03,-0.04,-1.49,-0.62,-3.78,39.16,-5.51,0.90,2.05,3.01,-0.48,0.22
0,0,0,-61,-377,3904,0.03,-0.04,-1.34,-0.61,-3.77,39.04,-5.52,0.88,2.06,3.03,-0.47,0.19
1,1,-1,-60,-369,3906,0.03,-0.03,-1.21,-0.60,-3.69,39.06,-5.50,0.88,2.06,3.00,-0.49,0.16
1,0,0,-70,-376,3894,0.03,-0.02,-1.09,-0.70,-3.76,38.94,-5.50,0.90,2.07,3.00,-0.49,0.12
0,-1,0,-66,-374,3903,0.03,-0.03,-0.98,-0.66,-3.74,39.03,-5.50,0.91,2.07,3.01,-0.48,0.10
1,0,0,-68,-372,3902,0.03,-0.03,-0.88,-0.68,-3.72,39.02,-5.49,0.93,2.08,2.99,-0.50,0.07
0,0,-1,-64,-368,3909,0.03,-0.02,-0.80,-0.64,-3.68,39.09,-5.47,0.93,2.08,3.00,-0.50,0.06
0,0,-1,-64,-373,3912,0.03,-0.02,-0.73,-0.64,-3.73,39.12,-5.45,0.93,2.08,2.99,-0.51,0.04
0,0,0,-64,-379,3901,0.02,-0.02,-0.66,-0.64,-3.79,39.01,-5.47,0.93,2.08,3.00,-0.51,0.02
0,0,0,-60,-377,3911,0.02,-0.02,-0.59,-0.60,-3.77,39.11,-5.48,0.92,2.09,3.01,-0.50,-0.00
0,0,0,-53,-376,3902,0.02,-0.01,-0.53,-0.53,-3.76,39.02,-5.48,0.90,2.09,3.01,-0.49,-0.02
-1,0,1,-58,-377,3902,0.01,-0.01,-0.47,-0.58,-3.77,39.02,-5.49,0.88,2.09,3.03,-0.48,-0.04
-1,1,0,-59,-370,3906,0.00,-0.01,-0.42,-0.59,-3.70,39.06,-5.47,0.88,2.09,3.02,-0.50,-0.04
0,0,0,-65,-378,3906,0.00,-0.01,-0.38,-0.65,-3.78,39.06,-5.49,0.89,2.09,3.02,-0.49,-0.05
1,0,-1,-57,-383,3889,0.01,-0.00,-0.35,-0.57,-3.83,38.89,-5.50,0.89,2.10,3.01,-0.49,-0.05
1,0,0,-52,-382,3908,0.02,-0.00,-0.31,-0.52,-3.82,39.08,-5.51,0.87,2.10,3.01,-0.48,-0.07
0,0,0,-64,-380,3912,0.01,-0.00,-0.28,-0.64,-3.80,39.12,-5.52,0.89,2.10,3.03,-0.49,-0.08
0,0,-1,-71,-381,3927,0.01,-0.00,-0.26,-0.71,-3.81,39.27,-5.52,0.90,2.10,3.03,-0.50,-0.07
0,1,-1,-65,-380,3895,0.01,0.00,-0.24,-0.65,-3.80,38.95,-5.54,0.92,2.10,3.04,-0.52,-0.08
0,0,-1,-59,-377,3908,0.01,0.00,-0.22,-0.59,-3.77,39.08,-5.53,0.90,2.10,3.04,-0.50,-0.08
-1,0,0,-61,-373,3893,0.00,0.00,-0.20,-0.61,-3.73,38.93,-5.51,0.90,2.10,3.05,-0.49,-0.10
0,0,0,-64,-375,3911,0.00,0.00,-0.18,-0.64,-3.75,39.11,-5.50,0.91,2.10,3.02,-0.50,-0.10
0,0,0,-64,-366,3903,0.00,0.00,-0.16,-0.64,-3.66,39.03,-5.48,0.91,2.10,3.01,-0.50,-0.11
0,0,-1,-60,-376,3914,0.00,0.00,-0.15,-0.60,-3.76,39.14,-5.48,0.90,2.10,3.02,-0.49,-0.10
0,1,-1,-58,-376,3925,0.00,0.01,-0.14,-0.58,-3.76,39.25,-5.48,0.88,2.10,3.01,-0.50,-0.10
-1,0,0,-57,-380,3909,-0.00,0.01,-0.13,-0.57,-3.80,39.09,-5.50,0.87,2.11,3.04,-0.48,-0.12
1,1,1,-67,-378,3906,0.00,0.01,-0.11,-0.67,-3.78,39.06,-5.50,0.89,2.11,3.01,-0.51,-0.13
0,1,1,-72,-381,3900,0.00,0.02,-0.09,-0.72,-3.81,39.00,-5.51,0.90,2.11,3.03,-0.52,-0.13
1,0,1,-61,-383,3915,0.01,0.02,-0.08,-0.61,-3.83,39.15,-5.53,0.90,2.11,3.02,-0.50,-0.14
0,0,1,-67,-384,3910,0.01,0.01,-0.06,-0.67,-3.84,39.10,-5.54,0.91,2.11,3.04,-0.51,-0.14
0,0,1,-65,-374,3910,0.01,0.01,-0.05,-0.65,-3.74,39.10,-5.52,0.92,2.11,3.04,-0.51,-0.14
0,0,0,-62,-379,3909,0.01,0.01,-0.05,-0.62,-3.79,39.09,-5.54,0.91,2.11,3.04,-0.50,-0.14
0,0,0,-52,-380,3899,0.01,0.01,-0.04,-0.52,-3.80,38.99,-5.54,0.89,2.11,3.05,-0.49,-0.14
0,1,0,-55,-385,3890,0.00,0.02,-0.04,-0.55,-3.85,38.90,-5.55,0.88,2.11,3.05,-0.50,-0.14
1,0,0,-63,-380,3912,0.01,0.01,-0.03,-0.63,-3.80,39.12,-5.55,0.90,2.11,3.03,-0.50,-0.14
1,0,0,-66,-379,3905,0.02,0.01,-0.03,-0.66,-3.79,39.05,-5.55,0.91,2.11,3.03,-0.51,-0.14
0,1,0,-67,-374,3899,0.01,0.02,-0.03,-0.67,-3.74,38.99,-5.54,0.93,2.11,3.04,-0.53,-0.14
0,0,0,-60,-369,3882,0.01,0.02,-0.02,-0.60,-3.69,38.82,-5.52,0.92,2.11,3.03,-0.51,-0.14
0,0,1,-64,-376,3910,0.01,0.01,-0.02,-0.64,-3.76,39.10,-5.50,0.93,2.11,3.02,-0.51,-0.15
1,0,1,-65,-373,3901,0.02,0.01,-0.01,-0.65,-3.73,39.01,-5.49,0.94,2.11,3.00,-0.52,-0.15
0,1,0,-62,-384,3911,0.01,0.02,-0.01,-0.62,-3.84,39.11,-5.50,0.93,2.11,3.02,-0.53,-0.15
0,1,0,-54,-383,3886,0.01,0.02,-0.01,-0.54,-3.83,38.86,-5.52,0.92,2.11,3.03,-0.53,-0.15
0,1,0,-60,-379,3913,0.01,0.03,-0.01,-0.60,-3.79,39.13,-5.52,0.90,2.11,3.03,-0.52,-0.15
1,1,0,-57,-372,3911,0.02,0.03,-0.01,-0.57,-3.72,39.11,-5.51,0.89,2.11,3.01,-0.51,-0.15
0,0,-1,-60,-372,3897,0.02,0.03,-0.01,-0.60,-3.72,38.97,-5.49,0.89,2.11,3.01,-0.50,-0.14
1,1,-1,-53,-375,3910,0.02,0.03,-0.02,-0.53,-3.75,39.10,-5.49,0.87,2.11,3.00,-0.50,-0.14
0,-1,-1,-59,-381,3910,0.02,0.02,-0.02,-0.59,-3.81,39.10,-5.51,0.87,2.11,3.02,-0.47,-0.13
1,-1,-1,-59,-377,3914,0.02,0.01,-0.02,-0.59,-3.77,39.14,-5.50,0.85,2.11,3.00,-0.46,-0.13
-1,0,0,-60,-382,3905,0.01,0.01,-0.02,-0.60,-3.82,39.05,-5.51,0.86,2.11,3.04,-0.47,-0.14
0,0,1,-61,-379,3907,0.01,0.01,-0.01,-0.61,-3.79,39.07,-5.53,0.87,2.11,3.04,-0.48,-0.15
0,0,0,-61,-375,3902,0.01,0.01,-0.01,-0.61,-3.75,39.02,-5.51,0.88,2.11,3.03,-0.49,-0.14
0,0,0,-66,-380,3904,0.01,0.01,-0.01,-0.66,-3.80,39.04,-5.52,0.90,2.11,3.03,-0.50,-0.14
0,0,-1,-64,-374,3902,0.01,0.01,-0.02,-0.64,-3.74,39.02,-5.51,0.91,2.11,3.03,-0.50,-0.14
0,0,-1,-64,-373,3914,0.01,0.01,-0.02,-0.64,-3.73,39.14,-5.49,0.91,2.11,3.02,-0.51,-0.13
0,0,0,-60,-374,3906,0.01,0.01,-0.02,-0.60,-3.74,39.06,-5.48,0.90,2.11,3.01,-0.50,-0.14
-1,0,0,-59,-375,3915,0.00,0.01,-0.02,-0.59,-3.75,39.15,-5.48,0.88,2.11,3.03,-0.49,-0.14
0,1,-1,-73,-374,3907,0.00,0.01,-0.02,-0.73,-3.74,39.07,-5.48,0.90,2.11,3.01,-0.51,-0.13
0,1,-1,-68,-378,3908,0.00,0.02,-0.03,-0.68,-3.78,39.08,-5.48,0.92,2.11,3.02,-0.52,-0.13
0,1,0,-59,-377,3910,0.00,0.02,-0.02,-0.59,-3.77,39.10,-5.49,0.90,2.11,3.02,-0.52,-0.14
0,0,0,-59,-381,3920,0.00,0.02,-0.02,-0.59,-3.81,39.20,-5.51,0.89,2.11,3.03,-0.49,-0.14
1,0,0,-60,-380,3903,0.01,0.02,-0.02,-0.60,-3.80,39.03,-5.52,0.88,2.11,3.02,-0.49,-0.14
0,0,0,-61,-384,3923,0.01,0.01,-0.02,-0.61,-3.84,39.23,-5.54,0.89,2.11,3.05,-0.49,-0.14
0,0,0,-58,-371,3897,0.01,0.01,-0.01,-0.58,-3.71,38.97,-5.53,0.88,2.11,3.04,-0.49,-0.14
0,0,0,-57,-376,3900,0.00,0.01,-0.01,-0.57,-3.76,39.00,-5.52,0.86,2.11,3.03,-0.48,-0.14
1,0,0,-60,-374,3908,0.01,0.01,-0.01,-0.60,-3.74,39.08,-5.50,0.87,2.11,3.01,-0.48,-0.14
0,0,0,-69,-377,3891,0.01,0.01,-0.01,-0.69,-3.77,38.91,-5.50,0.88,2.11,3.02,-0.49,-0.15
1,0,0,-61,-376,3916,0.01,0.01,-0.01,-0.61,-3.76,39.16,-5.49,0.89,2.11,3.00,-0.49,-0.15
0,1,-1,-61,-374,3908,0.01,0.01,-0.01,-0.61,-3.74,39.08,-5.47,0.89,2.11,3.00,-0.51,-0.14
1,1,-1,-57,-377,3900,0.02,0.02,-0.02,-0.57,-3.77,39.00,-5.48,0.88,2.11,2.99,-0.50,-0.13
1,1,0,-66,-378,3897,0.02,0.02,-0.02,-0.66,-3.78,38.97,-5.49,0.89,2.11,3.00,-0.51,-0.14
-1,3,-43,-114,-364,3983,0.01,0.04,-0.28,-1.14,-3.64,39.83,-5.48,0.91,2.11,3.03,-0.56,0.28
2,3,-31,-117,-367,3944,0.02,0.05,-0.44,-1.17,-3.67,39.44,-5.48,0.93,2.11,2.98,-0.57,0.22
4,5,-36,-74,-550,3947,0.05,0.08,-0.62,-0.74,-5.50,39.47,-5.50,0.93,2.12,2.95,-0.61,0.31
-2,-2,-40,-69,-514,3846,0.03,0.06,-0.80,-0.69,-5.14,38.46,-5.52,0.93,2.12,3.06,-0.50,0.39
-1,0,3,-109,-517,4042,0.02,0.05,-0.70,-1.09,-5.17,40.42,-5.53,0.93,2.12,3.05,-0.53,-0.00
24,-1,-28,-140,-231,3854,0.16,0.04,-0.80,-1.40,-2.31,38.54,-5.52,0.94,2.12,2.62,-0.52,0.29
-1,-2,72,-205,-245,3856,0.14,0.02,-0.28,-2.05,-2.45,38.56,-5.50,0.96,2.13,3.00,-0.50,-0.69
-4,-5,68,-137,-303,3838,0.10,-0.01,0.16,-1.37,-3.03,38.38,-5.49,0.97,2.12,3.05,-0.46,-0.76
-5,-1,78,-41,-247,3889,0.06,-0.01,0.62,-0.41,-2.47,38.89,-5.47,0.97,2.12,3.07,-0.51,-0.96
-1,-3,78,-33,-271,3942,0.05,-0.03,1.04,-0.33,-2.71,39.42,-5.46,0.96,2.12,3.00,-0.47,-1.06
-3,-4,78,-29,-373,3901,0.03,-0.05,1.41,-0.29,-3.73,39.01,-5.46,0.94,2.11,3.04,-0.44,-1.16
-2,-4,81,-50,-362,3905,0.01,-0.07,1.76,-0.50,-3.62,39.05,-5.44,0.93,2.10,3.02,-0.43,-1.27
3,4,101,-66,-298,3910,0.03,-0.04,2.20,-0.66,-2.98,39.10,-5.43,0.93,2.10,2.93,-0.56,-1.54
0,1,110,-95,-360,3925,0.03,-0.03,2.65,-0.95,-3.60,39.25,-5.42,0.95,2.09,2.97,-0.53,-1.73
0,2,95,-39,-437,3884,0.02,-0.01,2.97,-0.39,-4.37,38.84,-5.44,0.94,2.07,2.98,-0.55,-1.68
-6,0,99,-5,-433,3918,-0.02,-0.01,3.27,-0.05,-4.33,39.18,-5.45,0.93,2.06,3.09,-0.51,-1.79
-1,5,83,-53,-416,3915,-0.02,0.02,3.45,-0.53,-4.16,39.15,-5.47,0.93,2.05,3.03,-0.59,-1.70
0,0,68,-63,-447,3903,-0.02,0.02,3.52,-0.63,-4.47,39.03,-5.48,0.93,2.03,3.02,-0.52,-1.59
1,1,49,-13,-376,3934,-0.01,0.02,3.47,-0.13,-3.76,39.34,-5.48,0.91,2.02,3.00,-0.52,-1.41
-1,-1,45,5,-365,3940,-0.02,0.01,3.40,0.05,-3.65,39.40,-5.48,0.90,2.01,3.03,-0.48,-1.36
-1,-1,24,-20,-400,3912,-0.02,0.01,3.20,-0.20,-4.00,39.12,-5.49,0.88,1.99,3.04,-0.47,-1.13
-1,0,20,-37,-394,3926,-0.02,0.01,3.00,-0.37,-3.94,39.26,-5.50,0.87,1.98,3.05,-0.48,-1.05
-2,0,11,-49,-373,3924,-0.03,0.00,2.77,-0.49,-3.73,39.24,-5.49,0.85,1.97,3.06,-0.47,-0.91
0,0,6,-63,-388,3905,-0.03,0.00,2.53,-0.63,-3.88,39.05,-5.51,0.86,1.96,3.04,-0.47,-0.81
-1,2,2,-62,-417,3909,-0.03,0.02,2.29,-0.62,-4.17,39.09,-5.53,0.86,1.95,3.07,-0.51,-0.72
-1,2,0,-56,-393,3913,-0.04,0.03,2.06,-0.56,-3.93,39.13,-5.55,0.86,1.94,3.08,-0.51,-0.64
0,3,-2,-67,-375,3886,-0.03,0.04,1.84,-0.67,-3.75,38.86,-5.54,0.88,1.94,3.06,-0.54,-0.57
6,10,-3,-70,-378,3909,0.01,0.10,1.64,-0.70,-3.78,39.09,-5.54,0.90,1.93,2.95,-0.68,-0.51
-2,101,2,-72,-393,3755,-0.01,0.71,1.49,-0.72,-3.93,37.55,-5.55,0.91,1.92,3.09,-2.25,-0.52
1,124,8,-100,-394,3928,0.00,1.39,1.39,-1.00,-3.94,39.28,-5.56,0.93,1.92,3.04,-2.83,-0.54
7,41,1,-64,-376,3951,0.04,1.50,1.26,-0.64,-3.76,39.51,-5.54,0.94,1.92,2.93,-1.60,-0.45
4,29,-3,-89,-379,3911,0.06,1.53,1.11,-0.89,-3.79,39.11,-5.54,0.96,1.91,2.97,-1.44,-0.38
3,8,-17,-139,-335,3890,0.08,1.42,0.90,-1.39,-3.35,38.90,-5.53,0.98,1.91,2.97,-1.10,-0.21
4,4,-60,-237,-311,3955,0.09,1.31,0.44,-2.37,-3.11,39.55,-5.52,1.01,1.91,2.95,-1.01,0.27
-1,-1,-60,-292,-245,3927,0.08,1.17,0.03,-2.92,-2.45,39.27,-5.51,1.03,1.91,3.02,-0.91,0.37
1,2,-59,-270,-202,3939,0.08,1.07,-0.33,-2.70,-2.02,39.39,-5.50,1.04,1.91,2.99,-0.93,0.45
-10,-9,-25,-267,-217,3913,0.01,0.90,-0.45,-2.67,-2.17,39.13,-5.49,1.06,1.91,3.17,-0.72,0.19
-1,-2,33,-176,-336,3908,0.00,0.80,-0.20,-1.76,-3.36,39.08,-5.48,1.08,1.91,3.03,-0.81,-0.36
-2,-9,94,-206,-383,3847,-0.01,0.67,0.39,-2.06,-3.83,38.47,-5.49,1.10,1.91,3.05,-0.67,-1.03
-2,-5,89,-230,-392,3903,-0.02,0.57,0.89,-2.30,-3.92,39.03,-5.49,1.12,1.91,3.06,-0.72,-1.11
-2,-4,94,-180,-293,3903,-0.03,0.49,1.38,-1.80,-2.93,39.03,-5.48,1.14,1.90,3.05,-0.72,-1.27
-5,-12,98,-173,-267,3896,-0.06,0.37,1.84,-1.73,-2.67,38.96,-5.46,1.15,1.89,3.10,-0.56,-1.41
-2,-48,77,-76,-308,3965,-0.07,0.04,2.12,-0.76,-3.08,39.65,-5.44,1.15,1.88,3.05,0.09,-1.31
-2,-70,81,-93,-341,3978,-0.07,-0.39,2.40,-0.93,-3.41,39.78,-5.43,1.16,1.87,3.04,0.55,-1.41
-3,-37,64,45,-343,4031,-0.08,-0.58,2.55,0.45,-3.43,40.31,-5.42,1.14,1.86,3.05,0.11,-1.30
-4,-24,73,65,-347,3899,-0.10,-0.67,2.74,0.65,-3.47,38.99,-5.42,1.12,1.85,3.07,-0.05,-1.42
4,-10,59,136,-459,3860,-0.06,-0.66,2.83,1.36,-4.59,38.60,-5.43,1.10,1.84,2.94,-0.25,-1.33
-5,-7,23,263,-539,3866,-0.09,-0.64,2.69,2.63,-5.39,38.66,-5.44,1.08,1.83,3.09,-0.29,-0.98
0,-7,-83,284,-510,3939,-0.08,-0.62,1.91,2.84,-5.10,39.39,-5.44,1.07,1.82,3.02,-0.29,0.10
9,-4,-115,218,-532,3950,-0.02,-0.58,1.02,2.18,-5.32,39.50,-5.45,1.05,1.82,2.87,-0.34,0.60
-1,-9,-173,-71,-418,3921,-0.02,-0.58,-0.14,-0.71,-4.18,39.21,-5.47,1.04,1.82,3.03,-0.26,1.37
2,-6,-194,-100,-379,3904,-0.01,-0.56,-1.31,-1.00,-3.79,39.04,-5.47,1.06,1.82,2.98,-0.32,1.84
1,-4,-246,-173,-294,3877,-0.00,-0.53,-2.68,-1.73,-2.94,38.77,-5.46,1.07,1.84,2.99,-0.37,2.61
8,-6,-264,-121,-288,3865,0.05,-0.51,-4.02,-1.21,-2.88,38.65,-5.45,1.08,1.85,2.86,-0.35,3.10
-1,-7,-311,-146,-300,3907,0.04,-0.50,-5.51,-1.46,-3.00,39.07,-5.43,1.09,1.87,2.99,-0.34,3.86
1,-8,-333,-102,-316,3922,0.04,-0.50,-6.99,-1.02,-3.16,39.22,-5.42,1.09,1.90,2.95,-0.32,4.41
7,-9,-387,-95,-409,3934,0.08,-0.50,-8.66,-0.95,-4.09,39.34,-5.43,1.09,1.93,2.86,-0.31,5.27
8,1,-389,-54,-367,3896,0.12,-0.45,-10.16,-0.54,-3.67,38.96,-5.43,1.07,1.97,2.83,-0.47,5.66
7,-9,-382,-69,-430,3896,0.15,-0.46,-11.48,-0.69,-4.30,38.96,-5.45,1.06,2.02,2.84,-0.31,5.92
10,-6,-373,-26,-439,3908,0.20,-0.45,-12.60,-0.26,-4.39,39.08,-5.46,1.04,2.07,2.79,-0.35,6.12
1,-7,-345,-36,-399,3916,0.18,-0.45,-13.45,-0.36,-3.99,39.16,-5.47,1.02,2.12,2.94,-0.32,6.08
6,-5,-343,-41,-396,3905,0.20,-0.43,-14.20,-0.41,-3.96,39.05,-5.49,1.00,2.18,2.86,-0.34,6.25
9,-4,-319,0,-394,3896,0.24,-0.41,-14.72,0.00,-3.94,38.96,-5.49,0.98,2.24,2.81,-0.35,6.17
11,-3,-305,6,-449,3947,0.28,-0.39,-15.11,0.06,-4.49,39.47,-5.50,0.96,2.30,2.77,-0.36,6.14
2,-1,-273,-48,-395,3919,0.26,-0.36,-15.26,-0.48,-3.95,39.19,-5.52,0.94,2.36,2.92,-0.39,5.90
10,2,-270,-81,-402,3897,0.30,-0.31,-15.39,-0.81,-4.02,38.97,-5.53,0.94,2.42,2.80,-0.45,5.90
8,-5,-311,16,-469,3949,0.32,-0.31,-15.74,0.16,-4.69,39.49,-5.54,0.92,2.48,2.83,-0.33,6.34
5,-10,-348,-4,-454,3913,0.32,-0.34,-16.29,-0.04,-4.54,39.13,-5.56,0.90,2.55,2.88,-0.24,6.78
7,-10,-511,-148,-370,3909,0.33,-0.37,-17.78,-1.48,-3.70,39.09,-5.56,0.91,2.62,2.85,-0.24,8.52
6,-14,-551,-101,-391,3912,0.33,-0.42,-19.36,-1.01,-3.91,39.12,-5.56,0.92,2.70,2.87,-0.16,9.24
11,-11,-672,-75,-362,3912,0.37,-0.44,-21.53,-0.75,-3.62,39.12,-5.54,0.92,2.78,2.77,-0.20,10.80
14,-12,-697,-54,-417,3882,0.41,-0.47,-23.63,-0.54,-4.17,38.82,-5.56,0.90,2.88,2.72,-0.17,11.52
14,-15,-782,-9,-438,3877,0.46,-0.51,-26.03,-0.09,-4.38,38.77,-5.58,0.88,2.98,2.71,-0.10,12.82
5,-16,-802,11,-434,3886,0.44,-0.56,-28.32,0.11,-4.34,38.86,-5.59,0.85,3.09,2.86,-0.05,13.55
15,-12,-783,45,-352,3895,0.49,-0.58,-30.27,0.45,-3.52,38.95,-5.58,0.82,3.21,2.69,-0.09,13.86
6,-15,-764,6,-327,3903,0.48,-0.61,-31.90,0.06,-3.27,39.03,-5.57,0.79,3.34,2.83,-0.02,14.09
8,-14,-704,-12,-299,3819,0.48,-0.64,-33.00,-0.12,-2.99,38.19,-5.55,0.77,3.47,2.79,-0.01,13.84
14,-13,-694,-33,-283,3961,0.52,-0.65,-33.94,-0.33,-2.83,39.61,-5.54,0.75,3.61,2.67,-0.01,13.98
12,-7,-692,-69,-336,3908,0.54,-0.63,-34.76,-0.69,-3.36,39.08,-5.52,0.74,3.74,2.69,-0.11,14.16
7,-17,-709,-28,-330,3942,0.53,-0.67,-35.61,-0.28,-3.30,39.42,-5.50,0.71,3.88,2.76,0.07,14.50
12,-17,-817,-22,-396,3884,0.55,-0.71,-37.04,-0.22,-3.96,38.84,-5.51,0.68,4.03,2.68,0.10,15.75
12,-16,-858,9,-371,3873,0.57,-0.73,-38.57,0.09,-3.71,38.73,-5.51,0.65,4.19,2.68,0.11,16.47
18,-13,-994,-14,-415,3895,0.62,-0.74,-40.77,-0.14,-4.15,38.95,-5.53,0.62,4.35,2.58,0.08,18.15
20,-25,-1028,-2,-381,3959,0.68,-0.82,-42.97,-0.02,-3.81,39.59,-5.52,0.58,4.52,2.53,0.31,18.97
6,-12,-1041,-105,-331,3883,0.65,-0.81,-45.02,-1.05,-3.31,38.83,-5.51,0.57,4.70,2.74,0.11,19.57
27,-25,-1019,-52,-253,3943,0.75,-0.88,-46.73,-0.52,-2.53,39.43,-5.49,0.55,4.88,2.38,0.35,19.79
13,-14,-902,-66,-307,3913,0.75,-0.88,-47.56,-0.66,-3.07,39.13,-5.47,0.54,5.07,2.58,0.19,18.99
4,-20,-842,-82,-279,3842,0.70,-0.91,-47.94,-0.82,-2.79,38.42,-5.46,0.53,5.26,2.73,0.29,18.56
8,-14,-724,-118,-322,3871,0.68,-0.91,-47.56,-1.18,-3.22,38.71,-5.45,0.52,5.45,2.67,0.20,17.46
9,-12,-700,-124,-321,3937,0.67,-0.89,-47.08,-1.24,-3.21,39.37,-5.44,0.51,5.64,2.65,0.17,17.12
14,-21,-659,15,-373,3934,0.69,-0.93,-46.39,0.15,-3.73,39.34,-5.44,0.47,5.82,2.57,0.34,16.59
15,-6,-654,9,-334,3921,0.71,-0.87,-45.74,0.09,-3.34,39.21,-5.42,0.44,6.00,2.54,0.12,16.38
15,-25,-641,-10,-393,3933,0.73,-0.94,-45.08,-0.10,-3.93,39.33,-5.43,0.41,6.18,2.54,0.44,16.09
15,-21,-623,-52,-426,3969,0.75,-0.97,-44.37,-0.52,-4.26,39.69,-5.45,0.39,6.36,2.54,0.40,15.75
9,-12,-601,-17,-426,3855,0.73,-0.95,-43.60,-0.17,-4.26,38.55,-5.46,0.37,6.53,2.65,0.27,15.36
6,-12,-594,-8,-467,3877,0.69,-0.93,-42.86,-0.08,-4.67,38.77,-5.48,0.35,6.70,2.71,0.28,15.11
7,-17,-569,-68,-433,3879,0.67,-0.94,-42.05,-0.68,-4.33,38.79,-5.49,0.34,6.87,2.71,0.36,14.69
22,-8,-565,-41,-383,3929,0.73,-0.89,-41.29,-0.41,-3.83,39.29,-5.50,0.34,7.03,2.46,0.21,14.46
16,-10,-510,-11,-339,3888,0.76,-0.86,-40.27,-0.11,-3.39,38.88,-5.48,0.31,7.19,2.54,0.25,13.73
10,-3,-486,-35,-329,3846,0.74,-0.80,-39.21,-0.35,-3.29,38.46,-5.46,0.30,7.35,2.62,0.12,13.25
9,-6,-386,-66,-376,3834,0.72,-0.75,-37.64,-0.66,-3.76,38.34,-5.46,0.30,7.50,2.64,0.16,12.01
1,-9,-367,-61,-337,3911,0.66,-0.73,-36.12,-0.61,-3.37,39.11,-5.44,0.30,7.64,2.78,0.20,11.46
0,-8,-367,-24,-373,3873,0.59,-0.71,-34.74,-0.24,-3.73,38.73,-5.46,0.29,7.78,2.82,0.18,11.12
0,-5,-379,-15,-348,3874,0.53,-0.67,-33.58,-0.15,-3.48,38.74,-5.44,0.27,7.91,2.83,0.13,10.92
7,-9,-411,4,-329,3903,0.52,-0.66,-32.73,0.04,-3.29,39.03,-5.42,0.25,8.04,2.71,0.20,10.97
2,2,-425,-104,-337,3910,0.48,-0.58,-32.05,-1.04,-3.37,39.10,-5.41,0.25,8.17,2.80,0.01,10.92
10,2,-473,-180,-284,3882,0.49,-0.51,-31.73,-1.80,-2.84,38.82,-5.40,0.26,8.30,2.67,-0.02,11.24
10,-2,-484,-149,-294,3926,0.51,-0.47,-31.51,-1.49,-2.94,39.26,-5.39,0.26,8.42,2.66,0.03,11.27
11,0,-505,-162,-269,3932,0.52,-0.42,-31.44,-1.62,-2.69,39.32,-5.38,0.26,8.55,2.63,-0.01,11.42
23,-2,-520,-219,-256,3944,0.61,-0.39,-31.47,-2.19,-2.56,39.44,-5.37,0.26,8.67,2.41,0.01,11.54
7,-8,-521,-82,-377,3899,0.59,-0.40,-31.50,-0.82,-3.77,38.99,-5.37,0.27,8.80,2.67,0.10,11.55
16,-6,-510,-37,-361,3921,0.63,-0.40,-31.46,-0.37,-3.61,39.21,-5.36,0.27,8.92,2.51,0.06,11.44
8,-6,-500,-44,-416,3873,0.62,-0.40,-31.36,-0.44,-4.16,38.73,-5.37,0.27,9.05,2.65,0.07,11.32
5,-7,-492,-74,-358,3921,0.59,-0.40,-31.23,-0.74,-3.58,39.21,-5.37,0.27,9.17,2.70,0.08,11.21
18,-6,-474,-107,-409,3930,0.64,-0.40,-31.00,-1.07,-4.09,39.30,-5.37,0.27,9.30,2.49,0.06,10.99
-1,-4,-470,-113,-384,3869,0.57,-0.38,-30.76,-1.13,-3.84,38.69,-5.38,0.28,9.42,2.80,0.02,10.89
11,-5,-502,-107,-425,3896,0.58,-0.37,-30.75,-1.07,-4.25,38.96,-5.39,0.28,9.54,2.62,0.04,11.15
1,-13,-515,-107,-442,3885,0.53,-0.41,-30.82,-1.07,-4.42,38.85,-5.40,0.28,9.66,2.79,0.17,11.27
2,-7,-549,-98,-415,3899,0.49,-0.42,-31.08,-0.98,-4.15,38.99,-5.40,0.28,9.79,2.79,0.08,11.62
6,-12,-563,-147,-397,3878,0.47,-0.45,-31.41,-1.47,-3.97,38.78,-5.41,0.29,9.91,2.74,0.16,11.81
11,-15,-599,-77,-322,3841,0.49,-0.49,-31.92,-0.77,-3.22,38.41,-5.39,0.29,10.04,2.65,0.22,12.23
11,-10,-602,-28,-315,3951,0.51,-0.51,-32.40,-0.28,-3.15,39.51,-5.38,0.28,10.17,2.63,0.15,12.36
9,-15,-604,-64,-354,3915,0.51,-0.55,-32.85,-0.64,-3.54,39.15,-5.37,0.28,10.30,2.66,0.24,12.48
6,-14,-607,-55,-325,3892,0.50,-0.58,-33.26,-0.55,-3.25,38.92,-5.35,0.28,10.43,2.70,0.24,12.60
12,-6,-637,1,-414,3962,0.52,-0.56,-33.82,0.01,-4.14,39.62,-5.37,0.25,10.57,2.61,0.12,12.98
10,-8,-644,-85,-413,3871,0.53,-0.55,-34.37,-0.85,-4.13,38.71,-5.38,0.25,10.70,2.64,0.15,13.17
5,-16,-664,-40,-426,3893,0.51,-0.59,-34.98,-0.40,-4.26,38.93,-5.39,0.25,10.84,2.73,0.29,13.48
-3,-13,-673,-57,-370,3967,0.44,-0.61,-35.59,-0.57,-3.70,39.67,-5.39,0.25,10.98,2.88,0.25,13.69
4,-15,-679,-11,-366,3903,0.42,-0.64,-36.17,-0.11,-3.66,39.03,-5.38,0.21,11.13,2.77,0.31,13.88
12,-7,-688,-45,-339,3949,0.45,-0.62,-36.75,-0.45,-3.39,39.49,-5.37,0.21,11.27,2.63,0.18,14.09
16,-9,-701,-10,-352,3913,0.50,-0.61,-37.35,-0.10,-3.52,39.13,-5.35,0.19,11.42,2.54,0.22,14.33
17,-17,-714,12,-399,3876,0.56,-0.66,-37.97,0.12,-3.99,38.76,-5.36,0.16,11.57,2.52,0.37,14.58
10,3,-745,-13,-370,3907,0.56,-0.57,-38.72,-0.13,-3.70,39.07,-5.38,0.15,11.73,2.63,0.04,15.02
3,2,-773,-16,-461,3932,0.52,-0.50,-39.56,-0.16,-4.61,39.32,-5.39,0.14,11.88,2.76,0.05,15.45
8,26,-791,10,-357,3876,0.52,-0.29,-40.43,0.10,-3.57,38.76,-5.38,0.11,12.04,2.68,-0.36,15.81
8,24,-797,10,-397,3893,0.52,-0.12,-41.25,0.10,-3.97,38.93,-5.40,0.08,12.21,2.69,-0.37,16.05
21,43,-802,-48,-302,3911,0.59,0.16,-42.02,-0.48,-3.02,39.11,-5.38,0.08,12.38,2.46,-0.74,16.27
11,41,-795,-63,-327,3925,0.60,0.39,-42.67,-0.63,-3.27,39.25,-5.37,0.08,12.55,2.60,-0.79,16.36
24,9,-757,-166,-352,3940,0.69,0.41,-43.02,-1.66,-3.52,39.40,-5.36,0.08,12.72,2.37,-0.30,16.11
10,-8,-740,-124,-284,3941,0.68,0.32,-43.23,-1.24,-2.84,39.41,-5.35,0.08,12.89,2.58,-0.02,16.01
16,5,-717,-78,-265,3891,0.71,0.32,-43.28,-0.78,-2.65,38.91,-5.33,0.08,13.06,2.47,-0.21,15.81
-4,-16,-724,-52,-329,3907,0.61,0.19,-43.37,-0.52,-3.29,39.07,-5.32,0.07,13.24,2.80,0.15,15.88
16,-4,-742,-60,-228,3918,0.65,0.14,-43.56,-0.60,-2.28,39.18,-5.30,0.07,13.41,2.47,-0.02,16.07
5,-9,-744,-48,-323,3982,0.62,0.07,-43.74,-0.48,-3.23,39.82,-5.28,0.06,13.58,2.64,0.08,16.12
10,-14,-672,28,-317,3933,0.62,-0.02,-43.47,0.28,-3.17,39.33,-5.27,0.04,13.76,2.56,0.20,15.43
8,-6,-662,12,-316,3916,0.60,-0.05,-43.16,0.12,-3.16,39.16,-5.25,0.01,13.93,2.58,0.10,15.26
16,0,-611,-49,-416,3985,0.64,-0.05,-42.57,-0.49,-4.16,39.85,-5.26,0.01,14.10,2.45,0.01,14.67
10,-8,-599,-80,-399,3873,0.64,-0.09,-41.97,-0.80,-3.99,38.73,-5.26,0.01,14.26,2.55,0.14,14.40
13,-7,-544,-104,-293,3919,0.65,-0.13,-41.09,-1.04,-2.93,39.19,-5.25,0.01,14.43,2.49,0.14,13.71
3,-8,-538,-86,-289,3871,0.61,-0.16,-40.26,-0.86,-2.89,38.71,-5.24,0.01,14.59,2.65,0.17,13.45
19,1,-532,-36,-317,3953,0.66,-0.14,-39.48,-0.36,-3.17,39.53,-5.22,0.01,14.75,2.38,0.02,13.19
16,-8,-552,-97,-309,3891,0.69,-0.17,-38.90,-0.97,-3.09,38.91,-5.21,0.01,14.90,2.41,0.17,13.21
15,-9,-564,-68,-393,3978,0.71,-0.21,-38.45,-0.68,-3.93,39.78,-5.21,0.01,15.05,2.42,0.20,13.19
9,-11,-556,-140,-342,3861,0.70,-0.26,-38.00,-1.40,-3.42,38.61,-5.21,0.01,15.21,2.51,0.24,13.00
0,-22,-513,-1,-271,3883,0.63,-0.37,-37.33,-0.01,-2.71,38.83,-5.19,-0.00,15.35,2.66,0.45,12.46
17,-1,-510,-91,-335,3938,0.67,-0.34,-36.70,-0.91,-3.35,39.38,-5.18,0.00,15.50,2.39,0.12,12.27
2,-4,-541,-115,-269,3891,0.61,-0.33,-36.33,-1.15,-2.69,38.91,-5.17,0.00,15.64,2.62,0.16,12.43
10,-13,-536,-34,-291,3966,0.61,-0.37,-35.97,-0.34,-2.91,39.66,-5.15,-0.00,15.79,2.49,0.31,12.29
7,-2,-562,-124,-265,3880,0.60,-0.35,-35.80,-1.24,-2.65,38.80,-5.14,-0.00,15.93,2.54,0.14,12.46
13,-11,-559,-127,-274,3927,0.62,-0.38,-35.63,-1.27,-2.74,39.27,-5.12,-0.00,16.07,2.43,0.28,12.38
2,-13,-523,-64,-348,3942,0.57,-0.42,-35.26,-0.64,-3.48,39.42,-5.12,0.00,16.21,2.61,0.33,11.97
19,-3,-518,-102,-415,3955,0.63,-0.40,-34.89,-1.02,-4.15,39.55,-5.13,0.00,16.35,2.34,0.17,11.83
8,-8,-489,-106,-401,3861,0.61,-0.41,-34.39,-1.06,-4.01,38.61,-5.13,0.01,16.49,2.51,0.24,11.45
13,-7,-480,-83,-404,3980,0.63,-0.41,-33.88,-0.83,-4.04,39.80,-5.14,0.01,16.62,2.44,0.23,11.24
11,-3,-509,-143,-409,3942,0.63,-0.39,-33.59,-1.43,-4.09,39.42,-5.14,0.01,16.76,2.47,0.16,11.41
0,-2,-514,-92,-343,3852,0.57,-0.36,-33.37,-0.92,-3.43,38.52,-5.14,0.02,16.89,2.65,0.13,11.38
-2,-8,-504,-33,-407,3894,0.50,-0.37,-33.11,-0.33,-4.07,38.94,-5.16,0.01,17.02,2.71,0.23,11.23
10,-7,-504,-100,-404,3924,0.51,-0.38,-32.87,-1.00,-4.04,39.24,-5.16,0.02,17.15,2.53,0.21,11.16
13,-8,-506,5,-374,3968,0.54,-0.39,-32.67,0.05,-3.74,39.68,-5.18,-0.00,17.28,2.48,0.24,11.12
8,-9,-499,62,-355,3896,0.53,-0.41,-32.45,0.62,-3.55,38.96,-5.17,-0.04,17.41,2.56,0.28,10.99
10,-1,-499,-108,-357,3915,0.54,-0.37,-32.25,-1.08,-3.57,39.15,-5.17,-0.03,17.54,2.53,0.15,10.94
10,-11,-507,-2,-348,3879,0.55,-0.40,-32.11,-0.02,-3.48,38.79,-5.16,-0.03,17.67,2.52,0.31,10.96
4,-7,-495,-113,-296,3890,0.52,-0.40,-31.92,-1.13,-2.96,38.90,-5.15,-0.03,17.79,2.61,0.24,10.80
-1,-12,-491,-129,-336,3929,0.46,-0.44,-31.72,-1.29,-3.36,39.29,-5.14,-0.02,17.92,2.70,0.33,10.71
8,-3,-517,-97,-383,3915,0.46,-0.41,-31.71,-0.97,-3.83,39.15,-5.15,-0.02,18.05,2.57,0.18,10.92
8,2,-524,-115,-442,3937,0.47,-0.36,-31.73,-1.15,-4.42,39.37,-5.16,-0.01,18.17,2.57,0.09,10.98
7,-2,-537,-58,-302,3957,0.46,-0.33,-31.83,-0.58,-3.02,39.57,-5.14,-0.01,18.30,2.58,0.14,11.10
10,-4,-533,-58,-349,3817,0.48,-0.33,-31.90,-0.58,-3.49,38.17,-5.14,-0.01,18.43,2.53,0.16,11.08
17,-10,-546,-27,-287,3988,0.53,-0.35,-32.04,-0.27,-2.87,39.88,-5.12,-0.01,18.55,2.40,0.27,11.21
-3,-10,-550,-57,-278,3842,0.46,-0.38,-32.19,-0.57,-2.78,38.42,-5.11,-0.02,18.68,2.71,0.28,11.28
5,-21,-585,-25,-225,3940,0.45,-0.47,-32.54,-0.25,-2.25,39.40,-5.09,-0.03,18.81,2.59,0.48,11.65
9,5,-593,-209,-312,3971,0.46,-0.39,-32.91,-2.09,-3.12,39.71,-5.08,-0.02,18.94,2.52,0.05,11.80
27,0,-623,-106,-273,3947,0.58,-0.35,-33.42,-1.06,-2.73,39.47,-5.07,-0.02,19.08,2.20,0.12,12.17
15,-4,-621,-89,-334,4003,0.61,-0.34,-33.86,-0.89,-3.34,40.03,-5.06,-0.01,19.21,2.37,0.17,12.25
22,-2,-644,-81,-307,3910,0.68,-0.32,-34.40,-0.81,-3.07,39.10,-5.05,-0.01,19.35,2.23,0.13,12.57
6,-12,-635,19,-397,3958,0.65,-0.36,-34.84,0.19,-3.97,39.58,-5.07,-0.03,19.49,2.50,0.31,12.59
4,-12,-610,47,-299,3921,0.61,-0.40,-35.07,0.47,-2.99,39.21,-5.05,-0.06,19.63,2.53,0.34,12.43
12,-12,-597,113,-361,3912,0.62,-0.43,-35.21,1.13,-3.61,39.12,-5.05,-0.09,19.77,2.40,0.36,12.34
6,-10,-601,-56,-249,3876,0.60,-0.45,-35.35,-0.56,-2.49,38.76,-5.03,-0.09,19.91,2.49,0.34,12.40
10,-19,-611,-31,-253,3953,0.60,-0.52,-35.55,-0.31,-2.53,39.53,-5.01,-0.10,20.05,2.42,0.50,12.52
0,-14,-615,-124,-178,3928,0.54,-0.55,-35.74,-1.24,-1.78,39.28,-5.00,-0.11,20.19,2.58,0.44,12.59
21,-5,-626,-110,-365,3875,0.61,-0.53,-35.99,-1.10,-3.65,38.75,-5.00,-0.10,20.33,2.24,0.29,12.74
4,-7,-626,-105,-250,3948,0.58,-0.52,-36.21,-1.05,-2.50,39.48,-4.98,-0.10,20.48,2.50,0.32,12.78
7,-4,-628,-78,-346,3856,0.56,-0.49,-36.42,-0.78,-3.46,38.56,-4.98,-0.10,20.62,2.46,0.27,12.84
8,-5,-574,33,-434,3896,0.55,-0.47,-36.28,0.33,-4.34,38.96,-5.00,-0.12,20.77,2.46,0.29,12.34
2,-8,-541,83,-400,3940,0.51,-0.47,-35.95,0.83,-4.00,39.40,-5.01,-0.15,20.91,2.57,0.35,11.97
2,-13,-403,183,-311,3894,0.47,-0.51,-34.81,1.83,-3.11,38.94,-5.00,-0.18,21.05,2.58,0.45,10.51
6,-6,-370,54,-329,3984,0.46,-0.49,-33.59,0.54,-3.29,39.84,-4.99,-0.21,21.18,2.51,0.36,9.92
-2,-15,-390,0,-397,3926,0.40,-0.53,-32.61,0.00,-3.97,39.26,-5.01,-0.22,21.31,2.66,0.51,9.84
1,-16,-377,54,-417,3921,0.37,-0.58,-31.65,0.54,-4.17,39.21,-5.02,-0.24,21.44,2.63,0.55,9.48
-1,-10,-294,-24,-405,3930,0.33,-0.58,-30.28,-0.24,-4.05,39.30,-5.03,-0.24,21.56,2.68,0.46,8.43
6,-10,-273,-21,-471,3880,0.33,-0.58,-28.91,-0.21,-4.71,38.80,-5.05,-0.25,21.67,2.59,0.47,7.91
-1,-4,-209,-17,-398,3882,0.29,-0.55,-27.30,-0.17,-3.98,38.82,-5.06,-0.25,21.78,2.71,0.37,6.96
-5,-7,-161,31,-457,3912,0.23,-0.54,-25.55,0.31,-4.57,39.12,-5.08,-0.27,21.88,2.80,0.42,6.12
-6,-4,-59,-110,-420,3984,0.17,-0.51,-23.35,-1.10,-4.20,39.84,-5.09,-0.26,21.98,2.84,0.36,4.71
0,7,-58,-17,-435,3885,0.15,-0.42,-21.37,-0.17,-4.35,38.85,-5.10,-0.26,22.06,2.76,0.16,4.21
1,-5,-58,-36,-355,3905,0.14,-0.40,-19.59,-0.36,-3.55,39.05,-5.10,-0.25,22.14,2.75,0.34,3.76
0,-5,-54,-40,-361,3906,0.13,-0.39,-17.96,-0.40,-3.61,39.06,-5.11,-0.24,22.21,2.77,0.33,3.32
3,0,-80,-149,-470,3911,0.14,-0.35,-16.65,-1.49,-4.70,39.11,-5.12,-0.24,22.28,2.73,0.24,3.22
-4,-6,-117,-126,-436,3881,0.10,-0.36,-15.70,-1.26,-4.36,38.81,-5.13,-0.23,22.34,2.85,0.33,3.29
3,-4,-237,-120,-459,3869,0.11,-0.34,-15.58,-1.20,-4.59,38.69,-5.14,-0.22,22.40,2.75,0.29,4.27
-1,-6,-267,-126,-441,3841,0.09,-0.35,-15.65,-1.26,-4.41,38.41,-5.15,-0.21,22.46,2.82,0.31,4.54
2,0,-352,-124,-450,3937,0.09,-0.31,-16.23,-1.24,-4.50,39.37,-5.16,-0.20,22.53,2.78,0.21,5.40
-3,-16,-372,-49,-261,3800,0.07,-0.38,-16.88,-0.49,-2.61,38.00,-5.14,-0.20,22.59,2.85,0.47,5.72
2,-14,-291,77,-290,3879,0.07,-0.43,-16.96,0.77,-2.90,38.79,-5.13,-0.22,22.66,2.77,0.47,5.05
14,-8,-265,123,-279,3943,0.15,-0.43,-16.88,1.23,-2.79,39.43,-5.12,-0.24,22.73,2.56,0.39,4.81
0,-4,-240,-3,-262,3984,0.13,-0.41,-16.66,-0.03,-2.62,39.84,-5.10,-0.25,22.80,2.76,0.32,4.54
1,-8,-247,-16,-270,3891,0.13,-0.42,-16.50,-0.16,-2.70,38.91,-5.08,-0.25,22.86,2.74,0.39,4.55
8,-15,-283,-62,-237,3899,0.16,-0.47,-16.58,-0.62,-2.37,38.99,-5.07,-0.25,22.93,2.61,0.51,4.87
0,-17,-287,-77,-233,3912,0.15,-0.53,-16.67,-0.77,-2.33,39.12,-5.05,-0.24,22.99,2.73,0.55,4.92
10,-11,-341,-104,-160,3933,0.19,-0.54,-17.08,-1.04,-1.60,39.33,-5.03,-0.24,23.06,2.56,0.47,5.48
5,-14,-366,-119,-159,3902,0.20,-0.57,-17.61,-1.19,-1.59,39.02,-5.02,-0.24,23.13,2.62,0.52,5.81
17,-1,-436,-100,-39,3868,0.29,-0.52,-18.51,-1.00,-0.39,38.68,-5.00,-0.24,23.20,2.40,0.31,6.62
6,-12,-503,-48,-155,3916,0.30,-0.54,-19.72,-0.48,-1.55,39.16,-4.98,-0.24,23.28,2.56,0.48,7.49
11,7,-533,-94,-311,3871,0.33,-0.45,-21.00,-0.94,-3.11,38.71,-4.98,-0.23,23.37,2.47,0.16,8.05
14,-7,-531,-141,-382,3853,0.39,-0.44,-22.14,-1.41,-3.82,38.53,-4.98,-0.23,23.45,2.41,0.37,8.31
18,6,-565,-111,-391,3951,0.46,-0.36,-23.37,-1.11,-3.91,39.51,-4.98,-0.22,23.55,2.33,0.14,8.89
-9,-5,-577,-71,-281,3883,0.36,-0.36,-24.56,-0.71,-2.81,38.83,-4.97,-0.21,23.65,2.76,0.30,9.28
-5,-10,-663,-128,-274,3805,0.29,-0.38,-26.14,-1.28,-2.74,38.05,-4.96,-0.21,23.75,2.72,0.38,10.39
6,-8,-692,-87,-241,3923,0.30,-0.39,-27.75,-0.87,-2.41,39.23,-4.95,-0.20,23.86,2.54,0.35,11.02
9,-2,-782,-113,-228,3781,0.32,-0.37,-29.75,-1.13,-2.28,37.81,-4.94,-0.20,23.98,2.48,0.25,12.27
-2,-20,-814,0,-263,3863,0.28,-0.45,-31.74,0.00,-2.63,38.63,-4.92,-0.21,24.11,2.65,0.56,13.02
10,-1,-812,22,-273,3860,0.31,-0.41,-33.52,0.22,-2.73,38.60,-4.90,-0.23,24.24,2.45,0.27,13.43
9,-17,-803,95,-297,3919,0.34,-0.47,-35.06,0.95,-2.97,39.19,-4.89,-0.26,24.38,2.45,0.55,13.73
20,-1,-751,111,-418,3954,0.42,-0.43,-36.14,1.11,-4.18,39.54,-4.90,-0.29,24.52,2.26,0.30,13.54
6,4,-737,109,-397,3918,0.42,-0.37,-37.02,1.09,-3.97,39.18,-4.90,-0.31,24.67,2.48,0.22,13.63
15,6,-785,-59,-447,3739,0.47,-0.29,-38.11,-0.59,-4.47,37.39,-4.92,-0.32,24.82,2.33,0.17,14.29
-11,-22,-818,-75,-294,3897,0.35,-0.40,-39.29,-0.75,-2.94,38.97,-4.91,-0.32,24.98,2.76,0.63,14.85
37,6,-921,-126,-357,3842,0.54,-0.32,-40.98,-1.26,-3.57,38.42,-4.91,-0.31,25.14,1.97,0.18,16.13
9,-24,-954,-89,-251,3781,0.54,-0.44,-42.70,-0.89,-2.51,37.81,-4.89,-0.32,25.31,2.39,0.67,16.82
33,37,-1048,-150,-365,3783,0.69,-0.17,-44.82,-1.50,-3.65,37.83,-4.89,-0.31,25.49,1.98,-0.34,18.13
60,43,-1049,-110,-247,3883,0.99,0.11,-46.74,-1.10,-2.47,38.83,-4.88,-0.31,25.68,1.47,-0.52,18.59
113,104,-1043,-128,-387,3687,1.58,0.74,-48.43,-1.28,-3.87,36.87,-4.88,-0.31,25.87,0.48,-1.64,18.94
110,74,-1014,-74,-419,4010,2.09,1.11,-49.77,-0.74,-4.19,40.10,-4.88,-0.31,26.07,0.37,-1.30,19.01
41,30,-888,-25,-374,3796,2.13,1.19,-50.21,-0.25,-3.74,37.96,-4.89,-0.31,26.27,1.41,-0.65,18.04
34,17,-827,72,-435,3924,2.13,1.17,-50.23,0.72,-4.35,39.24,-4.89,-0.33,26.47,1.52,-0.44,17.52
17,22,-639,-65,-422,3938,2.02,1.19,-49.11,-0.65,-4.22,39.38,-4.90,-0.33,26.66,1.82,-0.52,15.63
11,4,-597,-4,-455,3797,1.88,1.09,-47.84,-0.04,-4.55,37.97,-4.90,-0.34,26.86,1.95,-0.21,14.95
8,-9,-453,106,-348,3885,1.74,0.93,-45.82,1.06,-3.48,38.85,-4.90,-0.37,27.04,2.04,0.06,13.22
-5,-2,-408,33,-365,3875,1.54,0.82,-43.72,0.33,-3.65,38.75,-4.91,-0.38,27.21,2.31,-0.01,12.31
-2,-6,-230,-47,-348,3976,1.37,0.70,-40.76,-0.47,-3.48,39.76,-4.91,-0.38,27.38,2.31,0.08,10.06
-1,-10,-227,-60,-349,3814,1.23,0.57,-38.06,-0.60,-3.49,38.14,-4.90,-0.37,27.53,2.34,0.18,9.36
2,1,-258,-37,-301,3927,1.12,0.52,-35.83,-0.37,-3.01,39.27,-4.89,-0.36,27.67,2.32,0.02,9.07
1,-7,-291,-66,-196,3868,1.01,0.43,-34.02,-0.66,-1.96,38.68,-4.87,-0.36,27.81,2.35,0.18,8.89
16,-1,-333,-136,-279,3900,1.01,0.38,-32.65,-1.36,-2.79,39.00,-4.86,-0.35,27.94,2.12,0.09,8.90
1,-6,-349,-37,-261,3805,0.91,0.30,-31.52,-0.37,-2.61,38.05,-4.84,-0.35,28.06,2.37,0.19,8.75
3,0,-369,14,-357,3909,0.84,0.27,-30.62,0.14,-3.57,39.09,-4.85,-0.35,28.18,2.37,0.11,8.69
13,-3,-356,-10,-324,3909,0.84,0.23,-29.73,-0.10,-3.24,39.09,-4.85,-0.35,28.30,2.21,0.17,8.35
19,10,-340,-22,-374,3862,0.87,0.27,-28.83,-0.22,-3.74,38.62,-4.85,-0.34,28.42,2.12,-0.05,7.99
1,2,-338,15,-314,3910,0.79,0.25,-28.01,0.15,-3.14,39.10,-4.83,-0.34,28.53,2.40,0.08,7.76
-4,-5,-344,-99,-321,3749,0.68,0.20,-27.30,-0.99,-3.21,37.49,-4.83,-0.33,28.64,2.51,0.20,7.63
-2,-18,-341,-24,-296,3977,0.60,0.07,-26.65,-0.24,-2.96,39.77,-4.82,-0.33,28.74,2.50,0.43,7.44
-2,-11,-390,-91,-297,3883,0.53,-0.01,-26.37,-0.91,-2.97,38.83,-4.81,-0.32,28.85,2.51,0.34,7.77
-1,-6,-398,-123,-241,3892,0.47,-0.04,-26.16,-1.23,-2.41,38.92,-4.80,-0.31,28.95,2.51,0.28,7.78
1,-13,-482,-221,-146,3950,0.43,-0.12,-26.48,-2.21,-1.46,39.50,-4.78,-0.31,29.06,2.48,0.40,8.57
15,-7,-500,-129,-223,3913,0.48,-0.15,-26.88,-1.29,-2.23,39.13,-4.77,-0.30,29.17,2.25,0.32,8.81
8,7,-564,-115,-253,3866,0.48,-0.09,-27.64,-1.15,-2.53,38.66,-4.76,-0.29,29.28,2.35,0.08,9.53
3,7,-578,-213,-262,3950,0.45,-0.04,-28.40,-2.13,-2.62,39.50,-4.75,-0.29,29.39,2.43,0.06,9.83
-10,-1,-595,43,-374,3904,0.34,-0.04,-29.19,0.43,-3.74,39.04,-4.77,-0.30,29.51,2.67,0.19,10.16
4,-4,-574,42,-377,3959,0.33,-0.06,-29.77,0.42,-3.77,39.59,-4.78,-0.32,29.63,2.47,0.26,10.12
1,-12,-478,-40,-415,3747,0.31,-0.13,-29.71,-0.40,-4.15,37.47,-4.80,-0.32,29.74,2.53,0.40,9.28
-4,-17,-477,29,-396,3959,0.25,-0.22,-29.65,0.29,-3.96,39.59,-4.81,-0.33,29.86,2.63,0.51,9.25
0,-8,-473,11,-394,3913,0.23,-0.25,-29.57,0.11,-3.94,39.13,-4.83,-0.34,29.98,2.59,0.39,9.19
1,-5,-453,-21,-389,3899,0.21,-0.25,-29.38,-0.21,-3.89,38.99,-4.84,-0.34,30.10,2.58,0.34,8.96
-6,-33,-422,176,-335,3928,0.15,-0.43,-29.01,1.76,-3.35,39.28,-4.84,-0.37,30.21,2.71,0.84,8.60
18,-11,-398,188,-437,3905,0.25,-0.45,-28.54,1.88,-4.37,39.05,-4.85,-0.40,30.33,2.32,0.53,8.27
5,-9,-331,23,-297,3899,0.25,-0.46,-27.70,0.23,-2.97,38.99,-4.83,-0.41,30.44,2.50,0.50,7.49
0,-2,-326,-83,-300,3908,0.23,-0.43,-26.92,-0.83,-3.00,39.08,-4.82,-0.40,30.54,2.58,0.38,7.25
0,0,-358,-231,-35,4095,0.20,-0.39,-26.41,-2.31,-0.35,40.95,-4.81,-0.40,30.65,2.58,0.34,7.39
26,16,-401,-296,-138,3877,0.34,-0.25,-26.22,-2.96,-1.38,38.77,-4.80,-0.39,30.75,2.14,0.05,7.70
11,-7,-610,-133,-171,3904,0.38,-0.27,-27.32,-1.33,-1.71,39.04,-4.78,-0.39,30.86,2.35,0.40,9.73
20,-11,-640,-131,-166,3874,0.46,-0.31,-28.49,-1.31,-1.66,38.74,-4.77,-0.39,30.97,2.18,0.48,10.27
15,0,-655,-207,-277,3919,0.51,-0.28,-29.64,-2.07,-2.77,39.19,-4.76,-0.38,31.09,2.23,0.29,10.67
3,-19,-639,-115,-317,3927,0.47,-0.36,-30.57,-1.15,-3.17,39.27,-4.75,-0.37,31.21,2.42,0.61,10.75
8,0,-572,-36,-388,3957,0.47,-0.33,-31.00,-0.36,-3.88,39.57,-4.76,-0.37,31.34,2.35,0.31,10.28
-10,-5,-555,-17,-474,3877,0.37,-0.33,-31.29,-0.17,-4.74,38.77,-4.78,-0.38,31.46,2.67,0.38,10.20
4,-10,-466,-36,-331,3943,0.35,-0.35,-31.00,-0.36,-3.31,39.43,-4.78,-0.37,31.59,2.46,0.47,9.37
13,6,-455,-109,-344,3913,0.40,-0.28,-30.68,-1.09,-3.44,39.13,-4.78,-0.37,31.71,2.31,0.20,9.19
4,2,-423,-26,-274,3923,0.38,-0.24,-30.19,-0.26,-2.74,39.23,-4.76,-0.36,31.83,2.44,0.24,8.79
7,-2,-418,-73,-293,3865,0.39,-0.23,-29.72,-0.73,-2.93,38.65,-4.75,-0.36,31.95,2.39,0.30,8.62
1,4,-409,-47,-293,3860,0.35,-0.18,-29.24,-0.47,-2.93,38.60,-4.75,-0.35,32.06,2.49,0.19,8.42
5,-3,-403,18,-291,3903,0.35,-0.18,-28.78,0.18,-2.91,39.03,-4.73,-0.36,32.18,2.42,0.30,8.24
5,0,-392,-39,-278,3885,0.35,-0.16,-28.29,-0.39,-2.78,38.85,-4.71,-0.35,32.29,2.41,0.24,8.02
5,-6,-396,-75,-318,3940,0.34,-0.18,-27.88,-0.75,-3.18,39.40,-4.71,-0.34,32.40,2.41,0.34,7.95
5,-1,-430,-33,-281,3900,0.34,-0.17,-27.71,-0.33,-2.81,39.00,-4.70,-0.34,32.51,2.40,0.25,8.19
4,-7,-436,5,-326,3953,0.33,-0.20,-27.60,0.05,-3.26,39.53,-4.70,-0.33,32.62,2.42,0.35,8.20
12,2,-436,34,-361,3886,0.37,-0.17,-27.50,0.34,-3.61,38.86,-4.71,-0.35,32.73,2.30,0.21,8.17
-5,-9,-419,-24,-292,3892,0.30,-0.20,-27.31,-0.24,-2.92,38.92,-4.70,-0.34,32.84,2.57,0.39,7.97
12,-4,-294,98,-403,3913,0.34,-0.21,-26.37,0.98,-4.03,39.13,-4.71,-0.36,32.95,2.30,0.32,6.67
-9,-8,-272,86,-365,3845,0.25,-0.24,-25.39,0.86,-3.65,38.45,-4.72,-0.39,33.05,2.66,0.41,6.24
10,-11,-249,6,-312,3924,0.29,-0.28,-24.37,0.06,-3.12,39.24,-4.71,-0.38,33.14,2.35,0.46,5.79
6,-10,-249,35,-356,3901,0.30,-0.31,-23.45,0.35,-3.56,39.01,-4.73,-0.39,33.24,2.42,0.46,5.55
1,-18,-283,-133,-345,3941,0.27,-0.39,-22.83,-1.33,-3.45,39.41,-4.73,-0.38,33.33,2.50,0.60,5.68
5,-23,-325,-148,-232,3877,0.28,-0.49,-22.53,-1.48,-2.32,38.77,-4.72,-0.38,33.42,2.43,0.71,5.96
5,-9,-446,-121,-310,3938,0.28,-0.50,-23.00,-1.21,-3.10,39.38,-4.71,-0.37,33.51,2.43,0.49,7.09
5,-4,-466,-58,-290,3896,0.28,-0.47,-23.54,-0.58,-2.90,38.96,-4.71,-0.36,33.60,2.43,0.40,7.39
7,-8,-514,-81,-350,3908,0.30,-0.47,-24.32,-0.81,-3.50,39.08,-4.71,-0.35,33.70,2.39,0.46,7.98
9,0,-530,-60,-206,3961,0.32,-0.43,-25.12,-0.60,-2.06,39.61,-4.69,-0.35,33.80,2.34,0.32,8.31
3,9,-520,-16,-372,3857,0.31,-0.33,-25.78,-0.16,-3.72,38.57,-4.70,-0.35,33.90,2.45,0.16,8.38
-1,2,-503,-28,-420,3894,0.27,-0.28,-26.27,-0.28,-4.20,38.94,-4.72,-0.35,34.01,2.53,0.25,8.35
9,11,-379,-131,-404,3964,0.30,-0.19,-25.96,-1.31,-4.04,39.64,-4.73,-0.34,34.11,2.37,0.08,7.21
-1,1,-349,-54,-426,3811,0.26,-0.16,-25.49,-0.54,-4.26,38.11,-4.74,-0.34,34.21,2.54,0.22,6.84
3,6,-273,52,-400,3920,0.26,-0.11,-24.61,0.52,-4.00,39.20,-4.75,-0.36,34.31,2.49,0.14,5.97
1,3,-254,-4,-382,3904,0.24,-0.08,-23.70,-0.04,-3.82,39.04,-4.77,-0.36,34.40,2.54,0.18,5.58
5,5,-243,46,-309,3929,0.24,-0.04,-22.81,0.46,-3.09,39.29,-4.76,-0.38,34.50,2.47,0.15,5.26
8,4,-245,-59,-283,3904,0.27,-0.01,-22.02,-0.59,-2.83,39.04,-4.75,-0.37,34.58,2.41,0.15,5.07
3,-6,-370,-27,-255,3987,0.26,-0.05,-22.08,-0.27,-2.55,39.87,-4.73,-0.37,34.67,2.48,0.31,6.14
10,1,-410,2,-259,3878,0.29,-0.04,-22.37,0.02,-2.59,38.78,-4.71,-0.37,34.76,2.35,0.20,6.55
6,-4,-496,-53,-218,3876,0.30,-0.06,-23.16,-0.53,-2.18,38.76,-4.69,-0.37,34.85,2.40,0.28,7.46
-4,-1,-512,-53,-279,3897,0.25,-0.06,-23.97,-0.53,-2.79,38.97,-4.68,-0.36,34.95,2.56,0.23,7.79
13,4,-534,-160,-332,3843,0.30,-0.03,-24.83,-1.60,-3.32,38.43,-4.68,-0.35,35.05,2.29,0.14,8.18
5,-2,-556,-12,-359,3919,0.30,-0.04,-25.74,-0.12,-3.59,39.19,-4.70,-0.34,35.15,2.41,0.23,8.58
20,6,-601,26,-210,3888,0.39,0.00,-26.83,0.26,-2.10,38.88,-4.67,-0.35,35.26,2.15,0.10,9.23
5,2,-594,-4,-212,3900,0.38,0.01,-27.77,-0.04,-2.12,39.00,-4.65,-0.36,35.37,2.37,0.16,9.39
5,17,-532,42,-380,3834,0.38,0.12,-28.24,0.42,-3.80,38.34,-4.67,-0.37,35.48,2.38,-0.09,8.97
-11,-10,-492,85,-376,3976,0.27,0.04,-28.41,0.85,-3.76,39.76,-4.68,-0.39,35.59,2.66,0.36,8.67
-6,-7,-429,-6,-241,3937,0.21,-0.00,-28.19,-0.06,-2.41,39.37,-4.66,-0.40,35.71,2.59,0.33,8.07
-3,-1,-418,-10,-288,3902,0.17,-0.01,-27.92,-0.10,-2.88,39.02,-4.65,-0.39,35.82,2.55,0.23,7.91
10,-6,-376,-94,-157,3914,0.21,-0.04,-27.42,-0.94,-1.57,39.14,-4.63,-0.39,35.93,2.33,0.32,7.42
12,-5,-397,-3,-180,3861,0.26,-0.07,-27.10,-0.03,-1.80,38.61,-4.61,-0.39,36.04,2.27,0.31,7.51
7,-6,-435,-31,-221,3932,0.28,-0.10,-27.05,-0.31,-2.21,39.32,-4.60,-0.39,36.14,2.33,0.34,7.81
-7,-2,-434,-81,-320,3931,0.21,-0.10,-26.99,-0.81,-3.20,39.31,-4.59,-0.38,36.25,2.57,0.27,7.78
2,10,-390,-3,-349,3960,0.20,-0.03,-26.67,-0.03,-3.49,39.60,-4.61,-0.38,36.36,2.44,0.07,7.32
11,17,-324,69,-350,3860,0.25,0.08,-25.98,0.69,-3.50,38.60,-4.62,-0.40,36.46,2.30,-0.06,6.59
1,2,-216,129,-374,3891,0.23,0.08,-24.70,1.29,-3.74,38.91,-4.62,-0.43,36.56,2.46,0.18,5.35
-3,0,-190,52,-394,3916,0.19,0.07,-23.39,0.52,-3.94,39.16,-4.64,-0.44,36.65,2.54,0.22,4.80
-3,4,-139,-51,-313,3951,0.15,0.09,-21.90,-0.51,-3.13,39.51,-4.64,-0.43,36.74,2.55,0.15,3.99
0,4,-142,-57,-273,3920,0.14,0.10,-20.57,-0.57,-2.73,39.20,-4.63,-0.42,36.82,2.50,0.14,3.69
6,-2,-149,-3,-213,3982,0.16,0.08,-19.42,-0.03,-2.13,39.82,-4.61,-0.42,36.90,2.39,0.23,3.46
11,4,-170,-11,-199,3887,0.21,0.10,-18.52,-0.11,-1.99,38.87,-4.59,-0.42,36.97,2.29,0.14,3.41
8,0,-185,-24,-271,3917,0.24,0.09,-17.80,-0.24,-2.71,39.17,-4.58,-0.41,37.04,2.32,0.20,3.35
1,1,-180,-63,-294,3878,0.22,0.09,-17.11,-0.63,-2.94,38.78,-4.57,-0.39,37.11,2.43,0.18,3.14
10,-2,-146,-23,-358,3944,0.26,0.07,-16.29,-0.23,-3.58,39.44,-4.58,-0.39,37.18,2.29,0.22,2.64
6,-1,-131,-55,-309,3911,0.27,0.05,-15.46,-0.55,-3.09,39.11,-4.58,-0.37,37.24,2.35,0.20,2.31
7,-10,-180,-167,-325,3864,0.29,-0.01,-15.01,-1.67,-3.25,38.64,-4.58,-0.36,37.30,2.33,0.35,2.61
4,-2,-204,-114,-289,3888,0.28,-0.02,-14.76,-1.14,-2.89,38.88,-4.58,-0.35,37.36,2.37,0.23,2.75
4,4,-207,58,-302,3878,0.28,0.00,-14.54,0.58,-3.02,38.78,-4.57,-0.37,37.42,2.37,0.14,2.71
-6,-7,-195,46,-260,3900,0.21,-0.04,-14.28,0.46,-2.60,39.00,-4.55,-0.38,37.47,2.53,0.33,2.54
-6,-7,-202,10,-238,3884,0.16,-0.08,-14.08,0.10,-2.38,38.84,-4.53,-0.38,37.53,2.54,0.34,2.55
-3,-5,-198,10,-263,3907,0.12,-0.10,-13.88,0.10,-2.63,39.07,-4.52,-0.38,37.58,2.49,0.32,2.46
-2,-7,-187,-6,-394,3932,0.10,-0.13,-13.64,-0.06,-3.94,39.32,-4.53,-0.38,37.64,2.49,0.36,2.31
-4,-8,-174,-42,-384,3891,0.06,-0.17,-13.33,-0.42,-3.84,38.91,-4.54,-0.37,37.69,2.54,0.38,2.12
-3,-4,-117,-13,-376,3886,0.04,-0.18,-12.71,-0.13,-3.76,38.86,-4.56,-0.37,37.74,2.54,0.32,1.48
-1,-1,-95,-41,-333,3897,0.03,-0.17,-12.02,-0.41,-3.33,38.97,-4.57,-0.35,37.79,2.52,0.26,1.12
-1,1,-70,-44,-360,3904,0.02,-0.14,-11.25,-0.44,-3.60,39.04,-4.58,-0.34,37.83,2.53,0.22,0.71
0,3,-60,-59,-364,3901,0.02,-0.11,-10.49,-0.59,-3.64,39.01,-4.58,-0.33,37.88,2.52,0.17,0.44
1,2,-44,-42,-290,3914,0.02,-0.09,-9.71,-0.42,-2.90,39.14,-4.58,-0.32,37.92,2.50,0.17,0.11
2,1,-50,-41,-280,3895,0.03,-0.07,-9.04,-0.41,-2.80,38.95,-4.57,-0.30,37.95,2.47,0.17,-0.01
3,-1,-72,-2,-273,3898,0.05,-0.07,-8.58,-0.02,-2.73,38.98,-4.55,-0.30,37.99,2.44,0.20,0.06
2,-1,-71,-15,-304,3908,0.05,-0.07,-8.15,-0.15,-3.04,39.08,-4.55,-0.28,38.02,2.46,0.19,-0.05
4,-5,-84,-46,-267,3921,0.07,-0.09,-7.85,-0.46,-2.67,39.21,-4.54,-0.27,38.05,2.41,0.25,-0.02
1,-2,-87,-19,-258,3894,0.07,-0.10,-7.60,-0.19,-2.58,38.94,-4.52,-0.26,38.08,2.45,0.20,-0.06
0,1,-88,-39,-334,3931,0.07,-0.08,-7.37,-0.39,-3.34,39.31,-4.53,-0.25,38.11,2.47,0.15,-0.11
3,-3,-87,-26,-340,3891,0.08,-0.09,-7.17,-0.26,-3.40,38.91,-4.54,-0.24,38.14,2.43,0.20,-0.17
-2,1,-35,-42,-405,3909,0.06,-0.08,-6.66,-0.42,-4.05,39.09,-4.56,-0.23,38.16,2.52,0.13,-0.74
-1,0,-25,-51,-382,3899,0.05,-0.07,-6.15,-0.51,-3.82,38.99,-4.57,-0.22,38.19,2.51,0.14,-0.95
-3,-1,-4,-33,-324,3896,0.02,-0.07,-5.56,-0.33,-3.24,38.96,-4.57,-0.20,38.21,2.55,0.15,-1.27
-3,-1,-2,-30,-307,3900,0.00,-0.07,-5.01,-0.30,-3.07,39.00,-4.57,-0.19,38.23,2.56,0.14,-1.42
-3,-2,-1,-22,-311,3897,-0.02,-0.07,-4.52,-0.22,-3.11,38.97,-4.57,-0.17,38.25,2.56,0.15,-1.56
-2,1,0,-20,-319,3895,-0.03,-0.06,-4.07,-0.20,-3.19,38.95,-4.58,-0.15,38.26,2.56,0.09,-1.68
-3,7,-7,-11,-273,3888,-0.04,-0.01,-3.70,-0.11,-2.73,38.88,-4.56,-0.15,38.28,2.57,-0.02,-1.71
2,9,-10,-16,-272,3867,-0.03,0.05,-3.39,-0.16,-2.72,38.67,-4.54,-0.14,38.29,2.48,-0.08,-1.76
4,14,-22,-46,-297,3919,0.00,0.13,-3.19,-0.46,-2.97,39.19,-4.54,-0.12,38.31,2.44,-0.19,-1.71
3,6,-20,-26,-319,3915,0.02,0.15,-2.99,-0.26,-3.19,39.15,-4.54,-0.10,38.32,2.45,-0.08,-1.78
5,-14,-41,19,-176,3869,0.05,0.05,-2.94,0.19,-1.76,38.69,-4.53,-0.10,38.33,2.40,0.25,-1.61
-12,-7,-56,-10,-165,3952,-0.03,0.00,-2.99,-0.10,-1.65,39.52,-4.51,-0.10,38.34,2.67,0.16,-1.47
-3,-6,-165,-21,-172,3943,-0.05,-0.03,-3.70,-0.21,-1.72,39.43,-4.49,-0.10,38.36,2.53,0.16,-0.38
1,-10,-175,39,-208,3927,-0.03,-0.09,-4.40,0.39,-2.08,39.27,-4.47,-0.11,38.37,2.46,0.24,-0.12
1,-2,-145,11,-338,3937,-0.03,-0.10,-4.84,0.11,-3.38,39.37,-4.49,-0.11,38.39,2.46,0.12,-0.27
4,-3,-144,32,-305,3916,0.00,-0.10,-5.23,0.32,-3.05,39.16,-4.49,-0.13,38.41,2.41,0.15,-0.18
-1,3,-113,4,-334,3932,-0.00,-0.08,-5.40,0.04,-3.34,39.32,-4.51,-0.13,38.44,2.50,0.05,-0.40
0,10,-103,13,-348,3850,-0.00,-0.01,-5.49,0.13,-3.48,38.50,-4.52,-0.13,38.46,2.49,-0.08,-0.47
-1,0,-63,-23,-373,3923,-0.01,-0.01,-5.32,-0.23,-3.73,39.23,-4.54,-0.13,38.48,2.52,0.07,-0.85
-1,5,-45,-48,-352,3930,-0.02,0.03,-5.07,-0.48,-3.52,39.30,-4.55,-0.11,38.50,2.52,-0.02,-1.07
3,7,2,-33,-376,3917,0.00,0.07,-4.55,-0.33,-3.76,39.17,-4.57,-0.10,38.52,2.46,-0.07,-1.59
1,6,9,-41,-348,3896,0.01,0.10,-4.04,-0.41,-3.48,38.96,-4.58,-0.09,38.53,2.50,-0.07,-1.78
1,1,-5,-54,-307,3907,0.02,0.09,-3.66,-0.54,-3.07,39.07,-4.58,-0.07,38.55,2.50,-0.00,-1.75
6,-6,-10,-117,-383,3841,0.05,0.05,-3.36,-1.17,-3.83,38.41,-4.59,-0.06,38.56,2.42,0.11,-1.79
0,4,-3,6,-288,3914,0.05,0.07,-3.04,0.06,-2.88,39.14,-4.57,-0.06,38.57,2.50,-0.05,-1.93
0,6,1,-11,-284,3916,0.04,0.10,-2.73,-0.11,-2.84,39.16,-4.55,-0.05,38.58,2.49,-0.09,-2.04
4,5,1,-10,-307,3906,0.06,0.12,-2.45,-0.10,-3.07,39.06,-4.55,-0.04,38.59,2.42,-0.09,-2.11
3,5,5,-5,-314,3902,0.07,0.14,-2.18,-0.05,-3.14,39.02,-4.55,-0.02,38.60,2.44,-0.11,-2.21
0,5,22,-28,-332,3905,0.07,0.15,-1.82,-0.28,-3.32,39.05,-4.56,-0.00,38.61,2.49,-0.12,-2.44
0,4,26,-24,-315,3906,0.06,0.16,-1.48,-0.24,-3.15,39.06,-4.57,0.01,38.62,2.49,-0.12,-2.56
-1,5,23,-28,-296,3903,0.05,0.18,-1.19,-0.28,-2.96,39.03,-4.56,0.03,38.62,2.51,-0.15,-2.60
1,5,25,-19,-301,3903,0.05,0.19,-0.92,-0.19,-3.01,39.03,-4.55,0.05,38.62,2.47,-0.16,-2.69
1,0,27,-52,-330,3909,0.05,0.17,-0.67,-0.52,-3.30,39.09,-4.55,0.06,38.63,2.47,-0.09,-2.77
2,0,23,-63,-326,3917,0.06,0.15,-0.46,-0.63,-3.26,39.17,-4.56,0.08,38.63,2.46,-0.09,-2.79
-1,-3,3,-61,-293,3934,0.05,0.12,-0.39,-0.61,-2.93,39.34,-4.55,0.10,38.63,2.50,-0.05,-2.63
2,-1,4,-55,-295,3919,0.05,0.10,-0.33,-0.55,-2.95,39.19,-4.54,0.12,38.63,2.45,-0.08,-2.66
5,5,1,-25,-295,3908,0.08,0.12,-0.29,-0.25,-2.95,39.08,-4.53,0.13,38.63,2.39,-0.19,-2.64
2,6,3,-15,-288,3892,0.08,0.15,-0.24,-0.15,-2.88,38.92,-4.51,0.14,38.63,2.43,-0.21,-2.67
3,3,-4,-15,-243,3896,0.09,0.15,-0.24,-0.15,-2.43,38.96,-4.50,0.14,38.64,2.40,-0.17,-2.61
4,0,-14,2,-247,3896,0.11,0.13,-0.31,0.02,-2.47,38.96,-4.48,0.14,38.64,2.37,-0.12,-2.51
2,-3,-28,-10,-271,3907,0.11,0.10,-0.45,-0.10,-2.71,39.07,-4.46,0.14,38.64,2.39,-0.06,-2.36
2,-4,-34,-15,-262,3896,0.11,0.07,-0.61,-0.15,-2.62,38.96,-4.44,0.14,38.64,2.38,-0.04,-2.27
2,3,-44,-56,-365,3909,0.11,0.08,-0.82,-0.56,-3.65,39.09,-4.45,0.15,38.64,2.39,-0.15,-2.13
3,3,-34,-54,-374,3924,0.12,0.09,-0.94,-0.54,-3.74,39.24,-4.47,0.16,38.65,2.38,-0.16,-2.19
1,2,-21,-58,-342,3887,0.11,0.09,-0.98,-0.58,-3.42,38.87,-4.48,0.17,38.65,2.41,-0.16,-2.29
1,2,-18,-48,-339,3900,0.11,0.10,-0.99,-0.48,-3.39,39.00,-4.49,0.19,38.66,2.42,-0.16,-2.31
-1,-1,-10,-26,-327,3903,0.09,0.08,-0.95,-0.26,-3.27,39.03,-4.51,0.20,38.66,2.47,-0.12,-2.39
0,-3,-8,-30,-334,3903,0.08,0.05,-0.90,-0.30,-3.34,39.03,-4.52,0.21,38.66,2.46,-0.09,-2.42
0,-3,-5,-37,-298,3909,0.07,0.03,-0.84,-0.37,-2.98,39.09,-4.51,0.22,38.67,2.46,-0.09,-2.46
3,-1,-5,-32,-287,3913,0.08,0.02,-0.79,-0.32,-2.87,39.13,-4.50,0.24,38.67,2.40,-0.12,-2.47
-1,1,-15,-30,-261,3933,0.07,0.03,-0.80,-0.30,-2.61,39.33,-4.48,0.24,38.67,2.46,-0.15,-2.38
-4,-12,-30,-39,-275,3880,0.04,-0.05,-0.91,-0.39,-2.75,38.80,-4.47,0.25,38.68,2.51,0.06,-2.23
-5,1,-100,-61,-178,3858,0.00,-0.04,-1.42,-0.61,-1.78,38.58,-4.45,0.26,38.68,2.52,-0.14,-1.51
0,-4,-108,-25,-241,3976,0.00,-0.06,-1.94,-0.25,-2.41,39.76,-4.43,0.26,38.69,2.44,-0.06,-1.32
3,-7,-120,17,-203,3918,0.02,-0.10,-2.48,0.17,-2.03,39.18,-4.41,0.25,38.70,2.38,-0.00,-1.08
3,-8,-137,13,-217,3888,0.04,-0.14,-3.07,0.13,-2.17,38.88,-4.40,0.24,38.71,2.36,0.03,-0.79
3,5,-135,1,-355,3859,0.05,-0.09,-3.58,0.01,-3.55,38.59,-4.41,0.24,38.73,2.37,-0.18,-0.69
-1,3,-121,1,-385,3954,0.04,-0.06,-3.96,0.01,-3.85,39.54,-4.43,0.23,38.74,2.44,-0.15,-0.71
-4,-9,-101,-20,-297,3880,0.01,-0.11,-4.18,-0.20,-2.97,38.80,-4.42,0.24,38.76,2.49,0.04,-0.83
-1,-4,-99,-27,-300,3873,0.01,-0.13,-4.37,-0.27,-3.00,38.73,-4.42,0.26,38.78,2.45,-0.04,-0.80
6,-4,-79,-11,-371,3957,0.04,-0.14,-4.41,-0.11,-3.71,39.57,-4.44,0.26,38.79,2.34,-0.04,-0.96
2,-2,-58,8,-410,3855,0.05,-0.14,-4.33,0.08,-4.10,38.55,-4.46,0.25,38.81,2.41,-0.07,-1.16
3,0,0,2,-301,3913,0.06,-0.12,-3.89,0.02,-3.01,39.13,-4.45,0.23,38.83,2.38,-0.09,-1.76
1,1,6,22,-270,3885,0.06,-0.10,-3.47,0.22,-2.70,38.85,-4.44,0.21,38.84,2.41,-0.10,-1.92
1,0,4,19,-242,3884,0.06,-0.09,-3.10,0.19,-2.42,38.84,-4.42,0.20,38.85,2.40,-0.08,-1.99
2,0,0,7,-245,3911,0.07,-0.08,-2.79,0.07,-2.45,39.11,-4.41,0.20,38.86,2.37,-0.08,-2.03
2,-9,-26,-84,-328,3874,0.07,-0.13,-2.67,-0.84,-3.28,38.74,-4.41,0.21,38.87,2.37,0.06,-1.84
0,-7,-38,2,-264,3948,0.07,-0.16,-2.63,0.02,-2.64,39.48,-4.40,0.20,38.88,2.40,0.04,-1.75
1,3,15,32,-316,3907,0.07,-0.13,-2.28,0.32,-3.16,39.07,-4.40,0.19,38.89,2.39,-0.11,-2.29
-2,2,25,-5,-331,3934,0.05,-0.10,-1.90,-0.05,-3.31,39.34,-4.42,0.18,38.90,2.45,-0.10,-2.47
-1,-1,36,-17,-309,3919,0.04,-0.10,-1.49,-0.17,-3.09,39.19,-4.43,0.19,38.91,2.44,-0.06,-2.66
-1,1,40,-20,-307,3892,0.03,-0.08,-1.09,-0.20,-3.07,38.92,-4.45,0.20,38.91,2.45,-0.10,-2.79
-2,3,41,-28,-308,3895,0.01,-0.05,-0.74,-0.28,-3.08,38.95,-4.45,0.22,38.91,2.48,-0.15,-2.89
-2,4,45,-33,-331,3877,-0.00,-0.03,-0.39,-0.33,-3.31,38.77,-4.47,0.23,38.92,2.49,-0.18,-3.01
-3,5,39,-107,-326,3903,-0.02,0.01,-0.11,-1.07,-3.26,39.03,-4.47,0.25,38.92,2.51,-0.21,-3.03
-1,4,35,-89,-337,3918,-0.02,0.03,0.11,-0.89,-3.37,39.18,-4.48,0.26,38.92,2.49,-0.22,-3.05
-1,4,32,-50,-314,3909,-0.03,0.05,0.30,-0.50,-3.14,39.09,-4.48,0.28,38.91,2.49,-0.23,-3.07
-1,4,36,-39,-314,3902,-0.03,0.07,0.49,-0.39,-3.14,39.02,-4.49,0.30,38.91,2.49,-0.25,-3.15
-1,4,36,-57,-319,3920,-0.03,0.09,0.66,-0.57,-3.19,39.20,-4.50,0.32,38.91,2.50,-0.26,-3.19
1,5,31,-53,-291,3930,-0.02,0.11,0.78,-0.53,-2.91,39.30,-4.49,0.34,38.91,2.46,-0.29,-3.18
1,8,38,-14,-293,3906,-0.02,0.15,0.94,-0.14,-2.93,39.06,-4.47,0.33,38.90,2.45,-0.35,-3.28
3,8,44,-20,-305,3921,0.00,0.18,1.11,-0.20,-3.05,39.21,-4.46,0.31,38.90,2.41,-0.35,-3.37
3,5,59,1,-294,3884,0.02,0.19,1.36,0.01,-2.94,38.84,-4.45,0.30,38.89,2.40,-0.30,-3.56
1,5,62,3,-291,3881,0.03,0.21,1.60,0.03,-2.91,38.81,-4.45,0.28,38.89,2.42,-0.29,-3.64
2,4,39,-67,-302,3885,0.04,0.21,1.68,-0.67,-3.02,38.85,-4.45,0.30,38.88,2.40,-0.29,-3.47
1,3,29,-54,-298,3889,0.04,0.21,1.69,-0.54,-2.98,38.89,-4.44,0.32,38.87,2.42,-0.28,-3.38
0,3,12,-28,-295,3895,0.03,0.20,1.59,-0.28,-2.95,38.95,-4.43,0.33,38.87,2.43,-0.29,-3.21
-1,3,10,-25,-305,3894,0.02,0.20,1.49,-0.25,-3.05,38.94,-4.44,0.34,38.86,2.45,-0.30,-3.17
-1,1,2,-82,-356,3912,0.02,0.19,1.36,-0.82,-3.56,39.12,-4.46,0.36,38.86,2.46,-0.27,-3.07
-3,2,0,-67,-351,3907,-0.00,0.18,1.22,-0.67,-3.51,39.07,-4.47,0.37,38.85,2.50,-0.29,-3.02
-3,-2,8,-58,-341,3909,-0.02,0.15,1.15,-0.58,-3.41,39.09,-4.48,0.39,38.85,2.52,-0.23,-3.07
-2,-1,8,-49,-316,3913,-0.03,0.13,1.08,-0.49,-3.16,39.13,-4.49,0.40,38.84,2.51,-0.25,-3.05
-3,1,13,1,-312,3911,-0.05,0.12,1.05,0.01,-3.12,39.11,-4.49,0.39,38.84,2.53,-0.27,-3.09
-2,1,17,4,-323,3895,-0.05,0.12,1.05,0.04,-3.23,38.95,-4.50,0.37,38.83,2.52,-0.26,-3.12
-3,-2,32,20,-301,3904,-0.07,0.09,1.14,0.20,-3.01,39.04,-4.50,0.35,38.83,2.54,-0.19,-3.27
-3,-2,39,20,-304,3914,-0.08,0.07,1.27,0.20,-3.04,39.14,-4.50,0.34,38.83,2.54,-0.18,-3.36
-3,3,79,34,-280,3909,-0.09,0.08,1.62,0.34,-2.80,39.09,-4.49,0.32,38.82,2.54,-0.25,-3.79
0,2,89,31,-277,3927,-0.08,0.09,2.00,0.31,-2.77,39.27,-4.48,0.31,38.81,2.49,-0.23,-3.96
4,7,128,-2,-315,3929,-0.05,0.12,2.58,-0.02,-3.15,39.29,-4.49,0.29,38.80,2.42,-0.30,-4.44
3,6,144,14,-272,3922,-0.02,0.15,3.20,0.14,-2.72,39.22,-4.47,0.28,38.79,2.42,-0.29,-4.72
0,2,186,24,-299,3913,-0.02,0.14,4.02,0.24,-2.99,39.13,-4.47,0.26,38.77,2.47,-0.22,-5.28
0,-6,183,26,-278,3932,-0.02,0.09,4.73,0.26,-2.78,39.32,-4.46,0.25,38.75,2.46,-0.07,-5.43
-1,-3,162,-58,-304,3912,-0.02,0.06,5.25,-0.58,-3.04,39.12,-4.46,0.27,38.73,2.48,-0.12,-5.37
-2,-3,160,-59,-322,3894,-0.03,0.04,5.70,-0.59,-3.22,38.94,-4.47,0.29,38.71,2.50,-0.12,-5.47
-3,-2,167,-41,-366,3890,-0.05,0.02,6.15,-0.41,-3.66,38.90,-4.49,0.30,38.68,2.53,-0.14,-5.64
-5,2,168,-23,-350,3890,-0.07,0.03,6.56,-0.23,-3.50,38.90,-4.50,0.30,38.66,2.58,-0.21,-5.74
-4,2,186,7,-328,3870,-0.09,0.04,7.04,0.07,-3.28,38.70,-4.52,0.29,38.63,2.57,-0.20,-6.01
-3,2,194,-16,-340,3907,-0.10,0.05,7.52,-0.16,-3.40,39.07,-4.53,0.29,38.60,2.57,-0.20,-6.20
-5,-3,215,-32,-421,3968,-0.12,0.03,8.08,-0.32,-4.21,39.68,-4.55,0.29,38.57,2.62,-0.12,-6.51
-4,-4,219,-71,-255,3934,-0.13,-0.00,8.60,-0.71,-2.55,39.34,-4.54,0.31,38.53,2.60,-0.11,-6.67
-12,-17,276,56,-264,3881,-0.19,-0.10,9.43,0.56,-2.64,38.81,-4.53,0.29,38.50,2.73,0.13,-7.35
-5,-13,296,57,-328,3845,-0.20,-0.17,10.29,0.57,-3.28,38.45,-4.54,0.28,38.46,2.63,0.10,-7.73
-9,-12,281,-28,-351,3880,-0.24,-0.23,10.98,-0.28,-3.51,38.80,-4.56,0.29,38.41,2.72,0.10,-7.77
-10,-7,268,-39,-375,3929,-0.28,-0.25,11.51,-0.39,-3.75,39.29,-4.57,0.29,38.37,2.75,0.02,-7.79
2,5,188,-133,-289,3916,-0.24,-0.19,11.51,-1.33,-2.89,39.16,-4.57,0.31,38.32,2.56,-0.19,-7.11
0,1,172,-100,-249,3919,-0.21,-0.17,11.41,-1.00,-2.49,39.19,-4.56,0.33,38.27,2.57,-0.15,-6.94
2,0,109,-133,-204,3904,-0.18,-0.15,10.93,-1.33,-2.04,39.04,-4.55,0.35,38.23,2.53,-0.15,-6.29
1,1,91,-141,-193,3898,-0.16,-0.13,10.39,-1.41,-1.93,38.98,-4.54,0.36,38.19,2.53,-0.18,-6.00
1,8,34,-86,-249,3924,-0.13,-0.07,9.56,-0.86,-2.49,39.24,-4.52,0.38,38.15,2.51,-0.31,-5.31
1,11,19,-63,-279,3918,-0.11,0.01,8.72,-0.63,-2.79,39.18,-4.51,0.40,38.12,2.50,-0.39,-4.98
0,1,34,-2,-370,3856,-0.10,0.01,8.06,-0.02,-3.70,38.56,-4.53,0.39,38.08,2.52,-0.23,-4.94
2,-5,38,-47,-350,3866,-0.08,-0.02,7.48,-0.47,-3.50,38.66,-4.54,0.40,38.05,2.49,-0.14,-4.83
3,0,42,-28,-307,3896,-0.05,-0.02,6.99,-0.28,-3.07,38.96,-4.53,0.41,38.03,2.46,-0.22,-4.74
4,-3,45,-31,-332,3873,-0.02,-0.03,6.57,-0.31,-3.32,38.73,-4.55,0.41,38.00,2.45,-0.17,-4.66
4,5,66,-26,-319,3899,0.00,-0.00,6.31,-0.26,-3.19,38.99,-4.56,0.41,37.98,2.45,-0.30,-4.77
6,6,71,-30,-326,3889,0.04,0.04,6.11,-0.30,-3.26,38.89,-4.58,0.41,37.95,2.42,-0.33,-4.76
1,1,66,-49,-292,3901,0.04,0.04,5.90,-0.49,-2.92,39.01,-4.57,0.43,37.93,2.48,-0.26,-4.67
0,-5,61,-84,-264,3886,0.04,0.00,5.69,-0.84,-2.64,38.86,-4.56,0.45,37.90,2.49,-0.17,-4.57
-5,-3,110,-19,-285,3921,0.00,-0.01,5.79,-0.19,-2.85,39.21,-4.54,0.44,37.88,2.57,-0.19,-5.01
-3,-5,105,-25,-325,3937,-0.02,-0.04,5.85,-0.25,-3.25,39.37,-4.55,0.43,37.86,2.56,-0.15,-4.98
-7,3,140,38,-409,3920,-0.06,-0.02,6.12,0.38,-4.09,39.20,-4.57,0.43,37.83,2.64,-0.27,-5.34
-13,3,173,87,-439,3856,-0.13,-0.00,6.56,0.87,-4.39,38.56,-4.58,0.42,37.81,2.76,-0.27,-5.73
-17,2,276,102,-477,3820,-0.22,0.01,7.59,1.02,-4.77,38.20,-4.60,0.41,37.78,2.86,-0.26,-6.85
-11,6,311,84,-446,3875,-0.27,0.05,8.73,0.84,-4.46,38.75,-4.61,0.40,37.74,2.79,-0.33,-7.42
-7,9,441,178,-307,3945,-0.28,0.10,10.55,1.78,-3.07,39.45,-4.61,0.38,37.70,2.73,-0.38,-8.97
-8,11,475,96,-269,3873,-0.30,0.15,12.39,0.96,-2.69,38.73,-4.61,0.37,37.65,2.75,-0.42,-9.71
-10,-1,506,-4,-151,3882,-0.33,0.13,14.24,-0.04,-1.51,38.82,-4.59,0.37,37.59,2.78,-0.23,-10.42
-5,-5,502,3,-154,3909,-0.33,0.09,15.87,0.03,-1.54,39.09,-4.57,0.38,37.53,2.69,-0.16,-10.79
-36,-18,457,-36,-144,3949,-0.52,-0.03,17.07,-0.36,-1.44,39.49,-4.56,0.38,37.46,3.21,0.07,-10.70
-33,-26,425,-57,-155,3909,-0.67,-0.19,17.96,-0.57,-1.55,39.09,-4.54,0.39,37.39,3.20,0.24,-10.64
-106,-102,322,-96,-244,4026,-1.25,-0.79,18.13,-0.96,-2.44,40.26,-4.53,0.41,37.32,4.49,1.57,-9.80
-78,-81,319,-47,-275,3944,-1.60,-1.20,18.26,-0.47,-2.75,39.44,-4.52,0.42,37.25,4.16,1.37,-9.80
-80,-71,323,-39,-359,3950,-1.93,-1.52,18.41,-0.39,-3.59,39.50,-4.55,0.42,37.17,4.31,1.32,-9.87
-73,-62,319,-59,-360,3924,-2.18,-1.74,18.51,-0.59,-3.60,39.24,-4.57,0.43,37.10,4.29,1.24,-9.86
-72,-63,311,-37,-317,3892,-2.40,-1.95,18.56,-0.37,-3.17,38.92,-4.59,0.44,37.02,4.36,1.32,-9.79
-61,-57,304,-45,-329,3936,-2.53,-2.11,18.56,-0.45,-3.29,39.36,-4.61,0.45,36.95,4.24,1.26,-9.73
-15,-11,282,-37,-376,3909,-2.37,-1.96,18.42,-0.37,-3.76,39.09,-4.64,0.45,36.87,3.50,0.52,-9.50
-4,-5,267,-82,-346,3910,-2.16,-1.80,18.21,-0.82,-3.46,39.10,-4.66,0.47,36.80,3.28,0.37,-9.32
-7,-1,198,-95,-414,3890,-1.98,-1.62,17.59,-0.95,-4.14,38.90,-4.68,0.48,36.73,3.29,0.25,-8.58
-4,1,166,-120,-386,3938,-1.81,-1.45,16.85,-1.20,-3.86,39.38,-4.70,0.49,36.66,3.20,0.16,-8.12
-6,-2,98,-77,-301,3895,-1.67,-1.32,15.76,-0.77,-3.01,38.95,-4.70,0.51,36.60,3.18,0.16,-7.27
-5,-2,83,-57,-299,3894,-1.53,-1.20,14.69,-0.57,-2.99,38.94,-4.69,0.52,36.54,3.12,0.11,-6.88
-3,-5,49,-26,-318,3892,-1.40,-1.11,13.52,-0.26,-3.18,38.92,-4.69,0.50,36.49,3.05,0.14,-6.30
-4,-5,42,-18,-309,3911,-1.28,-1.03,12.42,-0.18,-3.09,39.11,-4.69,0.49,36.44,3.03,0.12,-5.96
0,-2,30,-41,-333,3876,-1.15,-0.94,11.37,-0.41,-3.33,38.76,-4.71,0.50,36.39,2.94,0.05,-5.60
1,-1,28,-83,-374,3874,-1.03,-0.85,10.40,-0.83,-3.74,38.74,-4.72,0.51,36.35,2.90,-0.00,-5.34
2,6,51,-50,-400,3910,-0.92,-0.73,9.67,-0.50,-4.00,39.10,-4.74,0.51,36.31,2.86,-0.15,-5.35
2,6,59,-50,-414,3910,-0.81,-0.62,9.06,-0.50,-4.14,39.10,-4.77,0.52,36.27,2.84,-0.19,-5.27
0,8,92,-9,-364,3920,-0.73,-0.51,8.72,-0.09,-3.64,39.20,-4.78,0.51,36.24,2.85,-0.24,-5.46
-1,7,101,2,-362,3903,-0.66,-0.42,8.46,0.02,-3.62,39.03,-4.80,0.49,36.21,2.86,-0.25,-5.47
-3,5,137,24,-328,3886,-0.62,-0.34,8.45,0.24,-3.28,38.86,-4.80,0.48,36.17,2.87,-0.23,-5.77
-4,2,143,14,-326,3902,-0.58,-0.30,8.48,0.14,-3.26,39.02,-4.80,0.46,36.14,2.88,-0.19,-5.83
-1,9,164,26,-312,3879,-0.53,-0.21,8.63,0.26,-3.12,38.79,-4.80,0.44,36.10,2.82,-0.32,-6.04
-2,9,175,38,-325,3897,-0.49,-0.14,8.84,0.38,-3.25,38.97,-4.80,0.43,36.07,2.82,-0.33,-6.18
-2,9,224,8,-393,3882,-0.45,-0.07,9.32,0.08,-3.93,38.82,-4.82,0.42,36.03,2.82,-0.35,-6.71
-4,9,240,12,-345,3930,-0.43,-0.01,9.85,0.12,-3.45,39.30,-4.83,0.41,35.99,2.85,-0.36,-6.98
-4,10,256,77,-409,3869,-0.41,0.06,10.43,0.77,-4.09,38.69,-4.84,0.40,35.95,2.85,-0.39,-7.25
-2,11,267,45,-381,3883,-0.38,0.12,11.01,0.45,-3.81,38.83,-4.85,0.39,35.91,2.81,-0.42,-7.49
-5,4,300,18,-418,3914,-0.37,0.13,11.74,0.18,-4.18,39.14,-4.87,0.38,35.86,2.87,-0.31,-7.94
-10,2,307,-25,-413,3873,-0.40,0.13,12.44,-0.25,-4.13,38.73,-4.89,0.39,35.81,2.96,-0.28,-8.17
-8,1,280,-105,-261,3921,-0.41,0.12,12.90,-1.05,-2.61,39.21,-4.88,0.41,35.76,2.93,-0.28,-8.05
-5,2,274,-74,-272,3921,-0.40,0.12,13.29,-0.74,-2.72,39.21,-4.86,0.42,35.71,2.87,-0.30,-8.09
-7,3,272,-105,-248,3858,-0.40,0.13,13.62,-1.05,-2.48,38.58,-4.85,0.44,35.65,2.90,-0.33,-8.15
-7,4,262,-111,-173,3909,-0.40,0.14,13.85,-1.11,-1.73,39.09,-4.84,0.45,35.60,2.89,-0.35,-8.12
-3,4,205,-100,-262,3915,-0.38,0.15,13.72,-1.00,-2.62,39.15,-4.82,0.47,35.54,2.81,-0.37,-7.60
-6,1,187,-99,-288,3931,-0.38,0.14,13.49,-0.99,-2.88,39.31,-4.81,0.49,35.49,2.86,-0.33,-7.39
-4,4,174,-60,-313,3921,-0.37,0.15,13.20,-0.60,-3.13,39.21,-4.81,0.51,35.44,2.82,-0.39,-7.20
-3,-2,176,-39,-320,3910,-0.35,0.12,12.95,-0.39,-3.20,39.10,-4.79,0.52,35.38,2.79,-0.30,-7.16
-4,2,210,32,-371,3884,-0.34,0.12,12.94,0.32,-3.71,38.84,-4.80,0.51,35.33,2.80,-0.35,-7.44
-9,-6,229,45,-364,3906,-0.36,0.07,13.04,0.45,-3.64,39.06,-4.81,0.50,35.28,2.89,-0.21,-7.62
-6,-2,256,31,-397,3920,-0.36,0.06,13.30,0.31,-3.97,39.20,-4.82,0.49,35.23,2.85,-0.26,-7.91
-9,7,264,5,-357,3884,-0.38,0.09,13.58,0.05,-3.57,38.84,-4.84,0.48,35.17,2.91,-0.40,-8.04
-5,1,267,-38,-332,3930,-0.37,0.09,13.85,-0.38,-3.32,39.30,-4.83,0.51,35.12,2.85,-0.32,-8.13
-1,4,252,-44,-307,3897,-0.34,0.10,14.00,-0.44,-3.07,38.97,-4.82,0.52,35.06,2.77,-0.38,-8.04
1,8,191,-54,-272,3908,-0.30,0.14,13.77,-0.54,-2.72,39.08,-4.80,0.53,35.01,2.72,-0.46,-7.46
-1,8,171,-45,-292,3904,-0.28,0.18,13.43,-0.45,-2.92,39.04,-4.78,0.54,34.95,2.73,-0.47,-7.20
1,3,134,-36,-249,3910,-0.24,0.18,12.91,-0.36,-2.49,39.10,-4.77,0.54,34.90,2.68,-0.40,-6.76
1,1,123,-29,-262,3905,-0.21,0.17,12.37,-0.29,-2.62,39.05,-4.75,0.55,34.85,2.66,-0.37,-6.53
4,11,102,57,-318,3927,-0.17,0.22,11.75,0.57,-3.18,39.27,-4.75,0.53,34.81,2.60,-0.53,-6.19
2,8,98,76,-325,3897,-0.14,0.24,11.18,0.76,-3.25,38.97,-4.75,0.52,34.76,2.62,-0.48,-6.01
-4,0,131,86,-368,3921,-0.15,0.22,10.86,0.86,-3.68,39.21,-4.75,0.51,34.72,2.72,-0.35,-6.21
-4,3,147,62,-322,3938,-0.16,0.22,10.67,0.62,-3.22,39.38,-4.75,0.49,34.68,2.72,-0.38,-6.30
3,12,199,82,-473,3952,-0.12,0.27,10.82,0.82,-4.73,39.52,-4.77,0.49,34.63,2.61,-0.53,-6.77
1,10,212,144,-400,3927,-0.11,0.30,11.03,1.44,-4.00,39.27,-4.77,0.47,34.59,2.64,-0.51,-6.93
-8,7,284,119,-386,3893,-0.14,0.31,11.66,1.19,-3.86,38.93,-4.78,0.46,34.54,2.80,-0.46,-7.69
-17,0,300,74,-398,3880,-0.23,0.28,12.32,0.74,-3.98,38.80,-4.79,0.45,34.49,2.97,-0.34,-7.99
-3,9,327,-1,-330,3883,-0.23,0.31,13.08,-0.01,-3.30,38.83,-4.80,0.44,34.44,2.75,-0.47,-8.40
-11,6,345,58,-351,3866,-0.27,0.32,13.88,0.58,-3.51,38.66,-4.80,0.43,34.39,2.89,-0.42,-8.75
-6,-1,353,-61,-291,3908,-0.28,0.28,14.64,-0.61,-2.91,39.08,-4.79,0.45,34.33,2.81,-0.31,-9.00
-9,-1,342,-92,-275,3905,-0.31,0.24,15.27,-0.92,-2.75,39.05,-4.78,0.47,34.27,2.86,-0.32,-9.05
-5,-5,272,-109,-274,3928,-0.31,0.19,15.40,-1.09,-2.74,39.28,-4.77,0.49,34.21,2.79,-0.25,-8.49
5,7,251,-129,-243,3918,-0.25,0.21,15.39,-1.29,-2.43,39.18,-4.76,0.51,34.14,2.62,-0.45,-8.30
-4,0,228,-108,-327,3943,-0.25,0.19,15.24,-1.08,-3.27,39.43,-4.76,0.53,34.08,2.75,-0.35,-8.07
5,8,217,-81,-305,3927,-0.19,0.22,15.04,-0.81,-3.05,39.27,-4.75,0.55,34.02,2.59,-0.49,-7.92
-1,7,209,-22,-333,3904,-0.18,0.24,14.81,-0.22,-3.33,39.04,-4.76,0.54,33.97,2.69,-0.48,-7.79
-6,4,210,-21,-353,3890,-0.20,0.24,14.61,-0.21,-3.53,38.90,-4.77,0.54,33.91,2.78,-0.43,-7.75
-1,5,199,-14,-345,3872,-0.18,0.25,14.36,-0.14,-3.45,38.72,-4.79,0.53,33.85,2.70,-0.45,-7.59
-5,5,205,-14,-344,3869,-0.20,0.25,14.18,-0.14,-3.44,38.69,-4.80,0.52,33.79,2.78,-0.44,-7.59
1,7,210,-60,-311,3965,-0.17,0.27,14.04,-0.60,-3.11,39.65,-4.79,0.54,33.74,2.67,-0.49,-7.60
0,8,214,-40,-331,3914,-0.15,0.29,13.94,-0.40,-3.31,39.14,-4.80,0.56,33.68,2.69,-0.52,-7.60
-6,2,207,-88,-269,3946,-0.17,0.28,13.81,-0.88,-2.69,39.46,-4.79,0.58,33.63,2.78,-0.43,-7.51
-6,2,196,-72,-302,3932,-0.19,0.26,13.63,-0.72,-3.02,39.32,-4.78,0.60,33.57,2.78,-0.44,-7.36
-3,6,155,-74,-261,3976,-0.19,0.27,13.21,-0.74,-2.61,39.76,-4.76,0.61,33.52,2.72,-0.51,-6.91
1,6,155,-45,-237,3994,-0.17,0.28,12.83,-0.45,-2.37,39.94,-4.74,0.62,33.47,2.64,-0.52,-6.81
0,8,154,-12,-304,3883,-0.15,0.30,12.49,-0.12,-3.04,38.83,-4.73,0.61,33.42,2.65,-0.55,-6.72
-3,6,155,-31,-325,3901,-0.15,0.31,12.19,-0.31,-3.25,39.01,-4.74,0.59,33.37,2.70,-0.51,-6.65
0,5,146,-6,-351,3896,-0.14,0.31,11.86,-0.06,-3.51,38.96,-4.75,0.59,33.32,2.65,-0.49,-6.49
-2,5,148,26,-362,3900,-0.14,0.31,11.58,0.26,-3.62,39.00,-4.76,0.57,33.28,2.69,-0.49,-6.43
-3,4,133,15,-299,3925,-0.14,0.30,11.23,0.15,-2.99,39.25,-4.75,0.56,33.23,2.70,-0.46,-6.22
-2,9,135,28,-328,3884,-0.14,0.33,10.93,0.28,-3.28,38.84,-4.75,0.55,33.19,2.69,-0.54,-6.16
4,9,152,17,-328,3905,-0.10,0.35,10.76,0.17,-3.28,39.05,-4.75,0.54,33.15,2.58,-0.54,-6.26
-1,5,162,24,-330,3900,-0.10,0.34,10.68,0.24,-3.30,39.00,-4.75,0.52,33.10,2.66,-0.47,-6.32
2,1,175,-18,-357,3899,-0.08,0.32,10.68,-0.18,-3.57,38.99,-4.77,0.52,33.06,2.62,-0.40,-6.42
-6,4,187,1,-288,4017,-0.10,0.31,10.75,0.01,-2.88,40.17,-4.75,0.51,33.02,2.74,-0.44,-6.54
-5,5,220,-19,-334,3922,-0.12,0.31,11.02,-0.19,-3.34,39.22,-4.76,0.50,32.98,2.73,-0.45,-6.88
-1,3,224,15,-363,3828,-0.12,0.30,11.28,0.15,-3.63,38.28,-4.77,0.49,32.93,2.68,-0.41,-6.98
-7,6,266,51,-270,4030,-0.15,0.30,11.78,0.51,-2.70,40.30,-4.76,0.48,32.88,2.77,-0.45,-7.45
-2,4,290,14,-262,3891,-0.15,0.30,12.37,0.14,-2.62,38.91,-4.75,0.48,32.83,2.69,-0.41,-7.80
-2,0,360,39,-376,3841,-0.14,0.27,13.33,0.39,-3.76,38.41,-4.76,0.47,32.78,2.69,-0.34,-8.62
-3,7,371,28,-405,3842,-0.15,0.28,14.26,0.28,-4.05,38.42,-4.78,0.46,32.72,2.72,-0.45,-8.94
-12,5,388,14,-334,3884,-0.21,0.29,15.20,0.14,-3.34,38.84,-4.78,0.45,32.66,2.87,-0.41,-9.31
-11,-1,393,-16,-277,3952,-0.25,0.25,16.08,-0.16,-2.77,39.52,-4.76,0.45,32.60,2.86,-0.31,-9.57
-6,-6,366,8,-379,3843,-0.26,0.19,16.70,0.08,-3.79,38.43,-4.78,0.45,32.53,2.80,-0.21,-9.49
-5,1,372,-41,-302,3938,-0.27,0.18,17.30,-0.41,-3.02,39.38,-4.76,0.46,32.46,2.78,-0.32,-9.68
-5,-6,386,64,-392,3781,-0.27,0.12,17.92,0.64,-3.92,37.81,-4.77,0.45,32.39,2.78,-0.20,-9.95
-11,11,388,66,-413,3844,-0.31,0.18,18.50,0.66,-4.13,38.44,-4.79,0.45,32.32,2.90,-0.47,-10.10
4,9,395,18,-201,3898,-0.26,0.21,19.06,0.18,-2.01,38.98,-4.77,0.45,32.24,2.64,-0.45,-10.29
-13,-5,399,-10,-339,3725,-0.31,0.16,19.59,-0.10,-3.39,37.25,-4.79,0.45,32.17,2.93,-0.22,-10.45
-4,16,436,62,-184,3865,-0.30,0.24,20.29,0.62,-1.84,38.65,-4.77,0.44,32.09,2.78,-0.56,-10.93
-9,16,435,114,-326,3976,-0.33,0.32,20.91,1.14,-3.26,39.76,-4.77,0.43,32.00,2.86,-0.58,-11.07
-6,-2,472,29,-435,3782,-0.33,0.27,21.70,0.29,-4.35,37.82,-4.79,0.43,31.92,2.83,-0.29,-11.57
-10,11,492,80,-363,4074,-0.36,0.31,22.53,0.80,-3.63,40.74,-4.79,0.42,31.83,2.90,-0.50,-11.94
-7,20,542,59,-339,4025,-0.37,0.40,23.58,0.59,-3.39,40.25,-4.79,0.42,31.73,2.86,-0.66,-12.62
-6,-2,552,17,-300,3792,-0.37,0.35,24.59,0.17,-3.00,37.92,-4.79,0.41,31.63,2.84,-0.30,-12.94
-6,7,549,-50,-345,3839,-0.37,0.36,25.48,-0.50,-3.45,38.39,-4.80,0.43,31.53,2.84,-0.45,-13.13
-10,-15,541,-141,-388,3793,-0.39,0.23,26.23,-1.41,-3.88,37.93,-4.81,0.46,31.43,2.92,-0.09,-13.24
-6,-2,489,-159,-351,3865,-0.39,0.20,26.59,-1.59,-3.51,38.65,-4.82,0.48,31.32,2.86,-0.30,-12.88
-4,7,460,-164,-302,3973,-0.37,0.22,26.74,-1.64,-3.02,39.73,-4.81,0.51,31.22,2.82,-0.45,-12.66
-1,-4,385,-228,-264,3809,-0.34,0.17,26.41,-2.28,-2.64,38.09,-4.81,0.54,31.11,2.76,-0.29,-11.94
-7,8,346,-162,-320,3881,-0.35,0.20,25.88,-1.62,-3.20,38.81,-4.81,0.57,31.01,2.86,-0.50,-11.47
-4,13,257,-179,-368,3912,-0.34,0.26,24.86,-1.79,-3.68,39.12,-4.81,0.59,30.91,2.81,-0.60,-10.46
-6,-8,224,-104,-319,3847,-0.34,0.19,23.74,-1.04,-3.19,38.47,-4.81,0.62,30.81,2.84,-0.28,-9.90
-4,6,162,-83,-315,3912,-0.33,0.21,22.36,-0.83,-3.15,39.12,-4.81,0.65,30.72,2.81,-0.51,-9.03
-4,6,159,33,-281,3844,-0.32,0.22,21.09,0.33,-2.81,38.44,-4.80,0.64,30.64,2.80,-0.51,-8.68
0,7,201,29,-252,3890,-0.29,0.24,20.21,0.29,-2.52,38.90,-4.78,0.63,30.56,2.72,-0.53,-8.82
0,-5,205,33,-308,3833,-0.26,0.19,19.44,0.33,-3.08,38.33,-4.78,0.62,30.48,2.71,-0.32,-8.65
-2,9,224,-76,-323,3924,-0.25,0.22,18.86,-0.76,-3.23,39.24,-4.78,0.65,30.41,2.73,-0.56,-8.67
-2,13,219,-97,-366,3845,-0.24,0.28,18.31,-0.97,-3.66,38.45,-4.79,0.67,30.33,2.74,-0.65,-8.49
-6,6,159,-81,-326,3929,-0.25,0.29,17.45,-0.81,-3.26,39.29,-4.79,0.69,30.27,2.80,-0.56,-7.76
0,6,185,-55,-345,3876,-0.22,0.30,16.83,-0.55,-3.45,38.76,-4.81,0.71,30.20,2.71,-0.57,-7.82
5,-1,205,28,-406,3985,-0.17,0.26,16.40,0.28,-4.06,39.85,-4.82,0.70,30.13,2.63,-0.45,-7.88
-12,2,202,24,-435,3878,-0.23,0.25,15.99,0.24,-4.35,38.78,-4.83,0.70,30.07,2.91,-0.49,-7.75
-2,2,174,-32,-345,3905,-0.22,0.23,15.45,-0.32,-3.45,39.05,-4.85,0.69,30.01,2.76,-0.48,-7.38
2,7,171,-70,-366,3906,-0.18,0.25,14.95,-0.70,-3.66,39.06,-4.86,0.71,29.95,2.70,-0.57,-7.23
1,10,146,-55,-298,3911,-0.16,0.29,14.35,-0.55,-2.98,39.11,-4.84,0.71,29.89,2.70,-0.63,-6.86
1,1,134,-52,-262,3899,-0.14,0.27,13.73,-0.52,-2.62,38.99,-4.83,0.72,29.84,2.68,-0.49,-6.60
2,12,115,-14,-274,3896,-0.11,0.31,13.06,-0.14,-2.74,38.96,-4.81,0.72,29.78,2.65,-0.67,-6.27
-1,13,102,-54,-248,3923,-0.11,0.36,12.37,-0.54,-2.48,39.23,-4.79,0.72,29.74,2.68,-0.71,-5.99
4,10,49,-27,-251,3854,-0.07,0.39,11.44,-0.27,-2.51,38.54,-4.77,0.72,29.69,2.59,-0.67,-5.31
3,9,38,-45,-282,3959,-0.05,0.40,10.52,-0.45,-2.82,39.59,-4.76,0.73,29.65,2.58,-0.66,-4.99
2,1,43,-12,-281,3928,-0.03,0.37,9.73,-0.12,-2.81,39.28,-4.74,0.72,29.61,2.59,-0.52,-4.83
2,1,53,-11,-304,3901,-0.01,0.34,9.08,-0.11,-3.04,39.01,-4.73,0.71,29.57,2.58,-0.51,-4.75
-6,6,68,-3,-368,3914,-0.05,0.34,8.59,-0.03,-3.68,39.14,-4.74,0.70,29.54,2.72,-0.58,-4.76
-5,7,71,-1,-367,3901,-0.07,0.35,8.16,-0.01,-3.67,39.01,-4.76,0.69,29.51,2.72,-0.59,-4.68
-1,-6,118,83,-339,3799,-0.07,0.28,8.07,0.83,-3.39,37.99,-4.76,0.68,29.47,2.66,-0.36,-5.05
-1,-1,128,-25,-350,3981,-0.07,0.24,8.04,-0.25,-3.50,39.81,-4.77,0.66,29.44,2.66,-0.42,-5.12
-4,0,216,10,-224,3895,-0.09,0.22,8.56,0.10,-2.24,38.95,-4.76,0.66,29.41,2.70,-0.43,-5.99
-1,-2,227,62,-245,3830,-0.09,0.19,9.08,0.62,-2.45,38.30,-4.75,0.65,29.37,2.65,-0.38,-6.22
-4,4,272,-6,-250,3983,-0.10,0.19,9.84,-0.06,-2.50,39.83,-4.73,0.64,29.33,2.69,-0.47,-6.78
-8,4,296,55,-380,3788,-0.14,0.20,10.66,0.55,-3.80,37.88,-4.74,0.63,29.29,2.77,-0.47,-7.18
-9,-3,331,-36,-306,3898,-0.18,0.16,11.61,-0.36,-3.06,38.98,-4.72,0.63,29.24,2.79,-0.35,-7.71
-3,0,352,0,-400,3769,-0.18,0.14,12.60,0.00,-4.00,37.69,-4.74,0.63,29.19,2.71,-0.39,-8.13
5,8,465,86,-338,3804,-0.13,0.18,14.17,0.86,-3.38,38.04,-4.74,0.62,29.14,2.57,-0.51,-9.47
-7,2,481,41,-260,3869,-0.16,0.17,15.69,0.41,-2.60,38.69,-4.73,0.61,29.07,2.76,-0.42,-9.97
-6,-10,495,-34,-416,3934,-0.18,0.09,17.14,-0.34,-4.16,39.34,-4.75,0.61,29.01,2.76,-0.21,-10.44
-16,-2,498,-26,-463,3955,-0.26,0.07,18.46,-0.26,-4.63,39.55,-4.77,0.61,28.93,2.95,-0.33,-10.79
-19,3,552,22,-469,3942,-0.35,0.08,19.99,0.22,-4.69,39.42,-4.79,0.61,28.85,3.03,-0.41,-11.62
-4,8,576,55,-428,3903,-0.34,0.12,21.50,0.55,-4.28,39.03,-4.80,0.61,28.77,2.80,-0.49,-12.19
-3,7,677,56,-391,3824,-0.33,0.15,23.48,0.56,-3.91,38.24,-4.81,0.60,28.67,2.79,-0.49,-13.52
-7,11,729,38,-472,3950,-0.34,0.21,25.58,0.38,-4.72,39.50,-4.83,0.60,28.57,2.86,-0.56,-14.47
-13,8,754,10,-422,3885,-0.38,0.23,27.62,0.10,-4.22,38.85,-4.84,0.60,28.46,2.98,-0.53,-15.18
-17,1,746,-29,-427,3885,-0.45,0.22,29.41,-0.29,-4.27,38.85,-4.86,0.61,28.35,3.07,-0.42,-15.54
-8,10,686,-93,-347,3977,-0.45,0.26,30.65,-0.93,-3.47,39.77,-4.86,0.64,28.22,2.94,-0.58,-15.33
-15,4,664,-60,-343,3884,-0.50,0.25,31.64,-0.60,-3.43,38.84,-4.88,0.67,28.10,3.06,-0.51,-15.38
-13,1,595,-109,-256,3839,-0.53,0.24,32.10,-1.09,-2.56,38.39,-4.86,0.69,27.97,3.03,-0.47,-14.90
-9,4,583,-151,-254,3909,-0.53,0.24,32.45,-1.51,-2.54,39.09,-4.85,0.72,27.84,2.97,-0.53,-14.87
-13,5,541,-123,-300,3922,-0.56,0.24,32.50,-1.23,-3.00,39.22,-4.85,0.75,27.71,3.03,-0.56,-14.52
-6,6,522,-151,-300,3920,-0.54,0.26,32.44,-1.51,-3.00,39.20,-4.84,0.78,27.58,2.92,-0.60,-14.34
0,6,447,-166,-285,3878,-0.48,0.27,31.92,-1.66,-2.85,38.78,-4.83,0.81,27.45,2.81,-0.62,-13.57
0,12,425,-138,-422,3908,-0.43,0.31,31.32,-1.38,-4.22,39.08,-4.85,0.83,27.33,2.80,-0.74,-13.22
3,9,413,-161,-340,3966,-0.37,0.34,30.71,-1.61,-3.40,39.66,-4.85,0.86,27.21,2.73,-0.71,-12.96
-5,12,413,-95,-279,3933,-0.37,0.38,30.16,-0.95,-2.79,39.33,-4.83,0.88,27.09,2.85,-0.78,-12.82
2,12,379,-57,-389,3950,-0.32,0.41,29.45,-0.57,-3.89,39.50,-4.85,0.89,26.97,2.73,-0.80,-12.35
-5,16,369,-70,-385,3835,-0.32,0.47,28.76,-0.70,-3.85,38.35,-4.87,0.91,26.86,2.85,-0.89,-12.08
-6,1,301,-19,-336,3860,-0.32,0.43,27.72,-0.19,-3.36,38.60,-4.87,0.90,26.75,2.87,-0.64,-11.24
-7,5,290,-37,-373,3962,-0.33,0.42,26.72,-0.37,-3.73,39.62,-4.88,0.90,26.64,2.89,-0.70,-10.90
-1,7,273,-15,-300,3958,-0.30,0.42,25.71,-0.15,-3.00,39.58,-4.87,0.90,26.54,2.79,-0.73,-10.50
-3,6,273,-3,-291,3952,-0.29,0.41,24.80,-0.03,-2.91,39.52,-4.86,0.89,26.44,2.81,-0.71,-10.27
-2,6,243,-13,-276,3954,-0.28,0.41,23.81,-0.13,-2.76,39.54,-4.85,0.89,26.34,2.78,-0.71,-9.76
5,6,231,-58,-263,3872,-0.22,0.40,22.83,-0.58,-2.63,38.72,-4.83,0.90,26.25,2.65,-0.71,-9.41
-3,13,205,-88,-271,3902,-0.21,0.44,21.80,-0.88,-2.71,39.02,-4.81,0.92,26.17,2.76,-0.84,-8.93
7,8,197,-84,-281,3842,-0.15,0.45,20.82,-0.84,-2.81,38.42,-4.79,0.93,26.08,2.58,-0.77,-8.62
2,12,189,-47,-333,3856,-0.12,0.47,19.89,-0.47,-3.33,38.56,-4.80,0.93,26.00,2.65,-0.84,-8.32
1,3,187,-43,-347,3842,-0.10,0.45,19.05,-0.43,-3.47,38.42,-4.82,0.92,25.93,2.67,-0.69,-8.09
-4,8,197,-35,-332,3922,-0.12,0.45,18.34,-0.35,-3.32,39.22,-4.82,0.91,25.85,2.75,-0.76,-7.99
-4,5,195,-37,-325,3934,-0.13,0.44,17.70,-0.37,-3.25,39.34,-4.81,0.90,25.78,2.75,-0.71,-7.81
-3,2,194,7,-349,3929,-0.14,0.40,17.11,0.07,-3.49,39.29,-4.82,0.89,25.72,2.74,-0.64,-7.66
-5,4,200,-2,-340,3908,-0.15,0.39,16.62,-0.02,-3.40,39.08,-4.82,0.88,25.65,2.77,-0.66,-7.58
-3,3,239,4,-338,3947,-0.16,0.37,16.42,0.04,-3.38,39.47,-4.82,0.87,25.59,2.74,-0.64,-7.86
-1,8,270,-18,-378,3892,-0.15,0.38,16.42,-0.18,-3.78,38.92,-4.83,0.86,25.52,2.72,-0.71,-8.12
-1,12,308,-37,-314,3879,-0.14,0.41,16.66,-0.37,-3.14,38.79,-4.82,0.86,25.45,2.71,-0.78,-8.49
-4,8,319,-41,-341,3827,-0.15,0.42,16.94,-0.41,-3.41,38.27,-4.84,0.85,25.39,2.77,-0.72,-8.65
-4,11,325,-29,-316,3929,-0.16,0.45,17.23,-0.29,-3.16,39.29,-4.83,0.84,25.32,2.76,-0.77,-8.77
4,7,308,-45,-324,3869,-0.12,0.45,17.38,-0.45,-3.24,38.69,-4.82,0.83,25.25,2.63,-0.70,-8.65
0,11,242,-62,-354,3879,-0.11,0.47,17.12,-0.62,-3.54,38.79,-4.84,0.84,25.18,2.69,-0.77,-8.03
2,0,220,-36,-323,3965,-0.08,0.42,16.75,-0.36,-3.23,39.65,-4.83,0.84,25.11,2.65,-0.59,-7.74
-10,0,228,6,-250,3894,-0.14,0.38,16.47,0.06,-2.50,38.94,-4.82,0.83,25.05,2.84,-0.57,-7.74
-3,-6,246,31,-275,3929,-0.14,0.30,16.32,0.31,-2.75,39.29,-4.80,0.82,24.98,2.73,-0.45,-7.85
3,6,292,-68,-330,3903,-0.11,0.31,16.47,-0.68,-3.30,39.03,-4.81,0.85,24.92,2.63,-0.65,-8.27
1,11,310,-58,-261,3932,-0.09,0.35,16.71,-0.58,-2.61,39.32,-4.79,0.85,24.85,2.65,-0.74,-8.48
-3,8,368,-73,-313,3907,-0.10,0.36,17.29,-0.73,-3.13,39.07,-4.78,0.87,24.78,2.70,-0.71,-9.11
-1,11,379,-49,-355,3933,-0.10,0.39,17.87,-0.49,-3.55,39.33,-4.79,0.87,24.71,2.68,-0.77,-9.34
4,6,425,-38,-294,3923,-0.06,0.39,18.68,-0.38,-2.94,39.23,-4.77,0.87,24.64,2.58,-0.69,-9.92
-7,4,448,25,-314,3859,-0.10,0.37,19.54,0.25,-3.14,38.59,-4.77,0.86,24.56,2.76,-0.65,-10.32
-4,1,489,-13,-347,3887,-0.11,0.34,20.57,-0.13,-3.47,38.87,-4.78,0.85,24.48,2.72,-0.59,-10.92
5,12,499,-55,-361,3887,-0.07,0.38,21.56,-0.55,-3.61,38.87,-4.80,0.86,24.39,2.58,-0.77,-11.24
2,16,546,6,-373,3961,-0.05,0.44,22.73,0.06,-3.73,39.61,-4.81,0.86,24.30,2.63,-0.85,-11.92
-9,6,552,58,-394,3872,-0.10,0.43,23.83,0.58,-3.94,38.72,-4.81,0.85,24.21,2.82,-0.69,-12.23
-6,10,545,-33,-406,3923,-0.13,0.45,24.77,-0.33,-4.06,39.23,-4.83,0.85,24.11,2.79,-0.76,-12.40
-7,10,531,-29,-450,3886,-0.16,0.47,25.53,-0.29,-4.50,38.86,-4.85,0.86,24.01,2.82,-0.77,-12.46
-13,-3,460,-101,-389,3885,-0.22,0.40,25.78,-1.01,-3.89,38.85,-4.86,0.88,23.90,2.94,-0.56,-11.92
-5,11,430,-186,-382,3938,-0.23,0.43,25.83,-1.86,-3.82,39.38,-4.87,0.91,23.80,2.82,-0.80,-11.67
7,10,410,-174,-447,3872,-0.16,0.45,25.75,-1.74,-4.47,38.72,-4.88,0.93,23.70,2.63,-0.80,-11.47
-8,3,424,-127,-418,3886,-0.20,0.42,25.76,-1.27,-4.18,38.86,-4.89,0.95,23.60,2.87,-0.70,-11.58
-7,7,434,-116,-383,3841,-0.22,0.42,25.83,-1.16,-3.83,38.41,-4.91,0.98,23.49,2.87,-0.77,-11.68
5,17,432,-145,-350,3925,-0.17,0.48,25.88,-1.45,-3.50,39.25,-4.91,1.00,23.39,2.67,-0.96,-11.67
-9,15,427,-60,-345,3920,-0.21,0.53,25.90,-0.60,-3.45,39.20,-4.92,1.00,23.29,2.91,-0.94,-11.62
5,19,421,-50,-305,3938,-0.15,0.59,25.88,-0.50,-3.05,39.38,-4.90,1.00,23.19,2.67,-1.02,-11.56
-8,8,370,-49,-298,3900,-0.19,0.58,25.55,-0.49,-2.98,39.00,-4.88,1.01,23.08,2.87,-0.85,-11.04
-7,4,330,-40,-232,3926,-0.21,0.55,25.00,-0.40,-2.32,39.26,-4.87,1.01,22.98,2.85,-0.78,-10.56
-4,7,283,-20,-252,3879,-0.21,0.53,24.23,-0.20,-2.52,38.79,-4.85,1.01,22.89,2.79,-0.83,-9.96
-5,-6,270,-11,-262,3953,-0.22,0.44,23.45,-0.11,-2.62,39.53,-4.83,1.01,22.79,2.80,-0.60,-9.66
-3,-5,265,15,-365,3912,-0.22,0.37,22.73,0.15,-3.65,39.12,-4.84,1.00,22.70,2.78,-0.59,-9.43
-7,-6,262,-10,-398,3877,-0.24,0.30,22.05,-0.10,-3.98,38.77,-4.85,1.00,22.62,2.85,-0.55,-9.23
-12,-10,219,-35,-357,3916,-0.29,0.20,21.18,-0.35,-3.57,39.16,-4.86,0.99,22.53,2.95,-0.46,-8.65
-8,-2,220,5,-348,3911,-0.31,0.17,20.41,0.05,-3.48,39.11,-4.87,0.98,22.45,2.89,-0.56,-8.46
1,13,320,-31,-428,3893,-0.27,0.23,20.32,-0.31,-4.28,38.93,-4.88,0.98,22.37,2.75,-0.81,-9.28
2,13,363,-1,-439,3879,-0.23,0.29,20.50,-0.01,-4.39,38.79,-4.90,0.98,22.29,2.74,-0.83,-9.68
-3,21,473,26,-325,3823,-0.23,0.39,21.33,0.26,-3.25,38.23,-4.90,0.97,22.20,2.81,-0.97,-10.81
-6,17,489,-22,-297,3916,-0.24,0.45,22.18,-0.22,-2.97,39.16,-4.89,0.97,22.11,2.85,-0.93,-11.15
-2,8,459,-27,-259,3928,-0.23,0.46,22.77,-0.27,-2.59,39.28,-4.87,0.97,22.02,2.78,-0.80,-11.03
-13,8,437,-92,-283,3974,-0.29,0.46,23.15,-0.92,-2.83,39.74,-4.85,0.99,21.93,2.95,-0.81,-10.94
-6,3,369,-47,-275,3899,-0.29,0.43,23.09,-0.47,-2.75,38.99,-4.83,0.99,21.84,2.84,-0.72,-10.34
-8,10,365,-27,-236,3949,-0.31,0.45,23.01,-0.27,-2.36,39.49,-4.82,0.99,21.75,2.87,-0.84,-10.28
6,5,436,-79,-204,3845,-0.25,0.44,23.37,-0.79,-2.04,38.45,-4.80,1.00,21.65,2.62,-0.76,-10.96
-2,21,471,-78,-222,3915,-0.23,0.52,23.90,-0.78,-2.22,39.15,-4.78,1.02,21.56,2.73,-1.04,-11.38
-13,15,547,-20,-304,3897,-0.29,0.56,24.85,-0.20,-3.04,38.97,-4.77,1.01,21.46,2.91,-0.96,-12.25
-5,25,553,-26,-317,3916,-0.29,0.66,25.74,-0.26,-3.17,39.16,-4.77,1.00,21.36,2.79,-1.13,-12.51
-8,19,584,1,-379,3898,-0.31,0.71,26.73,0.01,-3.79,38.98,-4.78,1.00,21.25,2.84,-1.06,-13.01
-13,-5,581,14,-398,3932,-0.36,0.61,27.60,0.14,-3.98,39.32,-4.79,1.00,21.14,2.94,-0.66,-13.19
-8,8,604,42,-391,3966,-0.37,0.59,28.52,0.42,-3.91,39.66,-4.80,0.99,21.03,2.87,-0.85,-13.61
-6,10,616,38,-407,3853,-0.37,0.60,29.43,0.38,-4.07,38.53,-4.81,0.99,20.91,2.85,-0.88,-13.93
-18,3,601,7,-406,3954,-0.44,0.55,30.15,0.07,-4.06,39.54,-4.82,0.99,20.79,3.06,-0.76,-13.97
-1,18,601,-37,-394,3862,-0.41,0.61,30.80,-0.37,-3.94,38.62,-4.84,1.00,20.67,2.80,-1.01,-14.12
-14,14,607,-75,-351,3884,-0.45,0.63,31.42,-0.75,-3.51,38.84,-4.85,1.01,20.54,3.02,-0.97,-14.31
-10,19,605,-104,-332,3915,-0.47,0.69,31.97,-1.04,-3.32,39.15,-4.85,1.05,20.42,2.96,-1.07,-14.42
-9,16,597,-87,-338,3863,-0.47,0.71,32.42,-0.87,-3.38,38.63,-4.86,1.08,20.29,2.96,-1.05,-14.46
-7,4,581,-53,-336,3927,-0.47,0.67,32.72,-0.53,-3.36,39.27,-4.86,1.07,20.16,2.93,-0.85,-14.39
-16,14,528,-47,-344,3927,-0.52,0.69,32.67,-0.47,-3.44,39.27,-4.87,1.07,20.03,3.08,-1.01,-13.92
-7,-3,442,8,-361,3940,-0.51,0.60,32.10,0.08,-3.61,39.40,-4.87,1.06,19.90,2.94,-0.72,-13.04
-18,-10,304,-12,-379,3918,-0.57,0.48,30.74,-0.12,-3.79,39.18,-4.89,1.06,19.78,3.14,-0.58,-11.53
-8,-8,298,-82,-479,3914,-0.56,0.38,29.49,-0.82,-4.79,39.14,-4.90,1.07,19.66,2.99,-0.59,-11.16
5,7,351,-73,-514,3912,-0.47,0.39,28.68,-0.73,-5.14,39.12,-4.92,1.09,19.55,2.78,-0.82,-11.40
5,7,384,-109,-463,3873,-0.40,0.39,28.15,-1.09,-4.63,38.73,-4.94,1.10,19.44,2.76,-0.83,-11.54
-8,0,459,-13,-433,3919,-0.41,0.35,28.14,-0.13,-4.33,39.19,-4.95,1.10,19.32,2.97,-0.71,-12.17
-6,-3,463,-38,-436,3923,-0.40,0.30,28.15,-0.38,-4.36,39.23,-4.97,1.11,19.21,2.95,-0.65,-12.20
-5,5,446,-66,-418,3875,-0.39,0.30,28.05,-0.66,-4.18,38.75,-4.99,1.12,19.10,2.94,-0.78,-12.02
0,-2,438,-76,-327,3884,-0.35,0.26,27.92,-0.76,-3.27,38.84,-4.97,1.13,18.99,2.84,-0.67,-11.91
-7,3,433,-70,-339,3966,-0.36,0.25,27.77,-0.70,-3.39,39.66,-4.96,1.12,18.88,2.94,-0.74,-11.82
-9,6,416,-59,-319,3910,-0.38,0.26,27.53,-0.59,-3.19,39.10,-4.94,1.12,18.77,2.97,-0.79,-11.61
-3,3,360,-131,-262,3896,-0.36,0.25,26.97,-1.31,-2.62,38.96,-4.93,1.14,18.66,2.87,-0.75,-10.99
-3,4,344,-145,-302,3902,-0.34,0.25,26.37,-1.45,-3.02,39.02,-4.92,1.17,18.56,2.86,-0.78,-10.70
2,3,277,-16,-198,3909,-0.30,0.25,25.43,-0.16,-1.98,39.09,-4.90,1.17,18.45,2.76,-0.76,-9.90
-10,9,281,-99,-207,3954,-0.33,0.28,24.60,-0.99,-2.07,39.54,-4.88,1.18,18.36,2.94,-0.87,-9.72
-2,1,264,-41,-344,3885,-0.31,0.25,23.75,-0.41,-3.44,38.85,-4.89,1.17,18.26,2.81,-0.74,-9.36
-6,2,258,-26,-321,3920,-0.31,0.24,22.95,-0.26,-3.21,39.20,-4.88,1.16,18.17,2.87,-0.74,-9.11
0,-4,274,-55,-346,3883,-0.28,0.19,22.32,-0.55,-3.46,38.83,-4.89,1.16,18.08,2.78,-0.63,-9.08
-1,2,288,-60,-358,3875,-0.26,0.19,21.85,-0.60,-3.58,38.75,-4.90,1.15,17.99,2.79,-0.72,-9.08
-11,-2,356,58,-395,3948,-0.30,0.15,21.84,0.58,-3.95,39.48,-4.91,1.15,17.91,2.96,-0.65,-9.64
-4,6,378,-20,-444,3856,-0.29,0.18,21.96,-0.20,-4.44,38.56,-4.93,1.15,17.82,2.86,-0.78,-9.85
-4,-4,413,-27,-284,3943,-0.29,0.13,22.28,-0.27,-2.84,39.43,-4.91,1.14,17.73,2.85,-0.61,-10.22
0,-1,415,-73,-311,3900,-0.26,0.11,22.58,-0.73,-3.11,39.00,-4.89,1.15,17.64,2.77,-0.65,-10.31
-9,-4,416,-38,-370,3940,-0.29,0.08,22.86,-0.38,-3.70,39.40,-4.90,1.14,17.55,2.92,-0.59,-10.38
-4,2,415,-44,-354,3919,-0.28,0.08,23.11,-0.44,-3.54,39.19,-4.91,1.13,17.46,2.85,-0.68,-10.43
0,0,426,-3,-269,3927,-0.26,0.07,23.40,-0.03,-2.69,39.27,-4.90,1.13,17.36,2.77,-0.64,-10.58
1,1,435,-93,-313,3817,-0.22,0.07,23.71,-0.93,-3.13,38.17,-4.89,1.15,17.27,2.74,-0.67,-10.73
-6,7,446,-39,-261,3897,-0.24,0.11,24.06,-0.39,-2.61,38.97,-4.87,1.15,17.17,2.84,-0.77,-10.90
-1,7,441,-30,-357,3898,-0.22,0.14,24.34,-0.30,-3.57,38.98,-4.88,1.14,17.08,2.77,-0.78,-10.92
-10,7,415,-76,-310,3919,-0.26,0.17,24.44,-0.76,-3.10,39.19,-4.86,1.15,16.98,2.90,-0.79,-10.72
-13,6,417,-122,-307,3918,-0.31,0.19,24.54,-1.22,-3.07,39.18,-4.85,1.17,16.88,2.96,-0.79,-10.75
0,14,418,22,-228,3902,-0.28,0.26,24.64,0.22,-2.28,39.02,-4.83,1.17,16.78,2.74,-0.93,-10.78
-10,12,421,-14,-261,3876,-0.31,0.30,24.74,-0.14,-2.61,38.76,-4.82,1.17,16.68,2.90,-0.92,-10.82
-12,6,402,-39,-359,3902,-0.36,0.31,24.72,-0.39,-3.59,39.02,-4.83,1.16,16.59,2.95,-0.82,-10.65
0,8,398,-36,-390,3967,-0.32,0.33,24.67,-0.36,-3.90,39.67,-4.84,1.16,16.49,2.76,-0.86,-10.60
-6,17,402,-22,-328,3846,-0.33,0.40,24.66,-0.22,-3.28,38.46,-4.84,1.15,16.39,2.85,-1.01,-10.62
-11,0,390,24,-346,3959,-0.36,0.36,24.57,0.24,-3.46,39.59,-4.85,1.14,16.29,2.94,-0.74,-10.49
-8,1,381,33,-277,3907,-0.37,0.33,24.44,0.33,-2.77,39.07,-4.84,1.14,16.19,2.90,-0.74,-10.38
-10,0,399,-21,-329,3956,-0.40,0.30,24.43,-0.21,-3.29,39.56,-4.83,1.13,16.10,2.93,-0.71,-10.52
-8,12,411,-57,-335,3898,-0.41,0.34,24.49,-0.57,-3.35,38.98,-4.84,1.12,16.00,2.91,-0.90,-10.63
-9,16,415,-37,-321,3876,-0.42,0.40,24.58,-0.37,-3.21,38.76,-4.84,1.11,15.90,2.92,-0.98,-10.68
-11,13,437,-41,-293,3902,-0.45,0.44,24.78,-0.41,-2.93,39.02,-4.82,1.11,15.80,2.96,-0.94,-10.91
-9,16,451,-87,-324,3924,-0.46,0.50,25.06,-0.87,-3.24,39.24,-4.81,1.13,15.70,2.92,-1.02,-11.09
-9,15,472,8,-359,3898,-0.46,0.54,25.43,0.08,-3.59,38.98,-4.82,1.13,15.60,2.93,-1.01,-11.35
-12,26,474,-30,-348,3895,-0.49,0.64,25.78,-0.30,-3.48,38.95,-4.82,1.12,15.50,2.99,-1.21,-11.45
2,19,479,-39,-369,3799,-0.43,0.69,26.12,-0.39,-3.69,37.99,-4.84,1.12,15.40,2.76,-1.12,-11.56
-14,15,502,-13,-390,3915,-0.47,0.72,26.57,-0.13,-3.90,39.15,-4.85,1.12,15.29,3.03,-1.06,-11.86
-8,21,543,-31,-383,3926,-0.47,0.77,27.23,-0.31,-3.83,39.26,-4.86,1.12,15.18,2.94,-1.17,-12.36
-6,12,542,-28,-404,3891,-0.46,0.77,27.81,-0.28,-4.04,38.91,-4.88,1.12,15.07,2.92,-1.04,-12.49
-13,12,559,-78,-312,3865,-0.50,0.76,28.44,-0.78,-3.12,38.65,-4.86,1.14,14.96,3.02,-1.04,-12.78
-1,12,584,-104,-367,3964,-0.45,0.76,29.16,-1.04,-3.67,39.64,-4.87,1.16,14.84,2.83,-1.05,-13.16
-13,20,596,-63,-404,3871,-0.49,0.81,29.88,-0.63,-4.04,38.71,-4.89,1.17,14.72,3.04,-1.20,-13.43
0,6,575,17,-350,3892,-0.44,0.76,30.40,0.17,-3.50,38.92,-4.89,1.17,14.60,2.83,-0.97,-13.37
-9,5,552,-36,-377,4006,-0.45,0.72,30.73,-0.36,-3.77,40.06,-4.90,1.17,14.48,2.97,-0.94,-13.25
-6,14,542,-83,-446,3893,-0.44,0.73,30.96,-0.83,-4.46,38.93,-4.92,1.18,14.36,2.93,-1.09,-13.22
1,12,497,-84,-358,3925,-0.39,0.73,30.89,-0.84,-3.58,39.25,-4.94,1.20,14.24,2.82,-1.06,-12.81
-12,5,487,-21,-402,3901,-0.42,0.69,30.78,-0.21,-4.02,39.01,-4.95,1.20,14.11,3.04,-0.94,-12.69
3,12,453,-54,-356,3913,-0.36,0.69,30.46,-0.54,-3.56,39.13,-4.96,1.19,13.99,2.79,-1.05,-12.31
-24,-5,443,-112,-333,3841,-0.47,0.59,30.12,-1.12,-3.33,38.41,-4.96,1.23,13.87,3.24,-0.78,-12.14
2,15,434,10,-334,3917,-0.41,0.63,29.75,0.10,-3.34,39.17,-4.96,1.22,13.75,2.82,-1.09,-11.96
-11,13,449,-50,-312,3974,-0.44,0.64,29.52,-0.50,-3.12,39.74,-4.94,1.22,13.64,3.02,-1.06,-12.02
-15,9,467,-19,-378,3883,-0.49,0.63,29.41,-0.19,-3.78,38.83,-4.95,1.22,13.52,3.10,-1.00,-12.14
7,22,450,-126,-282,3960,-0.40,0.70,29.22,-1.26,-2.82,39.60,-4.94,1.24,13.40,2.73,-1.23,-11.94
5,10,415,-96,-348,3962,-0.33,0.69,28.83,-0.96,-3.48,39.62,-4.95,1.27,13.29,2.74,-1.06,-11.54
-13,-2,408,-27,-306,3919,-0.37,0.61,28.43,-0.27,-3.06,39.19,-4.94,1.26,13.18,3.03,-0.85,-11.38
-2,8,366,-84,-288,3904,-0.35,0.60,27.82,-0.84,-2.88,39.04,-4.92,1.28,13.07,2.84,-1.01,-10.86
-12,2,362,-57,-315,3895,-0.39,0.55,27.25,-0.57,-3.15,38.95,-4.91,1.27,12.96,3.00,-0.90,-10.68
-10,7,353,-180,-248,3920,-0.41,0.54,26.68,-1.80,-2.48,39.20,-4.89,1.30,12.85,2.97,-0.98,-10.46
-2,9,360,-153,-279,3896,-0.38,0.54,26.21,-1.53,-2.79,38.96,-4.88,1.32,12.75,2.83,-1.03,-10.39
-4,13,351,-57,-282,3909,-0.37,0.57,25.73,-0.57,-2.82,39.09,-4.86,1.32,12.64,2.85,-1.10,-10.19
5,4,332,-35,-244,3889,-0.30,0.53,25.18,-0.35,-2.44,38.89,-4.85,1.32,12.54,2.68,-0.95,-9.89
-2,6,299,-2,-404,3937,-0.28,0.52,24.48,-0.02,-4.04,39.37,-4.86,1.32,12.44,2.79,-0.98,-9.43
2,8,278,-15,-373,3907,-0.24,0.51,23.73,-0.15,-3.73,39.07,-4.86,1.31,12.35,2.72,-1.00,-9.06
1,5,246,-47,-401,3912,-0.21,0.49,22.86,-0.47,-4.01,39.12,-4.88,1.31,12.26,2.73,-0.95,-8.57
-11,-3,242,-73,-319,3938,-0.26,0.43,22.05,-0.73,-3.19,39.38,-4.86,1.31,12.17,2.92,-0.80,-8.33
-5,0,222,-27,-370,3938,-0.26,0.38,21.20,-0.27,-3.70,39.38,-4.87,1.30,12.09,2.84,-0.83,-7.94
-5,3,217,-22,-371,3901,-0.27,0.36,20.40,-0.22,-3.71,39.01,-4.88,1.29,12.01,2.84,-0.87,-7.70
-2,-2,208,-99,-337,3905,-0.25,0.31,19.63,-0.99,-3.37,39.05,-4.89,1.32,11.93,2.79,-0.79,-7.43
-7,4,206,-114,-313,3879,-0.27,0.31,18.92,-1.14,-3.13,38.79,-4.87,1.34,11.85,2.87,-0.89,-7.23
-2,3,178,-74,-345,3918,-0.25,0.30,18.12,-0.74,-3.45,39.18,-4.88,1.33,11.78,2.79,-0.87,-6.79
-1,1,174,-76,-378,3890,-0.24,0.27,17.37,-0.76,-3.78,38.90,-4.90,1.33,11.71,2.78,-0.83,-6.57
-6,2,188,-28,-356,3907,-0.25,0.26,16.78,-0.28,-3.56,39.07,-4.90,1.32,11.65,2.87,-0.84,-6.54
-5,3,183,-59,-371,3919,-0.25,0.25,16.22,-0.59,-3.71,39.19,-4.92,1.32,11.58,2.86,-0.85,-6.35
0,3,193,-8,-390,3913,-0.23,0.24,15.77,-0.08,-3.90,39.13,-4.93,1.31,11.52,2.78,-0.84,-6.32
-9,-2,200,-19,-378,3867,-0.26,0.21,15.41,-0.19,-3.78,38.67,-4.94,1.30,11.46,2.93,-0.75,-6.29
-4,1,221,12,-356,3884,-0.26,0.19,15.22,0.12,-3.56,38.84,-4.94,1.29,11.40,2.86,-0.78,-6.42
-8,8,224,-136,-373,3988,-0.28,0.22,15.07,-1.36,-3.73,39.88,-4.95,1.31,11.34,2.93,-0.91,-6.40
-1,5,234,-46,-341,3894,-0.26,0.23,14.99,-0.46,-3.41,38.94,-4.95,1.30,11.28,2.82,-0.86,-6.46
-2,3,235,-28,-354,3927,-0.25,0.23,14.92,-0.28,-3.54,39.27,-4.95,1.29,11.22,2.83,-0.82,-6.45
-2,7,237,-65,-317,3899,-0.23,0.25,14.87,-0.65,-3.17,38.99,-4.94,1.28,11.16,2.82,-0.88,-6.45
-7,11,248,-116,-340,3928,-0.25,0.29,14.90,-1.16,-3.40,39.28,-4.94,1.30,11.10,2.90,-0.97,-6.55
3,13,323,-65,-372,3917,-0.21,0.34,15.38,-0.65,-3.72,39.17,-4.96,1.30,11.04,2.74,-1.02,-7.29
-3,12,336,-68,-335,3900,-0.21,0.38,15.89,-0.68,-3.35,39.00,-4.95,1.29,10.98,2.83,-1.01,-7.53
-3,11,353,-79,-316,3961,-0.20,0.41,16.46,-0.79,-3.16,39.61,-4.93,1.29,10.91,2.82,-1.00,-7.80
0,9,336,41,-383,3869,-0.18,0.42,16.86,0.41,-3.83,38.69,-4.94,1.28,10.84,2.77,-0.97,-7.76
5,-1,279,-48,-336,3962,-0.13,0.37,16.88,-0.48,-3.36,39.62,-4.94,1.27,10.78,2.68,-0.80,-7.27
5,-5,272,-1,-291,3859,-0.09,0.31,16.85,-0.01,-2.91,38.59,-4.93,1.26,10.71,2.66,-0.71,-7.20
-5,7,304,-67,-421,3888,-0.11,0.32,17.02,-0.67,-4.21,38.88,-4.94,1.26,10.64,2.83,-0.90,-7.51
2,4,320,-56,-407,3924,-0.09,0.31,17.27,-0.56,-4.07,39.24,-4.96,1.26,10.57,2.72,-0.85,-7.70
-9,1,358,-17,-436,3779,-0.13,0.29,17.72,-0.17,-4.36,37.79,-4.97,1.26,10.50,2.91,-0.79,-8.13
-7,1,383,-48,-417,3973,-0.16,0.26,18.29,-0.48,-4.17,39.73,-4.99,1.26,10.43,2.90,-0.79,-8.48
4,17,417,-149,-402,3914,-0.12,0.34,19.00,-1.49,-4.02,39.14,-5.00,1.28,10.35,2.73,-1.07,-8.93
-12,4,422,-129,-363,3927,-0.18,0.33,19.68,-1.29,-3.63,39.27,-5.01,1.30,10.28,2.99,-0.88,-9.14
-11,4,445,-61,-320,3941,-0.23,0.32,20.42,-0.61,-3.20,39.41,-4.99,1.30,10.20,2.99,-0.87,-9.51
-13,6,445,5,-343,3910,-0.29,0.33,21.10,0.05,-3.43,39.10,-4.99,1.29,10.11,3.03,-0.90,-9.67
-15,5,483,-131,-407,3830,-0.35,0.32,21.93,-1.31,-4.07,38.30,-5.01,1.31,10.02,3.09,-0.89,-10.19
-1,11,479,-171,-422,3947,-0.32,0.36,22.66,-1.71,-4.22,39.47,-5.02,1.33,9.93,2.88,-1.01,-10.33
-9,9,413,-61,-298,3933,-0.35,0.38,22.91,-0.61,-2.98,39.33,-5.00,1.33,9.84,3.00,-0.98,-9.83
-3,4,400,-80,-390,3848,-0.33,0.36,23.06,-0.80,-3.90,38.48,-5.02,1.34,9.75,2.91,-0.91,-9.75
2,10,407,-98,-385,3905,-0.28,0.39,23.24,-0.98,-3.85,39.05,-5.04,1.35,9.66,2.83,-1.01,-9.84
-3,10,419,-34,-423,3946,-0.27,0.41,23.47,-0.34,-4.23,39.46,-5.05,1.35,9.57,2.91,-1.02,-10.00
-8,6,402,-93,-324,3908,-0.30,0.41,23.58,-0.93,-3.24,39.08,-5.03,1.36,9.47,2.98,-0.96,-9.87
-6,1,394,-89,-341,3868,-0.30,0.37,23.62,-0.89,-3.41,38.68,-5.03,1.35,9.38,2.95,-0.87,-9.81
-4,7,351,-34,-299,3911,-0.30,0.38,23.40,-0.34,-2.99,39.11,-5.02,1.34,9.28,2.91,-0.96,-9.38
-5,1,340,-78,-312,3955,-0.30,0.35,23.13,-0.78,-3.12,39.55,-5.00,1.35,9.19,2.92,-0.86,-9.22
-1,5,330,-112,-322,3924,-0.27,0.34,22.83,-1.12,-3.22,39.24,-4.99,1.37,9.10,2.84,-0.93,-9.05
1,7,339,-119,-288,3826,-0.24,0.35,22.62,-1.19,-2.88,38.26,-4.97,1.39,9.01,2.79,-0.98,-9.07
3,14,409,-62,-298,3901,-0.20,0.40,22.85,-0.62,-2.98,39.01,-4.96,1.38,8.92,2.74,-1.10,-9.71
-4,14,439,-31,-281,3924,-0.20,0.45,23.24,-0.31,-2.81,39.24,-4.94,1.38,8.83,2.84,-1.11,-10.06
-9,15,536,-1,-418,3919,-0.24,0.49,24.19,-0.01,-4.18,39.19,-4.95,1.38,8.73,2.93,-1.14,-11.11
-10,6,571,-3,-431,3887,-0.27,0.48,25.25,-0.03,-4.31,38.87,-4.97,1.38,8.63,2.97,-0.99,-11.66
-17,12,570,-23,-386,3925,-0.35,0.51,26.21,-0.23,-3.86,39.25,-4.97,1.37,8.53,3.10,-1.09,-11.88
-11,6,563,-39,-381,3949,-0.38,0.49,27.02,-0.39,-3.81,39.49,-4.98,1.37,8.42,3.03,-0.99,-12.01
-10,3,553,-61,-308,3882,-0.41,0.46,27.69,-0.61,-3.08,38.82,-4.97,1.36,8.31,3.01,-0.94,-12.08
-3,13,549,-121,-344,3916,-0.38,0.49,28.27,-1.21,-3.44,39.16,-4.97,1.39,8.20,2.90,-1.12,-12.18
-10,3,523,-89,-247,3912,-0.41,0.46,28.63,-0.89,-2.47,39.12,-4.95,1.41,8.08,3.00,-0.96,-12.04
2,20,513,-111,-283,3875,-0.35,0.54,28.90,-1.11,-2.83,38.75,-4.93,1.42,7.97,2.79,-1.25,-12.02
-4,7,491,-73,-296,3948,-0.34,0.53,29.00,-0.73,-2.96,39.48,-4.91,1.43,7.85,2.87,-1.05,-11.85
-10,6,486,-86,-316,3860,-0.37,0.51,29.07,-0.86,-3.16,38.60,-4.90,1.43,7.73,2.96,-1.03,-11.81
4,14,476,-42,-319,3936,-0.31,0.55,29.07,-0.42,-3.19,39.36,-4.89,1.42,7.62,2.72,-1.16,-11.72
1,22,507,-3,-342,3932,-0.27,0.63,29.25,-0.03,-3.42,39.32,-4.89,1.42,7.50,2.76,-1.31,-12.02
-17,-2,583,-28,-427,3928,-0.35,0.55,29.88,-0.28,-4.27,39.28,-4.90,1.42,7.38,3.06,-0.92,-12.81
-2,20,603,-42,-394,3906,-0.32,0.62,30.57,-0.42,-3.94,39.06,-4.91,1.42,7.26,2.83,-1.27,-13.14
-4,20,708,-70,-399,3993,-0.32,0.68,31.83,-0.70,-3.99,39.93,-4.93,1.42,7.14,2.87,-1.29,-14.33
3,21,725,-57,-435,3912,-0.27,0.74,33.07,-0.57,-4.35,39.12,-4.94,1.43,7.00,2.75,-1.33,-14.77
-16,13,702,-7,-473,3906,-0.34,0.74,34.05,-0.07,-4.73,39.06,-4.96,1.43,6.87,3.07,-1.21,-14.81
-5,20,684,-67,-433,3934,-0.33,0.79,34.82,-0.67,-4.33,39.34,-4.97,1.44,6.73,2.91,-1.34,-14.83
-9,6,604,-88,-435,3949,-0.36,0.75,35.02,-0.88,-4.35,39.49,-4.99,1.46,6.59,2.99,-1.12,-14.20
-12,3,584,-87,-436,3881,-0.39,0.69,35.08,-0.87,-4.36,38.81,-5.00,1.47,6.45,3.06,-1.07,-14.03
-13,-1,525,-69,-368,3879,-0.43,0.62,34.77,-0.69,-3.68,38.79,-5.01,1.47,6.32,3.09,-0.98,-13.45
-4,-4,542,-42,-346,3927,-0.41,0.53,34.60,-0.42,-3.46,39.27,-5.01,1.47,6.18,2.94,-0.91,-13.54
-15,2,608,-20,-417,3936,-0.46,0.49,34.85,-0.20,-4.17,39.36,-5.02,1.47,6.04,3.13,-0.99,-14.15
-9,9,619,-30,-455,3894,-0.47,0.50,35.14,-0.30,-4.55,38.94,-5.04,1.47,5.90,3.05,-1.10,-14.31
-6,15,675,-81,-315,3916,-0.46,0.54,35.75,-0.81,-3.15,39.16,-5.02,1.48,5.76,2.99,-1.20,-14.92
-14,9,686,-66,-361,3870,-0.50,0.54,36.36,-0.66,-3.61,38.70,-5.03,1.48,5.61,3.13,-1.11,-15.15
-10,14,656,-103,-358,3842,-0.51,0.57,36.72,-1.03,-3.58,38.42,-5.04,1.49,5.47,3.08,-1.21,-14.98
-4,19,655,-185,-374,3978,-0.49,0.63,37.04,-1.85,-3.74,39.78,-5.05,1.53,5.32,2.99,-1.32,-15.04
-4,12,713,-16,-250,3894,-0.46,0.64,37.69,-0.16,-2.50,38.94,-5.03,1.53,5.17,2.97,-1.22,-15.68
-12,28,734,-116,-272,3970,-0.49,0.75,38.40,-1.16,-2.72,39.70,-5.01,1.55,5.02,3.09,-1.51,-16.02
-7,11,776,-19,-360,3888,-0.48,0.74,39.29,-0.19,-3.60,38.88,-5.01,1.55,4.86,3.01,-1.24,-16.58
-15,17,795,-8,-464,3914,-0.53,0.77,40.21,-0.08,-4.64,39.14,-5.03,1.55,4.70,3.15,-1.35,-16.96
-16,20,832,58,-372,3910,-0.57,0.81,41.27,0.58,-3.72,39.10,-5.03,1.55,4.54,3.18,-1.41,-17.52
-4,8,845,73,-449,3914,-0.54,0.78,42.29,0.73,-4.49,39.14,-5.03,1.55,4.37,2.99,-1.22,-17.87
-10,13,862,29,-466,3972,-0.55,0.78,43.32,0.29,-4.66,39.72,-5.04,1.56,4.20,3.09,-1.29,-18.26
-13,9,856,26,-506,3880,-0.57,0.76,44.21,0.26,-5.06,38.80,-5.05,1.57,4.02,3.15,-1.23,-18.41
-5,18,825,-83,-406,3852,-0.54,0.79,44.82,-0.83,-4.06,38.52,-5.07,1.58,3.84,3.03,-1.39,-18.29
-7,8,819,-77,-450,3876,-0.53,0.76,45.34,-0.77,-4.50,38.76,-5.08,1.59,3.66,3.06,-1.23,-18.35
-6,20,754,-129,-363,3899,-0.52,0.81,45.40,-1.29,-3.63,38.99,-5.09,1.63,3.48,3.05,-1.45,-17.81
-11,16,762,-107,-365,3934,-0.53,0.82,45.51,-1.07,-3.65,39.34,-5.11,1.64,3.30,3.14,-1.40,-17.89
-6,14,814,-30,-354,3915,-0.51,0.83,45.92,-0.30,-3.54,39.15,-5.10,1.64,3.12,3.06,-1.37,-18.42
-16,7,799,-55,-387,3922,-0.56,0.79,46.21,-0.55,-3.87,39.22,-5.11,1.65,2.93,3.23,-1.25,-18.35
-5,10,742,-77,-416,3939,-0.53,0.77,46.11,-0.77,-4.16,39.39,-5.12,1.66,2.75,3.06,-1.30,-17.83
-12,5,732,-110,-367,3902,-0.55,0.72,45.97,-1.10,-3.67,39.02,-5.14,1.67,2.57,3.18,-1.22,-17.69
-20,5,661,-153,-356,3852,-0.62,0.68,45.40,-1.53,-3.56,38.52,-5.14,1.71,2.39,3.32,-1.22,-16.94
-6,9,647,-159,-307,3922,-0.60,0.67,44.81,-1.59,-3.07,39.22,-5.12,1.74,2.21,3.09,-1.30,-16.66
-13,9,545,-78,-433,3898,-0.62,0.66,43.65,-0.78,-4.33,38.98,-5.14,1.75,2.04,3.21,-1.30,-15.50
-5,12,505,-45,-450,3942,-0.58,0.66,42.37,-0.45,-4.50,39.42,-5.15,1.76,1.87,3.09,-1.35,-14.84
-9,13,418,-118,-358,3873,-0.58,0.68,40.68,-1.18,-3.58,38.73,-5.16,1.77,1.71,3.15,-1.38,-13.67
-4,9,407,-149,-373,3951,-0.55,0.66,39.09,-1.49,-3.73,39.51,-5.17,1.80,1.55,3.07,-1.33,-13.18
-7,13,369,-266,-425,3900,-0.54,0.68,37.44,-2.66,-4.25,39.00,-5.18,1.84,1.40,3.12,-1.41,-12.44
-3,16,334,-277,-361,3876,-0.50,0.71,35.73,-2.77,-3.61,38.76,-5.17,1.87,1.26,3.04,-1.49,-11.71
-4,11,321,-218,-337,3891,-0.47,0.70,34.12,-2.18,-3.37,38.91,-5.17,1.90,1.13,3.05,-1.43,-11.19
-10,12,330,-236,-376,3902,-0.49,0.71,32.72,-2.36,-3.76,39.02,-5.17,1.94,1.00,3.15,-1.46,-10.92
1,21,313,-221,-358,3915,-0.43,0.76,31.35,-2.21,-3.58,39.15,-5.17,1.97,0.87,2.96,-1.64,-10.43
-5,23,310,-200,-311,3866,-0.42,0.83,30.11,-2.00,-3.11,38.66,-5.16,2.00,0.75,3.04,-1.70,-10.09
4,21,328,-64,-299,3975,-0.35,0.87,29.10,-0.64,-2.99,39.75,-5.14,2.00,0.63,2.88,-1.69,-9.99
0,17,325,-40,-287,3892,-0.32,0.89,28.17,-0.40,-2.87,38.92,-5.13,2.00,0.52,2.92,-1.63,-9.72
1,19,306,-43,-259,3908,-0.28,0.92,27.22,-0.43,-2.59,39.08,-5.11,2.00,0.41,2.88,-1.67,-9.32
-1,15,303,-63,-279,3931,-0.26,0.92,26.35,-0.63,-2.79,39.31,-5.10,2.00,0.31,2.90,-1.61,-9.07
-2,12,310,-28,-380,3879,-0.24,0.90,25.60,-0.28,-3.80,38.79,-5.10,1.99,0.21,2.91,-1.55,-8.94
0,10,340,-13,-346,3960,-0.22,0.87,25.12,-0.13,-3.46,39.60,-5.10,1.99,0.11,2.87,-1.51,-9.07
-13,16,395,18,-363,3880,-0.28,0.88,25.02,0.18,-3.63,38.80,-5.10,1.98,0.01,3.09,-1.60,-9.50
-3,20,415,-3,-410,3940,-0.27,0.91,25.05,-0.03,-4.10,39.40,-5.10,1.98,-0.09,2.93,-1.67,-9.67
-4,19,445,-122,-420,3932,-0.27,0.94,25.26,-1.22,-4.20,39.32,-5.12,1.98,-0.19,2.96,-1.67,-9.97
3,22,463,-70,-442,3966,-0.22,0.98,25.55,-0.70,-4.42,39.66,-5.13,1.99,-0.29,2.84,-1.73,-10.19
-5,19,553,-55,-479,3890,-0.23,1.00,26.37,-0.55,-4.79,38.90,-5.14,1.99,-0.40,2.98,-1.69,-11.15
2,29,580,-74,-371,3884,-0.19,1.07,27.27,-0.74,-3.71,38.84,-5.15,1.99,-0.50,2.86,-1.86,-11.59
-6,12,657,22,-431,3924,-0.21,1.04,28.55,0.22,-4.31,39.24,-5.15,1.98,-0.62,2.99,-1.59,-12.55
-7,27,654,33,-448,3893,-0.23,1.10,29.69,0.33,-4.48,38.93,-5.16,1.98,-0.74,3.01,-1.84,-12.80
-17,8,556,-57,-368,3844,-0.31,1.04,30.11,-0.57,-3.68,38.44,-5.16,1.98,-0.85,3.19,-1.53,-12.06
-15,8,502,-120,-370,3931,-0.37,0.98,30.16,-1.20,-3.70,39.31,-5.17,1.98,-0.97,3.19,-1.51,-11.61
-7,7,475,-69,-285,3887,-0.38,0.93,30.04,-0.69,-2.85,38.87,-5.15,1.98,-1.09,3.06,-1.48,-11.34
2,10,461,-81,-310,3942,-0.33,0.90,29.85,-0.81,-3.10,39.42,-5.14,1.98,-1.21,2.90,-1.52,-11.17
-2,8,442,-60,-197,3886,-0.31,0.86,29.56,-0.60,-1.97,38.86,-5.12,1.99,-1.33,2.94,-1.48,-10.93
0,3,442,-49,-235,3897,-0.28,0.79,29.30,-0.49,-2.35,38.97,-5.10,1.99,-1.45,2.89,-1.38,-10.85
0,4,457,13,-230,3930,-0.25,0.73,29.16,0.13,-2.30,39.30,-5.09,1.99,-1.56,2.87,-1.38,-10.94
-2,9,468,-17,-267,3971,-0.24,0.72,29.10,-0.17,-2.67,39.71,-5.07,1.99,-1.68,2.89,-1.45,-11.01
4,14,547,-16,-272,3931,-0.19,0.73,29.52,-0.16,-2.72,39.31,-5.06,1.99,-1.80,2.78,-1.53,-11.77
-1,10,561,-48,-242,3882,-0.18,0.72,29.99,-0.48,-2.42,38.82,-5.04,1.99,-1.92,2.84,-1.47,-12.00
8,12,552,41,-319,3928,-0.11,0.72,30.36,0.41,-3.19,39.28,-5.04,1.98,-2.04,2.68,-1.49,-12.01
-3,4,529,-17,-325,3917,-0.12,0.67,30.55,-0.17,-3.25,39.17,-5.03,1.98,-2.16,2.85,-1.36,-11.85
-2,3,409,-67,-416,3915,-0.12,0.62,29.99,-0.67,-4.16,39.15,-5.04,1.98,-2.28,2.84,-1.33,-10.69
1,3,363,-37,-390,3923,-0.10,0.58,29.21,-0.37,-3.90,39.23,-5.04,1.98,-2.40,2.79,-1.31,-10.10
7,7,275,-95,-498,3916,-0.05,0.56,27.96,-0.95,-4.98,39.16,-5.06,1.98,-2.51,2.69,-1.37,-9.04
0,6,263,-72,-419,3839,-0.04,0.54,26.77,-0.72,-4.19,38.39,-5.07,1.98,-2.61,2.80,-1.35,-8.63
0,4,216,-88,-409,3881,-0.04,0.51,25.41,-0.88,-4.09,38.81,-5.08,1.98,-2.71,2.81,-1.31,-7.89
7,6,204,-78,-433,3965,0.01,0.50,24.12,-0.78,-4.33,39.65,-5.09,1.98,-2.81,2.69,-1.33,-7.47
-4,-3,182,-73,-433,3928,-0.02,0.43,22.81,-0.73,-4.33,39.28,-5.10,1.98,-2.90,2.87,-1.18,-6.95
0,0,173,-57,-412,3943,-0.02,0.39,21.59,-0.57,-4.12,39.43,-5.11,1.98,-2.98,2.82,-1.21,-6.57
0,5,182,-118,-382,3891,-0.01,0.38,20.54,-1.18,-3.82,38.91,-5.12,1.98,-3.07,2.82,-1.28,-6.38
6,6,205,-110,-404,3899,0.02,0.38,19.74,-1.10,-4.04,38.99,-5.14,1.98,-3.14,2.73,-1.29,-6.37
-5,4,200,-134,-415,3882,-0.01,0.36,18.98,-1.34,-4.15,38.82,-5.15,1.99,-3.22,2.91,-1.26,-6.14
16,11,194,-143,-513,3952,0.09,0.40,18.27,-1.43,-5.13,39.52,-5.17,1.99,-3.29,2.57,-1.39,-5.91
1,-2,171,-181,-430,3923,0.09,0.34,17.48,-1.81,-4.30,39.23,-5.18,2.01,-3.36,2.81,-1.18,-5.52
-10,-4,165,-139,-409,3885,0.02,0.28,16.74,-1.39,-4.09,38.85,-5.20,2.02,-3.43,3.01,-1.14,-5.28
-10,11,191,-82,-319,3892,-0.05,0.32,16.23,-0.82,-3.19,38.92,-5.19,2.01,-3.49,3.02,-1.37,-5.37
1,10,211,-128,-273,4022,-0.03,0.35,15.90,-1.28,-2.73,40.22,-5.17,2.02,-3.55,2.84,-1.37,-5.45
22,16,293,-281,-429,3821,0.10,0.41,16.09,-2.81,-4.29,38.21,-5.17,2.04,-3.62,2.48,-1.49,-6.19
-8,7,300,-246,-475,3882,0.04,0.42,16.31,-2.46,-4.75,38.82,-5.18,2.06,-3.68,2.96,-1.37,-6.30
10,19,274,-51,-403,3941,0.10,0.49,16.35,-0.51,-4.03,39.41,-5.19,2.05,-3.75,2.67,-1.57,-6.08
2,15,285,-10,-410,3919,0.10,0.53,16.46,-0.10,-4.10,39.19,-5.19,2.04,-3.81,2.79,-1.51,-6.20
-8,5,337,-3,-233,3888,0.04,0.51,16.87,-0.03,-2.33,38.88,-5.18,2.04,-3.88,2.96,-1.35,-6.73
27,40,341,24,-203,4010,0.20,0.70,17.26,0.24,-2.03,40.10,-5.16,2.03,-3.95,2.37,-1.94,-6.86
45,48,257,-64,-576,3842,0.46,0.93,17.10,-0.64,-5.76,38.42,-5.18,2.04,-4.02,2.02,-2.13,-6.11
28,24,233,-109,-658,3771,0.58,0.98,16.81,-1.09,-6.58,37.71,-5.19,2.04,-4.08,2.25,-1.79,-5.83
-12,-23,102,-117,-515,3923,0.45,0.74,15.75,-1.17,-5.15,39.23,-5.20,2.05,-4.14,2.91,-1.00,-4.45
-17,-25,82,-74,-436,3915,0.30,0.51,14.68,-0.74,-4.36,39.15,-5.21,2.05,-4.20,3.03,-0.90,-4.01
-40,-43,85,-99,-455,3931,0.03,0.20,13.73,-0.99,-4.55,39.31,-5.23,2.04,-4.26,3.48,-0.53,-3.80
-43,-43,80,-108,-450,3927,-0.24,-0.08,12.84,-1.08,-4.50,39.27,-5.25,2.04,-4.31,3.61,-0.44,-3.54
-19,-17,79,-148,-336,3936,-0.33,-0.18,12.04,-1.48,-3.36,39.36,-5.23,2.05,-4.36,3.27,-0.81,-3.33
-8,-4,77,-89,-391,3912,-0.34,-0.18,11.31,-0.89,-3.91,39.12,-5.24,2.04,-4.40,3.11,-1.00,-3.13
-12,-6,80,-76,-412,3907,-0.38,-0.20,10.66,-0.76,-4.12,39.07,-5.25,2.03,-4.44,3.19,-0.96,-2.99
-12,-6,86,-48,-404,3910,-0.42,-0.22,10.12,-0.48,-4.04,39.10,-5.26,2.01,-4.48,3.20,-0.95,-2.91
-2,0,80,-82,-456,3885,-0.39,-0.20,9.60,-0.82,-4.56,38.85,-5.27,2.01,-4.52,3.05,-1.04,-2.72
-1,-2,73,-69,-459,3882,-0.36,-0.19,9.08,-0.69,-4.59,38.82,-5.29,2.00,-4.56,3.03,-1.01,-2.54
2,-4,63,-52,-389,3911,-0.31,-0.19,8.56,-0.52,-3.89,39.11,-5.29,1.98,-4.59,2.98,-0.97,-2.32
3,-6,69,-63,-380,3911,-0.26,-0.21,8.12,-0.63,-3.80,39.11,-5.30,1.97,-4.62,2.95,-0.93,-2.26
3,-5,67,-33,-371,3916,-0.21,-0.22,7.72,-0.33,-3.71,39.16,-5.30,1.95,-4.65,2.93,-0.93,-2.14
5,1,78,-8,-311,3948,-0.16,-0.19,7.42,-0.08,-3.11,39.48,-5.29,1.94,-4.68,2.88,-1.02,-2.16
-1,3,194,-74,-328,3918,-0.15,-0.16,7.87,-0.74,-3.28,39.18,-5.28,1.92,-4.71,2.97,-1.06,-3.25
-4,4,247,-60,-424,3848,-0.16,-0.12,8.59,-0.60,-4.24,38.48,-5.29,1.91,-4.75,3.02,-1.08,-3.87
2,6,325,-19,-286,3916,-0.13,-0.07,9.71,-0.19,-2.86,39.16,-5.28,1.90,-4.79,2.92,-1.12,-4.81
-3,19,352,-74,-390,3902,-0.14,0.06,10.89,-0.74,-3.90,39.02,-5.29,1.89,-4.83,3.00,-1.35,-5.32
40,40,473,-108,-360,3872,0.12,0.29,12.68,-1.08,-3.60,38.72,-5.29,1.88,-4.88,2.26,-1.73,-6.79
26,37,491,-148,-416,3880,0.27,0.49,14.41,-1.48,-4.16,38.80,-5.30,1.89,-4.94,2.44,-1.75,-7.36
29,43,451,-148,-472,3909,0.42,0.70,15.72,-1.48,-4.72,39.09,-5.32,1.90,-5.00,2.36,-1.92,-7.34
31,36,442,-187,-507,3864,0.56,0.85,16.84,-1.87,-5.07,38.64,-5.33,1.92,-5.07,2.29,-1.87,-7.54
26,34,403,-50,-359,3933,0.67,0.97,17.62,-0.50,-3.59,39.33,-5.32,1.91,-5.14,2.33,-1.87,-7.39
10,20,370,-19,-420,3907,0.66,1.00,18.11,-0.19,-4.20,39.07,-5.33,1.91,-5.21,2.58,-1.66,-7.23
-16,4,367,-65,-314,3853,0.50,0.92,18.54,-0.65,-3.14,38.53,-5.31,1.90,-5.28,3.01,-1.39,-7.30
-21,-8,390,-64,-342,3871,0.32,0.78,19.07,-0.64,-3.42,38.71,-5.30,1.89,-5.36,3.14,-1.16,-7.62
-37,-17,397,-121,-367,3877,0.06,0.60,19.58,-1.21,-3.67,38.77,-5.31,1.89,-5.43,3.47,-0.96,-7.80
-23,-17,398,-101,-371,3957,-0.09,0.44,20.05,-1.01,-3.71,39.57,-5.31,1.88,-5.51,3.30,-0.91,-7.92
-9,2,458,-105,-432,3841,-0.13,0.41,20.84,-1.05,-4.32,38.41,-5.33,1.89,-5.60,3.11,-1.19,-8.62
-10,6,478,-67,-478,3930,-0.18,0.40,21.67,-0.67,-4.78,39.30,-5.34,1.89,-5.68,3.15,-1.25,-8.99
16,32,518,-34,-506,3857,-0.06,0.56,22.66,-0.34,-5.06,38.57,-5.35,1.89,-5.77,2.72,-1.70,-9.56
1,23,498,-134,-532,3922,-0.05,0.64,23.44,-1.34,-5.32,39.22,-5.37,1.90,-5.86,2.95,-1.59,-9.58
-12,6,400,-118,-486,3872,-0.12,0.61,23.53,-1.18,-4.86,38.72,-5.39,1.91,-5.96,3.18,-1.33,-8.76
-5,6,379,-92,-451,3920,-0.14,0.59,23.49,-0.92,-4.51,39.20,-5.40,1.91,-6.05,3.09,-1.32,-8.57
3,16,348,-149,-381,3907,-0.11,0.63,23.26,-1.49,-3.81,39.07,-5.41,1.94,-6.14,2.96,-1.50,-8.24
9,17,354,-161,-324,3856,-0.04,0.67,23.10,-1.61,-3.24,38.56,-5.39,1.96,-6.23,2.84,-1.54,-8.25
3,13,322,-162,-366,3884,-0.02,0.68,22.75,-1.62,-3.66,38.84,-5.39,1.99,-6.32,2.92,-1.50,-7.88
20,19,309,-117,-315,3918,0.11,0.73,22.36,-1.17,-3.15,39.18,-5.37,1.99,-6.41,2.61,-1.61,-7.67
42,43,274,-24,-263,3929,0.35,0.92,21.80,-0.24,-2.63,39.29,-5.35,1.99,-6.50,2.19,-2.03,-7.23
43,48,269,-53,-297,3886,0.58,1.12,21.26,-0.53,-2.97,38.86,-5.33,1.99,-6.59,2.10,-2.17,-7.05
65,68,258,-67,-406,3924,0.92,1.42,20.71,-0.67,-4.06,39.24,-5.33,1.99,-6.67,1.66,-2.57,-6.82
70,77,270,-15,-336,3917,1.25,1.75,20.28,-0.15,-3.36,39.17,-5.32,1.99,-6.75,1.48,-2.80,-6.81
80,83,270,-26,-385,3890,1.62,2.08,19.90,-0.26,-3.85,38.90,-5.32,1.98,-6.83,1.21,-2.99,-6.71
42,53,250,-11,-422,3906,1.71,2.20,19.44,-0.11,-4.22,39.06,-5.31,1.98,-6.90,1.76,-2.57,-6.42
10,30,296,-77,-580,3879,1.60,2.16,19.30,-0.77,-5.80,38.79,-5.32,1.99,-6.98,2.29,-2.21,-6.77
2,26,347,-82,-707,3935,1.45,2.10,19.48,-0.82,-7.07,39.35,-5.33,2.01,-7.05,2.46,-2.14,-7.24
3,32,379,-44,-647,3905,1.33,2.09,19.85,-0.44,-6.47,39.05,-5.34,2.02,-7.13,2.49,-2.23,-7.60
2,35,393,-85,-646,3941,1.20,2.09,20.26,-0.85,-6.46,39.41,-5.35,2.03,-7.21,2.55,-2.29,-7.81
-1,20,459,-99,-526,3996,1.08,2.00,21.03,-0.99,-5.26,39.96,-5.36,2.04,-7.29,2.64,-2.04,-8.56
-1,23,465,-29,-466,3882,0.96,1.94,21.77,-0.29,-4.66,38.82,-5.37,2.04,-7.38,2.67,-2.07,-8.78
-3,22,416,-84,-76,3887,0.85,1.88,22.13,-0.84,-0.76,38.87,-5.34,2.05,-7.47,2.73,-2.04,-8.45
-1,19,393,-114,-83,3925,0.76,1.81,22.31,-1.14,-0.83,39.25,-5.32,2.07,-7.56,2.71,-1.98,-8.29
5,14,332,-180,-148,3866,0.71,1.72,22.11,-1.80,-1.48,38.66,-5.30,2.09,-7.64,2.62,-1.88,-7.72
-3,3,321,-143,-117,3961,0.62,1.56,21.85,-1.43,-1.17,39.61,-5.27,2.10,-7.73,2.75,-1.68,-7.56
6,15,313,-132,-384,3915,0.60,1.50,21.58,-1.32,-3.84,39.15,-5.28,2.11,-7.82,2.63,-1.84,-7.42
-18,-2,355,-60,-368,3994,0.43,1.34,21.59,-0.60,-3.68,39.94,-5.28,2.10,-7.90,3.05,-1.53,-7.77
-9,15,391,-98,-479,3848,0.33,1.29,21.81,-0.98,-4.79,38.48,-5.29,2.11,-7.99,2.95,-1.78,-8.12
-1,19,406,-88,-450,3890,0.29,1.28,22.11,-0.88,-4.50,38.90,-5.30,2.11,-8.08,2.84,-1.84,-8.32
5,9,471,-74,-433,3936,0.29,1.21,22.77,-0.74,-4.33,39.36,-5.31,2.11,-8.16,2.75,-1.67,-9.02
-13,12,492,-83,-502,3953,0.18,1.16,23.49,-0.83,-5.02,39.53,-5.32,2.12,-8.26,3.07,-1.70,-9.37
-5,-11,408,-116,-370,4004,0.14,0.98,23.63,-1.16,-3.70,40.04,-5.32,2.11,-8.35,2.96,-1.29,-8.69
-7,-14,355,-121,-242,3880,0.08,0.79,23.44,-1.21,-2.42,38.80,-5.29,2.12,-8.45,2.99,-1.19,-8.18
-6,-5,289,-88,-427,3860,0.03,0.68,22.86,-0.88,-4.27,38.60,-5.30,2.12,-8.54,3.00,-1.30,-7.48
6,-10,308,-130,-420,3936,0.07,0.55,22.45,-1.30,-4.20,39.36,-5.32,2.12,-8.62,2.81,-1.18,-7.53
-9,-4,346,-48,-324,3739,0.01,0.47,22.31,-0.48,-3.24,37.39,-5.31,2.12,-8.71,3.06,-1.25,-7.81
-2,9,391,-154,-349,3854,-0.01,0.48,22.47,-1.54,-3.49,38.54,-5.30,2.14,-8.80,2.95,-1.46,-8.23
-4,3,461,-53,-462,3948,-0.03,0.45,23.03,-0.53,-4.62,39.48,-5.31,2.14,-8.89,2.99,-1.36,-8.95
2,0,450,-98,-457,3891,-0.02,0.41,23.47,-0.98,-4.57,38.91,-5.32,2.14,-8.99,2.90,-1.30,-8.96
-3,0,378,-171,-348,3844,-0.03,0.37,23.43,-1.71,-3.48,38.44,-5.31,2.17,-9.08,2.98,-1.30,-8.33
-4,0,375,-201,-345,3896,-0.05,0.33,23.38,-2.01,-3.45,38.96,-5.30,2.19,-9.17,2.99,-1.31,-8.29
-17,-6,344,-161,-496,4006,-0.15,0.26,23.14,-1.61,-4.96,40.06,-5.31,2.21,-9.26,3.23,-1.20,-7.96
2,2,338,-176,-473,4026,-0.12,0.25,22.89,-1.76,-4.73,40.26,-5.33,2.22,-9.36,2.94,-1.33,-7.84
-1,-9,375,-58,-374,3878,-0.12,0.17,22.88,-0.58,-3.74,38.78,-5.33,2.21,-9.45,2.98,-1.13,-8.15
-6,-8,385,5,-439,3940,-0.14,0.10,22.94,0.05,-4.39,39.40,-5.33,2.20,-9.54,3.07,-1.12,-8.24
2,3,412,-94,-376,3916,-0.12,0.11,23.16,-0.94,-3.76,39.16,-5.33,2.19,-9.63,2.94,-1.29,-8.52
1,-3,390,-189,-397,3995,-0.10,0.08,23.23,-1.89,-3.97,39.95,-5.34,2.22,-9.72,2.95,-1.20,-8.34
-1,-14,342,-145,-402,3950,-0.09,-0.01,22.99,-1.45,-4.02,39.50,-5.36,2.22,-9.81,2.99,-1.00,-7.87
-3,-6,317,-145,-383,3907,-0.10,-0.05,22.62,-1.45,-3.83,39.07,-5.37,2.22,-9.90,3.03,-1.12,-7.56
-8,-7,231,-142,-320,3930,-0.14,-0.09,21.77,-1.42,-3.20,39.30,-5.35,2.23,-9.99,3.11,-1.09,-6.62
-6,-6,224,-160,-352,3892,-0.16,-0.11,20.96,-1.60,-3.52,38.92,-5.33,2.24,-10.07,3.07,-1.11,-6.35
-1,-8,287,-38,-436,3965,-0.15,-0.15,20.62,-0.38,-4.36,39.65,-5.34,2.23,-10.16,3.00,-1.06,-6.79
-1,2,303,-13,-436,3852,-0.14,-0.12,20.40,-0.13,-4.36,38.52,-5.34,2.22,-10.24,3.00,-1.22,-6.87
3,12,332,-191,-455,3940,-0.11,-0.04,20.39,-1.91,-4.55,39.40,-5.36,2.24,-10.32,2.93,-1.40,-7.11
-4,21,329,-192,-516,4041,-0.13,0.09,20.36,-1.92,-5.16,40.41,-5.37,2.25,-10.40,3.05,-1.59,-7.07
-5,0,326,-149,-275,3897,-0.14,0.08,20.31,-1.49,-2.75,38.97,-5.35,2.26,-10.48,3.06,-1.27,-7.03
-8,4,298,-124,-321,3875,-0.18,0.10,20.10,-1.24,-3.21,38.75,-5.33,2.26,-10.56,3.11,-1.33,-6.73
-7,1,242,-77,-416,3936,-0.20,0.10,19.56,-0.77,-4.16,39.36,-5.34,2.25,-10.64,3.11,-1.28,-6.12
-2,2,237,-81,-402,3926,-0.19,0.10,19.05,-0.81,-4.02,39.26,-5.35,2.24,-10.71,3.03,-1.29,-5.95
-4,3,243,-28,-427,3882,-0.20,0.11,18.63,-0.28,-4.27,38.82,-5.35,2.23,-10.79,3.07,-1.31,-5.89
3,4,244,-75,-411,3922,-0.16,0.12,18.25,-0.75,-4.11,39.22,-5.36,2.22,-10.86,2.95,-1.32,-5.80
-8,1,240,-119,-404,3903,-0.19,0.11,17.89,-1.19,-4.04,39.03,-5.37,2.22,-10.93,3.14,-1.27,-5.67
13,8,248,-152,-369,3925,-0.10,0.15,17.62,-1.52,-3.69,39.25,-5.37,2.21,-11.00,2.78,-1.38,-5.67
2,11,271,0,-513,3904,-0.07,0.20,17.51,0.00,-5.13,39.04,-5.38,2.20,-11.07,2.95,-1.44,-5.83
0,18,286,-47,-569,3961,-0.07,0.29,17.50,-0.47,-5.69,39.61,-5.39,2.20,-11.14,2.99,-1.57,-5.95
-6,9,400,12,-675,3948,-0.10,0.32,18.19,0.12,-6.75,39.48,-5.40,2.20,-11.21,3.09,-1.44,-7.08
1,25,434,29,-623,3919,-0.08,0.44,19.02,0.29,-6.23,39.19,-5.42,2.20,-11.29,2.99,-1.72,-7.57
-39,-2,481,12,-719,3653,-0.31,0.38,20.05,0.12,-7.19,36.53,-5.43,2.20,-11.36,3.68,-1.30,-8.21
-13,-10,483,-48,-606,3932,-0.36,0.28,20.99,-0.48,-6.06,39.32,-5.45,2.20,-11.45,3.30,-1.14,-8.46
10,32,422,-147,-59,4019,-0.26,0.45,21.47,-1.47,-0.59,40.19,-5.43,2.21,-11.53,2.91,-1.84,-8.05
17,17,418,-157,-121,3951,-0.13,0.51,21.87,-1.57,-1.21,39.51,-5.41,2.22,-11.62,2.75,-1.64,-8.11
-13,6,358,-376,27,3842,-0.20,0.50,21.87,-3.76,0.27,38.42,-5.39,2.24,-11.71,3.22,-1.47,-7.60
4,11,325,-334,-43,3951,-0.15,0.51,21.66,-3.34,-0.43,39.51,-5.37,2.26,-11.80,2.94,-1.57,-7.26
-3,6,241,-187,-237,3912,-0.16,0.50,20.97,-1.87,-2.37,39.12,-5.35,2.27,-11.88,3.04,-1.49,-6.37
-11,39,212,-254,-538,4202,-0.21,0.69,20.16,-2.54,-5.38,42.02,-5.36,2.29,-11.96,3.18,-2.07,-5.92
5,1,222,-60,-223,3852,-0.16,0.62,19.50,-0.60,-2.23,38.52,-5.34,2.29,-12.04,2.91,-1.47,-5.84
0,12,242,-171,-370,3895,-0.14,0.63,19.03,-1.71,-3.70,38.95,-5.35,2.32,-12.11,2.98,-1.65,-5.89
2,17,282,-59,-450,3900,-0.11,0.67,18.84,-0.59,-4.50,39.00,-5.36,2.31,-12.19,2.95,-1.74,-6.17
-5,11,294,-51,-361,3989,-0.13,0.67,18.75,-0.51,-3.61,39.89,-5.35,2.31,-12.26,3.06,-1.64,-6.25
5,66,322,-112,-697,4228,-0.09,1.01,18.84,-1.12,-6.97,42.28,-5.37,2.31,-12.34,2.90,-2.59,-6.50
22,37,347,-71,-474,3480,0.05,1.13,19.08,-0.71,-4.74,34.80,-5.38,2.32,-12.41,2.61,-2.18,-6.77
-3,2,407,25,-237,3947,0.03,1.03,19.65,0.25,-2.37,39.47,-5.37,2.31,-12.49,2.99,-1.62,-7.41
1,0,394,-47,-166,3960,0.03,0.93,20.09,-0.47,-1.66,39.60,-5.35,2.32,-12.57,2.92,-1.56,-7.40
-11,-6,369,-133,-447,3865,-0.04,0.80,20.33,-1.33,-4.47,38.65,-5.36,2.32,-12.65,3.13,-1.43,-7.24
-1,2,363,-254,-366,3944,-0.04,0.73,20.51,-2.54,-3.66,39.44,-5.36,2.35,-12.73,2.97,-1.55,-7.23
-8,-11,319,-115,-242,3925,-0.08,0.59,20.41,-1.15,-2.42,39.25,-5.34,2.35,-12.81,3.08,-1.31,-6.83
-4,-4,293,-168,-211,3893,-0.10,0.51,20.15,-1.68,-2.11,38.93,-5.32,2.36,-12.89,3.02,-1.39,-6.54
3,-2,271,-8,-306,3983,-0.07,0.45,19.79,-0.08,-3.06,39.83,-5.31,2.36,-12.97,2.90,-1.40,-6.26
3,-4,285,67,-329,3901,-0.05,0.38,19.55,0.67,-3.29,39.01,-5.30,2.35,-13.05,2.88,-1.35,-6.31
-19,-3,370,12,-299,3903,-0.16,0.32,19.85,0.12,-2.99,39.03,-5.29,2.34,-13.13,3.25,-1.34,-7.10
10,-8,393,-102,-240,3930,-0.08,0.24,20.26,-1.02,-2.40,39.30,-5.27,2.34,-13.21,2.77,-1.24,-7.39
8,0,221,-195,-115,3927,-0.02,0.22,19.59,-1.95,-1.15,39.27,-5.25,2.35,-13.29,2.77,-1.36,-5.76
9,17,176,-219,-147,3946,0.03,0.30,18.70,-2.19,-1.47,39.46,-5.23,2.36,-13.37,2.73,-1.65,-5.16
-10,-18,92,-144,-626,3835,-0.03,0.16,17.39,-1.44,-6.26,38.35,-5.25,2.37,-13.43,3.05,-1.08,-4.12
-14,-25,81,-155,-525,3894,-0.11,-0.01,16.15,-1.55,-5.25,38.94,-5.26,2.37,-13.50,3.14,-0.92,-3.72
7,-18,81,-118,-391,3975,-0.06,-0.12,15.03,-1.18,-3.91,39.75,-5.27,2.36,-13.56,2.81,-0.99,-3.44
2,-18,83,-105,-417,3905,-0.04,-0.22,14.03,-1.05,-4.17,39.05,-5.28,2.35,-13.61,2.89,-0.95,-3.20
3,-11,74,-143,-383,3905,-0.02,-0.26,13.08,-1.43,-3.83,39.05,-5.29,2.35,-13.66,2.87,-1.04,-2.89
1,-9,61,-104,-450,3905,-0.01,-0.29,12.14,-1.04,-4.50,39.05,-5.31,2.34,-13.71,2.91,-1.06,-2.55
-2,-8,41,-117,-435,3891,-0.02,-0.31,11.18,-1.17,-4.35,38.91,-5.32,2.33,-13.76,2.96,-1.07,-2.14
-2,-6,32,-112,-415,3899,-0.03,-0.32,10.26,-1.12,-4.15,38.99,-5.33,2.32,-13.80,2.97,-1.09,-1.83
-4,-4,31,-111,-405,3895,-0.05,-0.31,9.42,-1.11,-4.05,38.95,-5.34,2.31,-13.83,3.02,-1.12,-1.61
-1,-2,32,-135,-360,3914,-0.05,-0.29,8.67,-1.35,-3.60,39.14,-5.34,2.30,-13.87,2.97,-1.14,-1.43
-2,1,40,-108,-397,3929,-0.06,-0.26,8.05,-1.08,-3.97,39.29,-5.34,2.28,-13.90,2.99,-1.19,-1.35
-5,0,45,-126,-393,3923,-0.09,-0.23,7.52,-1.26,-3.93,39.23,-5.36,2.27,-13.93,3.05,-1.18,-1.26
-3,7,134,-66,-535,3893,-0.09,-0.16,7.58,-0.66,-5.35,38.93,-5.37,2.26,-13.96,3.03,-1.30,-2.02
-3,8,215,-84,-601,3882,-0.10,-0.10,8.14,-0.84,-6.01,38.82,-5.39,2.26,-13.99,3.04,-1.34,-2.84
-2,10,321,-196,-509,3865,-0.11,-0.03,9.28,-1.96,-5.09,38.65,-5.40,2.27,-14.03,3.03,-1.39,-4.02
-3,16,344,-209,-458,3910,-0.11,0.07,10.45,-2.09,-4.58,39.10,-5.42,2.28,-14.07,3.06,-1.52,-4.50
2,30,433,-291,-417,3905,-0.09,0.25,12.05,-2.91,-4.17,39.05,-5.42,2.31,-14.12,2.98,-1.80,-5.65
-10,34,409,90,-280,4008,-0.14,0.43,13.34,0.90,-2.80,40.08,-5.41,2.30,-14.17,3.17,-1.91,-5.76
5,5,156,-53,-323,3890,-0.10,0.42,12.96,-0.53,-3.23,38.90,-5.41,2.29,-14.22,2.93,-1.46,-3.51
5,2,157,-69,-413,3791,-0.06,0.39,12.62,-0.69,-4.13,37.91,-5.41,2.28,-14.27,2.92,-1.40,-3.44
-2,-14,241,-8,-445,3922,-0.06,0.26,12.83,-0.08,-4.45,39.22,-5.42,2.27,-14.32,3.03,-1.11,-4.20
4,-6,280,25,-456,3900,-0.03,0.20,13.25,0.25,-4.56,39.00,-5.43,2.26,-14.37,2.93,-1.21,-4.63
1,17,382,14,-291,3945,-0.02,0.28,14.26,0.14,-2.91,39.45,-5.42,2.25,-14.43,2.97,-1.58,-5.73
-4,17,399,-75,-426,3878,-0.05,0.36,15.27,-0.75,-4.26,38.78,-5.42,2.24,-14.49,3.06,-1.60,-6.12
-3,21,369,-147,-432,3909,-0.06,0.45,15.99,-1.47,-4.32,39.09,-5.44,2.24,-14.55,3.06,-1.69,-6.04
7,14,365,-155,-491,3899,-0.01,0.49,16.62,-1.55,-4.91,38.99,-5.46,2.25,-14.62,2.90,-1.60,-6.16
-1,20,359,-43,-489,3842,-0.02,0.57,17.15,-0.43,-4.89,38.42,-5.47,2.25,-14.69,3.03,-1.71,-6.23
8,17,352,-60,-564,3927,0.03,0.61,17.58,-0.60,-5.64,39.27,-5.48,2.25,-14.76,2.88,-1.68,-6.28
0,3,272,-51,-333,3912,0.03,0.57,17.48,-0.51,-3.33,39.12,-5.47,2.24,-14.83,3.00,-1.45,-5.57
-7,8,283,-100,-383,3852,-0.01,0.56,17.46,-1.00,-3.83,38.52,-5.47,2.23,-14.90,3.12,-1.52,-5.65
-4,-7,305,-164,-235,3929,-0.04,0.46,17.57,-1.64,-2.35,39.29,-5.45,2.24,-14.97,3.07,-1.27,-5.86
-5,-10,305,-115,-252,3864,-0.06,0.36,17.68,-1.15,-2.52,38.64,-5.43,2.25,-15.04,3.08,-1.19,-5.88
-10,-13,322,-130,-346,3940,-0.12,0.24,17.87,-1.30,-3.46,39.40,-5.42,2.24,-15.11,3.17,-1.11,-6.07
-1,-10,292,-99,-390,3918,-0.11,0.16,17.87,-0.99,-3.90,39.18,-5.42,2.23,-15.18,3.03,-1.12,-5.81
-3,5,403,-41,-431,3918,-0.12,0.17,18.54,-0.41,-4.31,39.18,-5.43,2.22,-15.25,3.07,-1.35,-6.91
-3,2,423,17,-355,4035,-0.13,0.17,19.26,0.17,-3.55,40.35,-5.42,2.21,-15.33,3.07,-1.30,-7.25
5,17,450,-129,-428,3897,-0.08,0.25,20.08,-1.29,-4.28,38.97,-5.43,2.21,-15.41,2.94,-1.55,-7.68
2,9,430,-111,-367,3892,-0.06,0.28,20.70,-1.11,-3.67,38.92,-5.43,2.20,-15.49,2.98,-1.44,-7.65
-13,3,362,-186,-350,3885,-0.14,0.27,20.84,-1.86,-3.50,38.85,-5.42,2.23,-15.57,3.22,-1.36,-7.10
9,12,357,-161,-454,3907,-0.07,0.32,20.93,-1.61,-4.54,39.07,-5.43,2.24,-15.66,2.87,-1.51,-7.08
-3,-5,279,-49,-434,3932,-0.08,0.26,20.54,-0.49,-4.34,39.32,-5.44,2.23,-15.74,3.06,-1.23,-6.32
-8,-8,264,-30,-464,3901,-0.12,0.18,20.10,-0.30,-4.64,39.01,-5.45,2.23,-15.82,3.16,-1.16,-6.08
-9,-11,297,-67,-513,3884,-0.16,0.10,19.90,-0.67,-5.13,38.84,-5.46,2.23,-15.90,3.19,-1.09,-6.30
-6,-11,340,-106,-476,3897,-0.18,0.02,19.98,-1.06,-4.76,38.97,-5.48,2.23,-15.98,3.16,-1.06,-6.68
-12,-22,400,-37,-501,3960,-0.24,-0.12,20.42,-0.37,-5.01,39.60,-5.49,2.22,-16.06,3.27,-0.85,-7.29
-37,-32,393,-96,-437,3888,-0.44,-0.30,20.78,-0.96,-4.37,38.88,-5.50,2.22,-16.14,3.72,-0.64,-7.31
-77,-55,394,-128,-506,3885,-0.87,-0.61,21.10,-1.28,-5.06,38.85,-5.52,2.22,-16.22,4.47,-0.20,-7.40
-49,-53,391,-70,-479,3983,-1.08,-0.87,21.38,-0.70,-4.79,39.83,-5.53,2.21,-16.31,4.12,-0.14,-7.43
-37,-26,419,0,-510,3887,-1.20,-0.94,21.80,0.00,-5.10,38.87,-5.55,2.20,-16.39,3.98,-0.53,-7.77
-35,-23,432,-74,-377,3966,-1.29,-0.99,22.25,-0.74,-3.77,39.66,-5.55,2.19,-16.48,3.98,-0.55,-7.98
30,32,404,-110,-240,3889,-0.98,-0.69,22.49,-1.10,-2.40,38.89,-5.53,2.19,-16.57,2.88,-1.48,-7.80
9,27,388,-142,-320,3904,-0.83,-0.46,22.61,-1.42,-3.20,39.04,-5.51,2.19,-16.66,3.15,-1.48,-7.69
