gyroADC_X,gyroADC_Y,gyroADC_Z,accADC_X,accADC_Y,accADC_Z,GyroX,GyroY,GyroZ,AccX,AccY,AccZ,roll_IMU,pitch_IMU,yaw_IMU,roll_PID,pitch_PID,yaw_PID
1,1,1,-47,-432,3887,-0.06,0.07,0.03,-0.47,-4.32,38.87,-6.27,0.84,-0.13,4.14,-0.59,-0.04
4,1,1,-53,-402,3893,-0.03,0.07,0.03,-0.53,-4.02,38.93,-6.25,0.84,-0.13,4.06,-0.59,-0.04
-2,3,0,-66,-418,3917,-0.04,0.08,0.03,-0.66,-4.18,39.17,-6.24,0.85,-0.13,4.17,-0.64,0.04
-5,2,0,-60,-420,3896,-0.07,0.08,0.02,-0.60,-4.20,38.96,-6.22,0.86,-0.13,4.23,-0.63,0.04
-3,0,1,-77,-418,3912,-0.08,0.07,0.03,-0.77,-4.18,39.12,-6.22,0.87,-0.13,4.18,-0.60,-0.04
-2,2,1,-61,-434,3903,-0.08,0.08,0.03,-0.61,-4.34,39.03,-6.23,0.88,-0.13,4.18,-0.64,-0.04
-1,0,1,-57,-467,3888,-0.08,0.07,0.03,-0.57,-4.67,38.88,-6.25,0.88,-0.13,4.17,-0.60,-0.04
1,0,0,-57,-460,3894,-0.07,0.06,0.03,-0.57,-4.60,38.94,-6.27,0.87,-0.13,4.14,-0.59,0.04
4,0,-1,-54,-423,3907,-0.04,0.06,0.02,-0.54,-4.23,39.07,-6.26,0.86,-0.13,4.06,-0.58,0.12
5,1,-1,-44,-414,3908,-0.00,0.06,0.01,-0.44,-4.14,39.08,-6.25,0.85,-0.13,4.02,-0.60,0.11
4,0,0,-47,-401,3907,0.02,0.05,0.01,-0.47,-4.01,39.07,-6.23,0.84,-0.13,4.02,-0.57,0.02
3,0,1,-59,-405,3914,0.04,0.05,0.02,-0.59,-4.05,39.14,-6.21,0.84,-0.13,4.03,-0.57,-0.05
-2,2,1,-71,-413,3935,0.02,0.05,0.02,-0.71,-4.13,39.35,-6.20,0.86,-0.13,4.12,-0.62,-0.05
-3,1,1,-69,-418,3907,0.00,0.05,0.03,-0.69,-4.18,39.07,-6.19,0.87,-0.13,4.14,-0.61,-0.05
-1,1,1,-62,-439,3911,-0.00,0.06,0.03,-0.62,-4.39,39.11,-6.20,0.87,-0.13,4.12,-0.61,-0.04
-1,1,0,-61,-445,3928,-0.01,0.06,0.03,-0.61,-4.45,39.28,-6.22,0.88,-0.13,4.13,-0.61,0.04
-4,0,0,-68,-442,3900,-0.03,0.05,0.02,-0.68,-4.42,39.00,-6.24,0.88,-0.13,4.21,-0.60,0.04
-3,1,0,-74,-442,3896,-0.05,0.05,0.02,-0.74,-4.42,38.96,-6.25,0.90,-0.13,4.20,-0.63,0.03
-1,0,1,-63,-419,3909,-0.05,0.05,0.03,-0.63,-4.19,39.09,-6.24,0.90,-0.13,4.15,-0.61,-0.05
-1,0,0,-64,-412,3913,-0.05,0.04,0.02,-0.64,-4.12,39.13,-6.22,0.90,-0.13,4.14,-0.61,0.04
-1,0,2,-57,-405,3903,-0.05,0.04,0.03,-0.57,-4.05,39.03,-6.20,0.90,-0.13,4.13,-0.60,-0.12
1,0,0,-48,-417,3899,-0.04,0.03,0.03,-0.48,-4.17,38.99,-6.19,0.88,-0.13,4.08,-0.59,0.04
1,1,0,-39,-428,3913,-0.03,0.04,0.03,-0.39,-4.28,39.13,-6.20,0.86,-0.13,4.08,-0.60,0.04
1,1,0,-42,-429,3919,-0.02,0.04,0.02,-0.42,-4.29,39.19,-6.20,0.85,-0.13,4.08,-0.59,0.04
0,0,0,-59,-437,3913,-0.02,0.04,0.02,-0.59,-4.37,39.13,-6.22,0.85,-0.13,4.11,-0.57,0.03
-1,0,0,-61,-431,3912,-0.02,0.03,0.02,-0.61,-4.31,39.12,-6.23,0.86,-0.13,4.14,-0.57,0.03
0,0,0,-73,-431,3916,-0.02,0.03,0.02,-0.73,-4.31,39.16,-6.24,0.87,-0.13,4.12,-0.58,0.03
0,1,1,-70,-435,3923,-0.02,0.03,0.02,-0.70,-4.35,39.23,-6.25,0.89,-0.13,4.13,-0.62,-0.05
0,-1,3,-61,-429,3907,-0.02,0.02,0.04,-0.61,-4.29,39.07,-6.27,0.89,-0.13,4.14,-0.57,-0.20
0,0,2,-55,-420,3898,-0.02,0.02,0.05,-0.55,-4.20,38.98,-6.25,0.88,-0.13,4.13,-0.59,-0.11
0,2,1,-47,-418,3914,-0.01,0.03,0.05,-0.47,-4.18,39.14,-6.24,0.86,-0.13,4.12,-0.62,-0.02
1,1,1,-44,-425,3908,-0.01,0.03,0.05,-0.44,-4.25,39.08,-6.24,0.85,-0.13,4.10,-0.59,-0.02
2,0,1,-42,-422,3909,0.01,0.03,0.05,-0.42,-4.22,39.09,-6.23,0.83,-0.13,4.07,-0.56,-0.02
1,0,2,-56,-419,3913,0.01,0.03,0.06,-0.56,-4.19,39.13,-6.21,0.83,-0.13,4.08,-0.55,-0.10
0,1,1,-70,-425,3911,0.01,0.03,0.06,-0.70,-4.25,39.11,-6.21,0.85,-0.14,4.10,-0.59,-0.01
0,1,1,-62,-429,3907,0.01,0.03,0.06,-0.62,-4.29,39.07,-6.22,0.86,-0.14,4.11,-0.60,-0.01
0,2,2,-63,-435,3898,0.01,0.04,0.06,-0.63,-4.35,38.98,-6.24,0.87,-0.14,4.12,-0.62,-0.09
0,1,1,-66,-437,3909,0.01,0.04,0.06,-0.66,-4.37,39.09,-6.26,0.88,-0.14,4.13,-0.61,-0.00
-2,2,1,-59,-426,3900,-0.01,0.05,0.06,-0.59,-4.26,39.00,-6.24,0.87,-0.14,4.16,-0.63,-0.00
-1,1,1,-56,-422,3895,-0.01,0.05,0.06,-0.56,-4.22,38.95,-6.23,0.86,-0.14,4.13,-0.60,-0.01
-1,1,1,-51,-415,3909,-0.02,0.05,0.06,-0.51,-4.15,39.09,-6.21,0.85,-0.14,4.12,-0.59,-0.01
-1,1,0,-53,-410,3900,-0.02,0.05,0.06,-0.53,-4.10,39.00,-6.19,0.84,-0.14,4.11,-0.59,0.07
0,1,0,-58,-419,3911,-0.02,0.06,0.05,-0.58,-4.19,39.11,-6.18,0.84,-0.14,4.08,-0.59,0.07
0,1,1,-54,-427,3906,-0.02,0.06,0.05,-0.54,-4.27,39.06,-6.19,0.83,-0.14,4.09,-0.58,-0.02
1,0,1,-76,-441,3909,-0.01,0.05,0.05,-0.76,-4.41,39.09,-6.20,0.84,-0.14,4.08,-0.57,-0.02
0,0,2,-63,-429,3906,-0.01,0.05,0.06,-0.63,-4.29,39.06,-6.21,0.86,-0.14,4.10,-0.58,-0.09
0,0,2,-51,-423,3898,-0.01,0.04,0.07,-0.51,-4.23,38.98,-6.21,0.84,-0.14,4.10,-0.57,-0.09
0,0,2,-47,-426,3903,-0.01,0.04,0.07,-0.47,-4.26,39.03,-6.21,0.82,-0.14,4.10,-0.55,-0.08
-1,0,1,-50,-419,3904,-0.01,0.03,0.07,-0.50,-4.19,39.04,-6.20,0.81,-0.14,4.12,-0.54,0.00
-4,-3,2,-49,-396,3885,-0.04,0.01,0.08,-0.49,-3.96,38.85,-6.18,0.80,-0.14,4.17,-0.47,-0.08
-2,-1,4,-55,-443,3921,-0.04,0.00,0.09,-0.55,-4.43,39.21,-6.20,0.80,-0.14,4.15,-0.51,-0.23
0,-1,3,-49,-426,3896,-0.04,-0.00,0.10,-0.49,-4.26,38.96,-6.21,0.79,-0.14,4.11,-0.50,-0.13
0,-2,6,-44,-400,3895,-0.04,-0.01,0.13,-0.44,-4.00,38.95,-6.19,0.78,-0.14,4.10,-0.47,-0.36
0,-2,8,-46,-416,3905,-0.03,-0.03,0.16,-0.46,-4.16,39.05,-6.18,0.77,-0.14,4.09,-0.46,-0.49
-6,-10,10,-61,-304,3946,-0.07,-0.08,0.21,-0.61,-3.04,39.46,-6.16,0.77,-0.14,4.21,-0.28,-0.61
-2,-8,6,-77,-274,3887,-0.07,-0.12,0.22,-0.77,-2.74,38.87,-6.14,0.77,-0.14,4.11,-0.31,-0.26
6,9,-45,35,-390,3886,-0.03,-0.06,-0.07,0.35,-3.90,38.86,-6.14,0.75,-0.14,3.94,-0.66,3.75
8,3,-61,-39,-387,3930,0.02,-0.03,-0.44,-0.39,-3.87,39.30,-6.12,0.75,-0.14,3.87,-0.55,4.72
6,-2,-63,-163,-526,3926,0.06,-0.04,-0.78,-1.63,-5.26,39.26,-6.13,0.76,-0.14,3.91,-0.45,4.53
0,-5,-46,-100,-545,3916,0.05,-0.07,-0.98,-1.00,-5.45,39.16,-6.15,0.77,-0.13,4.04,-0.39,2.87
0,0,-8,-63,-444,3915,0.05,-0.06,-0.93,-0.63,-4.44,39.15,-6.17,0.77,-0.13,4.06,-0.49,-0.30
-1,0,-4,-51,-457,3903,0.04,-0.06,-0.86,-0.51,-4.57,39.03,-6.18,0.77,-0.13,4.09,-0.49,-0.56
-1,-1,-2,-49,-434,3908,0.03,-0.06,-0.79,-0.49,-4.34,39.08,-6.20,0.76,-0.12,4.11,-0.47,-0.65
0,0,0,-58,-430,3905,0.02,-0.05,-0.71,-0.58,-4.30,39.05,-6.21,0.78,-0.12,4.10,-0.50,-0.74
0,0,1,-58,-430,3914,0.02,-0.05,-0.63,-0.58,-4.30,39.14,-6.23,0.79,-0.12,4.10,-0.51,-0.74
0,0,2,-54,-437,3907,0.02,-0.04,-0.56,-0.54,-4.37,39.07,-6.24,0.79,-0.12,4.12,-0.51,-0.75
-1,2,-1,-61,-435,3911,0.01,-0.02,-0.51,-0.61,-4.35,39.11,-6.26,0.80,-0.11,4.15,-0.56,-0.44
-1,1,-1,-67,-422,3923,0.00,-0.02,-0.46,-0.67,-4.22,39.23,-6.25,0.82,-0.11,4.14,-0.56,-0.40
0,1,-2,-56,-422,3910,0.00,-0.01,-0.43,-0.56,-4.22,39.10,-6.23,0.82,-0.11,4.11,-0.56,-0.27
0,1,-2,-57,-426,3906,0.00,-0.00,-0.40,-0.57,-4.26,39.06,-6.22,0.83,-0.11,4.11,-0.57,-0.24
0,2,-2,-57,-422,3912,0.00,0.01,-0.37,-0.57,-4.22,39.12,-6.21,0.83,-0.11,4.09,-0.59,-0.21
0,2,0,-62,-422,3911,0.00,0.02,-0.33,-0.62,-4.22,39.11,-6.20,0.85,-0.11,4.09,-0.61,-0.34
1,3,-2,-80,-419,3920,0.01,0.04,-0.31,-0.80,-4.19,39.20,-6.19,0.87,-0.10,4.06,-0.64,-0.15
1,5,-1,-60,-424,3921,0.01,0.06,-0.29,-0.60,-4.24,39.21,-6.17,0.87,-0.10,4.05,-0.69,-0.21
3,1,-14,-153,-529,3859,0.03,0.06,-0.34,-1.53,-5.29,38.59,-6.19,0.88,-0.10,4.01,-0.62,0.83
-3,-1,-20,-182,-540,3929,0.01,0.05,-0.43,-1.82,-5.40,39.29,-6.20,0.90,-0.10,4.15,-0.59,1.25
-5,-3,-41,-90,-494,3930,-0.02,0.03,-0.64,-0.90,-4.94,39.30,-6.22,0.90,-0.10,4.21,-0.54,2.81
-5,-2,-38,-49,-442,3924,-0.05,0.01,-0.81,-0.49,-4.42,39.24,-6.23,0.89,-0.09,4.23,-0.55,2.37
-2,1,-17,-11,-379,3904,-0.06,0.02,-0.83,-0.11,-3.79,39.04,-6.22,0.88,-0.09,4.16,-0.60,0.57
-1,2,-15,-20,-380,3881,-0.06,0.03,-0.84,-0.20,-3.80,38.81,-6.20,0.86,-0.09,4.13,-0.62,0.39
1,-5,-29,-57,-415,3895,-0.05,-0.00,-0.93,-0.57,-4.15,38.95,-6.19,0.86,-0.08,4.08,-0.46,1.48
0,-6,-28,-15,-385,3901,-0.04,-0.04,-1.01,-0.15,-3.85,39.01,-6.18,0.85,-0.08,4.09,-0.42,1.31
1,-2,-2,-45,-406,3902,-0.03,-0.05,-0.92,-0.45,-4.06,39.02,-6.16,0.83,-0.08,4.05,-0.50,-0.80
0,-1,-3,-40,-422,3908,-0.03,-0.05,-0.85,-0.40,-4.22,39.08,-6.16,0.81,-0.07,4.07,-0.50,-0.64
-1,0,0,-49,-430,3913,-0.03,-0.05,-0.76,-0.49,-4.30,39.13,-6.18,0.80,-0.07,4.10,-0.52,-0.80
0,3,-1,-65,-420,3920,-0.03,-0.02,-0.69,-0.65,-4.20,39.20,-6.17,0.82,-0.07,4.08,-0.59,-0.64
0,2,-1,-71,-423,3904,-0.03,-0.01,-0.63,-0.71,-4.23,39.04,-6.17,0.84,-0.07,4.08,-0.59,-0.58
0,1,-2,-56,-436,3901,-0.02,-0.00,-0.58,-0.56,-4.36,39.01,-6.19,0.83,-0.06,4.09,-0.57,-0.44
0,2,0,-43,-435,3903,-0.02,0.01,-0.52,-0.43,-4.35,39.03,-6.20,0.82,-0.06,4.10,-0.58,-0.55
0,2,-1,-50,-420,3913,-0.02,0.02,-0.47,-0.50,-4.20,39.13,-6.19,0.81,-0.06,4.09,-0.58,-0.41
0,2,-2,-54,-412,3904,-0.02,0.03,-0.44,-0.54,-4.12,39.04,-6.17,0.80,-0.06,4.08,-0.58,-0.29
-1,2,0,-56,-426,3904,-0.02,0.04,-0.40,-0.56,-4.26,39.04,-6.19,0.81,-0.06,4.11,-0.58,-0.41
0,1,1,-51,-438,3898,-0.02,0.04,-0.35,-0.51,-4.38,38.98,-6.21,0.80,-0.05,4.10,-0.56,-0.45
-1,1,0,-48,-433,3896,-0.02,0.05,-0.31,-0.48,-4.33,38.96,-6.22,0.79,-0.05,4.13,-0.56,-0.33
-1,0,0,-57,-415,3913,-0.03,0.04,-0.28,-0.57,-4.15,39.13,-6.20,0.80,-0.05,4.12,-0.54,-0.30
0,1,0,-61,-412,3907,-0.02,0.04,-0.25,-0.61,-4.12,39.07,-6.19,0.80,-0.05,4.09,-0.56,-0.27
4,3,-1,-55,-432,3918,0.00,0.06,-0.24,-0.55,-4.32,39.18,-6.21,0.80,-0.05,4.01,-0.61,-0.16
1,1,-1,-68,-425,3909,0.01,0.06,-0.22,-0.68,-4.25,39.09,-6.21,0.82,-0.05,4.07,-0.58,-0.14
1,1,1,-59,-418,3904,0.01,0.06,-0.19,-0.59,-4.18,39.04,-6.19,0.83,-0.05,4.06,-0.58,-0.28
1,1,1,-57,-423,3906,0.02,0.06,-0.16,-0.57,-4.23,39.06,-6.17,0.83,-0.05,4.05,-0.59,-0.26
1,2,1,-55,-436,3912,0.02,0.06,-0.14,-0.55,-4.36,39.12,-6.19,0.83,-0.05,4.06,-0.61,-0.23
-1,1,1,-61,-429,3907,0.01,0.06,-0.12,-0.61,-4.29,39.07,-6.20,0.84,-0.05,4.11,-0.59,-0.21
0,2,2,-57,-430,3907,0.01,0.07,-0.10,-0.57,-4.30,39.07,-6.22,0.84,-0.05,4.10,-0.61,-0.27
0,2,1,-67,-433,3912,0.01,0.07,-0.08,-0.67,-4.33,39.12,-6.23,0.86,-0.04,4.11,-0.63,-0.17
-1,1,3,-60,-431,3905,0.00,0.07,-0.06,-0.60,-4.31,39.05,-6.25,0.86,-0.04,4.14,-0.61,-0.31
-1,2,3,-57,-430,3904,-0.00,0.08,-0.03,-0.57,-4.30,39.04,-6.26,0.85,-0.04,4.15,-0.62,-0.28
0,2,3,-60,-424,3913,-0.00,0.08,-0.01,-0.60,-4.24,39.13,-6.25,0.86,-0.04,4.12,-0.63,-0.26
1,2,3,-66,-419,3913,0.00,0.09,0.01,-0.66,-4.19,39.13,-6.23,0.87,-0.04,4.09,-0.64,-0.24
1,1,3,-52,-437,3899,0.01,0.08,0.03,-0.52,-4.37,38.99,-6.25,0.86,-0.04,4.10,-0.61,-0.22
1,2,2,-49,-435,3902,0.02,0.09,0.04,-0.49,-4.35,39.02,-6.26,0.84,-0.04,4.11,-0.62,-0.13
0,1,1,-52,-433,3906,0.01,0.09,0.04,-0.52,-4.33,39.06,-6.27,0.83,-0.04,4.13,-0.59,-0.04
0,2,1,-58,-426,3910,0.01,0.09,0.04,-0.58,-4.26,39.10,-6.25,0.83,-0.04,4.12,-0.62,-0.04
0,2,1,-55,-428,3911,0.01,0.09,0.04,-0.55,-4.28,39.11,-6.25,0.82,-0.04,4.12,-0.61,-0.04
0,1,1,-53,-425,3909,0.01,0.09,0.04,-0.53,-4.25,39.09,-6.24,0.80,-0.05,4.11,-0.58,-0.03
0,0,1,-54,-420,3906,0.01,0.08,0.05,-0.54,-4.20,39.06,-6.22,0.80,-0.05,4.10,-0.55,-0.03
1,0,1,-58,-424,3901,0.01,0.07,0.05,-0.58,-4.24,39.01,-6.21,0.82,-0.05,4.08,-0.56,-0.03
0,0,2,-53,-422,3902,0.01,0.06,0.06,-0.53,-4.22,39.02,-6.20,0.81,-0.05,4.09,-0.55,-0.11
-1,0,1,-55,-418,3890,0.01,0.06,0.06,-0.55,-4.18,38.90,-6.18,0.81,-0.05,4.10,-0.55,-0.02
0,1,2,-55,-425,3909,0.00,0.06,0.06,-0.55,-4.25,39.09,-6.20,0.80,-0.05,4.09,-0.57,-0.10
0,1,2,-55,-424,3917,0.00,0.06,0.07,-0.55,-4.24,39.17,-6.18,0.80,-0.05,4.08,-0.56,-0.09
0,0,2,-60,-421,3905,0.00,0.05,0.07,-0.60,-4.21,39.05,-6.18,0.82,-0.05,4.07,-0.55,-0.09
0,0,2,-65,-423,3898,0.00,0.05,0.08,-0.65,-4.23,38.98,-6.18,0.84,-0.05,4.08,-0.56,-0.08
-1,1,2,-53,-420,3892,-0.00,0.05,0.08,-0.53,-4.20,38.92,-6.17,0.82,-0.05,4.09,-0.57,-0.08
-1,1,1,-52,-421,3898,-0.01,0.05,0.08,-0.52,-4.21,38.98,-6.17,0.80,-0.05,4.09,-0.56,0.01
-1,0,0,-47,-434,3908,-0.01,0.05,0.07,-0.47,-4.34,39.08,-6.18,0.79,-0.05,4.11,-0.53,0.08
-1,0,0,-49,-435,3910,-0.02,0.04,0.07,-0.49,-4.35,39.10,-6.20,0.78,-0.05,4.12,-0.53,0.07
-1,0,-1,-53,-424,3905,-0.02,0.04,0.05,-0.53,-4.24,39.05,-6.19,0.77,-0.05,4.11,-0.52,0.14
-1,0,-2,-53,-421,3902,-0.03,0.03,0.04,-0.53,-4.21,39.02,-6.18,0.77,-0.05,4.10,-0.52,0.21
-1,-1,-3,-61,-416,3913,-0.03,0.02,0.01,-0.61,-4.16,39.13,-6.16,0.78,-0.05,4.10,-0.50,0.27
-1,1,-4,-59,-425,3911,-0.03,0.03,-0.01,-0.59,-4.25,39.11,-6.17,0.80,-0.05,4.10,-0.56,0.33
0,3,1,-54,-433,3910,-0.03,0.04,-0.00,-0.54,-4.33,39.10,-6.19,0.80,-0.05,4.09,-0.60,-0.09
0,3,-1,-74,-414,3914,-0.03,0.06,-0.01,-0.74,-4.14,39.14,-6.18,0.82,-0.05,4.09,-0.61,0.08
0,2,1,-70,-429,3908,-0.02,0.06,-0.00,-0.70,-4.29,39.08,-6.19,0.83,-0.05,4.09,-0.61,-0.08
1,2,3,-60,-433,3909,-0.02,0.07,0.02,-0.60,-4.33,39.09,-6.21,0.84,-0.05,4.08,-0.61,-0.23
-2,1,-1,-49,-431,3899,-0.03,0.07,0.01,-0.49,-4.31,38.99,-6.22,0.82,-0.05,4.15,-0.58,0.10
-2,1,-1,-52,-432,3897,-0.04,0.07,0.00,-0.52,-4.32,38.97,-6.23,0.82,-0.05,4.16,-0.58,0.09
-1,1,-2,-54,-424,3909,-0.04,0.07,-0.01,-0.54,-4.24,39.09,-6.22,0.81,-0.05,4.14,-0.57,0.16
-2,1,-1,-60,-425,3916,-0.05,0.07,-0.02,-0.60,-4.25,39.16,-6.21,0.82,-0.05,4.15,-0.58,0.07
-1,1,-1,-55,-421,3907,-0.05,0.07,-0.02,-0.55,-4.21,39.07,-6.20,0.82,-0.05,4.12,-0.58,0.07
-1,0,-1,-57,-421,3910,-0.05,0.06,-0.02,-0.57,-4.21,39.10,-6.18,0.82,-0.05,4.11,-0.56,0.06
-8,-10,-1,-13,-467,3813,-0.09,-0.01,-0.03,-0.13,-4.67,38.13,-6.19,0.81,-0.05,4.28,-0.33,0.06
-3,-4,-11,-35,-640,3956,-0.10,-0.03,-0.09,-0.35,-6.40,39.56,-6.21,0.81,-0.05,4.19,-0.44,0.84
0,8,-17,138,-583,3809,-0.09,0.02,-0.19,1.38,-5.83,38.09,-6.22,0.80,-0.05,4.13,-0.69,1.25
-5,7,-5,99,-517,4008,-0.11,0.06,-0.20,0.99,-5.17,40.08,-6.23,0.78,-0.05,4.25,-0.67,0.22
1,10,39,-26,-434,3916,-0.10,0.12,0.06,-0.26,-4.34,39.16,-6.24,0.76,-0.05,4.12,-0.74,-3.24
0,2,45,-60,-434,3915,-0.09,0.12,0.33,-0.60,-4.34,39.15,-6.25,0.78,-0.05,4.15,-0.58,-3.46
3,8,87,-38,-457,3913,-0.06,0.15,0.83,-0.38,-4.57,39.13,-6.27,0.77,-0.05,4.09,-0.71,-6.49
0,7,105,-5,-397,3872,-0.05,0.18,1.38,-0.05,-3.97,38.72,-6.26,0.75,-0.06,4.14,-0.69,-7.43
0,-5,139,-66,-378,3980,-0.05,0.13,2.09,-0.66,-3.78,39.80,-6.24,0.76,-0.06,4.13,-0.44,-9.55
-5,1,133,-101,-334,3875,-0.07,0.13,2.69,-1.01,-3.34,38.75,-6.22,0.77,-0.07,4.23,-0.56,-8.41
-7,4,104,-164,-415,3888,-0.11,0.14,3.06,-1.64,-4.15,38.88,-6.22,0.79,-0.09,4.28,-0.64,-5.56
-1,7,84,-175,-362,3917,-0.10,0.17,3.27,-1.75,-3.62,39.17,-6.21,0.81,-0.10,4.15,-0.72,-3.65
3,5,38,-124,-396,3911,-0.08,0.18,3.17,-1.24,-3.96,39.11,-6.21,0.83,-0.11,4.06,-0.70,0.15
0,1,33,-111,-386,3908,-0.07,0.17,3.06,-1.11,-3.86,39.08,-6.20,0.84,-0.12,4.11,-0.62,0.45
-1,0,15,-119,-367,3904,-0.07,0.15,2.84,-1.19,-3.67,39.04,-6.18,0.86,-0.14,4.12,-0.61,1.75
1,0,9,-99,-381,3904,-0.05,0.14,2.61,-0.99,-3.81,39.04,-6.17,0.87,-0.15,4.07,-0.61,2.02
2,-1,-4,-111,-412,3895,-0.04,0.12,2.33,-1.11,-4.12,38.95,-6.17,0.89,-0.16,4.04,-0.60,2.82
2,-5,-14,-118,-503,3909,-0.02,0.07,2.01,-1.18,-5.03,39.09,-6.18,0.91,-0.16,4.04,-0.52,3.33
-4,-3,-63,-71,-461,3856,-0.04,0.05,1.42,-0.71,-4.61,38.56,-6.20,0.91,-0.17,4.18,-0.55,6.86
-4,-5,-69,-87,-461,3924,-0.06,0.01,0.86,-0.87,-4.61,39.24,-6.21,0.92,-0.17,4.20,-0.51,6.77
3,-5,-69,-108,-362,3907,-0.04,-0.02,0.35,-1.08,-3.62,39.07,-6.20,0.93,-0.17,4.04,-0.51,6.24
0,-6,-77,-84,-435,3904,-0.03,-0.05,-0.15,-0.84,-4.35,39.04,-6.21,0.95,-0.17,4.11,-0.49,6.38
-1,-3,-77,-14,-350,3952,-0.04,-0.07,-0.61,-0.14,-3.50,39.52,-6.19,0.94,-0.17,4.12,-0.54,5.90
0,-2,-63,-10,-317,3925,-0.03,-0.07,-0.93,-0.10,-3.17,39.25,-6.18,0.93,-0.17,4.09,-0.55,4.37
0,2,-35,-18,-361,3919,-0.03,-0.05,-1.05,-0.18,-3.61,39.19,-6.16,0.92,-0.16,4.08,-0.63,1.87
0,3,-31,-18,-385,3917,-0.03,-0.03,-1.13,-0.18,-3.85,39.17,-6.15,0.90,-0.16,4.07,-0.65,1.44
-1,4,-11,-32,-443,3891,-0.03,-0.00,-1.09,-0.32,-4.43,38.91,-6.16,0.89,-0.15,4.10,-0.67,-0.21
-1,4,-9,-44,-439,3907,-0.03,0.02,-1.03,-0.44,-4.39,39.07,-6.18,0.87,-0.15,4.11,-0.66,-0.32
2,3,-33,-120,-506,3910,-0.02,0.04,-1.13,-1.20,-5.06,39.10,-6.19,0.88,-0.15,4.05,-0.66,1.61
2,0,-43,-127,-511,3911,-0.00,0.04,-1.28,-1.27,-5.11,39.11,-6.21,0.90,-0.14,4.06,-0.60,2.30
1,-2,-83,-102,-477,3896,0.00,0.02,-1.66,-1.02,-4.77,38.96,-6.22,0.91,-0.13,4.08,-0.56,5.29
2,-3,-91,-53,-427,3927,0.01,-0.00,-2.05,-0.53,-4.27,39.27,-6.22,0.89,-0.13,4.06,-0.52,5.55
2,-3,-61,1,-347,3890,0.03,-0.02,-2.22,0.01,-3.47,38.90,-6.20,0.87,-0.12,4.05,-0.51,2.83
-1,-5,-38,15,-305,3923,0.02,-0.05,-2.23,0.15,-3.05,39.23,-6.19,0.86,-0.11,4.10,-0.46,0.87
2,0,-4,-34,-373,3913,0.03,-0.04,-2.03,-0.34,-3.73,39.13,-6.17,0.85,-0.10,4.03,-0.55,-1.80
1,2,-3,-32,-410,3912,0.03,-0.03,-1.84,-0.32,-4.10,39.12,-6.16,0.84,-0.09,4.04,-0.59,-1.69
1,1,1,-48,-421,3902,0.03,-0.02,-1.65,-0.48,-4.21,39.02,-6.16,0.82,-0.09,4.04,-0.56,-1.83
2,1,4,-53,-435,3901,0.04,-0.01,-1.46,-0.53,-4.35,39.01,-6.18,0.81,-0.08,4.03,-0.55,-1.88
1,-1,6,-58,-431,3905,0.04,-0.01,-1.28,-0.58,-4.31,39.05,-6.20,0.82,-0.08,4.06,-0.52,-1.86
1,0,7,-57,-425,3905,0.05,-0.01,-1.11,-0.57,-4.25,39.05,-6.21,0.83,-0.07,4.07,-0.54,-1.76
0,0,7,-49,-419,3920,0.04,-0.01,-0.96,-0.49,-4.19,39.20,-6.20,0.82,-0.07,4.08,-0.54,-1.60
0,0,6,-48,-415,3914,0.04,-0.01,-0.82,-0.48,-4.15,39.14,-6.18,0.80,-0.06,4.07,-0.53,-1.37
-1,0,5,-49,-422,3913,0.03,-0.01,-0.71,-0.49,-4.22,39.13,-6.18,0.79,-0.06,4.09,-0.52,-1.17
-1,-1,4,-55,-426,3905,0.02,-0.01,-0.62,-0.55,-4.26,39.05,-6.20,0.79,-0.06,4.10,-0.50,-0.99
0,0,2,-57,-424,3900,0.02,-0.01,-0.54,-0.57,-4.24,39.00,-6.20,0.81,-0.06,4.09,-0.53,-0.74
0,0,3,-52,-428,3897,0.02,-0.01,-0.47,-0.52,-4.28,38.97,-6.21,0.80,-0.05,4.10,-0.52,-0.75
0,1,2,-53,-428,3918,0.01,-0.00,-0.41,-0.53,-4.28,39.18,-6.22,0.78,-0.05,4.10,-0.54,-0.60
0,0,2,-55,-430,3914,0.01,-0.00,-0.36,-0.55,-4.30,39.14,-6.24,0.79,-0.05,4.12,-0.52,-0.54
0,0,2,-54,-424,3904,0.01,-0.00,-0.31,-0.54,-4.24,39.04,-6.22,0.79,-0.05,4.10,-0.52,-0.49
1,0,2,-60,-418,3906,0.02,-0.00,-0.27,-0.60,-4.18,39.06,-6.21,0.80,-0.05,4.07,-0.53,-0.45
1,2,3,-53,-428,3919,0.02,0.01,-0.22,-0.53,-4.28,39.19,-6.22,0.79,-0.05,4.08,-0.56,-0.48
1,2,4,-60,-430,3908,0.02,0.02,-0.17,-0.60,-4.30,39.08,-6.23,0.80,-0.05,4.09,-0.57,-0.52
-1,1,3,-51,-432,3916,0.02,0.02,-0.14,-0.51,-4.32,39.16,-6.24,0.79,-0.05,4.14,-0.55,-0.40
-1,1,0,-58,-432,3919,0.01,0.03,-0.12,-0.58,-4.32,39.19,-6.26,0.80,-0.05,4.15,-0.56,-0.13
0,2,0,-63,-422,3912,0.01,0.04,-0.11,-0.63,-4.22,39.12,-6.24,0.82,-0.05,4.12,-0.59,-0.11
0,1,-1,-65,-421,3908,0.01,0.04,-0.11,-0.65,-4.21,39.08,-6.23,0.83,-0.05,4.11,-0.58,-0.02
-1,1,0,-61,-429,3910,-0.00,0.04,-0.10,-0.61,-4.29,39.10,-6.24,0.85,-0.04,4.14,-0.59,-0.10
-1,1,-1,-62,-426,3906,-0.01,0.04,-0.09,-0.62,-4.26,39.06,-6.24,0.87,-0.04,4.14,-0.60,-0.01
1,2,1,-52,-417,3906,0.00,0.05,-0.08,-0.52,-4.17,39.06,-6.22,0.85,-0.04,4.09,-0.62,-0.16
1,2,3,-56,-421,3921,0.01,0.06,-0.05,-0.56,-4.21,39.21,-6.20,0.85,-0.04,4.07,-0.62,-0.30
1,0,7,-84,-449,3869,0.01,0.05,-0.00,-0.84,-4.49,38.69,-6.22,0.86,-0.04,4.08,-0.58,-0.59
1,3,23,-155,-457,3940,0.02,0.07,0.14,-1.55,-4.57,39.40,-6.22,0.88,-0.04,4.08,-0.66,-1.80
-3,2,56,-50,-457,3931,-0.00,0.07,0.46,-0.50,-4.57,39.31,-6.24,0.87,-0.05,4.18,-0.64,-4.25
-5,1,59,-60,-437,3916,-0.03,0.07,0.78,-0.60,-4.37,39.16,-6.26,0.87,-0.05,4.24,-0.62,-4.17
-7,2,47,-12,-403,3895,-0.07,0.08,0.99,-0.12,-4.03,38.95,-6.25,0.86,-0.05,4.29,-0.63,-2.93
-7,2,38,-12,-394,3917,-0.11,0.08,1.12,-0.12,-3.94,39.17,-6.24,0.84,-0.06,4.29,-0.62,-2.03
-2,4,10,-43,-424,3907,-0.11,0.10,1.07,-0.43,-4.24,39.07,-6.24,0.83,-0.06,4.19,-0.65,0.29
-3,2,8,-47,-423,3901,-0.12,0.10,1.01,-0.47,-4.23,39.01,-6.23,0.81,-0.07,4.21,-0.60,0.40
-3,1,1,-42,-435,3906,-0.12,0.10,0.92,-0.42,-4.35,39.06,-6.24,0.79,-0.07,4.21,-0.57,0.89
-2,0,1,-40,-431,3903,-0.12,0.09,0.83,-0.40,-4.31,39.03,-6.25,0.78,-0.07,4.20,-0.54,0.80
1,3,1,11,-469,3893,-0.10,0.10,0.75,0.11,-4.69,38.93,-6.26,0.76,-0.08,4.14,-0.59,0.72
1,2,9,-4,-479,3898,-0.09,0.10,0.73,-0.04,-4.79,38.98,-6.27,0.75,-0.08,4.14,-0.56,0.02
14,7,24,81,-510,3973,0.01,0.13,0.81,0.81,-5.10,39.73,-6.28,0.74,-0.08,3.86,-0.66,-1.17
4,5,31,146,-549,3893,0.03,0.15,0.91,1.46,-5.49,38.93,-6.29,0.72,-0.08,4.06,-0.62,-1.65
0,12,129,36,-557,3859,0.03,0.21,1.61,0.36,-5.57,38.59,-6.30,0.71,-0.09,4.15,-0.77,-9.22
1,14,165,21,-541,3910,0.03,0.27,2.46,0.21,-5.41,39.10,-6.32,0.71,-0.10,4.14,-0.82,-11.37
-3,11,285,3,-540,3917,0.01,0.31,3.95,0.03,-5.40,39.17,-6.34,0.70,-0.12,4.24,-0.77,-19.95
2,18,312,19,-495,3891,0.02,0.39,5.46,0.19,-4.95,38.91,-6.35,0.69,-0.14,4.14,-0.93,-20.00
-5,17,373,-54,-386,3874,-0.01,0.45,7.19,-0.54,-3.86,38.74,-6.33,0.70,-0.17,4.28,-0.93,-20.00
-10,15,382,-109,-321,3884,-0.07,0.50,8.80,-1.09,-3.21,38.84,-6.31,0.71,-0.20,4.39,-0.91,-20.00
-4,16,447,-128,-112,3960,-0.09,0.55,10.64,-1.28,-1.12,39.60,-6.30,0.72,-0.24,4.26,-0.95,-20.00
-7,12,465,-151,-85,3895,-0.12,0.57,12.42,-1.51,-0.85,38.95,-6.28,0.74,-0.29,4.32,-0.89,-20.00
2,15,343,-140,-252,3910,-0.10,0.60,13.27,-1.40,-2.52,39.10,-6.26,0.75,-0.34,4.12,-0.97,-14.98
6,13,286,-98,-341,3957,-0.05,0.62,13.69,-0.98,-3.41,39.57,-6.24,0.77,-0.40,4.01,-0.94,-9.70
7,15,75,117,-742,3913,-0.00,0.65,12.77,1.17,-7.42,39.13,-6.26,0.77,-0.45,3.99,-0.99,7.21
9,20,17,185,-726,3905,0.05,0.71,11.60,1.85,-7.26,39.05,-6.27,0.77,-0.50,3.94,-1.11,10.89
15,24,-70,167,-844,3926,0.14,0.78,10.01,1.67,-8.44,39.26,-6.29,0.77,-0.53,3.81,-1.21,16.58
3,9,-14,105,-879,3962,0.14,0.76,8.93,1.05,-8.79,39.62,-6.30,0.77,-0.57,4.06,-0.90,10.69
102,103,187,240,-917,3933,0.75,1.31,9.17,2.40,-9.17,39.33,-6.32,0.77,-0.60,1.89,-2.96,-6.07
108,107,167,174,-710,3893,1.33,1.83,9.28,1.74,-7.10,38.93,-6.32,0.77,-0.64,1.61,-3.18,-4.27
29,80,223,-61,-443,3854,1.38,2.14,9.71,-0.61,-4.43,38.54,-6.33,0.79,-0.68,3.22,-2.73,-8.55
76,112,333,-89,-411,3826,1.70,2.61,10.77,-0.89,-4.11,38.26,-6.32,0.82,-0.72,2.16,-3.53,-16.74
89,112,488,-182,-295,4001,2.08,3.03,12.67,-1.82,-2.95,40.01,-6.30,0.85,-0.77,1.78,-3.66,-20.00
100,123,519,-166,-289,3923,2.48,3.48,14.57,-1.66,-2.89,39.23,-6.27,0.88,-0.83,1.43,-4.03,-20.00
120,136,601,-226,-239,3864,2.96,3.96,16.78,-2.26,-2.39,38.64,-6.25,0.92,-0.89,0.87,-4.45,-20.00
156,156,627,-191,-243,3865,3.62,4.51,18.92,-1.91,-2.43,38.65,-6.21,0.95,-0.96,-0.06,-5.03,-20.00
48,74,689,-208,-301,3907,3.55,4.51,21.23,-2.08,-3.01,39.07,-6.19,0.99,-1.05,2.14,-3.39,-20.00
33,88,694,-205,-315,3868,3.40,4.60,23.34,-2.05,-3.15,38.68,-6.16,1.04,-1.14,2.47,-3.73,-20.00
-77,18,661,-241,-339,3865,2.59,4.25,25.04,-2.41,-3.39,38.65,-6.14,1.08,-1.24,4.91,-2.24,-20.00
-63,44,643,-236,-341,3904,1.94,4.09,26.46,-2.36,-3.41,39.04,-6.12,1.13,-1.34,4.79,-2.75,-20.00
-110,-1,572,-285,-285,3968,1.08,3.68,27.30,-2.85,-2.85,39.68,-6.11,1.17,-1.45,5.97,-1.75,-19.42
-150,-59,537,-239,-265,3915,0.06,2.95,27.85,-2.39,-2.65,39.15,-6.09,1.20,-1.56,7.06,-0.40,-15.87
-248,-97,481,-301,-270,3906,-1.46,2.06,28.00,-3.01,-2.70,39.06,-6.09,1.24,-1.67,9.46,0.59,-10.95
-241,-95,468,-296,-280,3937,-2.79,1.28,28.05,-2.96,-2.80,39.37,-6.08,1.27,-1.78,9.68,0.74,-9.78
-65,24,465,-317,-278,3917,-2.90,1.30,28.08,-3.17,-2.78,39.17,-6.08,1.30,-1.89,6.13,-1.70,-9.49
-54,27,471,-288,-264,3995,-2.94,1.33,28.15,-2.88,-2.64,39.95,-6.08,1.33,-2.00,5.91,-1.79,-9.92
-141,29,495,-283,-263,4097,-3.51,1.38,28.35,-2.83,-2.63,40.97,-6.08,1.37,-2.11,7.84,-1.87,-11.72
-170,28,500,-243,-281,4081,-4.20,1.41,28.57,-2.43,-2.81,40.81,-6.08,1.40,-2.23,8.61,-1.87,-11.91
-332,-30,543,-187,-408,4049,-5.80,1.08,29.02,-1.87,-4.08,40.49,-6.10,1.43,-2.34,12.36,-0.63,-15.06
-378,-53,559,-147,-451,4007,-7.53,0.65,29.53,-1.47,-4.51,40.07,-6.13,1.46,-2.46,13.79,-0.07,-15.87
-526,-142,644,-117,-489,4090,-9.98,-0.28,30.51,-1.17,-4.89,40.90,-6.19,1.48,-2.58,17.50,1.99,-20.00
-582,-186,694,-97,-521,4076,-12.53,-1.39,31.69,-0.97,-5.21,40.76,-6.25,1.48,-2.71,19.38,3.18,-20.00
-683,-271,825,-109,-528,4116,-15.45,-2.90,33.55,-1.09,-5.28,41.16,-6.33,1.49,-2.84,20.00,5.32,-20.00
-697,-282,864,-109,-548,4106,-18.15,-4.33,35.47,-1.09,-5.48,41.06,-6.41,1.49,-2.98,20.00,5.93,-20.00
-689,-300,984,8,-677,4019,-20.54,-5.73,37.92,0.08,-6.77,40.19,-6.51,1.47,-3.14,20.00,6.69,-20.00
-661,-304,1007,9,-699,3963,-22.52,-7.01,40.27,0.09,-6.99,39.63,-6.61,1.46,-3.30,20.00,7.13,-20.00
-406,-295,1022,55,-743,3787,-22.74,-8.11,42.48,0.55,-7.43,37.87,-6.71,1.44,-3.47,18.89,7.26,-20.00
-297,-275,1001,79,-758,3754,-22.28,-8.97,44.34,0.79,-7.58,37.54,-6.82,1.41,-3.65,16.61,7.11,-20.00
17,-218,858,166,-749,3675,-19.95,-9.41,45.14,1.66,-7.49,36.75,-6.90,1.38,-3.84,9.65,6.08,-20.00
77,-201,810,176,-739,3661,-17.49,-9.69,45.57,1.76,-7.39,36.61,-6.98,1.36,-4.02,7.81,5.84,-20.00
133,-148,665,189,-760,3561,-14.93,-9.63,45.07,1.89,-7.60,35.61,-7.05,1.33,-4.20,6.02,4.76,-8.24
104,-109,600,213,-860,3507,-12.80,-9.33,44.22,2.13,-8.60,35.07,-7.12,1.30,-4.38,6.07,3.90,-3.62
171,171,468,252,-905,3574,-10.48,-7.35,42.65,2.52,-9.05,35.74,-7.17,1.28,-4.56,4.11,-2.32,5.92
200,247,443,243,-913,3632,-8.21,-5.11,41.09,2.43,-9.13,36.32,-7.21,1.27,-4.72,2.93,-4.47,6.40
308,430,422,221,-822,3916,-5.51,-1.98,39.55,2.21,-8.22,39.16,-7.24,1.27,-4.88,0.02,-9.04,6.57
322,440,439,176,-774,4016,-2.99,0.91,38.28,1.76,-7.74,40.16,-7.26,1.28,-5.03,-0.94,-10.04,3.79
578,425,587,48,-657,3976,0.83,3.41,38.03,0.48,-6.57,39.76,-7.27,1.30,-5.18,-7.18,-10.43,-9.00
617,364,644,46,-621,3989,4.51,5.29,38.16,0.46,-6.21,39.89,-7.26,1.33,-5.33,-8.98,-9.72,-13.68
647,152,839,20,-602,3900,8.01,5.69,39.46,0.20,-6.02,39.00,-7.24,1.36,-5.48,-10.56,-5.54,-20.00
628,111,879,0,-577,3882,11.04,5.79,40.87,0.00,-5.77,38.82,-7.20,1.39,-5.64,-11.03,-4.75,-20.00
503,114,948,-62,-483,3852,13.00,5.91,42.57,-0.62,-4.83,38.52,-7.14,1.41,-5.81,-9.06,-4.86,-20.00
437,161,940,-70,-424,3803,14.37,6.30,44.05,-0.70,-4.24,38.03,-7.07,1.45,-5.98,-8.14,-5.95,-20.00
377,240,839,-121,-361,3831,15.23,7.14,44.76,-1.21,-3.61,38.31,-6.98,1.51,-6.15,-7.21,-7.82,-20.00
370,245,807,-120,-339,3848,15.96,7.92,45.21,-1.20,-3.39,38.48,-6.90,1.56,-6.33,-7.32,-8.17,-19.93
348,219,712,-147,-348,3881,16.49,8.46,45.03,-1.47,-3.48,38.81,-6.81,1.62,-6.51,-7.08,-7.83,-12.06
327,192,691,-148,-352,3876,16.84,8.79,44.74,-1.48,-3.52,38.76,-6.72,1.69,-6.68,-6.81,-7.41,-10.57
235,117,635,-138,-401,3862,16.59,8.62,44.14,-1.38,-4.01,38.62,-6.63,1.75,-6.85,-4.92,-5.88,-6.44
201,104,627,-131,-431,3865,16.15,8.39,43.55,-1.31,-4.31,38.65,-6.55,1.81,-7.02,-4.17,-5.60,-6.37
121,127,605,-71,-494,3999,15.28,8.33,42.89,-0.71,-4.94,39.99,-6.49,1.85,-7.19,-2.34,-6.07,-5.20
114,144,606,-82,-504,4031,14.44,8.37,42.29,-0.82,-5.04,40.31,-6.44,1.89,-7.35,-2.01,-6.46,-5.89
182,158,645,-121,-418,4150,14.11,8.50,42.00,-1.21,-4.18,41.50,-6.36,1.93,-7.52,-3.35,-6.81,-9.50
245,140,671,-117,-357,4188,14.19,8.50,41.89,-1.17,-3.57,41.88,-6.28,1.98,-7.68,-4.71,-6.47,-11.80
352,49,713,-163,-262,4181,14.92,7.95,42.05,-1.63,-2.62,41.81,-6.20,2.03,-7.84,-7.14,-4.51,-15.17
364,15,713,-169,-246,4169,15.65,7.25,42.20,-1.69,-2.46,41.69,-6.11,2.08,-8.01,-7.64,-3.66,-15.00
351,-110,648,-183,-197,4066,16.23,5.85,41.93,-1.83,-1.97,40.66,-6.02,2.13,-8.17,-7.59,-0.76,-9.77
340,-137,610,-180,-206,4022,16.68,4.43,41.46,-1.80,-2.06,40.22,-5.93,2.16,-8.34,-7.55,0.15,-7.03
328,-175,441,-123,-331,3927,17.01,2.92,40.00,-1.23,-3.31,39.27,-5.84,2.19,-8.50,-7.45,1.32,5.76
335,-160,393,-90,-389,3917,17.35,1.65,38.40,-0.90,-3.89,39.17,-5.76,2.19,-8.65,-7.74,1.36,8.14
385,-41,325,17,-533,3987,17.97,1.24,36.54,0.17,-5.33,39.87,-5.69,2.19,-8.79,-8.97,-0.95,11.95
408,-6,347,28,-594,4010,18.66,1.08,35.00,0.28,-5.94,40.10,-5.63,2.20,-8.93,-9.67,-1.62,8.47
502,16,565,78,-728,4053,19.85,1.07,34.95,0.78,-7.28,40.53,-5.56,2.21,-9.07,-11.95,-2.07,-10.04
519,-17,708,95,-761,4055,21.04,0.86,35.77,0.95,-7.61,40.55,-5.48,2.21,-9.21,-12.67,-1.35,-20.00
468,-102,948,35,-660,4012,21.79,0.15,37.98,0.35,-6.60,40.12,-5.40,2.22,-9.36,-11.89,0.57,-20.00
440,-120,997,37,-625,3978,22.29,-0.60,40.26,0.37,-6.25,39.78,-5.32,2.22,-9.52,-11.51,1.14,-20.00
322,-148,1121,-14,-494,3901,22.03,-1.44,43.08,-0.14,-4.94,39.01,-5.24,2.22,-9.69,-9.09,1.94,-20.00
291,-152,1154,-48,-481,3868,21.60,-2.22,45.81,-0.48,-4.81,38.68,-5.16,2.21,-9.88,-8.40,2.24,-20.00
205,-131,1243,-9,-514,3889,20.69,-2.80,48.81,-0.09,-5.14,38.89,-5.08,2.21,-10.07,-6.45,1.97,-20.00
186,-112,1267,-2,-514,3860,19.76,-3.20,51.66,-0.02,-5.14,38.60,-5.01,2.20,-10.28,-5.86,1.70,-20.00
143,-97,1399,-97,-358,3862,18.65,-3.48,55.02,-0.97,-3.58,38.62,-4.93,2.19,-10.50,-4.74,1.48,-20.00
137,-93,1444,-129,-310,3868,17.62,-3.69,58.33,-1.29,-3.10,38.68,-4.84,2.18,-10.73,-4.40,1.46,-20.00
56,-55,1517,-205,-128,3907,16.20,-3.66,61.75,-2.05,-1.28,39.07,-4.75,2.19,-10.98,-2.42,0.67,-20.00
24,-28,1501,-222,-109,3887,14.73,-3.47,64.73,-2.22,-1.09,38.87,-4.66,2.21,-11.24,-1.43,0.06,-20.00
46,7,1405,-224,-97,3960,13.54,-3.08,66.83,-2.24,-0.97,39.60,-4.58,2.22,-11.51,-1.60,-0.77,-20.00
73,-1,1386,-229,-93,3962,12.63,-2.77,68.60,-2.29,-0.93,39.62,-4.50,2.24,-11.79,-1.96,-0.70,-20.00
96,-34,1351,-255,-67,4085,11.95,-2.70,69.98,-2.55,-0.67,40.85,-4.43,2.26,-12.07,-2.29,-0.06,-20.00
75,-26,1342,-250,-64,4164,11.21,-2.59,71.17,-2.50,-0.64,41.64,-4.35,2.27,-12.35,-1.71,-0.26,-20.00
21,-23,1331,-210,-117,4349,10.22,-2.47,72.17,-2.10,-1.17,43.49,-4.28,2.29,-12.64,-0.39,-0.37,-20.00
38,-46,1331,-177,-143,4375,9.43,-2.51,73.07,-1.77,-1.43,43.75,-4.21,2.30,-12.93,-0.56,0.10,-20.00
204,-212,1300,-26,-429,4339,9.73,-3.55,73.70,-0.26,-4.29,43.39,-4.17,2.29,-13.23,-4.05,3.77,-20.00
262,-261,1294,21,-495,4308,10.36,-4.79,74.22,0.21,-4.95,43.08,-4.13,2.28,-13.53,-5.42,5.11,-20.00
318,-360,1361,39,-561,4159,11.26,-6.50,75.10,0.39,-5.61,41.59,-4.09,2.27,-13.83,-6.84,7.60,-20.00
251,-373,1434,5,-515,4088,11.67,-8.13,76.34,0.05,-5.15,40.88,-4.05,2.24,-14.13,-5.61,8.32,-20.00
24,-389,1529,-69,-332,3964,10.65,-9.69,78.03,-0.69,-3.32,39.64,-4.00,2.21,-14.45,-0.75,9.09,-20.00
-39,-402,1533,-59,-350,3938,9.34,-11.17,79.58,-0.59,-3.50,39.38,-3.96,2.17,-14.77,0.86,9.79,-20.00
-219,-441,1564,1,-395,3955,7.07,-12.75,81.16,0.01,-3.95,39.55,-3.93,2.13,-15.10,5.12,11.04,-20.00
-259,-445,1589,-15,-354,3964,4.79,-14.19,82.74,-0.15,-3.54,39.64,-3.91,2.08,-15.43,6.54,11.54,-20.00
-372,-427,1710,-135,-95,3920,2.04,-15.37,84.90,-1.35,-0.95,39.20,-3.87,2.04,-15.77,9.57,11.53,-20.00
-395,-406,1721,-158,-21,3857,-0.58,-16.31,86.90,-1.58,-0.21,38.57,-3.85,2.00,-16.13,10.73,11.38,-20.00
-406,-262,1624,-208,199,3907,-2.99,-16.28,88.12,-2.08,1.99,39.07,-3.83,1.96,-16.48,11.60,8.47,-20.00
-375,-182,1540,-206,199,3880,-4.98,-15.76,88.70,-2.06,1.99,38.80,-3.82,1.93,-16.84,11.50,6.73,-20.00
-163,-64,1292,-121,-30,3854,-5.48,-14.57,87.71,-1.21,-0.30,38.54,-3.81,1.89,-17.20,7.32,4.03,-15.04
-59,-51,1243,-102,-165,3824,-5.29,-13.43,86.52,-1.02,-1.65,38.24,-3.80,1.86,-17.55,5.15,3.47,-12.11
-52,-24,1324,-113,-324,3826,-5.08,-12.23,85.95,-1.13,-3.24,38.26,-3.83,1.83,-17.89,4.97,2.62,-19.55
-86,5,1362,-130,-283,3827,-5.10,-10.98,85.66,-1.30,-2.83,38.27,-3.85,1.81,-18.24,5.68,1.70,-20.00
-241,80,1447,-212,-204,3754,-6.06,-9.39,85.92,-2.12,-2.04,37.54,-3.86,1.81,-18.58,9.10,-0.26,-20.00
-268,84,1432,-171,-221,3757,-7.09,-7.94,86.07,-1.71,-2.21,37.57,-3.87,1.82,-18.93,9.93,-0.74,-20.00
-361,132,1343,-165,-151,3908,-8.58,-6.34,85.65,-1.65,-1.51,39.08,-3.87,1.82,-19.27,12.24,-2.16,-20.00
-381,143,1324,-145,-193,3955,-10.05,-4.84,85.16,-1.45,-1.93,39.55,-3.88,1.83,-19.61,13.05,-2.80,-20.00
-436,135,1281,-9,-409,4203,-11.70,-3.53,84.46,-0.09,-4.09,42.03,-3.93,1.83,-19.95,14.65,-2.99,-17.30
-437,109,1289,18,-481,4231,-13.20,-2.51,83.88,0.18,-4.81,42.31,-3.99,1.83,-20.29,15.12,-2.74,-18.56
-457,-155,1407,62,-685,4030,-14.66,-3.20,84.07,0.62,-6.85,40.30,-4.05,1.83,-20.62,15.97,2.82,-20.00
-520,-274,1466,-2,-603,3844,-16.37,-4.56,84.61,-0.02,-6.03,38.44,-4.13,1.83,-20.96,17.76,5.60,-20.00
-703,-308,1459,-60,-409,3417,-19.02,-5.98,85.05,-0.60,-4.09,34.17,-4.21,1.83,-21.30,20.00,6.69,-20.00
-735,-257,1436,-71,-373,3368,-21.60,-6.95,85.30,-0.71,-3.73,33.68,-4.30,1.82,-21.64,20.00,5.92,-20.00
-733,39,1395,-93,-360,3441,-23.91,-6.02,85.28,-0.93,-3.60,34.41,-4.40,1.82,-21.99,20.00,-0.35,-20.00
-695,129,1386,-49,-424,3484,-25.76,-4.63,85.21,-0.49,-4.24,34.84,-4.51,1.82,-22.33,20.00,-2.56,-20.00
-510,331,1370,-4,-568,3688,-26.30,-2.15,85.04,-0.04,-5.68,36.88,-4.63,1.83,-22.67,20.00,-7.35,-20.00
-470,354,1384,-3,-603,3748,-26.53,0.23,84.98,-0.03,-6.03,37.48,-4.74,1.85,-23.01,19.92,-8.48,-20.00
-435,348,1467,-42,-522,3885,-26.53,2.33,85.43,-0.42,-5.22,38.85,-4.85,1.89,-23.34,19.28,-8.96,-20.00
-452,342,1478,-71,-486,3888,-26.64,4.18,85.90,-0.71,-4.86,38.88,-4.96,1.92,-23.69,19.73,-9.36,-20.00
-514,337,1430,-173,-343,3788,-27.11,5.82,86.04,-1.73,-3.43,37.88,-5.06,2.00,-24.03,20.00,-9.76,-20.00
-504,338,1374,-251,-263,3816,-27.47,7.30,85.81,-2.51,-2.63,38.16,-5.15,2.07,-24.37,20.00,-10.23,-20.00
-378,385,1262,-315,-278,3833,-27.03,8.92,84.93,-3.15,-2.78,38.33,-5.24,2.15,-24.70,18.52,-11.68,-14.76
-322,384,1232,-283,-373,3835,-26.29,10.37,83.95,-2.83,-3.73,38.35,-5.34,2.24,-25.03,17.24,-12.12,-13.23
-157,323,1202,-218,-684,3782,-24.62,11.30,82.89,-2.18,-6.84,37.82,-5.44,2.32,-25.36,13.50,-11.18,-11.78
-156,300,1228,-235,-721,3761,-23.11,12.00,82.09,-2.35,-7.21,37.61,-5.54,2.41,-25.68,13.13,-10.96,-14.80
-301,241,1382,-375,-499,3701,-22.64,12.27,82.31,-3.75,-4.99,37.01,-5.62,2.50,-26.00,16.00,-9.90,-20.00
-368,237,1413,-434,-393,3672,-22.62,12.49,82.70,-4.34,-3.93,36.72,-5.70,2.60,-26.33,17.41,-9.94,-20.00
-465,280,1354,-500,-75,3588,-23.19,12.95,82.69,-5.00,-0.75,35.88,-5.77,2.70,-26.65,19.59,-11.01,-20.00
-439,311,1304,-533,46,3661,-23.55,13.55,82.38,-5.33,0.46,36.61,-5.83,2.80,-26.97,19.20,-11.87,-20.00
-144,550,1032,-490,29,3803,-22.07,15.55,80.43,-4.90,0.29,38.03,-5.89,2.91,-27.29,12.83,-17.34,0.19
77,636,877,-349,-211,3806,-19.40,17.88,77.74,-3.49,-2.11,38.06,-5.94,3.02,-27.59,7.64,-19.80,10.50
456,619,704,-164,-688,3830,-14.68,19.86,74.26,-1.64,-6.88,38.30,-6.00,3.13,-27.88,-1.31,-20.00,20.00
485,581,707,-146,-749,3807,-10.25,21.42,71.15,-1.46,-7.49,38.07,-6.04,3.24,-28.15,-3.08,-19.79,17.97
306,496,777,-203,-665,3900,-7.36,22.31,68.77,-2.03,-6.65,39.00,-6.08,3.36,-28.42,-0.21,-18.38,9.55
217,492,790,-224,-613,3925,-5.30,23.08,66.71,-2.24,-6.13,39.25,-6.10,3.48,-28.67,1.06,-18.59,6.29
-7,471,774,-264,-485,4069,-4.81,23.64,64.76,-2.64,-4.85,40.69,-6.12,3.60,-28.92,5.49,-18.40,5.61
-11,451,763,-286,-466,4103,-4.40,24.03,62.94,-2.86,-4.66,41.03,-6.14,3.74,-29.16,5.47,-18.19,4.63
125,298,741,-353,-440,4124,-3.19,23.44,61.17,-3.53,-4.40,41.24,-6.13,3.88,-29.39,2.38,-15.01,4.64
164,249,736,-325,-444,4141,-1.88,22.62,59.54,-3.25,-4.44,41.41,-6.12,4.01,-29.62,1.22,-13.88,3.36
162,103,695,-349,-423,4003,-0.70,20.98,57.83,-3.49,-4.23,40.03,-6.11,4.14,-29.84,0.93,-10.55,5.03
89,21,662,-305,-508,3921,-0.09,19.01,56.08,-3.05,-5.08,39.21,-6.11,4.24,-30.06,2.25,-8.41,6.00
-87,-89,614,-253,-577,3892,-0.61,16.57,54.22,-2.53,-5.77,38.92,-6.12,4.33,-30.26,5.97,-5.56,8.12
-133,-100,613,-294,-548,3909,-1.36,14.30,52.54,-2.94,-5.48,39.09,-6.12,4.40,-30.47,7.12,-4.77,6.44
-200,-75,620,-300,-548,3962,-2.44,12.41,51.06,-3.00,-5.48,39.62,-6.14,4.47,-30.66,8.78,-4.81,4.30
-187,-57,622,-291,-551,3994,-3.34,10.83,49.75,-2.91,-5.51,39.94,-6.15,4.53,-30.85,8.77,-4.79,2.76
-55,-22,649,-347,-556,4121,-3.34,9.61,48.74,-3.47,-5.56,41.21,-6.17,4.60,-31.04,6.10,-5.21,-0.58
0,-31,667,-370,-545,4164,-3.01,8.46,47.93,-3.70,-5.45,41.64,-6.18,4.66,-31.23,4.90,-4.75,-2.95
97,-130,717,-385,-529,4181,-2.11,6.82,47.51,-3.85,-5.29,41.81,-6.19,4.71,-31.41,2.69,-2.33,-7.61
100,-170,726,-384,-515,4154,-1.29,5.10,47.19,-3.84,-5.15,41.54,-6.20,4.76,-31.60,2.41,-1.08,-8.70
46,-336,739,-405,-438,4001,-0.88,2.54,46.98,-4.05,-4.38,40.01,-6.19,4.81,-31.79,3.39,2.96,-10.00
6,-375,707,-358,-438,3925,-0.76,-0.00,46.59,-3.58,-4.38,39.25,-6.18,4.85,-31.97,4.17,4.43,-7.68
-33,-346,613,-346,-468,3851,-0.88,-2.11,45.67,-3.46,-4.68,38.51,-6.19,4.87,-32.15,5.00,4.40,-0.68
-29,-325,595,-342,-502,3835,-0.97,-3.88,44.74,-3.42,-5.02,38.35,-6.19,4.87,-32.33,4.94,4.45,-0.13
38,-247,587,-275,-603,3808,-0.64,-5.00,43.84,-2.75,-6.03,38.08,-6.20,4.87,-32.51,3.49,3.17,-0.38
59,-225,600,-277,-599,3787,-0.22,-5.87,43.12,-2.77,-5.99,37.87,-6.20,4.86,-32.68,2.95,2.97,-2.23
100,-148,665,-277,-569,3768,0.41,-6.19,42.86,-2.77,-5.69,37.68,-6.21,4.85,-32.85,1.95,1.50,-8.00
98,-126,678,-279,-571,3750,0.97,-6.34,42.71,-2.79,-5.71,37.50,-6.20,4.83,-33.02,1.84,1.10,-9.24
63,-57,692,-229,-723,3737,1.26,-6.05,42.66,-2.29,-7.23,37.37,-6.20,4.82,-33.20,2.47,-0.37,-10.47
47,-42,694,-198,-786,3726,1.42,-5.70,42.63,-1.98,-7.86,37.26,-6.20,4.81,-33.37,2.75,-0.77,-10.65
-35,-15,763,-185,-971,3768,1.06,-5.22,43.02,-1.85,-9.71,37.68,-6.20,4.81,-33.54,4.51,-1.44,-16.07
-94,-21,833,-171,-1038,3811,0.38,-4.83,43.80,-1.71,-10.38,38.11,-6.20,4.80,-33.71,5.90,-1.43,-20.00
-246,-94,1009,-260,-1017,3813,-1.16,-4.92,45.57,-2.60,-10.17,38.13,-6.21,4.80,-33.90,9.41,0.08,-20.00
-287,-124,1042,-235,-1065,3829,-2.79,-5.18,47.37,-2.35,-10.65,38.29,-6.22,4.80,-34.09,10.70,0.77,-20.00
-431,-190,1128,-308,-995,3902,-5.14,-5.83,49.52,-3.08,-9.95,39.02,-6.24,4.80,-34.29,14.29,2.29,-20.00
-479,-204,1173,-402,-841,3941,-7.55,-6.49,51.72,-4.02,-8.41,39.41,-6.27,4.79,-34.49,15.94,2.75,-20.00
-527,-246,1221,-474,-539,3974,-10.01,-7.34,54.00,-4.74,-5.39,39.74,-6.31,4.80,-34.71,17.61,3.83,-20.00
-519,-253,1196,-455,-472,3951,-12.17,-8.15,55.89,-4.55,-4.72,39.51,-6.34,4.81,-34.94,18.06,4.19,-20.00
-449,-328,1060,-405,-406,3696,-13.70,-9.33,56.77,-4.05,-4.06,36.96,-6.38,4.82,-35.17,17.07,6.03,-20.00
-441,-356,1025,-342,-465,3630,-15.02,-10.57,57.34,-3.42,-4.65,36.30,-6.43,4.81,-35.40,17.31,6.95,-20.00
-548,-343,922,-51,-837,3433,-16.86,-11.61,57.23,-0.51,-8.37,34.33,-6.50,4.78,-35.63,20.00,6.98,-14.30
-635,-267,924,16,-924,3455,-19.04,-12.08,57.15,0.16,-9.24,34.55,-6.57,4.75,-35.86,20.00,5.59,-14.54
-632,-39,1001,21,-690,3944,-21.00,-11.11,57.54,0.21,-6.90,39.44,-6.64,4.72,-36.10,20.00,0.71,-20.00
-564,19,1007,10,-572,4063,-22.34,-9.88,57.93,0.10,-5.72,40.63,-6.72,4.69,-36.33,20.00,-0.79,-20.00
-162,131,928,-15,-368,4351,-21.09,-8.09,57.80,-0.15,-3.68,43.51,-6.78,4.67,-36.57,13.52,-3.54,-14.13
-53,122,885,-14,-404,4375,-19.31,-6.54,57.41,-0.14,-4.04,43.75,-6.83,4.65,-36.80,10.85,-3.77,-10.87
138,-19,727,101,-742,4170,-16.53,-6.00,56.11,1.01,-7.42,41.70,-6.89,4.64,-37.03,6.25,-1.04,1.15
117,-69,709,110,-820,4082,-14.17,-5.82,54.82,1.10,-8.20,40.82,-6.94,4.63,-37.25,6.06,-0.06,1.33
-135,-197,729,90,-946,3948,-13.57,-6.44,53.79,0.90,-9.46,39.48,-6.99,4.61,-37.46,11.06,2.72,-1.44
-195,-204,744,75,-938,3948,-13.41,-7.04,52.95,0.75,-9.38,39.48,-7.04,4.60,-37.68,12.26,3.03,-3.58
-186,-184,772,54,-908,4038,-13.20,-7.46,52.36,0.54,-9.08,40.38,-7.09,4.58,-37.89,12.06,2.75,-6.55
-75,-161,782,61,-944,4038,-12.34,-7.70,51.90,0.61,-9.44,40.38,-7.13,4.57,-38.10,9.60,2.36,-7.87
98,-120,838,110,-1079,4009,-10.51,-7.66,51.82,1.10,-10.79,40.09,-7.17,4.55,-38.31,5.60,1.52,-12.68
108,-111,862,121,-1079,4032,-8.80,-7.57,51.89,1.21,-10.79,40.32,-7.20,4.54,-38.51,4.96,1.33,-14.61
37,-116,950,-40,-660,4120,-7.69,-7.52,52.50,-0.40,-6.60,41.20,-7.23,4.52,-38.73,6.11,1.43,-20.00
11,-126,949,-89,-504,4148,-6.85,-7.54,53.04,-0.89,-5.04,41.48,-7.24,4.49,-38.94,6.42,1.65,-20.00
25,-181,792,-87,-319,4139,-6.02,-7.89,52.57,-0.87,-3.19,41.39,-7.23,4.48,-39.16,5.90,2.88,-7.91
65,-209,725,-48,-355,4083,-5.02,-8.37,51.73,-0.48,-3.55,40.83,-7.23,4.45,-39.37,4.82,3.59,-3.10
211,-309,598,78,-621,3824,-3.23,-9.42,50.21,0.78,-6.21,38.24,-7.23,4.42,-39.57,1.36,5.93,6.06
216,-310,600,90,-652,3768,-1.59,-10.37,48.85,0.90,-6.52,37.68,-7.23,4.39,-39.77,0.81,6.23,4.47
129,-222,635,164,-768,3534,-0.64,-10.69,47.83,1.64,-7.68,35.34,-7.23,4.36,-39.96,2.32,4.55,0.45
94,-162,635,175,-785,3529,-0.01,-10.61,46.92,1.75,-7.85,35.29,-7.22,4.32,-40.16,2.86,3.33,-0.50
123,-48,674,49,-589,3616,0.75,-9.84,46.34,0.49,-5.89,36.16,-7.21,4.29,-40.35,2.06,0.83,-4.40
149,-29,685,-7,-506,3630,1.58,-9.03,45.89,-0.07,-5.06,36.30,-7.19,4.26,-40.53,1.29,0.24,-5.80
187,54,605,-106,-261,3769,2.56,-7.80,44.99,-1.06,-2.61,37.69,-7.16,4.24,-40.72,0.22,-1.77,0.05
170,84,557,-142,-205,3777,3.34,-6.51,43.89,-1.42,-2.05,37.77,-7.11,4.23,-40.90,0.33,-2.72,2.96
107,101,371,-144,-179,3795,3.66,-5.24,41.76,-1.44,-1.79,37.95,-7.07,4.22,-41.07,1.49,-3.41,16.49
98,81,318,-125,-209,3753,3.89,-4.22,39.53,-1.25,-2.09,37.53,-7.03,4.21,-41.23,1.58,-3.28,18.62
45,-26,183,-86,-384,3544,3.78,-3.96,36.69,-0.86,-3.84,35.44,-7.00,4.20,-41.37,2.67,-1.16,20.00
6,-39,155,-49,-442,3482,3.44,-3.80,33.97,-0.49,-4.42,34.82,-6.97,4.18,-41.51,3.54,-0.93,20.00
-179,45,90,73,-671,3485,2.00,-3.15,31.12,0.73,-6.71,34.85,-6.97,4.17,-41.64,7.69,-2.81,20.00
-227,130,89,125,-788,3623,0.42,-2.04,28.55,1.25,-7.88,36.23,-6.97,4.16,-41.75,9.10,-4.83,20.00
-93,208,194,191,-927,4010,-0.19,-0.57,26.88,1.91,-9.27,40.10,-6.97,4.16,-41.86,6.55,-6.82,15.79
-19,199,231,206,-955,4080,-0.29,0.70,25.60,2.06,-9.55,40.80,-6.98,4.16,-41.96,5.07,-6.98,11.31
172,74,329,219,-971,4174,0.79,1.09,25.05,2.19,-9.71,41.74,-6.98,4.16,-42.05,0.90,-4.55,2.43
183,28,349,206,-955,4161,1.83,1.15,24.67,2.06,-9.55,41.61,-6.98,4.17,-42.15,0.39,-3.63,0.35
98,-111,382,113,-770,4113,2.24,0.36,24.53,1.13,-7.70,41.13,-6.97,4.16,-42.25,2.00,-0.59,-2.58
64,-147,378,90,-687,4077,2.41,-0.58,24.39,0.90,-6.87,40.77,-6.96,4.16,-42.35,2.64,0.40,-2.39
-9,-238,297,18,-404,3906,2.11,-1.97,23.76,0.18,-4.04,39.06,-6.95,4.14,-42.44,4.19,2.64,3.82
-11,-244,255,23,-364,3853,1.83,-3.26,22.94,0.23,-3.64,38.53,-6.93,4.12,-42.53,4.29,3.13,6.51
13,-181,94,101,-469,3669,1.73,-4.04,21.22,1.01,-4.69,36.69,-6.91,4.10,-42.62,3.83,2.08,18.34
28,-105,38,169,-643,3628,1.73,-4.28,19.33,1.69,-6.43,36.28,-6.91,4.07,-42.70,3.52,0.61,20.00
69,61,32,321,-964,3728,1.98,-3.48,17.59,3.21,-9.64,37.28,-6.91,4.06,-42.77,2.62,-2.97,19.76
85,94,60,324,-1016,3772,2.30,-2.56,16.20,3.24,-10.16,37.72,-6.91,4.04,-42.83,2.20,-3.88,15.92
149,133,166,297,-988,3951,2.98,-1.49,15.59,2.97,-9.88,39.51,-6.90,4.03,-42.90,0.71,-4.96,6.31
162,132,182,261,-920,4017,3.67,-0.53,15.14,2.61,-9.20,40.17,-6.89,4.02,-42.96,0.26,-5.19,4.48
190,103,191,69,-583,4109,4.46,0.15,14.79,0.69,-5.83,41.09,-6.88,4.01,-43.02,-0.54,-4.78,3.35
194,77,177,19,-483,4080,5.20,0.60,14.39,0.19,-4.83,40.80,-6.85,4.00,-43.07,-0.84,-4.37,4.12
162,-18,45,-72,-310,3872,5.66,0.43,13.23,-0.72,-3.10,38.72,-6.81,3.99,-43.13,-0.34,-2.39,14.08
131,-38,-3,-87,-324,3799,5.90,0.16,11.89,-0.87,-3.24,37.99,-6.78,3.98,-43.17,0.20,-1.90,16.73
-41,-33,-129,-30,-508,3597,5.06,-0.06,9.91,-0.30,-5.08,35.97,-6.76,3.97,-43.21,3.92,-1.93,20.00
-122,-3,-157,41,-652,3528,3.81,-0.07,7.96,0.41,-6.52,35.28,-6.75,3.96,-43.24,5.90,-2.53,20.00
-169,96,-146,82,-716,3593,2.40,0.52,6.28,0.82,-7.16,35.93,-6.75,3.95,-43.27,7.24,-4.70,20.00
-153,134,-130,59,-672,3649,1.22,1.29,4.86,0.59,-6.72,36.49,-6.76,3.94,-43.29,7.24,-5.68,20.00
-34,252,-134,67,-589,3805,0.89,2.69,3.55,0.67,-5.89,38.05,-6.76,3.94,-43.30,4.91,-8.46,19.01
-3,269,-150,87,-611,3844,0.79,4.07,2.28,0.87,-6.11,38.44,-6.77,3.94,-43.30,4.31,-9.18,19.02
-3,265,-166,74,-653,3992,0.69,5.28,1.04,0.74,-6.53,39.92,-6.77,3.95,-43.31,4.34,-9.43,19.06
-29,249,-161,50,-608,4038,0.44,6.27,-0.04,0.50,-6.08,40.38,-6.78,3.95,-43.30,4.94,-9.38,17.49
-128,165,-223,-125,-213,4177,-0.38,6.65,-1.40,-1.25,-2.13,41.77,-6.76,3.97,-43.29,7.17,-7.79,20.00
-147,152,-267,-159,-165,4177,-1.24,6.91,-2.89,-1.59,-1.65,41.77,-6.75,3.99,-43.28,7.78,-7.61,20.00
-112,98,-466,-143,-220,4062,-1.80,6.82,-5.44,-1.43,-2.20,40.62,-6.74,4.01,-43.26,7.22,-6.49,20.00
-29,50,-551,-126,-308,3995,-1.80,6.44,-8.26,-1.26,-3.08,39.95,-6.74,4.01,-43.22,5.53,-5.42,20.00
90,44,-661,-86,-410,3963,-1.07,6.06,-11.47,-0.86,-4.10,39.63,-6.74,4.02,-43.17,2.91,-5.20,20.00
103,75,-681,-110,-377,3997,-0.33,5.92,-14.47,-1.10,-3.77,39.97,-6.74,4.02,-43.11,2.44,-5.79,20.00
173,199,-778,-165,-197,4246,0.76,6.54,-17.77,-1.65,-1.97,42.46,-6.73,4.03,-43.04,0.72,-8.49,20.00
226,214,-824,-128,-201,4313,2.06,7.19,-21.02,-1.28,-2.01,43.13,-6.71,4.04,-42.96,-0.73,-8.98,20.00
464,136,-977,-115,-215,4431,4.68,7.30,-24.88,-1.15,-2.15,44.31,-6.68,4.04,-42.85,-6.30,-7.42,20.00
525,95,-1010,-144,-174,4452,7.42,7.15,-28.55,-1.44,-1.74,44.52,-6.64,4.05,-42.74,-8.31,-6.55,20.00
634,-54,-1137,-265,-61,4357,10.54,6.11,-32.63,-2.65,-0.61,43.57,-6.59,4.06,-42.61,-11.42,-3.25,20.00
643,-103,-1184,-325,-13,4281,13.41,4.87,-36.59,-3.25,-0.13,42.81,-6.53,4.06,-42.46,-12.42,-1.91,20.00
629,-231,-1383,-508,391,4205,15.91,2.97,-41.37,-5.08,3.91,42.05,-6.46,4.06,-42.29,-12.86,1.21,20.00
617,-287,-1503,-652,604,4132,18.08,0.92,-46.40,-6.52,6.04,41.32,-6.38,4.05,-42.11,-13.26,2.91,20.00
615,-384,-1715,-824,924,3940,20.02,-1.51,-52.22,-8.24,9.24,39.40,-6.30,4.03,-41.90,-13.81,5.56,20.00
623,-377,-1828,-935,1064,3933,21.82,-3.66,-58.15,-9.35,10.64,39.33,-6.21,3.99,-41.68,-14.52,6.03,20.00
763,-162,-2274,-746,474,4005,24.29,-4.28,-66.21,-7.46,4.74,40.05,-6.12,3.96,-41.41,-18.10,1.85,20.00
826,-112,-2386,-657,259,4008,26.90,-4.54,-74.14,-6.57,2.59,40.08,-6.02,3.92,-41.12,-20.00,0.93,20.00
1106,19,-2821,-297,-176,4170,30.96,-3.97,-83.93,-2.97,-1.76,41.70,-5.90,3.87,-40.79,-20.00,-1.86,20.00
1179,37,-2983,-183,-325,4260,35.06,-3.35,-93.74,-1.83,-3.25,42.60,-5.77,3.80,-40.42,-20.00,-2.35,20.00
1323,30,-3092,170,-641,4341,39.62,-2.83,-103.22,1.70,-6.41,43.41,-5.64,3.73,-40.01,-20.00,-2.30,20.00
1353,-2,-3095,131,-631,4396,43.91,-2.56,-111.78,1.31,-6.31,43.96,-5.50,3.66,-39.56,-20.00,-1.68,20.00
1396,-174,-2999,183,-418,4469,48.04,-3.36,-118.90,1.83,-4.18,44.69,-5.34,3.59,-39.09,-20.00,2.09,20.00
1394,-284,-2932,134,-294,4362,51.74,-4.76,-124.89,1.34,-2.94,43.62,-5.16,3.50,-38.59,-20.00,4.76,20.00
1183,-551,-2750,54,-31,3902,53.78,-7.64,-129.18,0.54,-0.31,39.02,-4.96,3.42,-38.08,-20.00,11.03,20.00
1083,-608,-2714,29,20,3756,55.01,-10.59,-132.82,0.29,0.20,37.56,-4.76,3.32,-37.55,-20.00,13.06,20.00
723,-697,-2687,53,41,3369,53.92,-13.78,-135.93,0.53,0.41,33.69,-4.56,3.21,-37.02,-20.00,15.81,20.00
636,-680,-2705,83,30,3286,52.40,-16.55,-138.83,0.83,0.30,32.86,-4.37,3.09,-36.47,-20.00,16.30,20.00
393,-463,-2853,286,-277,3022,49.56,-17.72,-142.35,2.86,-2.77,30.22,-4.20,2.95,-35.90,-18.73,12.30,20.00
394,-340,-2895,432,-455,3005,47.01,-18.02,-145.78,4.32,-4.55,30.05,-4.05,2.82,-35.33,-18.16,9.96,20.00
444,74,-2982,301,-568,3498,45.02,-15.77,-149.39,3.01,-5.68,34.98,-3.91,2.70,-34.73,-18.72,1.01,20.00
418,181,-2959,484,-486,3266,43.06,-13.09,-152.50,4.84,-4.86,32.66,-3.77,2.59,-34.13,-17.75,-1.82,20.00
318,601,-2822,252,-227,3964,40.70,-8.11,-154.46,2.52,-2.27,39.64,-3.63,2.50,-33.51,-15.17,-11.66,20.00
216,677,-2717,120,-186,4030,37.95,-3.17,-155.59,1.20,-1.86,40.30,-3.50,2.43,-32.89,-12.43,-14.51,20.00
-138,544,-2540,9,-135,4271,33.31,0.46,-155.53,0.09,-1.35,42.71,-3.39,2.38,-32.27,-4.04,-12.76,20.00
-204,459,-2506,-62,-111,4144,28.73,3.22,-155.26,-0.62,-1.11,41.44,-3.28,2.35,-31.65,-1.52,-11.76,20.00
168,431,-2504,-185,-321,3659,26.89,5.52,-155.01,-1.85,-3.21,36.59,-3.22,2.34,-31.03,-8.62,-11.82,20.00
199,334,-2550,-58,-413,3734,25.41,7.01,-155.06,-0.58,-4.13,37.34,-3.16,2.33,-30.41,-8.89,-10.24,20.00
152,37,-2697,16,-406,3637,23.80,6.53,-156.01,0.16,-4.06,36.37,-3.10,2.31,-29.78,-7.53,-4.06,20.00
123,20,-2702,-57,-342,3686,22.17,6.00,-156.89,-0.57,-3.42,36.86,-3.05,2.29,-29.15,-6.53,-3.55,20.00
60,199,-2565,-163,-185,3799,20.32,6.62,-156.85,-1.63,-1.85,37.99,-2.98,2.29,-28.52,-4.79,-7.36,20.00
36,251,-2507,-173,-190,3798,18.50,7.49,-156.46,-1.73,-1.90,37.98,-2.93,2.31,-27.90,-3.85,-8.67,20.00
-132,205,-2332,-52,-386,3627,15.85,7.99,-155.04,-0.52,-3.86,36.27,-2.90,2.30,-27.28,0.28,-7.86,20.00
-80,201,-2271,-43,-382,3535,13.78,8.42,-153.38,-0.43,-3.82,35.35,-2.89,2.29,-26.66,-0.22,-7.89,20.00
283,382,-2209,-64,-387,3767,14.12,9.90,-151.52,-0.64,-3.87,37.67,-2.88,2.29,-26.05,-7.71,-11.98,20.00
303,397,-2222,-73,-391,3857,14.56,11.34,-149.92,-0.73,-3.91,38.57,-2.86,2.30,-25.45,-8.24,-12.68,20.00
21,254,-2358,-46,-541,3925,13.23,11.75,-149.31,-0.46,-5.41,39.25,-2.85,2.31,-24.85,-2.16,-9.90,20.00
-27,243,-2400,-38,-571,3899,11.74,12.06,-149.02,-0.38,-5.71,38.99,-2.84,2.33,-24.25,-0.78,-9.76,20.00
60,408,-2422,-102,-318,3918,10.94,13.34,-148.90,-1.02,-3.18,39.18,-2.84,2.34,-23.65,-2.33,-13.48,20.00
23,436,-2378,-166,-213,3943,9.98,14.67,-148.51,-1.66,-2.13,39.43,-2.84,2.38,-23.05,-1.31,-14.43,20.00
-232,482,-2143,-253,-99,4070,7.57,16.14,-146.73,-2.53,-0.99,40.70,-2.82,2.42,-22.46,4.52,-15.80,20.00
-303,482,-2100,-235,-199,4069,4.96,17.47,-144.87,-2.35,-1.99,40.69,-2.83,2.48,-21.88,6.67,-16.20,20.00
-459,376,-2048,-191,-398,4032,1.67,18.01,-142.88,-1.91,-3.98,40.32,-2.86,2.53,-21.31,10.77,-14.23,20.00
-459,297,-2040,-210,-424,3983,-1.30,18.02,-141.03,-2.10,-4.24,39.83,-2.91,2.58,-20.74,11.61,-12.65,20.00
-239,313,-2015,-277,-355,4033,-2.63,18.13,-139.22,-2.77,-3.55,40.33,-2.96,2.63,-20.18,7.53,-13.04,20.00
-161,350,-2018,-281,-382,4099,-3.35,18.45,-137.61,-2.81,-3.82,40.99,-3.02,2.68,-19.62,6.18,-13.92,20.00
-129,345,-2074,-258,-344,4410,-3.80,18.71,-136.50,-2.58,-3.44,44.10,-3.08,2.74,-19.07,5.69,-13.92,20.00
-193,301,-2089,-281,-308,4479,-4.60,18.68,-135.59,-2.81,-3.08,44.79,-3.13,2.79,-18.52,7.25,-13.06,20.00
-395,79,-2118,-308,-269,4354,-6.55,17.29,-134.95,-3.08,-2.69,43.54,-3.19,2.85,-17.98,11.92,-8.20,20.00
-361,50,-2113,-316,-204,4271,-8.09,15.87,-134.35,-3.16,-2.04,42.71,-3.25,2.90,-17.44,11.69,-7.26,20.00
-61,62,-2038,-435,297,4420,-7.66,14.66,-133.34,-4.35,2.97,44.20,-3.29,2.94,-16.90,5.50,-7.20,20.00
-58,34,-2024,-451,382,4302,-7.24,13.40,-132.36,-4.51,3.82,43.02,-3.33,2.97,-16.37,5.35,-6.30,20.00
-44,-111,-2067,-379,-15,4150,-6.79,11.38,-131.73,-3.79,-0.15,41.50,-3.37,2.99,-15.84,4.97,-2.82,20.00
0,-174,-2162,-283,-254,4044,-6.11,9.18,-131.74,-2.83,-2.54,40.44,-3.42,3.01,-15.32,3.92,-0.96,20.00
230,-151,-2483,-196,-588,3858,-4.10,7.34,-133.72,-1.96,-5.88,38.58,-3.48,3.01,-14.78,-1.26,-0.92,20.00
301,-118,-2566,-162,-682,3823,-1.85,5.89,-136.00,-1.62,-6.82,38.23,-3.54,3.00,-14.23,-3.28,-1.19,20.00
321,-131,-2707,-84,-849,3747,0.29,4.50,-138.91,-0.84,-8.49,37.47,-3.59,2.98,-13.67,-4.24,-0.53,20.00
325,-116,-2720,-56,-879,3738,2.25,3.34,-141.61,-0.56,-8.79,37.38,-3.62,2.95,-13.11,-4.83,-0.50,20.00
327,11,-2551,-134,-498,3832,4.02,3.08,-143.01,-1.34,-4.98,38.32,-3.65,2.92,-12.53,-5.33,-2.99,20.00
281,31,-2526,-56,-507,3897,5.33,2.96,-144.12,-0.56,-5.07,38.97,-3.68,2.89,-11.96,-4.74,-3.34,20.00
162,123,-2377,-101,-644,3942,5.78,3.41,-144.21,-1.01,-6.44,39.42,-3.70,2.86,-11.38,-2.43,-5.32,20.00
163,147,-2332,-117,-625,3972,6.20,3.97,-144.01,-1.17,-6.25,39.72,-3.72,2.84,-10.80,-2.55,-5.94,20.00
333,199,-2239,-81,-828,3935,7.61,4.79,-143.27,-0.81,-8.28,39.35,-3.74,2.82,-10.23,-6.38,-7.21,20.00
453,158,-2257,40,-936,3999,9.61,5.27,-142.71,0.40,-9.36,39.99,-3.75,2.79,-9.65,-9.36,-6.49,20.00
531,43,-2222,21,-671,4031,11.89,5.01,-141.99,0.21,-6.71,40.31,-3.74,2.77,-9.08,-11.57,-4.07,20.00
520,8,-2170,-31,-486,4018,13.87,4.55,-141.03,-0.31,-4.86,40.18,-3.73,2.74,-8.52,-11.90,-3.21,20.00
318,-114,-1948,-134,-198,3932,14.43,3.40,-138.81,-1.34,-1.98,39.32,-3.68,2.70,-7.96,-7.97,-0.39,18.77
227,-143,-1920,-145,-225,3879,14.37,2.19,-136.64,-1.45,-2.25,38.79,-3.64,2.66,-7.42,-6.13,0.55,18.65
-84,-178,-1978,-137,-325,3856,12.42,0.89,-135.04,-1.37,-3.25,38.56,-3.63,2.62,-6.88,0.72,1.65,20.00
-149,-155,-2029,-114,-333,3828,10.27,-0.15,-133.92,-1.14,-3.33,38.28,-3.63,2.58,-6.34,2.63,1.49,20.00
25,-7,-2183,-152,-410,3618,9.39,-0.18,-133.84,-1.52,-4.10,36.18,-3.64,2.54,-5.80,-0.67,-1.49,20.00
141,32,-2221,-116,-461,3602,9.31,0.04,-134.00,-1.16,-4.61,36.02,-3.64,2.50,-5.27,-3.00,-2.31,20.00
446,71,-2312,-11,-549,3898,11.10,0.47,-134.71,-0.11,-5.49,38.98,-3.64,2.46,-4.73,-9.70,-3.20,20.00
412,38,-2287,30,-522,3972,12.51,0.65,-135.19,0.30,-5.22,39.72,-3.62,2.42,-4.19,-9.40,-2.55,20.00
291,-8,-2108,-12,-302,4081,13.03,0.54,-134.53,-0.12,-3.02,40.81,-3.60,2.37,-3.65,-7.10,-1.55,20.00
248,-31,-2001,0,-237,3993,13.24,0.29,-133.28,0.00,-2.37,39.93,-3.57,2.32,-3.12,-6.30,-0.98,20.00
354,70,-1724,-20,-137,4186,14.08,0.69,-130.47,-0.20,-1.37,41.86,-3.52,2.28,-2.60,-8.71,-3.11,8.14
389,67,-1674,-30,-181,4132,15.04,1.03,-127.63,-0.30,-1.81,41.32,-3.47,2.23,-2.09,-9.72,-3.12,6.86
698,6,-1678,21,-269,4012,17.80,0.96,-125.11,0.21,-2.69,40.12,-3.42,2.19,-1.59,-16.79,-1.83,9.83
746,-74,-1713,9,-242,3963,20.57,0.42,-123.04,0.09,-2.42,39.63,-3.36,2.14,-1.10,-18.56,-0.02,14.94
839,-284,-1795,-63,-92,3860,23.63,-1.36,-121.69,-0.63,-0.92,38.60,-3.27,2.10,-0.61,-20.00,4.76,20.00
861,-277,-1811,-70,-63,3939,26.52,-2.91,-120.57,-0.70,-0.63,39.39,-3.16,2.05,-0.13,-20.00,5.07,20.00
706,-185,-1782,-85,192,3915,28.17,-3.75,-119.38,-0.85,1.92,39.15,-3.05,2.01,0.35,-20.00,3.46,20.00
624,-136,-1755,-63,216,3798,29.16,-4.20,-118.15,-0.63,2.16,37.98,-2.93,1.97,0.82,-18.71,2.61,20.00
403,-157,-1781,-3,232,3682,28.70,-4.74,-117.20,-0.03,2.32,36.82,-2.81,1.92,1.28,-14.17,3.22,20.00
337,-168,-1793,-6,304,3689,27.89,-5.29,-116.42,-0.06,3.04,36.89,-2.70,1.87,1.75,-12.68,3.62,20.00
143,-139,-1799,-76,420,3750,25.97,-5.61,-115.75,-0.76,4.20,37.50,-2.59,1.83,2.21,-8.28,3.15,20.00
139,-74,-1805,-67,329,3830,24.22,-5.50,-115.18,-0.67,3.29,38.30,-2.49,1.78,2.67,-7.79,1.83,20.00
142,150,-1864,-78,204,4107,22.67,-4.04,-115.04,-0.78,2.04,41.07,-2.39,1.74,3.13,-7.49,-3.10,20.00
69,134,-1878,-40,197,4154,20.82,-2.81,-114.99,-0.40,1.97,41.54,-2.31,1.71,3.59,-5.56,-3.09,20.00
-157,-58,-1894,52,67,4036,17.78,-2.89,-115.04,0.52,0.67,40.36,-2.24,1.67,4.04,-0.18,0.87,20.00
-41,-26,-1876,66,80,3841,15.75,-2.76,-114.98,0.66,0.80,38.41,-2.17,1.63,4.50,-2.03,0.21,20.00
164,-85,-1749,130,130,3934,15.18,-3.00,-114.15,1.30,1.30,39.34,-2.11,1.59,4.96,-6.08,1.50,20.00
176,-108,-1686,112,148,3940,14.73,-3.36,-113.02,1.12,1.48,39.40,-2.05,1.55,5.41,-6.24,2.09,20.00
96,-129,-1596,122,237,3805,13.85,-3.81,-111.46,1.22,2.37,38.05,-1.99,1.51,5.85,-4.41,2.67,16.67
56,-141,-1583,152,224,3785,12.80,-4.29,-109.97,1.52,2.24,37.85,-1.93,1.46,6.29,-3.35,3.07,17.11
-38,-143,-1601,195,125,3739,11.29,-4.73,-108.74,1.95,1.25,37.39,-1.89,1.42,6.73,-1.06,3.26,19.90
-49,-130,-1610,204,130,3746,9.86,-5.05,-107.68,2.04,1.30,37.46,-1.85,1.37,7.16,-0.47,3.12,20.00
-21,-15,-1633,200,25,3757,8.75,-4.64,-106.88,2.00,0.25,37.57,-1.81,1.32,7.58,-0.76,0.70,20.00
-9,20,-1633,208,6,3803,7.82,-4.05,-106.15,2.08,0.06,38.03,-1.78,1.27,8.01,-0.77,-0.14,20.00
10,149,-1589,221,38,4002,7.10,-2.74,-105.23,2.21,0.38,40.02,-1.76,1.23,8.43,-0.98,-3.10,20.00
-23,154,-1564,235,40,4044,6.25,-1.53,-104.25,2.35,0.40,40.44,-1.73,1.20,8.84,-0.09,-3.51,20.00
-152,98,-1485,262,-68,4058,4.70,-0.77,-102.88,2.62,-0.68,40.58,-1.72,1.16,9.26,2.95,-2.55,16.04
-126,106,-1443,260,-15,4027,3.46,-0.05,-101.39,2.60,-0.15,40.27,-1.71,1.13,9.66,2.75,-2.89,14.02
-22,93,-1338,249,192,3968,2.98,0.52,-99.42,2.49,1.92,39.68,-1.69,1.11,10.06,0.75,-2.77,7.18
-28,73,-1324,234,193,3990,2.51,0.91,-97.55,2.34,1.93,39.90,-1.68,1.09,10.45,0.99,-2.45,7.94
-91,41,-1374,181,118,4038,1.70,1.07,-96.18,1.81,1.18,40.38,-1.66,1.07,10.83,2.48,-1.83,13.59
-97,36,-1409,193,82,4010,0.94,1.19,-95.15,1.93,0.82,40.10,-1.66,1.05,11.21,2.81,-1.75,17.61
-73,10,-1551,286,77,3892,0.40,1.13,-95.10,2.86,0.77,38.92,-1.65,1.03,11.59,2.47,-1.19,20.00
-47,13,-1583,295,95,3870,0.07,1.09,-95.25,2.95,0.95,38.70,-1.65,1.00,11.97,2.02,-1.23,20.00
129,91,-1660,295,59,3831,0.85,1.54,-95.85,2.95,0.59,38.31,-1.65,0.98,12.36,-1.77,-2.92,20.00
187,126,-1676,316,57,3840,1.91,2.15,-96.49,3.16,0.57,38.40,-1.64,0.96,12.74,-3.24,-3.79,20.00
292,207,-1705,299,76,3958,3.50,3.20,-97.24,2.99,0.76,39.58,-1.62,0.95,13.13,-5.82,-5.71,20.00
253,188,-1717,319,54,3971,4.69,4.03,-97.99,3.19,0.54,39.71,-1.60,0.94,13.53,-5.37,-5.54,20.00
224,144,-1735,296,-9,3825,5.59,4.50,-98.77,2.96,-0.09,38.25,-1.58,0.93,13.92,-5.04,-4.77,20.00
272,159,-1735,278,-48,3782,6.69,5.02,-99.48,2.78,-0.48,37.82,-1.56,0.92,14.32,-6.33,-5.21,20.00
506,276,-1749,271,-129,3826,9.11,6.20,-100.20,2.71,-1.29,38.26,-1.53,0.91,14.72,-11.76,-7.91,20.00
568,329,-1756,251,-118,3903,11.66,7.59,-100.89,2.51,-1.18,39.03,-1.49,0.91,15.12,-13.75,-9.36,20.00
550,425,-1751,328,-43,4240,13.85,9.42,-101.48,3.28,-0.43,42.40,-1.44,0.92,15.53,-14.01,-11.82,20.00
469,395,-1737,335,-53,4254,15.33,10.89,-101.93,3.35,-0.53,42.54,-1.38,0.94,15.94,-12.80,-11.62,20.00
320,269,-1633,391,-228,4002,15.75,11.44,-101.70,3.91,-2.28,40.02,-1.33,0.96,16.35,-9.92,-9.22,20.00
442,336,-1593,299,-195,3932,16.87,12.35,-101.25,2.99,-1.95,39.32,-1.27,0.98,16.75,-12.75,-10.85,20.00
529,250,-1448,324,-57,3871,18.41,12.64,-99.95,3.24,-0.57,38.71,-1.21,1.00,17.15,-14.98,-9.19,15.29
432,192,-1411,267,-37,3928,19.20,12.55,-98.57,2.67,-0.37,39.28,-1.13,1.03,17.55,-13.27,-8.00,13.59
272,165,-1363,255,53,3858,18.94,12.30,-97.02,2.55,0.53,38.58,-1.06,1.05,17.94,-10.00,-7.40,11.12
237,175,-1355,243,54,3889,18.49,12.14,-95.59,2.43,0.54,38.89,-0.98,1.08,18.32,-9.21,-7.58,11.93
175,278,-1350,213,133,3971,17.71,12.62,-94.26,2.13,1.33,39.71,-0.91,1.11,18.70,-7.79,-9.82,12.88
180,321,-1359,204,124,3989,17.04,13.31,-93.13,2.04,1.24,39.89,-0.84,1.14,19.07,-7.75,-10.91,14.81
115,307,-1450,229,147,4018,16.04,13.86,-92.66,2.29,1.47,40.18,-0.77,1.17,19.44,-6.20,-10.79,20.00
120,293,-1487,198,199,3948,15.16,14.26,-92.46,1.98,1.99,39.48,-0.71,1.21,19.81,-6.11,-10.65,20.00
65,154,-1618,244,269,3943,14.04,13.77,-93.09,2.44,2.69,39.43,-0.65,1.25,20.19,-4.72,-7.71,20.00
26,110,-1650,276,281,3886,12.80,13.06,-93.84,2.76,2.81,38.86,-0.59,1.28,20.56,-3.63,-6.65,20.00
-188,-49,-1722,326,420,3709,10.37,11.46,-94.96,3.26,4.20,37.09,-0.54,1.31,20.94,1.35,-3.00,20.00
-325,-121,-1745,339,441,3623,7.35,9.58,-96.11,3.39,4.41,36.23,-0.51,1.34,21.33,4.94,-1.03,20.00
-590,-200,-1821,228,281,3549,3.02,7.40,-97.61,2.28,2.81,35.49,-0.49,1.35,21.72,11.50,1.16,20.00
-637,-199,-1846,217,221,3560,-1.17,5.44,-99.11,2.17,2.21,35.60,-0.50,1.35,22.11,13.60,1.67,20.00
-581,-120,-1908,188,-8,3476,-4.60,4.17,-100.84,1.88,-0.08,34.76,-0.52,1.35,22.52,13.41,0.41,20.00
-495,-91,-1915,197,-106,3465,-7.16,3.20,-102.43,1.97,-1.06,34.65,-0.57,1.34,22.93,12.39,0.09,20.00
-151,-24,-1892,240,-287,3506,-7.36,2.73,-103.73,2.40,-2.87,35.06,-0.62,1.33,23.34,5.48,-1.14,20.00
-98,-26,-1863,263,-315,3526,-7.22,2.30,-104.72,2.63,-3.15,35.26,-0.67,1.32,23.76,4.40,-0.97,20.00
-140,-50,-1737,337,-415,3543,-7.36,1.76,-104.85,3.37,-4.15,35.43,-0.72,1.31,24.18,5.33,-0.33,20.00
-146,-30,-1696,328,-397,3457,-7.51,1.40,-104.71,3.28,-3.97,34.57,-0.77,1.30,24.60,5.52,-0.63,20.00
-74,112,-1560,341,-243,3322,-7.21,1.95,-103.75,3.41,-2.43,33.22,-0.82,1.28,25.02,4.01,-3.66,20.00
-17,200,-1532,409,-148,3334,-6.59,2.97,-102.72,4.09,-1.48,33.34,-0.86,1.27,25.43,2.71,-5.72,18.73
39,314,-1524,393,2,3318,-5.70,4.59,-101.75,3.93,0.02,33.18,-0.88,1.26,25.84,1.34,-8.47,19.05
70,357,-1524,315,-22,3363,-4.70,6.31,-100.87,3.15,-0.22,33.63,-0.91,1.27,26.24,0.46,-9.81,19.95
225,560,-1540,176,-95,3665,-2.86,9.09,-100.18,1.76,-0.95,36.65,-0.93,1.28,26.64,-3.18,-14.71,20.00
231,589,-1547,140,-133,3773,-1.16,11.78,-99.59,1.40,-1.33,37.73,-0.95,1.30,27.04,-3.75,-16.05,20.00
122,516,-1552,42,-122,3992,-0.30,13.75,-99.10,0.42,-1.22,39.92,-0.97,1.33,27.44,-1.76,-15.12,20.00
121,502,-1539,38,-121,4023,0.47,15.43,-98.58,0.38,-1.21,40.23,-0.99,1.37,27.83,-1.94,-15.32,20.00
339,537,-1463,15,1,4082,2.49,17.17,-97.65,0.15,0.01,40.82,-0.97,1.42,28.23,-6.93,-16.53,18.01
372,524,-1437,35,43,4213,4.51,18.65,-96.65,0.35,0.43,42.13,-0.95,1.47,28.61,-8.16,-16.71,16.83
315,361,-1409,-63,146,4236,5.98,18.98,-95.58,-0.63,1.46,42.36,-0.92,1.54,29.00,-7.43,-13.53,15.56
265,262,-1442,-88,154,4201,7.00,18.68,-94.82,-0.88,1.54,42.01,-0.89,1.60,29.38,-6.71,-11.48,19.13
86,165,-1533,-177,238,4306,6.82,17.82,-94.69,-1.77,2.38,43.06,-0.85,1.67,29.76,-3.05,-9.32,20.00
29,180,-1551,-173,250,4298,6.32,17.14,-94.68,-1.73,2.50,42.98,-0.82,1.74,30.14,-1.77,-9.48,20.00
-196,200,-1623,-233,137,4137,4.49,16.64,-95.11,-2.33,1.37,41.37,-0.80,1.81,30.52,3.29,-9.80,20.00
-260,202,-1651,-233,99,4154,2.45,16.21,-95.67,-2.33,0.99,41.54,-0.79,1.88,30.90,5.14,-9.77,20.00
-467,216,-1739,-239,-3,4299,-0.64,15.91,-96.71,-2.39,-0.03,42.99,-0.79,1.95,31.29,10.19,-10.02,20.00
-496,217,-1758,-230,-42,4370,-3.60,15.64,-97.76,-2.30,-0.42,43.70,-0.82,2.03,31.68,11.61,-10.01,20.00
-390,100,-1810,-146,-186,4498,-5.62,14.69,-99.03,-1.46,-1.86,44.98,-0.87,2.08,32.08,10.04,-7.41,20.00
-289,35,-1819,-134,-247,4471,-6.82,13.43,-100.22,-1.34,-2.47,44.71,-0.93,2.12,32.48,8.35,-5.77,20.00
189,-236,-1840,-41,-321,4216,-4.99,10.65,-101.42,-0.41,-3.21,42.16,-0.98,2.15,32.89,-1.83,0.48,20.00
470,-359,-1819,-9,-266,4038,-1.62,7.39,-102.38,-0.09,-2.66,40.38,-1.02,2.16,33.30,-8.44,3.86,20.00
813,-448,-1749,9,-269,3708,3.50,3.92,-102.81,0.09,-2.69,37.08,-1.04,2.16,33.71,-16.80,6.61,20.00
817,-451,-1737,20,-250,3588,8.13,0.78,-103.12,0.20,-2.50,35.88,-1.03,2.14,34.12,-18.15,7.54,20.00
560,-319,-1722,-19,-125,3417,10.74,-1.25,-103.32,-0.19,-1.25,34.17,-1.01,2.11,34.54,-13.64,5.43,20.00
479,-211,-1729,-58,-134,3433,12.59,-2.41,-103.53,-0.58,-1.34,34.33,-0.99,2.09,34.95,-12.52,3.57,20.00
124,245,-1791,-70,-215,3708,12.08,-0.67,-104.10,-0.70,-2.15,37.08,-0.98,2.07,35.37,-5.17,-6.16,20.00
23,328,-1807,-57,-252,3801,11.02,1.40,-104.71,-0.57,-2.52,38.01,-0.96,2.06,35.79,-2.83,-8.41,20.00
-92,477,-1802,87,-342,3952,9.35,4.17,-105.24,0.87,-3.42,39.52,-0.96,2.06,36.21,-0.05,-12.19,20.00
-30,460,-1778,57,-306,4037,8.23,6.56,-105.56,0.57,-3.06,40.37,-0.95,2.06,36.63,-1.01,-12.50,20.00
119,237,-1663,144,-269,4193,8.14,7.35,-105.15,1.44,-2.69,41.93,-0.95,2.07,37.06,-4.01,-8.19,20.00
129,77,-1598,169,-223,4169,8.11,7.08,-104.38,1.69,-2.23,41.69,-0.94,2.08,37.47,-4.22,-4.87,20.00
42,-172,-1500,202,-77,3839,7.56,5.32,-103.09,2.02,-0.77,38.39,-0.92,2.07,37.89,-2.31,0.68,14.51
-25,-252,-1488,218,-26,3697,6.65,3.25,-101.86,2.18,-0.26,36.97,-0.91,2.06,38.29,-0.70,2.88,14.76
-218,-303,-1539,250,43,3496,4.65,1.08,-101.06,2.50,0.43,34.96,-0.90,2.04,38.70,3.76,4.52,19.89
-260,-287,-1570,231,-2,3484,2.60,-0.78,-100.53,2.31,-0.02,34.84,-0.90,2.01,39.10,5.17,4.72,20.00
-184,-106,-1722,145,-247,3289,1.22,-1.35,-100.98,1.45,-2.47,32.89,-0.92,1.99,39.51,4.02,1.21,20.00
-108,-42,-1756,173,-293,3293,0.44,-1.47,-101.60,1.73,-2.93,32.93,-0.94,1.96,39.91,2.70,-0.04,20.00
125,137,-1799,182,-490,3462,1.16,-0.49,-102.41,1.82,-4.90,34.62,-0.97,1.94,40.32,-2.22,-3.93,20.00
82,130,-1783,189,-496,3627,1.54,0.36,-103.05,1.89,-4.96,36.27,-0.99,1.93,40.74,-1.43,-4.01,20.00
-65,183,-1631,78,-573,3603,0.99,1.44,-102.69,0.78,-5.73,36.03,-1.02,1.92,41.15,1.72,-5.38,20.00
-118,199,-1546,64,-614,3680,0.17,2.51,-101.85,0.64,-6.14,36.80,-1.05,1.91,41.56,3.04,-5.99,19.39
-163,304,-1418,-22,-518,3581,-0.84,4.11,-100.32,-0.22,-5.18,35.81,-1.08,1.92,41.96,4.26,-8.57,10.14
-173,347,-1400,-13,-490,3651,-1.81,5.82,-98.82,-0.13,-4.90,36.51,-1.12,1.93,42.35,4.75,-9.92,10.15
-108,594,-1415,18,-359,3737,-2.29,8.86,-97.57,0.18,-3.59,37.37,-1.16,1.95,42.75,3.59,-15.78,12.71
-99,627,-1430,15,-291,3783,-2.66,11.80,-96.54,0.15,-2.91,37.83,-1.20,1.98,43.13,3.53,-17.27,15.05
-146,632,-1503,-3,-185,4233,-3.29,14.47,-96.05,-0.03,-1.85,42.33,-1.24,2.01,43.52,4.68,-18.13,20.00
-165,599,-1522,32,-244,4150,-3.97,16.68,-95.73,0.32,-2.44,41.50,-1.28,2.06,43.90,5.28,-18.09,20.00
-158,329,-1582,-153,-487,3965,-4.53,17.02,-95.81,-1.53,-4.87,39.65,-1.33,2.12,44.29,5.33,-12.73,20.00
-157,284,-1577,-114,-487,4011,-5.04,17.05,-95.85,-1.14,-4.87,40.11,-1.38,2.17,44.68,5.48,-11.86,20.00
-190,252,-1481,-102,-484,3748,-5.69,16.88,-95.30,-1.02,-4.84,37.48,-1.44,2.23,45.06,6.36,-11.20,20.00
-191,252,-1421,-133,-486,3613,-6.29,16.73,-94.44,-1.33,-4.86,36.13,-1.50,2.29,45.44,6.59,-11.20,16.30
-213,331,-1319,-183,-455,3523,-6.96,17.08,-93.04,-1.83,-4.55,35.23,-1.56,2.35,45.82,7.26,-12.94,9.11
-234,363,-1307,-192,-432,3514,-7.69,17.58,-91.71,-1.92,-4.32,35.14,-1.62,2.41,46.18,7.92,-13.77,9.47
-284,528,-1329,-178,-449,3660,-8.65,19.05,-90.64,-1.78,-4.49,36.60,-1.69,2.48,46.55,9.25,-17.56,12.43
-299,571,-1351,-197,-452,3722,-9.61,20.62,-89.82,-1.97,-4.52,37.22,-1.76,2.55,46.91,9.86,-18.92,15.13
-296,625,-1447,-147,-601,4103,-10.46,22.37,-89.66,-1.47,-6.01,41.03,-1.84,2.63,47.28,10.08,-20.00,20.00
-290,579,-1473,-192,-647,4164,-11.18,23.67,-89.68,-1.92,-6.47,41.64,-1.92,2.71,47.64,10.21,-20.00,20.00
-35,322,-1503,-199,-813,4038,-10.28,23.27,-89.88,-1.99,-8.13,40.38,-2.00,2.79,48.00,4.83,-14.73,20.00
64,216,-1476,-275,-838,3863,-8.86,22.26,-89.90,-2.75,-8.38,38.63,-2.07,2.87,48.37,2.48,-12.36,20.00
327,-144,-1315,-265,-1015,3492,-5.98,19.15,-88.93,-2.65,-10.15,34.92,-2.13,2.94,48.73,-3.62,-4.23,12.86
399,-141,-1232,-166,-897,3384,-2.95,16.38,-87.55,-1.66,-8.97,33.84,-2.18,2.99,49.08,-5.87,-3.57,7.25
506,290,-1031,-31,-450,3538,0.44,16.51,-85.09,-0.31,-4.50,35.38,-2.21,3.03,49.42,-8.95,-12.40,-7.20
450,409,-995,-46,-322,3719,3.14,17.35,-82.65,-0.46,-3.22,37.19,-2.23,3.08,49.76,-8.54,-15.08,-7.69
-35,631,-1009,-50,-62,4287,2.61,19.47,-80.54,-0.50,-0.62,42.87,-2.23,3.13,50.08,1.47,-20.00,-4.30
-222,589,-1057,-55,-48,4311,0.99,21.11,-78.93,-0.55,-0.48,43.11,-2.23,3.18,50.40,5.71,-19.83,1.44
-283,551,-1184,-225,-265,4148,-0.83,22.36,-78.26,-2.25,-2.65,41.48,-2.27,3.26,50.72,7.48,-19.45,12.88
-152,572,-1239,-356,-285,4209,-1.68,23.62,-77.99,-3.56,-2.85,42.09,-2.31,3.35,51.04,5.07,-20.00,17.79
167,442,-1480,-455,-702,4541,-0.49,23.95,-79.22,-4.55,-7.02,45.41,-2.34,3.44,51.36,-1.71,-17.79,20.00
222,413,-1520,-511,-767,4702,0.91,24.07,-80.57,-5.11,-7.67,47.02,-2.38,3.53,51.69,-3.19,-17.29,20.00
335,191,-1469,-433,-1312,4584,2.87,22.83,-81.47,-4.33,-13.12,45.84,-2.41,3.61,52.02,-6.01,-12.49,20.00
422,27,-1329,-401,-1167,4430,5.15,20.71,-81.43,-4.01,-11.67,44.30,-2.42,3.68,52.35,-8.39,-8.63,20.00
586,-193,-1136,-394,-1291,4411,8.21,17.46,-80.22,-3.94,-12.91,44.11,-2.43,3.74,52.67,-12.55,-3.31,6.56
596,-232,-1039,-396,-1233,4335,11.03,14.30,-78.54,-3.96,-12.33,43.35,-2.43,3.79,52.99,-13.52,-1.68,0.10
559,-253,-710,-337,-1160,4007,13.33,11.33,-75.01,-3.37,-11.60,40.07,-2.41,3.82,53.29,-13.41,-0.47,-20.00
519,-235,-652,-370,-1121,4014,15.17,8.76,-71.49,-3.70,-11.21,40.14,-2.39,3.85,53.58,-13.11,-0.15,-20.00
320,-25,-552,-263,-898,4016,15.60,7.73,-67.71,-2.63,-8.98,40.16,-2.36,3.87,53.86,-9.20,-4.15,-20.00
248,27,-545,-227,-899,4036,15.55,7.13,-64.26,-2.27,-8.99,40.36,-2.34,3.88,54.12,-7.74,-5.05,-20.00
44,128,-577,-152,-1029,3949,14.27,7.19,-61.36,-1.52,-10.29,39.49,-2.31,3.90,54.37,-3.26,-7.14,-20.00
4,102,-574,-122,-1047,3894,12.87,7.10,-58.72,-1.22,-10.47,38.94,-2.30,3.92,54.60,-2.07,-6.59,-18.46
-67,-11,-471,-51,-1134,3877,11.17,6.32,-55.72,-0.51,-11.34,38.77,-2.28,3.93,54.83,-0.18,-4.09,-20.00
-107,-35,-376,26,-1111,3862,9.40,5.47,-52.44,0.26,-11.11,38.62,-2.28,3.94,55.04,1.12,-3.38,-20.00
-174,14,-165,70,-1014,3928,7.40,5.01,-48.21,0.70,-10.14,39.28,-2.28,3.94,55.24,3.03,-4.25,-20.00
-189,28,-119,71,-948,3953,5.51,4.68,-44.11,0.71,-9.48,39.53,-2.29,3.95,55.41,3.85,-4.45,-20.00
-168,54,-28,76,-693,4235,3.93,4.54,-39.87,0.76,-6.93,42.35,-2.30,3.95,55.58,3.86,-4.94,-20.00
-149,50,-29,102,-637,4294,2.63,4.39,-36.06,1.02,-6.37,42.94,-2.31,3.95,55.72,3.84,-4.82,-20.00
-47,-41,-78,149,-598,4277,2.08,3.70,-32.93,1.49,-5.98,42.77,-2.32,3.94,55.86,1.92,-2.78,-20.00
-20,-84,-94,130,-601,4289,1.75,2.82,-30.21,1.30,-6.01,42.89,-2.34,3.94,55.98,1.47,-1.66,-20.00
14,-164,-122,105,-697,4304,1.66,1.54,-27.93,1.05,-6.97,43.04,-2.35,3.93,56.09,0.82,0.32,-20.00
10,-177,-119,93,-711,4259,1.55,0.31,-25.87,0.93,-7.11,42.59,-2.37,3.91,56.20,0.94,0.93,-20.00
0,-254,-85,82,-796,4099,1.40,-1.27,-23.80,0.82,-7.96,40.99,-2.39,3.90,56.29,1.19,2.94,-20.00
6,-308,-61,38,-803,4007,1.30,-3.03,-21.79,0.38,-8.03,40.07,-2.40,3.87,56.38,1.11,4.53,-20.00
-2,-349,-4,-10,-874,3898,1.15,-4.85,-19.64,-0.10,-8.74,38.98,-2.42,3.84,56.46,1.32,5.88,-20.00
-4,-342,17,-14,-854,3810,1.01,-6.45,-17.57,-0.14,-8.54,38.10,-2.44,3.81,56.53,1.41,6.20,-20.00
11,-277,96,-14,-889,3698,0.98,-7.50,-15.23,-0.14,-8.89,36.98,-2.46,3.77,56.59,1.13,5.19,-20.00
16,-249,118,1,-842,3679,0.98,-8.27,-12.98,0.01,-8.42,36.79,-2.47,3.73,56.64,1.04,4.86,-20.00
-6,-163,199,66,-664,3674,0.85,-8.43,-10.47,0.66,-6.64,36.74,-2.49,3.68,56.68,1.53,3.18,-20.00
-13,-140,217,42,-600,3686,0.68,-8.44,-8.10,0.42,-6.00,36.86,-2.50,3.64,56.72,1.73,2.75,-20.00
-75,-80,233,44,-457,3796,0.16,-8.09,-5.87,0.44,-4.57,37.96,-2.52,3.59,56.74,3.14,1.46,-20.00
-99,-75,225,31,-434,3800,-0.46,-7.74,-3.91,0.31,-4.34,38.00,-2.53,3.55,56.75,3.81,1.29,-20.00
-125,-84,189,97,-393,3882,-1.18,-7.48,-2.37,0.97,-3.93,38.82,-2.55,3.50,56.76,4.55,1.44,-20.00
-110,-88,183,104,-375,3946,-1.73,-7.26,-1.01,1.04,-3.75,39.46,-2.56,3.46,56.77,4.40,1.49,-20.00
-30,-103,199,116,-362,3933,-1.74,-7.17,0.30,1.16,-3.62,39.33,-2.58,3.41,56.76,2.79,1.80,-20.00
2,-122,209,133,-376,3887,-1.56,-7.19,1.55,1.33,-3.76,38.87,-2.59,3.37,56.76,2.10,2.22,-20.00
57,-146,236,130,-349,3873,-1.05,-7.37,2.83,1.30,-3.49,38.73,-2.61,3.32,56.74,0.85,2.78,-20.00
61,-135,242,130,-369,3890,-0.58,-7.45,4.02,1.30,-3.69,38.90,-2.62,3.28,56.73,0.64,2.61,-20.00
81,-84,247,104,-352,3843,-0.02,-7.22,5.13,1.04,-3.52,38.43,-2.62,3.23,56.71,0.09,1.54,-20.00
98,-79,257,97,-292,3846,0.58,-6.98,6.18,0.97,-2.92,38.46,-2.63,3.19,56.68,-0.42,1.41,-20.00
188,-53,293,53,-252,4008,1.67,-6.60,7.35,0.53,-2.52,40.08,-2.62,3.15,56.65,-2.55,0.80,-20.00
181,-74,295,34,-208,4045,2.60,-6.40,8.42,0.34,-2.08,40.45,-2.61,3.10,56.62,-2.67,1.20,-20.00
227,-125,270,33,-129,3929,3.73,-6.52,9.22,0.33,-1.29,39.29,-2.59,3.06,56.58,-3.92,2.30,-18.20
217,-170,231,97,-175,3905,4.68,-6.90,9.71,0.97,-1.75,39.05,-2.57,3.02,56.54,-3.99,3.35,-14.38
150,-207,172,85,-185,3796,5.13,-7.48,9.79,0.85,-1.85,37.96,-2.55,2.97,56.50,-2.77,4.29,-9.29
130,-209,176,97,-176,3735,5.41,-8.00,9.88,0.97,-1.76,37.35,-2.52,2.92,56.46,-2.45,4.50,-9.53
77,-177,216,112,-292,3680,5.34,-8.28,10.21,1.12,-2.92,36.80,-2.51,2.87,56.41,-1.36,3.96,-12.56
71,-158,225,90,-310,3669,5.23,-8.42,10.56,0.90,-3.10,36.69,-2.49,2.83,56.37,-1.22,3.64,-12.95
90,-112,272,53,-322,3649,5.26,-8.26,11.17,0.53,-3.22,36.49,-2.48,2.78,56.32,-1.63,2.69,-16.29
100,-103,284,26,-308,3636,5.34,-8.06,11.78,0.26,-3.08,36.36,-2.47,2.73,56.28,-1.86,2.49,-16.65
111,-61,306,-45,-267,3710,5.49,-7.63,12.47,-0.45,-2.67,37.10,-2.46,2.69,56.23,-2.13,1.54,-17.78
111,-46,310,-49,-267,3715,5.62,-7.15,13.11,-0.49,-2.67,37.15,-2.44,2.65,56.17,-2.18,1.13,-17.43
103,-28,287,-58,-361,3708,5.68,-6.60,13.55,-0.58,-3.61,37.08,-2.43,2.62,56.12,-2.04,0.64,-15.01
95,-29,277,-20,-392,3721,5.69,-6.12,13.89,-0.20,-3.92,37.21,-2.42,2.59,56.06,-1.88,0.55,-13.81
49,-12,308,23,-410,3754,5.42,-5.58,14.38,0.23,-4.10,37.54,-2.41,2.56,56.00,-0.88,0.08,-15.91
35,-5,331,35,-408,3750,5.09,-5.05,14.96,0.35,-4.08,37.50,-2.41,2.53,55.94,-0.51,-0.19,-17.24
4,-16,392,76,-518,3759,4.61,-4.64,15.85,0.76,-5.18,37.59,-2.40,2.50,55.88,0.25,-0.06,-20.00
8,-32,399,80,-549,3735,4.20,-4.38,16.70,0.80,-5.49,37.35,-2.39,2.48,55.81,0.27,0.21,-20.00
43,-103,428,69,-740,3663,4.04,-4.57,17.64,0.69,-7.40,36.63,-2.39,2.45,55.74,-0.40,1.72,-20.00
56,-112,443,67,-813,3656,3.98,-4.79,18.58,0.67,-8.13,36.56,-2.39,2.43,55.67,-0.65,1.98,-20.00
125,-75,541,51,-1022,3680,4.34,-4.77,20.02,0.51,-10.22,36.80,-2.39,2.41,55.59,-2.15,1.23,-20.00
153,-48,583,41,-1008,3717,4.84,-4.59,21.58,0.41,-10.08,37.17,-2.38,2.39,55.50,-2.86,0.65,-20.00
196,23,777,32,-985,3924,5.55,-3.99,24.16,0.32,-9.85,39.24,-2.37,2.38,55.41,-3.93,-0.95,-20.00
184,-2,874,-17,-860,3907,6.12,-3.60,27.07,-0.17,-8.60,39.07,-2.36,2.36,55.30,-3.85,-0.54,-20.00
291,-98,1074,-26,-499,3980,7.28,-3.84,30.92,-0.26,-4.99,39.80,-2.35,2.35,55.17,-6.35,1.49,-20.00
294,-102,1072,-28,-554,4067,8.35,-4.08,34.37,-0.28,-5.54,40.67,-2.32,2.33,55.04,-6.72,1.65,-20.00
282,-82,913,-54,-540,4158,9.23,-4.17,36.50,-0.54,-5.40,41.58,-2.30,2.31,54.89,-6.73,1.28,-20.00
288,-86,861,-41,-498,4161,10.07,-4.28,38.10,-0.41,-4.98,41.61,-2.27,2.30,54.74,-7.10,1.40,-20.00
323,-144,733,-33,-546,4261,11.03,-4.73,38.76,-0.33,-5.46,42.61,-2.24,2.28,54.58,-8.10,2.71,-20.00
339,-161,710,-27,-591,4252,12.00,-5.24,39.22,-0.27,-5.91,42.52,-2.20,2.26,54.43,-8.71,3.21,-20.00
392,-228,716,-31,-700,4219,13.19,-6.10,39.66,-0.31,-7.00,42.19,-2.16,2.23,54.27,-10.14,4.83,-20.00
405,-237,737,-25,-725,4229,14.34,-6.94,40.19,-0.25,-7.25,42.29,-2.11,2.21,54.11,-10.75,5.25,-20.00
437,-235,844,5,-692,4254,15.57,-7.68,41.32,0.05,-6.92,42.54,-2.06,2.18,53.94,-11.77,5.44,-20.00
454,-226,902,-3,-618,4283,16.78,-8.29,42.69,-0.03,-6.18,42.83,-2.01,2.14,53.77,-12.48,5.44,-20.00
510,-264,994,18,-407,4377,18.22,-9.07,44.49,0.18,-4.07,43.77,-1.94,2.10,53.59,-14.06,6.45,-20.00
531,-282,1004,19,-387,4407,19.63,-9.88,46.16,0.19,-3.87,44.07,-1.87,2.06,53.41,-14.92,7.07,-20.00
605,-382,1004,-73,-261,4318,21.36,-11.23,47.67,-0.73,-2.61,43.18,-1.79,2.01,53.21,-16.94,9.50,-20.00
623,-416,1011,-84,-204,4296,23.02,-12.64,49.07,-0.84,-2.04,42.96,-1.71,1.95,53.02,-17.82,10.62,-20.00
621,-467,1025,-19,-200,4256,24.51,-14.23,50.42,-0.19,-2.00,42.56,-1.61,1.88,52.81,-18.25,12.13,-20.00
608,-467,1018,-32,-210,4196,25.77,-15.65,51.58,-0.32,-2.10,41.96,-1.51,1.81,52.61,-18.39,12.57,-20.00
566,-498,999,27,-247,3960,26.64,-17.12,52.52,0.27,-2.47,39.60,-1.41,1.74,52.39,-17.84,13.65,-20.00
560,-508,1003,11,-277,3938,27.40,-18.51,53.39,0.11,-2.77,39.38,-1.31,1.66,52.18,-17.99,14.28,-20.00
567,-501,1077,-27,-255,3837,28.11,-19.72,54.62,-0.27,-2.55,38.37,-1.21,1.58,51.96,-18.40,14.52,-20.00
579,-483,1132,-17,-197,3794,28.84,-20.69,56.06,-0.17,-1.97,37.94,-1.10,1.49,51.73,-18.91,14.48,-20.00
584,-432,1223,35,-45,3719,29.51,-21.26,57.91,0.35,-0.45,37.19,-0.98,1.39,51.50,-19.28,13.66,-20.00
581,-425,1243,36,30,3690,30.11,-21.72,59.71,0.36,0.30,36.90,-0.84,1.29,51.26,-19.47,13.71,-20.00
561,-392,1327,81,147,3659,30.52,-21.94,61.83,0.81,1.47,36.59,-0.70,1.19,51.01,-19.27,13.17,-20.00
555,-387,1342,42,138,3637,30.85,-22.11,63.83,0.42,1.38,36.37,-0.55,1.10,50.75,-19.33,13.17,-20.00
525,-381,1360,20,207,3593,30.97,-22.22,65.75,0.20,2.07,35.93,-0.41,1.00,50.49,-18.85,13.14,-20.00
502,-381,1351,16,222,3594,30.93,-22.32,67.41,0.16,2.22,35.94,-0.26,0.91,50.22,-18.47,13.23,-20.00
374,-361,1296,29,233,3500,30.12,-22.29,68.58,0.29,2.33,35.00,-0.12,0.82,49.95,-15.74,12.88,-20.00
328,-359,1284,40,225,3475,29.11,-22.25,69.55,0.40,2.25,34.75,0.02,0.72,49.67,-14.62,12.89,-20.00
158,-340,1281,69,183,3368,27.16,-22.10,70.41,0.69,1.83,33.68,0.15,0.62,49.39,-10.72,12.53,-20.00
83,-326,1318,93,236,3372,24.95,-21.88,71.41,0.93,2.36,33.72,0.26,0.53,49.10,-8.67,12.25,-20.00
-16,-288,1499,91,310,3402,22.36,-21.45,73.41,0.91,3.10,34.02,0.37,0.43,48.81,-6.02,11.42,-20.00
-37,-276,1564,63,309,3420,19.90,-20.99,75.61,0.63,3.09,34.20,0.47,0.34,48.50,-4.99,11.11,-20.00
-53,-265,1732,34,437,3429,17.59,-20.51,78.62,0.34,4.37,34.29,0.56,0.25,48.19,-4.09,10.81,-20.00
-56,-263,1762,22,457,3440,15.49,-20.06,81.50,0.22,4.57,34.40,0.64,0.17,47.87,-3.51,10.71,-20.00
-78,-238,1806,-35,530,3420,13.46,-19.51,84.37,-0.35,5.30,34.20,0.72,0.09,47.53,-2.56,10.10,-20.00
-86,-236,1811,-48,573,3410,11.59,-18.99,86.98,-0.48,5.73,34.10,0.78,0.01,47.18,-1.93,9.97,-20.00
-103,-147,1797,-89,519,3565,9.80,-17.99,89.24,-0.89,5.19,35.65,0.84,-0.07,46.83,-1.13,7.94,-20.00
-100,-101,1782,-91,494,3633,8.21,-16.81,91.19,-0.91,4.94,36.33,0.89,-0.14,46.46,-0.79,6.73,-20.00
-146,-31,1744,-109,422,3882,6.50,-15.32,92.71,-1.09,4.22,38.82,0.93,-0.20,46.09,0.58,4.94,-20.00
-201,-48,1741,-85,393,4026,4.62,-14.08,94.06,-0.85,3.93,40.26,0.97,-0.25,45.72,2.19,4.98,-20.00
-156,-191,1908,-13,840,3731,3.21,-13.84,96.29,-0.13,8.40,37.31,0.99,-0.32,45.33,1.64,7.86,-20.00
-115,-271,1971,-42,963,3718,2.19,-14.10,98.68,-0.42,9.63,37.18,1.02,-0.38,44.94,1.07,9.61,-20.00
-45,-407,2043,71,916,4005,1.69,-15.18,101.28,0.71,9.16,40.05,1.04,-0.45,44.54,-0.23,12.71,-20.00
-42,-438,2061,45,950,3862,1.27,-16.33,103.72,0.45,9.50,38.62,1.06,-0.52,44.12,-0.19,13.70,-20.00
-2,-525,2025,15,1026,3666,1.13,-17.90,105.70,0.15,10.26,36.66,1.08,-0.60,43.70,-0.98,15.95,-20.00
56,-515,1985,-6,1056,3648,1.36,-19.25,107.24,-0.06,10.56,36.48,1.10,-0.68,43.27,-2.23,16.17,-20.00
273,-338,1756,45,750,3811,2.89,-19.39,107.23,0.45,7.50,38.11,1.12,-0.77,42.85,-7.08,12.67,-20.00
232,-340,1757,-18,681,3929,4.01,-19.52,107.22,-0.18,6.81,39.29,1.15,-0.85,42.42,-6.57,12.80,-20.00
-117,-421,1738,-7,725,4102,2.90,-20.14,107.10,-0.07,7.25,41.02,1.18,-0.94,41.99,0.81,14.67,-20.00
-350,-527,1787,-38,904,3993,0.47,-21.34,107.29,-0.38,9.04,39.93,1.19,-1.03,41.57,6.20,17.22,-20.00
-299,-559,1973,-98,963,3777,-1.40,-22.62,108.60,-0.98,9.63,37.77,1.19,-1.13,41.13,5.67,18.28,-20.00
-184,-514,1991,-71,975,3735,-2.38,-23.49,109.88,-0.71,9.75,37.35,1.19,-1.23,40.70,3.60,17.67,-20.00
-203,-573,1915,-13,1000,3929,-3.38,-24.64,110.58,-0.13,10.00,39.29,1.19,-1.33,40.26,4.27,19.25,-20.00
-241,-605,1878,6,1024,3826,-4.51,-25.86,110.98,0.06,10.24,38.26,1.18,-1.45,39.82,5.35,20.00,-20.00
-336,-661,1726,24,998,3706,-6.11,-27.31,110.41,0.24,9.98,37.06,1.16,-1.56,39.38,7.73,20.00,-20.00
-357,-659,1678,34,958,3610,-7.68,-28.60,109.60,0.34,9.58,36.10,1.13,-1.68,38.94,8.60,20.00,-20.00
-353,-495,1519,71,813,3661,-9.06,-28.76,107.91,0.71,8.13,36.61,1.10,-1.81,38.51,8.92,19.10,-17.90
-397,-476,1496,78,842,3605,-10.58,-28.79,106.24,0.78,8.42,36.05,1.06,-1.93,38.09,10.25,18.80,-17.67
-555,-451,1549,49,889,3461,-12.91,-28.66,105.07,0.49,8.89,34.61,1.02,-2.05,37.67,14.13,18.34,-20.00
-462,-301,1569,47,863,3464,-14.43,-27.63,104.13,0.47,8.63,34.64,0.96,-2.17,37.26,12.69,15.08,-20.00
-510,-134,1509,81,760,3699,-16.10,-25.68,102.92,0.81,7.60,36.99,0.90,-2.27,36.85,14.17,11.23,-20.00
-586,-135,1475,88,741,3729,-18.07,-23.94,101.63,0.88,7.41,37.29,0.83,-2.37,36.44,16.29,10.84,-20.00
-741,-99,1407,103,604,3815,-20.78,-22.15,100.05,1.03,6.04,38.15,0.75,-2.47,36.04,20.00,9.68,-16.51
-739,-86,1397,94,544,3805,-23.21,-20.46,98.56,0.94,5.44,38.05,0.66,-2.55,35.65,20.00,9.01,-17.20
-662,-55,1396,106,364,3882,-24.93,-18.75,97.22,1.06,3.64,38.82,0.56,-2.63,35.26,19.89,7.96,-18.50
-645,-57,1405,109,332,3889,-26.37,-17.22,96.07,1.09,3.32,38.89,0.45,-2.69,34.88,20.00,7.63,-20.00
-651,-124,1485,158,328,3881,-27.70,-16.25,95.52,1.58,3.28,38.81,0.34,-2.76,34.50,20.00,8.77,-20.00
-658,-147,1516,150,327,3856,-28.95,-15.53,95.22,1.50,3.27,38.56,0.22,-2.82,34.12,20.00,9.08,-20.00
-578,-144,1625,113,427,3787,-29.58,-14.85,95.61,1.13,4.27,37.87,0.11,-2.88,33.74,19.75,8.88,-20.00
-535,-135,1647,124,394,3755,-29.88,-14.19,96.10,1.24,3.94,37.55,-0.02,-2.93,33.35,19.04,8.55,-20.00
-437,-94,1593,83,339,3697,-29.56,-13.34,96.20,0.83,3.39,36.97,-0.14,-2.98,32.97,17.04,7.52,-20.00
-404,-80,1569,74,336,3687,-29.07,-12.50,96.15,0.74,3.36,36.87,-0.26,-3.02,32.58,16.31,7.03,-20.00
-346,-42,1470,62,265,3741,-28.27,-11.50,95.51,0.62,2.65,37.41,-0.37,-3.06,32.20,14.99,6.01,-20.00
-350,-29,1439,56,237,3773,-27.58,-10.53,94.73,0.56,2.37,37.73,-0.49,-3.09,31.82,14.96,5.50,-20.00
-436,10,1354,57,90,3875,-27.48,-9.42,93.52,0.57,0.90,38.75,-0.61,-3.11,31.45,16.76,4.42,-18.52
-465,15,1340,61,48,3894,-27.57,-8.38,92.34,0.61,0.48,38.94,-0.73,-3.12,31.08,17.45,4.04,-18.55
-528,17,1329,116,-82,3910,-28.03,-7.44,91.21,1.16,-0.82,39.10,-0.86,-3.13,30.71,18.95,3.75,-18.77
-537,7,1344,126,-71,3899,-28.51,-6.65,90.29,1.26,-0.71,38.99,-1.00,-3.13,30.35,19.35,3.74,-20.00
-507,5,1472,111,22,3891,-28.75,-5.96,90.24,1.11,0.22,38.91,-1.12,-3.14,29.99,18.89,3.59,-20.00
-483,32,1525,102,52,3935,-28.82,-5.17,90.52,1.02,0.52,39.35,-1.24,-3.14,29.63,18.50,2.83,-20.00
-506,42,1601,63,204,3893,-29.02,-4.39,91.23,0.63,2.04,38.93,-1.36,-3.14,29.26,19.10,2.42,-20.00
-501,30,1602,36,254,3871,-29.18,-3.77,91.88,0.36,2.54,38.71,-1.48,-3.14,28.90,19.12,2.49,-20.00
-513,-31,1520,23,352,3868,-29.39,-3.58,91.97,0.23,3.52,38.68,-1.61,-3.13,28.53,19.50,3.68,-20.00
-514,-39,1472,21,360,3876,-29.59,-3.46,91.75,0.21,3.60,38.76,-1.73,-3.13,28.16,19.66,3.80,-20.00
-486,-22,1276,23,381,3841,-29.59,-3.25,90.36,0.23,3.81,38.41,-1.85,-3.12,27.80,19.17,3.40,-14.93
-485,-17,1223,20,373,3863,-29.59,-3.03,88.78,0.20,3.73,38.63,-1.97,-3.12,27.45,19.23,3.23,-12.08
-540,-20,1055,45,233,3851,-29.93,-2.85,86.34,0.45,2.33,38.51,-2.09,-3.11,27.10,20.00,3.24,-0.40
-553,-19,1014,50,153,3859,-30.31,-2.68,83.89,0.50,1.53,38.59,-2.21,-3.10,26.76,20.00,3.16,0.51
-503,43,915,92,-72,3887,-30.34,-2.15,81.08,0.92,-0.72,38.87,-2.34,-3.08,26.44,20.00,1.74,5.96
-485,46,906,125,-127,3913,-30.27,-1.65,78.50,1.25,-1.27,39.13,-2.47,-3.06,26.13,19.75,1.53,4.01
-459,-7,974,128,-161,3892,-30.04,-1.53,76.59,1.28,-1.61,38.92,-2.61,-3.03,25.82,19.25,2.56,-3.74
-433,-11,1004,121,-171,3890,-29.68,-1.45,75.06,1.21,-1.71,38.90,-2.74,-3.00,25.52,18.71,2.60,-7.88
-380,-17,1077,109,-159,3889,-29.03,-1.40,74.12,1.09,-1.59,38.89,-2.87,-2.98,25.22,17.54,2.69,-15.03
-382,-18,1085,103,-162,3888,-28.46,-1.37,73.33,1.03,-1.62,38.88,-2.99,-2.95,24.93,17.50,2.69,-16.52
-348,18,1079,78,-102,3836,-27.73,-1.13,72.58,0.78,-1.02,38.36,-3.11,-2.93,24.64,16.69,1.87,-16.78
-334,27,1070,74,-93,3839,-27.00,-0.85,71.85,0.74,-0.93,38.39,-3.22,-2.90,24.35,16.28,1.60,-16.77
-256,89,993,62,-155,3877,-25.86,-0.22,70.72,0.62,-1.55,38.77,-3.33,-2.87,24.07,14.45,0.14,-11.41
-243,105,967,58,-168,3913,-24.76,0.44,69.55,0.58,-1.68,39.13,-3.43,-2.83,23.79,13.96,-0.39,-10.43
-268,108,907,58,-224,3955,-23.91,1.06,68.12,0.58,-2.24,39.55,-3.54,-2.79,23.52,14.31,-0.64,-6.82
-266,109,901,50,-269,3974,-23.15,1.62,66.81,0.50,-2.69,39.74,-3.65,-2.75,23.25,14.13,-0.84,-7.69
-177,133,914,70,-387,4006,-21.91,2.26,65.70,0.70,-3.87,40.06,-3.76,-2.71,22.99,12.06,-1.53,-9.93
-158,124,921,73,-407,4006,-20.68,2.79,64.75,0.73,-4.07,40.06,-3.87,-2.67,22.73,11.41,-1.52,-11.51
-80,69,973,62,-414,3927,-19.10,2.94,64.21,0.62,-4.14,39.27,-3.97,-2.63,22.48,9.46,-0.47,-16.47
-40,64,992,53,-411,3889,-17.44,3.03,63.84,0.53,-4.11,38.89,-4.07,-2.59,22.22,8.25,-0.42,-18.44
59,58,1041,23,-376,3825,-15.33,3.08,63.81,0.23,-3.76,38.25,-4.15,-2.55,21.97,5.72,-0.34,-20.00
53,61,1047,18,-363,3819,-13.48,3.15,63.81,0.18,-3.63,38.19,-4.22,-2.50,21.71,5.39,-0.45,-20.00
-46,97,1059,-15,-324,3782,-12.41,3.42,63.89,-0.15,-3.24,37.82,-4.29,-2.45,21.46,7.15,-1.29,-20.00
-67,129,1064,-30,-306,3778,-11.58,3.87,63.99,-0.30,-3.06,37.78,-4.35,-2.39,21.20,7.39,-2.10,-20.00
-106,248,1076,-48,-311,3882,-11.07,4.99,64.16,-0.48,-3.11,38.82,-4.40,-2.34,20.95,8.08,-4.86,-20.00
-104,294,1062,-54,-336,3986,-10.59,6.29,64.22,-0.54,-3.36,39.86,-4.46,-2.27,20.70,7.95,-6.19,-20.00
-116,270,1025,-64,-390,4182,-10.24,7.31,64.05,-0.64,-3.90,41.82,-4.52,-2.21,20.44,8.13,-6.03,-20.00
-118,247,1019,-63,-415,4221,-9.94,8.08,63.86,-0.63,-4.15,42.21,-4.57,-2.14,20.19,8.13,-5.82,-20.00
-51,157,1026,-37,-507,4240,-9.26,8.23,63.73,-0.37,-5.07,42.40,-4.63,-2.07,19.94,6.62,-4.07,-20.00
-43,119,1039,-30,-540,4236,-8.59,8.13,63.70,-0.30,-5.40,42.36,-4.69,-2.00,19.69,6.31,-3.31,-20.00
-71,-5,1134,-31,-525,4195,-8.17,7.29,64.25,-0.31,-5.25,41.95,-4.74,-1.94,19.43,6.80,-0.61,-20.00
-92,-31,1175,-30,-508,4183,-7.91,6.37,64.99,-0.30,-5.08,41.83,-4.79,-1.88,19.17,7.19,0.13,-20.00
-190,-72,1322,-23,-436,4162,-8.28,5.30,66.55,-0.23,-4.36,41.62,-4.84,-1.82,18.91,9.32,1.22,-20.00
-214,-75,1354,-31,-416,4138,-8.76,4.31,68.16,-0.31,-4.16,41.38,-4.89,-1.76,18.64,9.97,1.51,-20.00
-212,-59,1410,-63,-305,4166,-9.17,3.52,69.94,-0.63,-3.05,41.66,-4.93,-1.71,18.36,10.07,1.37,-20.00
-176,-50,1406,-77,-244,4189,-9.33,2.86,71.53,-0.77,-2.44,41.89,-4.97,-1.66,18.08,9.40,1.33,-20.00
-129,-120,1343,-100,-235,4148,-9.18,1.84,72.57,-1.00,-2.35,41.48,-5.01,-1.61,17.79,8.43,3.00,-20.00
-98,-136,1318,-110,-230,4133,-8.86,0.83,73.35,-1.10,-2.30,41.33,-5.04,-1.56,17.50,7.74,3.57,-20.00
11,-160,1242,-156,-260,4110,-7.91,-0.23,73.59,-1.56,-2.60,41.10,-5.07,-1.52,17.20,5.28,4.32,-20.00
12,-173,1226,-166,-283,4097,-7.05,-1.26,73.71,-1.66,-2.83,40.97,-5.10,-1.48,16.91,5.05,4.84,-20.00
-19,-192,1216,-259,-251,4043,-6.46,-2.31,73.76,-2.59,-2.51,40.43,-5.13,-1.45,16.62,5.53,5.49,-20.00
-21,-180,1224,-284,-229,4027,-5.94,-3.17,73.85,-2.84,-2.29,40.27,-5.16,-1.42,16.32,5.45,5.46,-20.00
-28,-122,1225,-312,-258,4032,-5.52,-3.60,73.93,-3.12,-2.58,40.32,-5.18,-1.39,16.02,5.49,4.38,-20.00
-31,-110,1207,-304,-287,4024,-5.15,-3.91,73.90,-3.04,-2.87,40.24,-5.21,-1.36,15.73,5.47,4.20,-20.00
-4,-82,1122,-309,-344,4000,-4.66,-4.02,73.36,-3.09,-3.44,40.00,-5.23,-1.33,15.43,4.81,3.64,-18.77
-11,-100,1105,-318,-367,3972,-4.26,-4.23,72.76,-3.18,-3.67,39.72,-5.26,-1.30,15.14,4.85,4.04,-17.93
-51,-138,1146,-359,-312,3876,-4.15,-4.65,72.48,-3.59,-3.12,38.76,-5.28,-1.27,14.85,5.65,4.91,-20.00
-64,-143,1171,-377,-284,3834,-4.12,-5.06,72.37,-3.77,-2.84,38.34,-5.30,-1.25,14.56,5.92,5.11,-20.00
-28,-77,1249,-401,-213,3684,-3.88,-5.02,72.75,-4.01,-2.13,36.84,-5.31,-1.22,14.27,5.13,3.74,-20.00
-43,-64,1263,-388,-191,3691,-3.76,-4.91,73.18,-3.88,-1.91,36.91,-5.33,-1.20,13.98,5.42,3.43,-20.00
-162,-11,1279,-433,-56,3634,-4.37,-4.48,73.67,-4.33,-0.56,36.34,-5.34,-1.17,13.68,8.01,2.22,-20.00
-203,13,1280,-452,-6,3625,-5.17,-3.96,74.11,-4.52,-0.06,36.25,-5.36,-1.15,13.39,9.08,1.57,-20.00
-337,91,1258,-434,30,3621,-6.71,-3.01,74.37,-4.34,0.30,36.21,-5.38,-1.12,13.09,12.23,-0.29,-20.00
-369,113,1235,-427,-1,3636,-8.29,-2.02,74.47,-4.27,-0.01,36.36,-5.41,-1.08,12.79,13.33,-1.03,-20.00
-441,154,1109,-358,-181,3581,-10.15,-0.87,73.79,-3.58,-1.81,35.81,-5.45,-1.04,12.50,15.33,-2.21,-16.95
-443,151,1054,-301,-294,3553,-11.84,0.13,72.84,-3.01,-2.94,35.53,-5.50,-0.99,12.21,15.87,-2.45,-13.27
-420,146,1026,-212,-507,3501,-13.22,1.01,71.81,-2.12,-5.07,35.01,-5.57,-0.95,11.92,15.82,-2.62,-11.96
-425,139,1041,-181,-564,3467,-14.49,1.76,70.98,-1.81,-5.64,34.67,-5.64,-0.90,11.64,16.32,-2.71,-14.08
-409,150,1138,0,-890,3348,-15.53,2.50,70.82,0.00,-8.90,33.48,-5.73,-0.86,11.36,16.33,-3.16,-20.00
-395,176,1194,63,-1000,3367,-16.39,3.32,71.02,0.63,-10.00,33.67,-5.82,-0.82,11.08,16.34,-3.95,-20.00
-502,310,1339,59,-659,3543,-17.81,4.88,72.09,0.59,-6.59,35.43,-5.91,-0.77,10.79,18.96,-7.13,-20.00
-546,348,1312,124,-790,3589,-19.36,6.51,72.88,1.24,-7.90,35.89,-6.01,-0.71,10.50,20.00,-8.38,-20.00
-525,436,1359,124,-755,3382,-20.63,8.52,73.89,1.24,-7.55,33.82,-6.11,-0.65,10.21,20.00,-10.76,-20.00
-514,431,1399,83,-737,3396,-21.70,10.30,75.03,0.83,-7.37,33.96,-6.22,-0.58,9.92,20.00,-11.19,-20.00
-566,479,1566,26,-705,3734,-22.98,12.19,77.08,0.26,-7.05,37.34,-6.33,-0.50,9.62,20.00,-12.73,-20.00
-618,553,1663,-46,-615,3773,-24.45,14.35,79.52,-0.46,-6.15,37.73,-6.45,-0.40,9.31,20.00,-14.89,-20.00
-756,593,1912,-190,-418,3839,-26.62,16.53,83.23,-1.90,-4.18,38.39,-6.56,-0.28,8.99,20.00,-16.38,-20.00
-786,590,1967,-230,-368,3892,-28.75,18.47,86.90,-2.30,-3.68,38.92,-6.67,-0.15,8.65,20.00,-16.94,-20.00
-841,619,2032,-350,-228,4183,-31.01,20.40,90.61,-3.50,-2.28,41.83,-6.78,-0.01,8.30,20.00,-18.14,-20.00
-817,636,2008,-366,-235,4233,-32.89,22.24,93.80,-3.66,-2.35,42.33,-6.90,0.14,7.94,20.00,-19.09,-20.00
-484,613,1675,-319,-412,4307,-32.55,23.76,94.63,-3.19,-4.12,43.07,-7.03,0.30,7.57,20.00,-19.14,-20.00
-345,579,1617,-303,-586,4312,-31.40,24.91,95.04,-3.03,-5.86,43.12,-7.15,0.46,7.21,20.00,-18.87,-20.00
-24,277,1279,-297,-759,4338,-28.41,24.11,93.33,-2.97,-7.59,43.38,-7.27,0.62,6.85,13.04,-12.61,-10.15
36,214,1190,-378,-742,4291,-25.35,23.01,91.26,-3.78,-7.42,42.91,-7.38,0.77,6.50,11.05,-11.13,-4.77
188,101,1038,-379,-929,4211,-21.67,21.32,88.46,-3.79,-9.29,42.11,-7.48,0.91,6.16,7.02,-8.47,5.18
196,80,1017,-381,-953,4140,-18.30,19.68,85.82,-3.81,-9.53,41.40,-7.56,1.05,5.83,5.99,-7.68,4.19
181,99,1055,-365,-1035,4120,-15.37,18.31,83.68,-3.65,-10.35,41.20,-7.63,1.17,5.51,5.55,-7.78,-1.27
217,148,1076,-376,-1042,4132,-12.51,17.39,81.87,-3.76,-10.42,41.32,-7.69,1.29,5.19,4.07,-8.60,-4.94
188,196,1198,-440,-824,4358,-10.11,16.84,80.99,-4.40,-8.24,43.58,-7.73,1.42,4.88,4.04,-9.51,-16.17
163,192,1242,-465,-761,4416,-8.11,16.33,80.47,-4.65,-7.61,44.16,-7.76,1.54,4.57,4.02,-9.38,-20.00
76,67,1352,-469,-615,4432,-6.83,15.10,80.67,-4.69,-6.15,44.32,-7.78,1.67,4.26,5.45,-6.58,-20.00
63,-3,1359,-450,-591,4381,-5.76,13.58,80.89,-4.50,-5.91,43.81,-7.80,1.78,3.95,5.44,-4.82,-20.00
61,-289,1274,-399,-575,4161,-4.82,10.46,80.57,-3.99,-5.75,41.61,-7.81,1.89,3.63,5.22,1.78,-20.00
68,-357,1228,-384,-577,4083,-3.92,7.23,80.01,-3.84,-5.77,40.83,-7.81,1.98,3.32,4.84,3.98,-19.62
160,-433,1075,-352,-553,3857,-2.55,3.87,78.56,-3.52,-5.53,38.57,-7.81,2.05,3.01,2.60,6.39,-8.16
220,-408,1030,-318,-551,3774,-0.95,0.99,76.99,-3.18,-5.51,37.74,-7.81,2.12,2.70,0.94,6.63,-5.98
198,-353,1004,-260,-613,3797,0.35,-1.26,75.42,-2.60,-6.13,37.97,-7.81,2.17,2.41,1.03,6.09,-5.42
178,-321,1005,-238,-654,3809,1.40,-3.09,74.01,-2.38,-6.54,38.09,-7.81,2.21,2.11,1.15,5.91,-6.97
144,-175,1014,-146,-808,3932,2.14,-3.85,72.79,-1.46,-8.08,39.32,-7.80,2.23,1.82,1.64,3.14,-9.00
141,-139,1018,-130,-850,3985,2.78,-4.31,71.72,-1.30,-8.50,39.85,-7.80,2.25,1.53,1.52,2.52,-10.44
173,-66,1024,-64,-974,4255,3.56,-4.28,70.80,-0.64,-9.74,42.55,-7.79,2.27,1.25,0.65,1.01,-11.90
170,-85,1030,-63,-958,4310,4.24,-4.37,70.00,-0.63,-9.58,43.10,-7.78,2.28,0.97,0.52,1.42,-13.23
247,-224,1082,-142,-752,4308,5.32,-5.30,69.60,-1.42,-7.52,43.08,-7.77,2.29,0.69,-1.35,4.49,-18.03
281,-308,1100,-180,-667,4217,6.51,-6.65,69.35,-1.80,-6.67,42.17,-7.75,2.31,0.42,-2.37,6.55,-19.80
199,-604,1155,-209,-339,4339,7.07,-9.67,69.46,-2.09,-3.39,43.39,-7.69,2.31,0.14,-0.90,13.39,-20.00
76,-725,1159,-178,-233,4131,6.83,-13.13,69.58,-1.78,-2.33,41.31,-7.63,2.29,-0.15,1.63,16.81,-20.00
-184,-871,1081,-152,-51,3827,5.02,-17.13,69.22,-1.52,-0.51,38.27,-7.58,2.26,-0.43,7.38,20.00,-18.25
-242,-864,1050,-165,-1,3758,3.04,-20.68,68.70,-1.65,-0.01,37.58,-7.54,2.22,-0.72,9.07,20.00,-16.15
-314,-643,910,-126,-83,3587,0.82,-22.54,67.38,-1.26,-0.83,35.87,-7.51,2.16,-1.00,11.12,17.79,-5.66
-332,-561,858,-96,-145,3571,-1.28,-23.71,65.88,-0.96,-1.45,35.71,-7.49,2.10,-1.27,12.04,16.48,-2.82
-587,-376,596,46,-399,3606,-4.74,-23.63,62.93,0.46,-3.99,36.06,-7.49,2.02,-1.53,18.17,12.75,16.28
-634,-317,530,23,-444,3566,-8.13,-23.20,59.87,0.23,-4.44,35.66,-7.51,1.94,-1.78,20.00,11.49,18.65
-616,-83,317,53,-512,3649,-11.07,-21.39,55.81,0.53,-5.12,36.49,-7.55,1.87,-2.02,20.00,6.28,20.00
-588,-26,275,50,-544,3707,-13.55,-19.41,51.91,0.50,-5.44,37.07,-7.60,1.80,-2.23,20.00,4.63,20.00
-495,74,186,60,-701,3866,-15.22,-17.01,47.85,0.60,-7.01,38.66,-7.67,1.75,-2.43,19.28,1.98,20.00
-429,82,170,51,-769,3915,-16.31,-14.81,44.11,0.51,-7.69,39.15,-7.74,1.70,-2.61,18.28,1.25,20.00
-233,94,173,62,-901,3948,-16.10,-12.76,40.75,0.62,-9.01,39.48,-7.82,1.67,-2.78,14.29,0.47,20.00
-180,102,175,69,-924,3968,-15.59,-10.86,37.74,0.69,-9.24,39.68,-7.89,1.64,-2.94,13.12,-0.19,20.00
-102,101,191,139,-949,4072,-14.65,-9.16,35.13,1.39,-9.49,40.72,-7.96,1.61,-3.08,11.33,-0.62,20.00
-121,84,195,105,-941,4070,-13.93,-7.73,32.81,1.05,-9.41,40.70,-8.03,1.59,-3.21,11.56,-0.65,18.51
-36,70,249,9,-733,3829,-12.75,-6.53,31.05,0.09,-7.33,38.29,-8.09,1.57,-3.34,9.55,-0.68,12.08
-28,48,260,4,-708,3839,-11.65,-5.58,29.53,0.04,-7.08,38.39,-8.15,1.55,-3.46,9.13,-0.48,9.55
-102,-45,216,49,-698,3699,-11.11,-5.30,27.89,0.49,-6.98,36.99,-8.21,1.54,-3.57,10.52,1.35,11.56
-128,-50,193,60,-708,3652,-10.78,-5.08,26.28,0.60,-7.08,36.52,-8.26,1.52,-3.68,10.99,1.40,11.81
-118,48,133,50,-719,3561,-10.42,-4.27,24.46,0.50,-7.19,35.61,-8.32,1.51,-3.78,10.73,-0.80,14.98
-56,141,126,50,-732,3554,-9.72,-2.99,22.79,0.50,-7.32,35.54,-8.37,1.50,-3.87,9.31,-3.04,13.80
-51,267,136,108,-794,3737,-9.06,-1.06,21.34,1.08,-7.94,37.37,-8.42,1.49,-3.96,9.06,-6.13,11.43
-60,298,139,110,-806,3793,-8.52,0.86,20.05,1.10,-8.06,37.93,-8.46,1.50,-4.03,9.13,-7.28,9.82
-90,344,155,134,-869,3910,-8.22,2.88,18.99,1.34,-8.69,39.10,-8.51,1.51,-4.11,9.68,-8.77,7.35
-78,346,159,138,-886,3937,-7.87,4.70,18.06,1.38,-8.86,39.37,-8.55,1.52,-4.17,9.37,-9.32,6.03
93,350,170,147,-875,3997,-6.52,6.36,17.29,1.47,-8.75,39.97,-8.59,1.55,-4.24,5.55,-9.87,4.29
138,329,171,148,-863,4016,-5.02,7.73,16.61,1.48,-8.63,40.16,-8.62,1.57,-4.30,4.25,-9.84,3.48
233,227,158,150,-854,3968,-3.10,8.35,15.91,1.50,-8.54,39.68,-8.64,1.60,-4.36,1.81,-7.95,3.85
311,243,146,145,-876,3936,-0.89,8.99,15.21,1.45,-8.76,39.36,-8.66,1.64,-4.41,-0.37,-8.47,4.13
390,183,96,199,-954,3908,1.58,9.21,14.27,1.99,-9.54,39.08,-8.66,1.67,-4.46,-2.64,-7.33,7.38
355,144,83,204,-1007,3942,3.58,9.17,13.35,2.04,-10.07,39.42,-8.66,1.70,-4.51,-2.48,-6.55,7.51
238,117,108,194,-1019,4008,4.68,8.96,12.68,1.94,-10.19,40.08,-8.66,1.73,-4.55,-0.40,-5.97,4.68
187,106,129,200,-996,4030,5.35,8.71,12.20,2.00,-9.96,40.30,-8.65,1.76,-4.60,0.45,-5.70,2.40
22,32,203,220,-1007,3985,4.95,8.04,12.21,2.20,-10.07,39.85,-8.64,1.79,-4.64,3.91,-4.02,-3.85
-18,-7,228,209,-979,3970,4.35,7.19,12.38,2.09,-9.79,39.70,-8.63,1.81,-4.68,4.88,-3.02,-5.78
-118,-120,337,219,-953,4006,3.19,5.74,13.20,2.19,-9.53,40.06,-8.63,1.83,-4.73,7.23,-0.33,-14.15
-134,-138,363,224,-971,4029,2.05,4.32,14.10,2.24,-9.71,40.29,-8.64,1.84,-4.78,7.86,0.41,-15.40
-163,-155,407,196,-941,4186,0.85,2.95,15.17,1.96,-9.41,41.86,-8.64,1.85,-4.84,8.79,1.13,-17.98
-166,-171,415,180,-907,4196,-0.24,1.61,16.18,1.80,-9.07,41.96,-8.65,1.85,-4.91,9.15,1.81,-17.58
-146,-363,444,147,-786,4011,-1.11,-0.77,17.27,1.47,-7.86,40.11,-8.67,1.85,-4.97,8.99,6.37,-18.88
-126,-511,443,120,-682,3796,-1.77,-3.81,18.25,1.20,-6.82,37.96,-8.68,1.83,-5.05,8.77,10.22,-17.75
-26,-692,395,74,-542,3380,-1.75,-7.65,18.83,0.74,-5.42,33.80,-8.68,1.79,-5.13,6.74,14.98,-13.06
68,-639,361,88,-546,3280,-1.16,-10.78,19.15,0.88,-5.46,32.80,-8.69,1.74,-5.21,4.67,14.78,-9.84
367,-229,170,205,-617,3539,1.20,-11.10,18.27,2.05,-6.17,35.39,-8.69,1.69,-5.29,-2.05,6.57,5.42
203,-237,108,260,-648,3755,2.31,-11.43,17.11,2.60,-6.48,37.55,-8.68,1.64,-5.36,0.97,6.86,9.44
-32,108,-52,322,-892,3873,1.89,-9.63,15.08,3.22,-8.92,38.73,-8.68,1.59,-5.43,5.87,-0.62,20.00
-66,146,-78,339,-981,3968,1.30,-7.78,13.09,3.39,-9.81,39.68,-8.69,1.55,-5.48,6.72,-1.87,20.00
-169,71,53,448,-1216,4020,0.14,-6.57,12.11,4.48,-12.16,40.20,-8.70,1.52,-5.54,9.14,-0.66,8.83
-167,33,137,333,-1033,4206,-0.90,-5.71,11.73,3.33,-10.33,42.06,-8.71,1.49,-5.58,9.39,-0.10,1.32
310,44,93,245,-768,3969,1.08,-4.87,11.13,2.45,-7.68,39.69,-8.71,1.46,-5.63,-0.85,-0.53,4.41
424,-58,166,314,-695,4088,3.56,-4.74,11.03,3.14,-6.95,40.88,-8.70,1.43,-5.68,-3.85,1.52,-1.88
414,-315,306,315,-668,3925,5.73,-6.18,11.79,3.15,-6.68,39.25,-8.68,1.40,-5.73,-4.25,7.17,-12.92
409,-340,324,304,-661,3888,7.65,-7.64,12.59,3.04,-6.61,38.88,-8.65,1.36,-5.78,-4.69,8.10,-13.60
287,-381,332,305,-518,3728,8.64,-9.20,13.35,3.05,-5.18,37.28,-8.61,1.31,-5.84,-2.51,9.39,-13.46
267,-337,325,311,-498,3756,9.40,-10.34,14.00,3.11,-4.98,37.56,-8.57,1.26,-5.90,-2.34,8.84,-12.18
166,-184,280,345,-458,3764,9.48,-10.42,14.31,3.45,-4.58,37.64,-8.53,1.21,-5.97,-0.33,5.78,-8.03
175,-127,264,336,-475,3744,9.60,-10.16,14.49,3.36,-4.75,37.44,-8.48,1.16,-6.03,-0.58,4.59,-6.48
335,14,181,420,-608,3831,10.68,-9.06,14.14,4.20,-6.08,38.31,-8.44,1.12,-6.09,-4.15,1.45,0.19
402,38,159,426,-614,3841,12.06,-7.92,13.70,4.26,-6.14,38.41,-8.39,1.07,-6.15,-5.92,0.68,1.59
656,49,118,393,-588,3901,14.86,-6.83,13.05,3.93,-5.88,39.01,-8.33,1.04,-6.20,-11.89,0.18,4.38
829,68,120,381,-605,3915,18.43,-5.73,12.48,3.81,-6.05,39.15,-8.26,1.00,-6.26,-16.43,-0.48,3.61
1111,34,120,349,-628,3884,23.36,-4.95,11.96,3.49,-6.28,38.84,-8.17,0.97,-6.31,-20.00,0.02,3.07
1233,59,116,354,-630,3882,28.55,-4.09,11.47,3.54,-6.30,38.82,-8.06,0.94,-6.36,-20.00,-0.71,2.89
1711,200,116,364,-491,4140,36.13,-2.47,11.03,3.64,-4.91,41.40,-7.91,0.92,-6.40,-20.00,-4.00,2.43
1707,138,126,343,-425,4245,42.93,-1.38,10.70,3.43,-4.25,42.45,-7.73,0.91,-6.44,-20.00,-3.03,1.23
1844,3,175,334,-336,4201,49.89,-1.22,10.70,3.34,-3.36,42.01,-7.52,0.89,-6.49,-20.00,-0.32,-2.92
1903,-56,186,318,-312,4150,56.51,-1.44,10.76,3.18,-3.12,41.50,-7.28,0.87,-6.53,-20.00,0.95,-3.78
2384,-145,207,287,-191,3912,65.40,-2.18,10.95,2.87,-1.91,39.12,-7.01,0.86,-6.57,-20.00,2.98,-5.35
2576,-144,207,296,-135,3907,74.57,-2.84,11.12,2.96,-1.35,39.07,-6.70,0.84,-6.62,-20.00,3.15,-5.17
3098,-167,212,289,185,4121,86.01,-3.58,11.30,2.89,1.85,41.21,-6.33,0.82,-6.67,-20.00,3.83,-5.40
3220,-182,224,322,320,4076,97.05,-4.33,11.53,3.22,3.20,40.76,-5.93,0.80,-6.72,-20.00,4.35,-6.16
3511,-180,229,306,501,3903,108.76,-4.99,11.78,3.06,5.01,39.03,-5.48,0.78,-6.76,-20.00,4.51,-6.32
3604,-185,223,284,519,3840,119.87,-5.62,11.96,2.84,5.19,38.40,-4.98,0.75,-6.81,-20.00,4.80,-5.62
3898,-224,184,304,653,3764,131.66,-6.43,11.89,3.04,6.53,37.64,-4.44,0.73,-6.86,-20.00,5.83,-2.38
3981,-239,152,278,758,3727,142.78,-7.24,11.62,2.78,7.58,37.27,-3.85,0.70,-6.91,-20.00,6.38,0.05
4298,-235,124,417,548,3597,154.72,-7.95,11.22,4.17,5.48,35.97,-3.21,0.66,-6.96,-20.00,6.51,2.00
4408,-202,157,418,654,3571,166.14,-8.39,11.05,4.18,6.54,35.71,-2.53,0.62,-7.01,-20.00,5.99,-0.97
4603,-183,222,433,1036,3662,177.60,-8.67,11.30,4.33,10.36,36.62,-1.80,0.58,-7.05,-20.00,5.70,-6.20
4638,-185,250,435,1104,3621,188.13,-8.93,11.70,4.35,11.04,36.21,-1.03,0.54,-7.10,-20.00,5.84,-8.15
4707,-286,357,443,1305,3556,198.03,-9.78,12.71,4.43,13.05,35.56,-0.22,0.49,-7.15,-20.00,8.16,-16.15
4734,-338,410,430,1368,3501,207.11,-10.86,13.94,4.30,13.68,35.01,0.62,0.44,-7.21,-20.00,9.54,-19.33
4916,-474,501,356,1646,3240,216.38,-12.67,15.60,3.56,16.46,32.40,1.51,0.39,-7.27,-20.00,12.84,-20.00
5035,-481,525,327,1765,3170,225.46,-14.34,17.24,3.27,17.65,31.70,2.43,0.32,-7.34,-20.00,13.48,-20.00
5549,-539,447,320,2129,2906,236.76,-16.19,18.24,3.20,21.29,29.06,3.39,0.25,-7.41,-20.00,15.21,-17.89
5688,-555,496,244,2132,2821,247.78,-17.96,19.45,2.44,21.32,28.21,4.40,0.17,-7.48,-20.00,16.07,-20.00
5650,-840,480,302,2593,2616,257.47,-21.28,20.43,3.02,25.93,26.16,5.45,0.08,-7.55,-20.00,20.00,-18.36
5622,-871,457,231,2665,2409,266.02,-24.47,21.17,2.31,26.65,24.09,6.53,-0.03,-7.63,-20.00,20.00,-15.61
5612,-826,356,235,3104,1910,273.65,-27.06,21.23,2.35,31.04,19.10,7.65,-0.15,-7.70,-20.00,20.00,-6.99
5576,-821,342,237,3159,1843,280.30,-29.36,21.19,2.37,31.59,18.43,8.79,-0.28,-7.76,-20.00,20.00,-5.84
5228,-753,285,278,3172,1566,284.16,-31.02,20.81,2.78,31.72,15.66,9.94,-0.42,-7.83,-20.00,20.00,-1.41
4994,-716,279,340,3244,1447,286.21,-32.29,20.43,3.40,32.44,14.47,11.10,-0.56,-7.88,-20.00,20.00,-1.29
4525,-517,360,387,3371,1027,285.19,-32.21,20.58,3.87,33.71,10.27,12.26,-0.71,-7.94,-20.00,19.76,-7.99
4411,-481,380,314,3502,851,283.58,-31.92,20.84,3.14,35.02,8.51,13.41,-0.85,-7.99,-20.00,19.05,-9.40
3619,-461,480,274,3698,704,277.29,-31.54,21.69,2.74,36.98,7.04,14.54,-0.99,-8.04,-20.00,18.63,-16.98
3346,-483,503,263,3674,549,269.98,-31.34,22.59,2.63,36.74,5.49,15.63,-1.14,-8.10,-20.00,19.12,-17.97
2307,-523,517,288,3749,435,257.05,-31.39,23.48,2.88,37.49,4.35,16.68,-1.29,-8.15,-20.00,20.00,-18.20
2037,-522,520,291,3816,393,243.77,-31.44,24.31,2.91,38.16,3.93,17.67,-1.44,-8.21,-20.00,20.00,-17.58
1198,-466,526,242,3957,352,226.70,-31.14,25.08,2.42,39.57,3.52,18.59,-1.59,-8.26,-20.00,19.01,-17.26
1026,-442,509,213,3962,355,210.29,-30.72,25.68,2.13,39.62,3.55,19.45,-1.74,-8.32,-20.00,18.51,-15.18
729,-279,350,87,3899,190,193.71,-29.35,25.25,0.87,38.99,1.90,20.24,-1.88,-8.37,-20.00,14.92,-2.16
780,-178,255,24,3869,91,179.10,-27.50,24.28,0.24,38.69,0.91,20.97,-2.02,-8.43,-20.00,12.45,4.86
697,-250,138,61,3766,231,165.44,-26.27,22.69,0.61,37.66,2.31,21.65,-2.15,-8.47,-20.00,13.67,13.10
687,-268,138,132,3725,326,153.08,-25.28,21.26,1.32,37.25,3.26,22.28,-2.28,-8.51,-20.00,13.85,11.59
1018,-115,284,321,3782,551,143.99,-23.46,20.87,3.21,37.82,5.51,22.87,-2.40,-8.55,-20.00,10.32,-1.19
1161,-57,350,316,3814,569,136.67,-21.46,20.92,3.16,38.14,5.69,23.43,-2.51,-8.60,-20.00,8.67,-6.73
1757,116,535,194,3971,458,133.72,-18.60,22.09,1.94,39.71,4.58,23.98,-2.62,-8.65,-20.00,4.44,-20.00
1906,137,547,154,3988,388,131.97,-15.91,23.22,1.54,39.88,3.88,24.52,-2.71,-8.70,-20.00,3.34,-20.00
2228,126,432,56,3988,234,132.37,-13.55,23.53,0.56,39.88,2.34,25.07,-2.80,-8.77,-20.00,2.98,-10.89
2288,92,352,45,3988,165,133.09,-11.63,23.33,0.45,39.88,1.65,25.61,-2.88,-8.83,-20.00,3.20,-4.33
2319,-44,110,15,3788,21,133.93,-10.74,21.66,0.15,37.88,0.21,26.16,-2.96,-8.89,-20.00,5.78,14.42
2319,-109,29,73,3769,-69,134.68,-10.33,19.67,0.73,37.69,-0.69,26.72,-3.03,-8.94,-20.00,7.03,19.18
2494,-157,29,125,3705,-264,136.42,-10.25,17.88,1.25,37.05,-2.64,27.28,-3.10,-8.98,-20.00,8.03,17.29
2569,-166,54,128,3696,-302,138.45,-10.24,16.42,1.28,36.96,-3.02,27.85,-3.17,-9.02,-20.00,8.26,13.63
2675,-407,206,128,3700,-562,140.92,-11.70,16.04,1.28,37.00,-5.62,28.43,-3.24,-9.06,-20.00,13.60,0.35
2650,-534,237,104,3633,-601,143.00,-13.79,15.88,1.04,36.33,-6.01,29.01,-3.32,-9.08,-20.00,16.81,-2.45
2785,-655,282,9,3544,-945,145.69,-16.40,16.01,0.09,35.44,-9.45,29.61,-3.41,-9.11,-20.00,20.00,-6.12
2815,-569,279,35,3429,-1004,148.29,-18.23,16.11,0.35,34.29,-10.04,30.22,-3.50,-9.12,-20.00,18.85,-5.75
2618,-521,356,0,3277,-1249,149.43,-19.59,16.67,0.00,32.77,-12.49,30.83,-3.60,-9.14,-20.00,18.31,-11.68
2527,-448,395,27,3351,-1428,149.90,-20.36,17.42,0.27,33.51,-14.28,31.45,-3.71,-9.16,-20.00,17.11,-14.20
2190,-54,640,1,3488,-1538,148.27,-18.66,19.58,0.01,34.88,-15.38,32.06,-3.81,-9.18,-20.00,8.70,-20.00
2054,115,728,-81,3534,-1611,145.97,-16.09,22.06,-0.81,35.34,-16.11,32.66,-3.91,-9.22,-20.00,4.63,-20.00
2003,338,785,-252,3664,-1709,143.59,-12.42,24.64,-2.52,36.64,-17.09,33.24,-4.01,-9.28,-20.00,-0.84,-20.00
2014,375,761,-249,3701,-1678,141.52,-8.89,26.82,-2.49,37.01,-16.78,33.82,-4.10,-9.35,-20.00,-2.50,-20.00
2080,493,603,-177,3809,-1614,140.06,-4.99,27.82,-1.77,38.09,-16.14,34.39,-4.17,-9.43,-20.00,-5.91,-20.00
2091,511,547,-170,3778,-1595,138.81,-1.38,28.37,-1.70,37.78,-15.95,34.96,-4.24,-9.52,-20.00,-7.22,-15.44
1975,433,332,-235,3652,-1679,136.97,1.40,27.56,-2.35,36.52,-16.79,35.52,-4.30,-9.61,-20.00,-6.35,1.92
1919,381,280,-239,3582,-1735,134.98,3.59,26.51,-2.39,35.82,-17.35,36.07,-4.35,-9.70,-20.00,-5.86,5.22
1904,260,137,-270,3102,-1946,133.10,4.81,24.70,-2.70,31.02,-19.46,36.61,-4.39,-9.79,-20.00,-3.70,15.43
1931,234,138,-247,3030,-1974,131.57,5.76,23.07,-2.47,30.30,-19.74,37.15,-4.43,-9.88,-20.00,-3.41,13.62
2118,246,403,-42,2865,-1842,131.33,6.68,23.22,-0.42,28.65,-18.42,37.68,-4.46,-9.97,-20.00,-3.88,-8.66
2033,143,689,50,3047,-1802,130.60,6.89,25.10,0.50,30.47,-18.02,38.21,-4.50,-10.06,-20.00,-1.82,-20.00
2168,5,1279,-144,3402,-2004,130.76,6.23,30.39,-1.44,34.02,-20.04,38.74,-4.56,-10.17,-20.00,1.21,-20.00
2269,-41,1370,-242,3446,-2099,131.53,5.36,35.71,-2.42,34.46,-20.99,39.28,-4.63,-10.30,-20.00,2.43,-20.00
2551,-208,1256,-407,3578,-2383,133.94,3.55,39.80,-4.07,35.78,-23.83,39.82,-4.72,-10.43,-20.00,6.37,-20.00
2585,-222,1124,-451,3544,-2455,136.31,1.84,42.68,-4.51,35.44,-24.55,40.37,-4.82,-10.56,-20.00,7.19,-20.00
2553,-173,574,-448,3307,-2651,138.25,0.60,41.91,-4.48,33.07,-26.51,40.93,-4.92,-10.69,-20.00,6.60,-3.29
2530,-139,458,-428,3149,-2636,139.86,-0.30,40.51,-4.28,31.49,-26.36,41.49,-5.03,-10.81,-20.00,6.23,5.07
2492,-48,337,-454,2962,-2687,141.08,-0.57,38.52,-4.54,29.62,-26.87,42.07,-5.13,-10.92,-20.00,4.52,13.22
2522,-60,396,-490,2910,-2832,142.35,-0.88,37.08,-4.90,29.10,-28.32,42.64,-5.23,-11.03,-20.00,4.91,6.71
2715,-185,754,-491,3135,-2983,144.68,-1.92,37.97,-4.91,31.35,-29.83,43.23,-5.34,-11.13,-20.00,7.81,-20.00
2773,-195,877,-468,3152,-2983,147.13,-2.92,39.53,-4.68,31.52,-29.83,43.82,-5.46,-11.24,-20.00,8.36,-20.00
2755,-50,686,-650,2883,-3151,149.22,-2.93,39.76,-6.50,28.83,-31.51,44.43,-5.57,-11.34,-20.00,5.49,-15.00
2674,-16,556,-679,2967,-3252,150.61,-2.73,39.17,-6.79,29.67,-32.52,45.04,-5.69,-11.44,-20.00,4.82,-4.60
2283,136,27,-810,2794,-3580,149.47,-1.63,35.42,-8.10,27.94,-35.80,45.64,-5.79,-11.54,-20.00,1.50,20.00
2263,233,-107,-805,2667,-3591,148.33,-0.05,31.23,-8.05,26.67,-35.91,46.24,-5.88,-11.62,-20.00,-0.85,20.00
2164,428,-367,-469,2247,-3196,146.70,2.57,25.86,-4.69,22.47,-31.96,46.84,-5.94,-11.70,-20.00,-5.48,20.00
2136,452,-359,-356,2142,-3060,145.06,5.07,21.09,-3.56,21.42,-30.60,47.43,-5.99,-11.77,-20.00,-6.62,20.00
2277,408,-115,-365,2067,-3250,144.44,7.05,18.28,-3.65,20.67,-32.50,48.02,-6.02,-11.84,-20.00,-6.24,20.00
2368,338,-12,-429,1985,-3326,144.44,8.41,16.38,-4.29,19.85,-33.26,48.61,-6.05,-11.91,-20.00,-5.17,19.43
2640,37,274,-478,1478,-3499,146.10,7.79,16.41,-4.78,14.78,-34.99,49.20,-6.08,-11.97,-20.00,1.13,-4.76
2603,-114,357,-454,1435,-3620,147.37,6.32,16.95,-4.54,14.35,-36.20,49.80,-6.11,-12.03,-20.00,4.63,-11.22
2446,-191,570,-720,1475,-4160,147.55,4.52,18.73,-7.20,14.75,-41.60,50.40,-6.15,-12.10,-20.00,6.71,-20.00
2382,-179,609,-732,1475,-4200,147.33,2.98,20.57,-7.32,14.75,-42.00,51.00,-6.21,-12.16,-20.00,6.92,-20.00
2026,44,687,-562,1409,-4078,144.95,2.95,22.71,-5.62,14.09,-40.78,51.59,-6.27,-12.22,-20.00,2.44,-20.00
1914,109,704,-542,1459,-4080,142.13,3.32,24.73,-5.42,14.59,-40.80,52.17,-6.34,-12.29,-20.00,1.06,-20.00
1627,285,760,-478,1574,-3949,137.85,4.72,26.89,-4.78,15.74,-39.49,52.73,-6.41,-12.37,-20.00,-2.85,-20.00
1580,290,763,-495,1590,-3937,133.70,6.02,28.86,-4.95,15.90,-39.37,53.27,-6.49,-12.46,-20.00,-3.26,-20.00
1572,222,655,-550,1403,-3874,129.92,6.77,29.97,-5.50,14.03,-38.74,53.80,-6.56,-12.55,-20.00,-2.03,-20.00
1580,180,597,-593,1345,-3884,126.56,7.19,30.61,-5.93,13.45,-38.84,54.31,-6.64,-12.64,-20.00,-1.24,-17.03
1568,-17,409,-705,1182,-4157,123.47,6.37,30.05,-7.05,11.82,-41.57,54.82,-6.72,-12.73,-20.00,3.05,-1.69
1592,-38,368,-721,1106,-4272,120.84,5.50,29.29,-7.21,11.06,-42.72,55.31,-6.81,-12.81,-20.00,3.76,0.99
1520,9,372,-714,952,-4353,118.03,5.01,28.63,-7.14,9.52,-43.53,55.79,-6.89,-12.89,-20.00,3.00,-0.04
1461,17,389,-742,947,-4393,115.13,4.61,28.14,-7.42,9.47,-43.93,56.26,-6.97,-12.97,-20.00,3.00,-2.00
1373,148,455,-735,872,-4453,112.00,5.05,28.10,-7.35,8.72,-44.53,56.71,-7.05,-13.05,-20.00,0.26,-7.62
1365,202,472,-680,875,-4406,109.12,5.78,28.17,-6.80,8.75,-44.06,57.16,-7.13,-13.13,-20.00,-0.98,-8.98
1136,282,495,-603,893,-4293,105.14,6.92,28.37,-6.03,8.93,-42.93,57.59,-7.21,-13.21,-20.00,-2.86,-10.71
1101,279,481,-602,910,-4249,101.34,7.93,28.47,-6.02,9.10,-42.49,58.00,-7.28,-13.30,-20.00,-3.03,-9.41
1051,228,398,-624,927,-4260,97.62,8.53,28.05,-6.24,9.27,-42.60,58.40,-7.36,-13.38,-20.00,-2.10,-2.81
1062,216,369,-620,879,-4241,94.34,8.99,27.49,-6.20,8.79,-42.41,58.78,-7.43,-13.47,-20.00,-1.94,-0.94
1078,186,278,-591,716,-4247,91.48,9.23,26.44,-5.91,7.16,-42.47,59.15,-7.50,-13.55,-20.00,-1.35,5.67
1020,172,242,-592,628,-4246,88.55,9.35,25.27,-5.92,6.28,-42.46,59.51,-7.57,-13.64,-20.00,-1.05,7.49
940,215,198,-561,520,-4255,85.43,9.73,23.95,-5.61,5.20,-42.55,59.86,-7.63,-13.72,-20.00,-1.99,9.82
895,219,197,-571,495,-4249,82.35,10.09,22.76,-5.71,4.95,-42.49,60.20,-7.69,-13.79,-20.00,-2.13,8.65
925,273,233,-535,403,-4208,79.76,10.75,21.91,-5.35,4.03,-42.08,60.53,-7.74,-13.87,-20.00,-3.37,4.70
937,265,255,-533,440,-4165,77.50,11.29,21.27,-5.33,4.40,-41.65,60.84,-7.79,-13.95,-20.00,-3.32,2.17
974,170,353,-461,481,-4104,75.69,11.20,21.30,-4.61,4.81,-41.04,61.15,-7.84,-14.03,-20.00,-1.33,-6.09
1033,137,389,-455,467,-4078,74.42,10.91,21.54,-4.55,4.67,-40.78,61.46,-7.90,-14.11,-20.00,-0.55,-8.88
1222,13,439,-486,375,-4159,74.43,9.90,22.06,-4.86,3.75,-41.59,61.76,-7.95,-14.18,-20.00,2.29,-12.55
1261,-43,443,-495,361,-4190,74.68,8.65,22.56,-4.95,3.61,-41.90,62.07,-8.02,-14.26,-20.00,3.81,-12.36
1120,-170,390,-582,251,-4494,74.04,6.75,22.68,-5.82,2.51,-44.94,62.38,-8.08,-14.32,-20.00,6.95,-7.73
1083,-102,330,-682,186,-4560,73.25,5.45,22.43,-6.82,1.86,-45.60,62.68,-8.15,-14.38,-20.00,5.97,-2.92
676,22,189,-759,145,-4622,70.05,5.04,21.34,-7.59,1.45,-46.22,62.97,-8.22,-14.43,-20.00,3.60,7.88
556,56,156,-765,119,-4635,66.43,4.88,20.16,-7.65,1.19,-46.35,63.25,-8.28,-14.49,-20.00,2.99,9.43
308,203,96,-661,159,-4502,61.67,5.63,18.73,-6.61,1.59,-45.02,63.50,-8.33,-14.54,-20.00,-0.16,13.00
344,278,100,-620,137,-4453,57.60,6.76,17.46,-6.20,1.37,-44.53,63.74,-8.38,-14.59,-20.00,-1.97,11.33
365,266,122,-474,135,-4134,54.07,7.71,16.46,-4.74,1.35,-41.34,63.97,-8.42,-14.64,-20.00,-1.95,8.41
400,227,134,-492,137,-4227,51.10,8.32,15.63,-4.92,1.37,-42.27,64.18,-8.47,-14.70,-20.00,-1.30,6.52
681,67,155,-561,111,-4298,50.14,7.90,15.01,-5.61,1.11,-42.98,64.40,-8.50,-14.75,-20.00,2.10,4.09
765,12,152,-564,51,-4335,49.80,7.18,14.44,-5.64,0.51,-43.35,64.61,-8.54,-14.80,-20.00,3.44,3.74
654,-143,91,-572,-152,-4503,48.81,5.59,13.55,-5.72,-1.52,-45.03,64.81,-8.58,-14.84,-20.00,7.05,7.98
560,2,18,-399,-180,-4436,47.34,5.04,12.31,-3.99,-1.80,-44.36,65.01,-8.62,-14.88,-20.00,4.27,12.84
27,227,-143,-406,-319,-4333,42.77,5.92,10.20,-4.06,-3.19,-43.33,65.20,-8.64,-14.92,-20.00,-0.53,20.00
-199,303,-231,-392,-331,-4290,37.28,7.18,7.77,-3.92,-3.31,-42.90,65.36,-8.66,-14.95,-20.00,-2.40,20.00
-954,261,-458,-322,-341,-4097,27.73,8.05,4.20,-3.22,-3.41,-40.97,65.48,-8.66,-14.99,-20.00,-1.79,20.00
-1151,210,-487,-282,-437,-4016,17.94,8.53,0.81,-2.82,-4.37,-40.16,65.57,-8.65,-15.02,-20.00,-0.89,20.00
-1711,-25,-615,-446,-275,-4001,5.71,7.52,-3.02,-4.46,-2.75,-40.01,65.61,-8.63,-15.04,-10.07,4.15,20.00
-1921,-179,-635,-616,-118,-4205,-6.58,5.68,-6.59,-6.16,-1.18,-42.05,65.60,-8.59,-15.04,-2.44,7.76,20.00
-2355,-577,-653,-942,36,-4586,-20.29,1.59,-9.92,-9.42,0.36,-45.86,65.54,-8.55,-15.03,10.16,16.94,20.00
-2481,-640,-665,-903,104,-4589,-33.39,-2.47,-12.98,-9.03,1.04,-45.89,65.43,-8.50,-15.00,16.37,19.30,20.00
-2790,-334,-698,-616,391,-4606,-47.07,-4.26,-15.94,-6.16,3.91,-46.06,65.26,-8.45,-14.95,20.00,13.53,20.00
-3021,-107,-721,-567,444,-4613,-60.79,-4.49,-18.75,-5.67,4.44,-46.13,65.04,-8.39,-14.90,20.00,8.94,20.00
-3481,369,-857,-535,707,-4503,-75.95,-1.79,-22.10,-5.35,7.07,-45.03,64.77,-8.31,-14.85,20.00,-1.53,20.00
-3590,453,-887,-554,758,-4438,-90.25,1.15,-25.30,-5.54,7.58,-44.38,64.43,-8.22,-14.81,20.00,-4.10,20.00
-4079,624,-971,-444,1070,-4216,-106.11,4.85,-28.69,-4.44,10.70,-42.16,64.03,-8.10,-14.77,20.00,-8.66,20.00
-4191,610,-992,-503,1080,-4258,-121.06,8.08,-31.87,-5.03,10.80,-42.58,63.56,-7.97,-14.74,20.00,-9.35,20.00
-4683,383,-1102,-527,1281,-3901,-137.52,9.61,-35.41,-5.27,12.81,-39.01,63.04,-7.83,-14.71,20.00,-5.24,20.00
-4820,292,-1119,-484,1384,-3860,-153.17,10.43,-38.69,-4.84,13.84,-38.60,62.45,-7.67,-14.68,20.00,-3.72,20.00
-5122,65,-1024,-377,1930,-3720,-169.10,9.78,-41.07,-3.77,19.30,-37.20,61.79,-7.50,-14.63,20.00,0.96,20.00
-5111,57,-974,-360,1999,-3729,-183.37,9.15,-42.91,-3.60,19.99,-37.29,61.08,-7.33,-14.58,20.00,1.19,20.00
-5076,18,-847,-246,2103,-3469,-195.99,8.35,-43.78,-2.46,21.03,-34.69,60.32,-7.16,-14.52,20.00,2.09,20.00
-5063,55,-816,-146,2262,-3453,-207.28,7.85,-44.38,-1.46,22.62,-34.53,59.52,-6.99,-14.45,20.00,1.36,20.00
-4795,244,-769,-142,2478,-3203,-215.80,8.55,-44.63,-1.42,24.78,-32.03,58.68,-6.82,-14.39,20.00,-2.79,19.18
-4729,274,-766,-132,2515,-3105,-223.07,9.37,-44.84,-1.32,25.15,-31.05,57.81,-6.65,-14.32,20.00,-3.74,18.70
-4417,346,-717,-71,2793,-2848,-227.70,10.54,-44.73,-0.71,27.93,-28.48,56.93,-6.47,-14.26,20.00,-5.64,14.66
-4336,347,-687,-89,2865,-2766,-231.38,11.60,-44.45,-0.89,28.65,-27.66,56.02,-6.30,-14.20,20.00,-6.06,12.41
-3984,338,-532,-50,3151,-2502,-232.55,12.51,-43.25,-0.50,31.51,-25.02,55.12,-6.13,-14.14,20.00,-6.24,0.55
-3872,337,-486,-36,3181,-2431,-232.91,13.31,-41.89,-0.36,31.81,-24.31,54.21,-5.96,-14.09,20.00,-6.55,-1.91
-3420,324,-370,6,3208,-2221,-230.48,13.96,-39.96,0.06,32.08,-22.21,53.31,-5.80,-14.03,20.00,-6.57,-9.70
-3277,323,-347,35,3218,-2176,-227.42,14.53,-38.08,0.35,32.18,-21.76,52.42,-5.64,-13.99,20.00,-6.81,-9.66
-2744,294,-260,76,3274,-2011,-221.42,14.87,-35.86,0.76,32.74,-20.11,51.55,-5.49,-13.94,20.00,-6.41,-14.69
-2491,273,-218,96,3302,-1960,-214.47,15.05,-33.60,0.96,33.02,-19.60,50.72,-5.35,-13.90,20.00,-6.12,-15.86
-2041,214,-95,86,3585,-1798,-205.48,14.85,-30.82,0.86,35.85,-17.98,49.91,-5.22,-13.87,20.00,-4.96,-20.00
-1954,195,-58,64,3619,-1804,-196.85,14.55,-28.09,0.64,36.19,-18.04,49.14,-5.09,-13.84,20.00,-4.57,-20.00
-1733,53,-29,-59,3639,-1861,-187.73,13.42,-25.46,-0.59,36.39,-18.61,48.41,-4.98,-13.81,20.00,-1.45,-20.00
-1696,13,-55,-73,3656,-1855,-179.31,12.16,-23.25,-0.73,36.56,-18.55,47.71,-4.88,-13.78,20.00,-0.36,-18.72
-1654,-54,-210,-28,3768,-1696,-171.47,10.61,-22.21,-0.28,37.68,-16.96,47.05,-4.78,-13.75,20.00,1.36,-4.48
-1675,-62,-263,-23,3751,-1677,-164.54,9.17,-21.59,-0.23,37.51,-16.77,46.41,-4.69,-13.72,20.00,1.86,0.66
-1761,-47,-449,2,3762,-1544,-158.82,7.97,-22.17,0.02,37.62,-15.44,45.79,-4.61,-13.68,20.00,1.82,15.80
-1787,-39,-488,10,3738,-1506,-153.84,6.94,-22.93,0.10,37.38,-15.06,45.20,-4.52,-13.63,20.00,1.89,18.29
-1892,-13,-547,-56,3855,-1427,-150.00,6.16,-23.97,-0.56,38.55,-14.27,44.62,-4.43,-13.58,20.00,1.51,20.00
-1912,2,-522,-60,3936,-1406,-146.66,5.56,-24.76,-0.60,39.36,-14.06,44.05,-4.35,-13.52,20.00,1.31,19.22
-1951,25,-508,41,3818,-1326,-143.90,5.16,-25.38,0.41,38.18,-13.26,43.50,-4.26,-13.46,20.00,0.90,17.37
-1957,40,-525,83,3786,-1278,-141.45,4.88,-26.05,0.83,37.86,-12.78,42.95,-4.18,-13.40,20.00,0.61,18.10
-1999,109,-594,152,3676,-1209,-139.50,5.06,-27.07,1.52,36.76,-12.09,42.41,-4.09,-13.33,20.00,-0.90,20.00
-2011,123,-610,173,3634,-1204,-137.81,5.30,-28.08,1.73,36.34,-12.04,41.88,-4.00,-13.26,20.00,-1.31,20.00
-2054,183,-625,286,3529,-1092,-136.56,5.89,-29.08,2.86,35.29,-10.92,41.36,-3.90,-13.19,20.00,-2.75,20.00
-2077,208,-611,303,3527,-1050,-135.57,6.57,-29.90,3.03,35.27,-10.50,40.84,-3.81,-13.12,20.00,-3.51,20.00
-2174,338,-485,314,3658,-821,-135.28,7.97,-29.87,3.14,36.58,-8.21,40.32,-3.71,-13.04,20.00,-6.60,10.63
-2205,380,-431,323,3697,-720,-135.20,9.50,-29.51,3.23,36.97,-7.20,39.80,-3.60,-12.98,20.00,-7.94,6.43
-2360,501,-280,372,3657,-464,-136.08,11.60,-28.27,3.72,36.57,-4.64,39.27,-3.50,-12.92,20.00,-11.04,-5.05
-2455,507,-244,393,3645,-378,-137.44,13.53,-26.93,3.93,36.45,-3.78,38.74,-3.39,-12.87,20.00,-11.76,-6.69
-2537,525,-195,372,3635,-215,-139.18,15.38,-25.43,3.72,36.35,-2.15,38.21,-3.28,-12.83,20.00,-12.71,-9.25
-2567,494,-192,391,3582,-208,-140.92,16.86,-24.06,3.91,35.82,-2.08,37.66,-3.17,-12.79,20.00,-12.55,-8.06
-2736,273,-202,457,3491,-29,-143.51,16.84,-22.88,4.57,34.91,-0.29,37.10,-3.06,-12.76,20.00,-8.12,-5.97
-2768,234,-194,447,3499,-32,-146.05,16.58,-21.78,4.47,34.99,-0.32,36.54,-2.96,-12.73,20.00,-7.33,-5.48
-2818,66,-130,353,3540,-4,-148.63,15.33,-20.39,3.53,35.40,-0.04,35.96,-2.86,-12.70,20.00,-3.63,-9.44
-2845,68,-109,301,3506,-79,-151.12,14.21,-19.02,3.01,35.06,-0.79,35.37,-2.77,-12.67,20.00,-3.43,-9.76
-2654,229,-37,399,3534,346,-152.20,14.18,-17.34,3.99,35.34,3.46,34.78,-2.69,-12.64,20.00,-6.75,-14.09
-2757,160,-25,371,3505,463,-153.80,13.74,-15.76,3.71,35.05,4.63,34.19,-2.61,-12.62,20.00,-5.28,-13.44
-2910,222,7,391,3562,717,-156.17,13.72,-14.14,3.91,35.62,7.17,33.58,-2.53,-12.60,20.00,-6.59,-14.43
-2819,318,1,400,3522,723,-157.75,14.29,-12.72,4.00,35.22,7.23,32.96,-2.46,-12.59,20.00,-8.74,-12.42
-2597,422,-71,415,3396,995,-157.82,15.43,-11.88,4.15,33.96,9.95,32.35,-2.38,-12.58,20.00,-11.22,-5.43
-2544,471,-76,407,3447,1093,-157.55,16.76,-11.16,4.07,34.47,10.93,31.74,-2.30,-12.58,20.00,-12.63,-4.24
-2489,646,-20,285,3461,1181,-156.98,19.03,-10.16,2.85,34.61,11.81,31.12,-2.22,-12.59,20.00,-16.86,-7.94
-2486,685,-2,329,3423,1161,-156.45,21.30,-9.16,3.29,34.23,11.61,30.51,-2.13,-12.60,20.00,-18.33,-8.40
-2551,742,17,368,3323,1194,-156.36,23.70,-8.14,3.68,33.23,11.94,29.90,-2.03,-12.62,20.00,-20.00,-8.92
-2601,752,17,432,3321,1286,-156.59,25.92,-7.22,4.32,33.21,12.86,29.29,-1.93,-12.64,20.00,-20.00,-7.95
-2953,735,42,359,3300,1420,-158.95,27.81,-6.24,3.59,33.00,14.20,28.67,-1.82,-12.67,20.00,-20.00,-9.03
-3099,676,54,337,3251,1464,-161.96,29.15,-5.29,3.37,32.51,14.64,28.04,-1.71,-12.71,20.00,-20.00,-9.03
-3117,643,121,245,3219,1597,-164.77,30.16,-4.02,2.45,32.19,15.97,27.40,-1.60,-12.75,20.00,-20.00,-13.36
-3258,581,151,223,3223,2096,-168.17,30.69,-2.70,2.23,32.23,20.96,26.74,-1.49,-12.80,20.00,-19.20,-14.50
-3699,437,217,206,3110,2251,-173.92,30.28,-1.11,2.06,31.10,22.51,26.06,-1.38,-12.85,20.00,-16.23,-18.40
-3801,355,229,199,3059,2292,-179.71,29.42,0.40,1.99,30.59,22.92,25.36,-1.27,-12.90,20.00,-14.40,-17.82
-4076,62,234,216,2858,2558,-186.60,26.86,1.79,2.16,28.58,25.58,24.63,-1.18,-12.95,20.00,-7.81,-16.77
-4115,19,225,226,2825,2635,-193.05,24.29,2.98,2.26,28.25,26.35,23.87,-1.10,-13.00,20.00,-6.28,-14.73
-4068,-37,177,210,2675,2765,-198.56,21.63,3.76,2.10,26.75,27.65,23.09,-1.03,-13.05,20.00,-4.47,-9.84
-4018,-34,164,214,2644,2853,-203.21,19.26,4.39,2.14,26.44,28.53,22.30,-0.96,-13.09,20.00,-3.93,-8.07
-3885,-142,124,230,2441,2936,-206.59,16.47,4.71,2.30,24.41,29.36,21.49,-0.91,-13.13,20.00,-1.00,-4.34
-3898,-227,113,226,2380,3070,-209.71,13.44,4.92,2.26,23.80,30.70,20.66,-0.87,-13.17,20.00,1.53,-3.17
-3781,-359,84,225,2206,3163,-211.80,9.90,4.94,2.25,22.06,31.63,19.83,-0.84,-13.20,20.00,5.16,-0.69
-3603,-346,87,211,2111,3154,-212.60,6.80,4.98,2.11,21.11,31.54,19.00,-0.83,-13.23,20.00,5.73,-0.91
-3194,-278,87,240,1959,3300,-210.82,4.43,5.01,2.40,19.59,33.00,18.17,-0.82,-13.26,20.00,4.99,-0.87
-3046,-252,85,245,1929,3301,-208.32,2.45,5.03,2.45,19.29,33.01,17.36,-0.82,-13.28,20.00,5.00,-0.68
-2568,-213,90,255,1838,3290,-203.15,0.90,5.08,2.55,18.38,32.90,16.56,-0.83,-13.30,20.00,4.63,-1.05
-2450,-206,89,242,1810,3313,-197.78,-0.44,5.11,2.42,18.10,33.13,15.79,-0.84,-13.32,20.00,4.86,-0.93
-2099,-168,59,225,1751,3354,-190.81,-1.42,4.96,2.25,17.51,33.54,15.04,-0.86,-13.34,20.00,4.37,1.45
-2007,-159,45,231,1708,3379,-183.97,-2.25,4.74,2.31,17.08,33.79,14.32,-0.87,-13.35,20.00,4.42,2.41
-1758,-56,-49,224,1526,3622,-176.30,-2.37,3.97,2.24,15.26,36.22,13.63,-0.89,-13.36,20.00,2.37,9.55
-1709,-25,-72,230,1480,3636,-169.09,-2.28,3.13,2.30,14.80,36.36,12.98,-0.91,-13.37,20.00,1.73,10.62
-1560,10,-119,274,1243,3780,-161.70,-1.99,2.09,2.74,12.43,37.80,12.34,-0.93,-13.38,20.00,0.95,13.50
-1612,-51,-111,305,1172,3831,-155.36,-2.11,1.21,3.05,11.72,38.31,11.74,-0.95,-13.38,20.00,2.24,11.88
-1895,-279,-20,331,1006,3821,-151.39,-3.60,0.96,3.31,10.06,38.21,11.14,-0.98,-13.38,20.00,7.30,3.92
-1849,-233,5,314,979,3754,-147.53,-4.66,0.90,3.14,9.79,37.54,10.56,-1.01,-13.38,20.00,6.67,1.73
-1837,-200,120,320,1014,3826,-143.98,-5.41,1.54,3.20,10.14,38.26,10.00,-1.04,-13.39,20.00,6.23,-7.33
-1914,-245,140,317,973,3716,-141.26,-6.37,2.24,3.17,9.73,37.16,9.45,-1.08,-13.39,20.00,7.43,-8.28
-2266,-402,141,332,841,3844,-140.95,-8.18,2.88,3.32,8.41,38.44,8.90,-1.13,-13.40,20.00,11.15,-7.70
-2362,-423,132,331,835,3818,-141.27,-9.94,3.39,3.31,8.35,38.18,8.35,-1.18,-13.40,20.00,12.09,-6.38
-2603,-450,107,320,726,3882,-143.02,-11.69,3.71,3.20,7.26,38.82,7.78,-1.25,-13.41,20.00,13.16,-3.93
-2646,-443,97,323,696,3921,-144.86,-13.23,3.93,3.23,6.96,39.21,7.21,-1.32,-13.42,20.00,13.48,-2.85
-2755,-471,74,361,555,3905,-147.18,-14.78,3.99,3.61,5.55,39.05,6.63,-1.39,-13.43,20.00,14.53,-0.84
-2751,-472,51,389,411,4002,-149.24,-16.18,3.90,3.89,4.11,40.02,6.03,-1.48,-13.44,20.00,14.98,1.02
-2785,-562,15,479,225,3850,-151.30,-17.99,3.60,4.79,2.25,38.50,5.42,-1.57,-13.44,20.00,17.37,3.75
-2739,-569,18,494,161,3826,-152.88,-19.66,3.35,4.94,1.61,38.26,4.80,-1.66,-13.45,20.00,18.03,3.23
-2436,-487,41,520,29,3744,-152.45,-20.67,3.27,5.20,0.29,37.44,4.18,-1.76,-13.46,20.00,16.70,1.19
-2354,-459,44,527,0,3752,-151.57,-21.40,3.21,5.27,0.00,37.52,3.56,-1.86,-13.47,20.00,16.40,0.88
-2297,-496,28,600,-123,3902,-150.42,-22.28,3.06,6.00,-1.23,39.02,2.95,-1.97,-13.47,20.00,17.46,2.08
-2315,-496,15,556,-183,3815,-149.50,-23.08,2.84,5.56,-1.83,38.15,2.34,-2.07,-13.48,20.00,17.75,2.95
-2045,-373,-34,619,-396,3733,-147.03,-23.05,2.35,6.19,-3.96,37.33,1.73,-2.18,-13.49,20.00,15.31,6.58
-1936,-334,-53,636,-449,3734,-144.13,-22.78,1.79,6.36,-4.49,37.34,1.14,-2.28,-13.49,20.00,14.51,7.60
-1597,-258,-108,659,-598,3749,-139.46,-22.08,0.95,6.59,-5.98,37.49,0.57,-2.38,-13.50,20.00,12.84,11.38
-1412,-241,-134,682,-684,3738,-134.13,-21.34,0.04,6.82,-6.84,37.38,0.02,-2.48,-13.50,20.00,12.35,12.61
-1135,-230,-169,699,-787,3734,-127.64,-20.61,-0.99,6.99,-7.87,37.34,-0.51,-2.57,-13.49,20.00,11.99,14.48
-1084,-225,-169,695,-804,3733,-121.49,-19.92,-1.92,6.95,-8.04,37.33,-1.01,-2.66,-13.49,20.00,11.76,13.49
-1057,-234,-94,749,-923,3693,-115.79,-19.36,-2.31,7.49,-9.23,36.93,-1.49,-2.75,-13.48,20.00,11.85,6.74
-1081,-240,-62,738,-932,3675,-110.80,-18.88,-2.45,7.38,-9.32,36.75,-1.94,-2.84,-13.47,20.00,11.90,3.87
-1019,-151,-65,730,-857,3560,-105.94,-17.92,-2.60,7.30,-8.57,35.60,-2.38,-2.92,-13.47,20.00,9.88,3.96
-858,-38,-89,714,-824,3367,-100.58,-16.36,-2.89,7.14,-8.24,33.67,-2.80,-3.00,-13.46,20.00,7.21,5.69
-656,88,-159,696,-925,3679,-94.52,-14.18,-3.57,6.96,-9.25,36.79,-3.19,-3.06,-13.45,20.00,4.10,10.90
-659,117,-167,695,-977,3690,-89.09,-12.05,-4.23,6.95,-9.77,36.90,-3.56,-3.12,-13.44,20.00,2.97,10.88
-740,174,-156,663,-958,3781,-84.69,-9.79,-4.76,6.63,-9.58,37.81,-3.92,-3.17,-13.42,20.00,1.22,9.39
-783,164,-134,644,-976,3843,-81.00,-7.81,-5.10,6.44,-9.76,38.43,-4.25,-3.21,-13.40,20.00,0.92,7.16
-862,130,-96,642,-1024,3884,-78.16,-6.23,-5.18,6.42,-10.24,38.84,-4.58,-3.25,-13.38,20.00,1.20,3.86
-875,112,-84,651,-1026,3888,-75.68,-4.93,-5.17,6.51,-10.26,38.88,-4.90,-3.28,-13.37,20.00,1.23,2.84
-910,53,-54,619,-1093,3943,-73.66,-4.11,-4.98,6.19,-10.93,39.43,-5.21,-3.31,-13.35,20.00,2.23,0.50
-925,39,-48,609,-1089,3942,-71.94,-3.46,-4.78,6.09,-10.89,39.42,-5.51,-3.33,-13.33,20.00,2.35,0.21
-993,-10,-33,609,-1193,3922,-70.80,-3.18,-4.50,6.09,-11.93,39.22,-5.81,-3.35,-13.32,20.00,3.28,-0.77
-1022,-22,-36,604,-1258,3922,-69.96,-2.99,-4.27,6.04,-12.58,39.22,-6.11,-3.37,-13.30,20.00,3.49,-0.27
-1171,-65,-51,605,-1263,3852,-70.10,-3.09,-4.15,6.05,-12.63,38.52,-6.40,-3.39,-13.29,20.00,4.40,1.12
-1233,-81,-50,608,-1258,3847,-70.62,-3.28,-4.04,6.08,-12.58,38.47,-6.70,-3.42,-13.27,20.00,4.80,1.15
-1512,-118,-48,584,-1283,3769,-72.78,-3.67,-3.93,5.84,-12.83,37.69,-7.01,-3.44,-13.26,20.00,5.67,1.10
-1713,-133,-44,583,-1247,3675,-75.95,-4.11,-3.81,5.83,-12.47,36.75,-7.33,-3.47,-13.25,20.00,6.11,0.89
-2087,-114,-87,608,-1666,3589,-81.08,-4.40,-3.96,6.08,-16.66,35.89,-7.67,-3.49,-13.24,20.00,5.82,4.37
-2205,-81,-124,600,-1763,3629,-86.43,-4.45,-4.32,6.00,-17.63,36.29,-8.03,-3.52,-13.22,20.00,5.18,7.12
