gyroADC_X,gyroADC_Y,gyroADC_Z,accADC_X,accADC_Y,accADC_Z,GyroX,GyroY,GyroZ,AccX,AccY,AccZ,roll_IMU,pitch_IMU,yaw_IMU,roll_PID,pitch_PID,yaw_PID
1,-1,0,-60,-374,3955,0.06,-0.03,0.01,-0.60,-3.74,39.55,-5.38,0.86,0.33,-0.02,0.16,0.01
1,0,1,-53,-376,3966,0.06,-0.02,0.02,-0.53,-3.76,39.66,-5.39,0.84,0.33,-0.02,-0.09,-0.07
-1,0,1,-65,-379,3930,0.05,-0.02,0.02,-0.65,-3.79,39.30,-5.40,0.86,0.33,0.44,-0.08,-0.06
1,0,0,-67,-380,3950,0.05,-0.02,0.02,-0.67,-3.80,39.50,-5.41,0.87,0.33,-0.06,-0.07,0.02
-1,0,0,-77,-372,3943,0.04,-0.02,0.02,-0.77,-3.72,39.43,-5.41,0.89,0.33,0.40,-0.06,0.02
-1,2,0,-70,-357,3928,0.03,-0.00,0.02,-0.70,-3.57,39.28,-5.39,0.90,0.33,0.36,-0.52,0.02
-1,1,1,-67,-354,3934,0.02,0.00,0.02,-0.67,-3.54,39.34,-5.38,0.90,0.33,0.33,-0.24,-0.07
-1,1,1,-56,-364,3935,0.01,0.01,0.02,-0.56,-3.64,39.35,-5.36,0.89,0.33,0.30,-0.22,-0.06
0,1,0,-57,-377,3932,0.01,0.01,0.02,-0.57,-3.77,39.32,-5.38,0.88,0.33,0.04,-0.20,0.02
1,0,0,-56,-373,3929,0.02,0.01,0.02,-0.56,-3.73,39.29,-5.39,0.87,0.33,-0.19,0.05,0.02
3,-1,0,-60,-376,3934,0.03,0.01,0.02,-0.60,-3.76,39.34,-5.41,0.87,0.33,-0.64,0.28,0.02
3,0,1,-54,-378,3929,0.05,0.01,0.02,-0.54,-3.78,39.29,-5.42,0.85,0.33,-0.58,0.02,-0.06
4,-1,1,-53,-365,3928,0.07,-0.00,0.03,-0.53,-3.65,39.28,-5.41,0.84,0.33,-0.76,0.25,-0.06
6,-1,0,-54,-366,3939,0.10,-0.01,0.02,-0.54,-3.66,39.39,-5.39,0.83,0.33,-1.16,0.23,0.02
4,-3,1,-56,-357,3947,0.11,-0.03,0.03,-0.56,-3.57,39.47,-5.37,0.83,0.33,-0.60,0.67,-0.06
5,-2,1,-58,-361,3945,0.13,-0.03,0.03,-0.58,-3.61,39.45,-5.35,0.83,0.33,-0.78,0.38,-0.06
0,0,1,-67,-370,3951,0.12,-0.03,0.03,-0.67,-3.70,39.51,-5.35,0.85,0.32,0.44,-0.12,-0.05
0,2,0,-69,-387,3938,0.11,-0.02,0.03,-0.69,-3.87,39.38,-5.37,0.86,0.33,0.40,-0.57,0.03
0,0,0,-66,-388,3940,0.10,-0.01,0.03,-0.66,-3.88,39.40,-5.38,0.87,0.33,0.36,-0.05,0.03
-1,1,1,-58,-381,3950,0.08,-0.01,0.03,-0.58,-3.81,39.50,-5.40,0.86,0.33,0.56,-0.28,-0.06
-2,2,0,-49,-367,3937,0.06,0.01,0.03,-0.49,-3.67,39.37,-5.39,0.85,0.33,0.73,-0.49,0.03
-1,2,0,-51,-365,3946,0.05,0.02,0.02,-0.51,-3.65,39.46,-5.38,0.83,0.32,0.43,-0.44,0.02
-1,1,1,-61,-365,3944,0.04,0.02,0.03,-0.61,-3.65,39.44,-5.36,0.84,0.32,0.39,-0.17,-0.06
-1,1,2,-58,-361,3930,0.03,0.03,0.04,-0.58,-3.61,39.30,-5.35,0.84,0.32,0.36,-0.16,-0.13
0,0,1,-57,-367,3926,0.02,0.02,0.04,-0.57,-3.67,39.26,-5.34,0.82,0.32,0.09,0.09,-0.05
1,0,1,-65,-375,3931,0.03,0.02,0.04,-0.65,-3.75,39.31,-5.35,0.84,0.32,-0.15,0.08,-0.05
0,1,1,-66,-386,3943,0.03,0.02,0.04,-0.66,-3.86,39.43,-5.37,0.85,0.32,0.09,-0.16,-0.04
1,1,0,-57,-375,3942,0.03,0.03,0.04,-0.57,-3.75,39.42,-5.38,0.84,0.32,-0.15,-0.15,0.04
1,0,0,-60,-381,3927,0.03,0.03,0.04,-0.60,-3.81,39.27,-5.40,0.84,0.32,-0.13,0.10,0.03
0,1,0,-62,-382,3938,0.03,0.03,0.03,-0.62,-3.82,39.38,-5.42,0.85,0.32,0.11,-0.14,0.03
0,0,0,-50,-364,3939,0.03,0.03,0.03,-0.50,-3.64,39.39,-5.41,0.84,0.32,0.10,0.10,0.03
0,0,1,-52,-365,3939,0.02,0.02,0.03,-0.52,-3.65,39.39,-5.39,0.83,0.32,0.09,0.09,-0.05
0,1,0,-59,-362,3928,0.02,0.03,0.03,-0.59,-3.62,39.28,-5.37,0.83,0.32,0.08,-0.15,0.03
0,0,1,-60,-359,3930,0.02,0.02,0.03,-0.60,-3.59,39.30,-5.36,0.84,0.32,0.07,0.09,-0.05
0,1,1,-58,-371,3936,0.02,0.03,0.04,-0.58,-3.71,39.36,-5.37,0.84,0.32,0.06,-0.15,-0.05
0,1,1,-60,-378,3930,0.02,0.03,0.04,-0.60,-3.78,39.30,-5.39,0.84,0.32,0.06,-0.14,-0.05
-1,0,1,-59,-378,3935,0.01,0.03,0.04,-0.59,-3.78,39.35,-5.41,0.85,0.32,0.28,0.11,-0.05
0,-1,1,-61,-380,3930,0.01,0.02,0.04,-0.61,-3.80,39.30,-5.43,0.85,0.32,0.03,0.33,-0.05
0,1,0,-60,-379,3945,0.01,0.02,0.04,-0.60,-3.79,39.45,-5.44,0.86,0.32,0.02,-0.17,0.04
-1,2,0,-47,-378,3947,-0.00,0.03,0.03,-0.47,-3.78,39.47,-5.45,0.84,0.32,0.25,-0.38,0.03
1,1,-1,-58,-364,3940,0.01,0.04,0.02,-0.58,-3.64,39.40,-5.43,0.84,0.32,-0.23,-0.12,0.11
1,1,0,-66,-365,3936,0.01,0.04,0.02,-0.66,-3.65,39.36,-5.42,0.85,0.32,-0.21,-0.11,0.02
-1,1,0,-63,-365,3943,0.00,0.04,0.02,-0.63,-3.65,39.43,-5.40,0.86,0.32,0.27,-0.10,0.02
1,0,1,-55,-362,3936,0.01,0.04,0.02,-0.55,-3.62,39.36,-5.38,0.85,0.32,-0.22,0.14,-0.06
1,0,0,-59,-375,3941,0.01,0.03,0.02,-0.59,-3.75,39.41,-5.40,0.85,0.32,-0.20,0.12,0.02
0,-1,0,-62,-373,3938,0.01,0.02,0.02,-0.62,-3.73,39.38,-5.40,0.87,0.32,0.05,0.34,0.02
0,-1,-1,-53,-367,3934,0.01,0.02,0.01,-0.53,-3.67,39.34,-5.39,0.86,0.32,0.05,0.31,0.10
0,0,0,-50,-369,3937,0.01,0.01,0.01,-0.50,-3.69,39.37,-5.39,0.84,0.32,0.04,0.05,0.01
-1,0,0,-55,-364,3937,0.00,0.01,0.01,-0.55,-3.64,39.37,-5.37,0.83,0.32,0.27,0.05,0.01
-1,0,0,-55,-367,3933,-0.00,0.01,0.01,-0.55,-3.67,39.33,-5.36,0.82,0.32,0.24,0.04,0.01
-1,1,0,-57,-373,3932,-0.01,0.02,0.01,-0.57,-3.73,39.32,-5.38,0.82,0.32,0.22,-0.19,0.01
0,0,0,-42,-374,3936,-0.01,0.01,0.01,-0.42,-3.74,39.36,-5.38,0.80,0.32,-0.03,0.05,0.01
-1,1,0,-45,-363,3928,-0.01,0.02,0.01,-0.45,-3.63,39.28,-5.37,0.79,0.32,0.20,-0.18,0.01
-1,1,1,-58,-372,3927,-0.02,0.02,0.01,-0.58,-3.72,39.27,-5.38,0.80,0.32,0.19,-0.17,-0.07
-2,0,0,-65,-375,3932,-0.03,0.02,0.01,-0.65,-3.75,39.32,-5.39,0.82,0.32,0.40,0.08,0.01
-2,1,1,-60,-372,3942,-0.04,0.03,0.02,-0.60,-3.72,39.42,-5.39,0.84,0.32,0.37,-0.16,-0.07
-1,1,1,-54,-371,3934,-0.04,0.03,0.02,-0.54,-3.71,39.34,-5.39,0.82,0.32,0.10,-0.15,-0.07
-2,2,0,-58,-375,3942,-0.05,0.04,0.02,-0.58,-3.75,39.42,-5.41,0.83,0.32,0.33,-0.37,0.02
-3,4,0,-60,-371,3942,-0.06,0.06,0.02,-0.60,-3.71,39.42,-5.40,0.84,0.32,0.53,-0.80,0.02
-2,3,0,-49,-366,3943,-0.07,0.07,0.01,-0.49,-3.66,39.43,-5.39,0.83,0.32,0.25,-0.50,0.01
-3,3,1,-60,-372,3939,-0.08,0.08,0.02,-0.60,-3.72,39.39,-5.39,0.85,0.32,0.46,-0.45,-0.07
-4,3,0,-57,-368,3942,-0.10,0.09,0.02,-0.57,-3.68,39.42,-5.37,0.84,0.32,0.66,-0.41,0.02
-4,4,0,-65,-371,3902,-0.11,0.11,0.02,-0.65,-3.71,39.02,-5.38,0.86,0.32,0.60,-0.61,0.01
-3,4,-1,-60,-378,3942,-0.12,0.12,0.01,-0.60,-3.78,39.42,-5.40,0.86,0.32,0.32,-0.56,0.09
-2,4,0,-63,-374,3945,-0.12,0.13,0.01,-0.63,-3.74,39.45,-5.41,0.88,0.32,0.06,-0.51,0.01
-3,4,0,-61,-369,3917,-0.12,0.14,0.01,-0.61,-3.69,39.17,-5.39,0.89,0.32,0.29,-0.47,0.01
-1,2,0,-62,-380,3922,-0.12,0.14,0.01,-0.62,-3.80,39.22,-5.41,0.89,0.32,-0.19,0.03,0.01
-1,1,1,-73,-386,3938,-0.11,0.13,0.01,-0.73,-3.86,39.38,-5.42,0.90,0.32,-0.17,0.25,-0.07
-1,1,2,-64,-368,3941,-0.11,0.13,0.02,-0.64,-3.68,39.41,-5.41,0.91,0.32,-0.15,0.22,-0.15
0,0,1,-51,-372,3924,-0.10,0.11,0.03,-0.51,-3.72,39.24,-5.41,0.89,0.32,-0.36,0.43,-0.06
0,0,0,-56,-366,3931,-0.09,0.10,0.02,-0.56,-3.66,39.31,-5.39,0.88,0.32,-0.33,0.39,0.02
0,0,0,-62,-366,3937,-0.08,0.09,0.02,-0.62,-3.66,39.37,-5.38,0.88,0.32,-0.30,0.35,0.02
1,0,0,-68,-364,3942,-0.06,0.08,0.02,-0.68,-3.64,39.42,-5.36,0.90,0.32,-0.50,0.31,0.02
1,1,1,-57,-362,3930,-0.05,0.08,0.02,-0.57,-3.62,39.30,-5.35,0.89,0.32,-0.45,0.05,-0.06
1,0,1,-58,-367,3944,-0.04,0.07,0.03,-0.58,-3.67,39.44,-5.34,0.87,0.32,-0.41,0.27,-0.06
1,-1,1,-64,-367,3938,-0.03,0.06,0.03,-0.64,-3.67,39.38,-5.33,0.89,0.32,-0.37,0.48,-0.06
1,0,0,-61,-380,3937,-0.02,0.05,0.03,-0.61,-3.80,39.37,-5.35,0.89,0.32,-0.33,0.20,0.03
0,0,0,-60,-373,3928,-0.02,0.05,0.02,-0.60,-3.73,39.28,-5.37,0.88,0.32,-0.07,0.18,0.02
1,-1,0,-58,-375,3927,-0.01,0.04,0.02,-0.58,-3.75,39.27,-5.39,0.88,0.32,-0.30,0.39,0.02
1,0,1,-56,-365,3939,-0.00,0.03,0.03,-0.56,-3.65,39.39,-5.37,0.87,0.32,-0.27,0.13,-0.06
-1,0,-1,-61,-360,3935,-0.01,0.03,0.02,-0.61,-3.60,39.35,-5.35,0.87,0.32,0.22,0.11,0.10
1,0,0,-59,-368,3935,-0.00,0.03,0.02,-0.59,-3.68,39.35,-5.34,0.85,0.32,-0.26,0.10,0.01
1,0,0,-64,-373,3937,0.00,0.02,0.01,-0.64,-3.73,39.37,-5.35,0.87,0.32,-0.24,0.09,0.01
0,0,1,-63,-365,3935,0.00,0.02,0.02,-0.63,-3.65,39.35,-5.34,0.88,0.32,0.01,0.08,-0.07
0,0,1,-62,-366,3933,0.00,0.02,0.02,-0.62,-3.66,39.33,-5.33,0.89,0.32,0.01,0.07,-0.06
0,0,1,-62,-363,3929,0.00,0.02,0.03,-0.62,-3.63,39.29,-5.31,0.89,0.32,0.01,0.07,-0.06
-1,1,1,-59,-375,3935,-0.00,0.02,0.03,-0.59,-3.75,39.35,-5.33,0.89,0.32,0.24,-0.17,-0.06
0,0,1,-60,-382,3932,-0.00,0.02,0.03,-0.60,-3.82,39.32,-5.34,0.89,0.32,-0.01,0.08,-0.05
0,0,0,-58,-381,3930,-0.00,0.02,0.03,-0.58,-3.81,39.30,-5.36,0.88,0.32,-0.01,0.07,0.03
0,1,0,-65,-381,3937,-0.00,0.02,0.03,-0.65,-3.81,39.37,-5.38,0.89,0.32,-0.01,-0.17,0.03
1,0,0,-65,-377,3935,0.00,0.02,0.02,-0.65,-3.77,39.35,-5.40,0.90,0.32,-0.24,0.08,0.02
1,0,0,-58,-373,3946,0.01,0.02,0.02,-0.58,-3.73,39.46,-5.40,0.88,0.32,-0.22,0.07,0.02
1,0,1,-58,-364,3948,0.01,0.02,0.03,-0.58,-3.64,39.48,-5.38,0.88,0.32,-0.20,0.06,-0.06
1,0,0,-64,-369,3938,0.02,0.01,0.02,-0.64,-3.69,39.38,-5.37,0.89,0.32,-0.18,0.05,0.02
1,0,0,-52,-370,3936,0.02,0.01,0.02,-0.52,-3.70,39.36,-5.37,0.87,0.32,-0.17,0.05,0.02
0,-1,0,-61,-373,3930,0.02,0.01,0.02,-0.61,-3.73,39.30,-5.39,0.88,0.32,0.08,0.28,0.02
0,-1,0,-60,-372,3928,0.02,-0.00,0.02,-0.60,-3.72,39.28,-5.41,0.87,0.32,0.07,0.25,0.02
0,0,0,-63,-364,3927,0.02,-0.00,0.02,-0.63,-3.64,39.27,-5.39,0.88,0.32,0.06,-0.00,0.01
2,0,0,-61,-371,3942,0.03,-0.00,0.01,-0.61,-3.71,39.42,-5.37,0.88,0.32,-0.40,-0.00,0.01
2,0,0,-65,-378,3933,0.04,-0.00,0.01,-0.65,-3.78,39.33,-5.39,0.89,0.32,-0.37,-0.00,0.01
1,0,1,-65,-378,3943,0.04,-0.00,0.02,-0.65,-3.78,39.43,-5.40,0.90,0.32,-0.11,-0.00,-0.07
0,-1,0,-62,-373,3937,0.04,-0.01,0.02,-0.62,-3.73,39.37,-5.42,0.90,0.32,0.13,0.23,0.01
1,0,0,-49,-370,3936,0.04,-0.01,0.01,-0.49,-3.70,39.36,-5.42,0.88,0.32,-0.11,-0.02,0.01
1,0,0,-56,-380,3934,0.04,-0.01,0.01,-0.56,-3.80,39.34,-5.43,0.87,0.32,-0.10,-0.02,0.01
2,0,0,-67,-389,3927,0.05,-0.00,0.01,-0.67,-3.89,39.27,-5.45,0.88,0.32,-0.33,-0.02,0.01
0,0,1,-63,-377,3929,0.04,-0.00,0.02,-0.63,-3.77,39.29,-5.46,0.89,0.32,0.16,-0.02,-0.07
1,0,0,-49,-368,3924,0.05,-0.00,0.01,-0.49,-3.68,39.24,-5.45,0.87,0.32,-0.08,-0.01,0.01
2,0,-1,-58,-383,3935,0.05,-0.00,0.01,-0.58,-3.83,39.35,-5.47,0.87,0.32,-0.31,-0.01,0.09
1,1,1,-62,-379,3928,0.05,0.00,0.01,-0.62,-3.79,39.28,-5.48,0.88,0.32,-0.05,-0.24,-0.07
0,0,0,-59,-366,3928,0.05,0.00,0.01,-0.59,-3.66,39.28,-5.46,0.88,0.32,0.18,0.01,0.01
1,0,1,-64,-360,3939,0.05,0.00,0.02,-0.64,-3.60,39.39,-5.45,0.88,0.32,-0.07,0.01,-0.07
1,0,0,-79,-379,3933,0.05,0.00,0.01,-0.79,-3.79,39.33,-5.45,0.90,0.32,-0.06,0.01,0.01
1,1,0,-73,-380,3938,0.05,0.01,0.01,-0.73,-3.80,39.38,-5.46,0.92,0.32,-0.06,-0.22,0.01
0,1,0,-54,-362,3926,0.05,0.01,0.01,-0.54,-3.62,39.26,-5.44,0.90,0.32,0.18,-0.20,0.01
0,-1,-1,-56,-364,3936,0.04,0.01,0.00,-0.56,-3.64,39.36,-5.42,0.90,0.32,0.16,0.28,0.09
1,0,-1,-74,-388,3946,0.04,0.01,-0.00,-0.74,-3.88,39.46,-5.44,0.91,0.32,-0.09,0.02,0.08
0,0,0,-66,-384,3945,0.04,0.00,-0.00,-0.66,-3.84,39.45,-5.45,0.91,0.32,0.15,0.02,-0.00
0,0,0,-57,-360,3939,0.04,0.00,-0.00,-0.57,-3.60,39.39,-5.44,0.91,0.32,0.13,0.02,-0.00
1,-1,0,-68,-374,3928,0.04,-0.00,-0.00,-0.68,-3.74,39.28,-5.44,0.93,0.32,-0.11,0.25,-0.00
-1,0,0,-71,-380,3921,0.03,-0.00,-0.00,-0.71,-3.80,39.21,-5.45,0.94,0.32,0.36,-0.01,-0.00
-1,1,1,-71,-381,3932,0.02,0.00,0.00,-0.71,-3.81,39.32,-5.46,0.95,0.32,0.33,-0.24,-0.08
1,-1,1,-63,-373,3941,0.02,-0.00,0.01,-0.63,-3.73,39.41,-5.45,0.94,0.32,-0.17,0.25,-0.07
2,-1,0,-52,-368,3926,0.03,-0.01,0.01,-0.52,-3.68,39.26,-5.44,0.93,0.32,-0.38,0.22,0.01
1,0,0,-61,-382,3928,0.04,-0.01,0.01,-0.61,-3.82,39.28,-5.46,0.92,0.32,-0.12,-0.03,0.01
-1,0,0,-58,-384,3930,0.03,-0.01,0.01,-0.58,-3.84,39.30,-5.47,0.91,0.32,0.35,-0.02,0.01
1,-1,0,-53,-368,3937,0.03,-0.01,0.01,-0.53,-3.68,39.37,-5.46,0.90,0.32,-0.14,0.21,0.01
1,-1,1,-60,-363,3936,0.03,-0.02,0.01,-0.60,-3.63,39.36,-5.44,0.89,0.32,-0.13,0.19,-0.07
0,1,0,-57,-371,3930,0.03,-0.01,0.01,-0.57,-3.71,39.30,-5.43,0.88,0.32,0.11,-0.29,0.01
0,1,0,-59,-363,3927,0.03,-0.00,0.01,-0.59,-3.63,39.27,-5.41,0.88,0.32,0.10,-0.26,0.01
1,0,0,-54,-368,3937,0.03,-0.00,0.01,-0.54,-3.68,39.37,-5.40,0.86,0.32,-0.14,-0.01,0.01
0,0,0,-68,-375,3930,0.03,-0.00,0.01,-0.68,-3.75,39.30,-5.41,0.88,0.32,0.10,-0.01,0.01
0,1,1,-62,-365,3925,0.02,0.00,0.01,-0.62,-3.65,39.25,-5.39,0.88,0.32,0.09,-0.24,-0.07
-1,1,1,-58,-366,3935,0.02,0.01,0.02,-0.58,-3.66,39.35,-5.37,0.87,0.32,0.31,-0.22,-0.07
0,1,1,-57,-362,3937,0.01,0.02,0.02,-0.57,-3.62,39.37,-5.36,0.87,0.32,0.05,-0.20,-0.06
0,0,0,-59,-369,3936,0.01,0.01,0.02,-0.59,-3.69,39.36,-5.36,0.85,0.32,0.05,0.05,0.02
0,0,1,-67,-370,3929,0.01,0.01,0.02,-0.67,-3.70,39.29,-5.36,0.87,0.32,0.04,0.05,-0.06
0,1,0,-68,-372,3937,0.01,0.02,0.02,-0.68,-3.72,39.37,-5.36,0.88,0.32,0.04,-0.19,0.02
0,0,1,-57,-372,3937,0.01,0.02,0.03,-0.57,-3.72,39.37,-5.37,0.87,0.32,0.04,0.06,-0.06
0,0,1,-72,-374,3937,0.01,0.01,0.03,-0.72,-3.74,39.37,-5.38,0.89,0.32,0.03,0.05,-0.06
0,0,1,-71,-374,3934,0.01,0.01,0.03,-0.71,-3.74,39.34,-5.39,0.90,0.32,0.03,0.05,-0.05
1,0,1,-53,-370,3920,0.01,0.01,0.04,-0.53,-3.70,39.20,-5.39,0.89,0.32,-0.21,0.04,-0.05
1,-3,0,-44,-370,3924,0.02,-0.01,0.03,-0.44,-3.70,39.24,-5.39,0.87,0.32,-0.19,0.73,0.03
2,-4,-1,-45,-371,3919,0.03,-0.03,0.02,-0.45,-3.71,39.19,-5.39,0.85,0.32,-0.40,0.90,0.11
1,-4,-1,-60,-376,3922,0.03,-0.05,0.01,-0.60,-3.76,39.22,-5.41,0.85,0.32,-0.14,0.82,0.10
-9,-134,-47,-40,-400,3932,-0.03,-0.87,-0.27,-0.40,-4.00,39.32,-5.42,0.84,0.32,2.19,30.80,3.72
1,-63,-46,-77,-390,3809,-0.02,-1.16,-0.53,-0.77,-3.90,38.09,-5.44,0.85,0.32,-0.32,11.63,3.40
0,-12,-12,-58,-350,3909,-0.02,-1.12,-0.55,-0.58,-3.50,39.09,-5.42,0.84,0.32,-0.06,-1.17,0.50
0,-6,-4,-85,-364,3935,-0.01,-1.04,-0.52,-0.85,-3.64,39.35,-5.41,0.85,0.32,-0.05,-2.41,-0.15
1,-1,0,-73,-365,3935,-0.01,-0.95,-0.47,-0.73,-3.65,39.35,-5.40,0.87,0.32,-0.28,-3.31,-0.44
1,-3,-2,-38,-377,3914,-0.00,-0.87,-0.43,-0.38,-3.77,39.14,-5.41,0.84,0.33,-0.25,-2.51,-0.24
0,-4,-2,-11,-402,3864,-0.00,-0.81,-0.40,-0.11,-4.02,38.64,-5.42,0.83,0.33,-0.00,-2.02,-0.21
-3,0,-2,37,-383,3903,-0.02,-0.73,-0.37,0.37,-3.83,39.03,-5.42,0.81,0.33,0.69,-2.74,-0.18
3,-8,-53,37,-384,3959,0.00,-0.70,-0.66,0.37,-3.84,39.59,-5.42,0.78,0.33,-0.76,-0.61,3.87
-2,-11,-48,-5,-383,3926,-0.01,-0.70,-0.89,-0.05,-3.83,39.26,-5.43,0.76,0.33,0.47,0.16,3.24
0,-5,-3,-165,-367,3941,-0.01,-0.66,-0.82,-1.65,-3.67,39.41,-5.43,0.78,0.34,-0.04,-1.22,-0.51
-1,-5,1,-198,-347,3934,-0.01,-0.62,-0.73,-1.98,-3.47,39.34,-5.42,0.79,0.34,0.20,-1.08,-0.77
2,-4,2,-92,-351,3929,-0.00,-0.59,-0.64,-0.92,-3.51,39.29,-5.41,0.81,0.34,-0.51,-1.19,-0.77
-1,-1,0,-62,-367,3932,-0.01,-0.53,-0.58,-0.62,-3.67,39.32,-5.40,0.82,0.34,0.23,-1.76,-0.54
0,0,1,-45,-361,3937,-0.01,-0.48,-0.51,-0.45,-3.61,39.37,-5.39,0.80,0.35,-0.02,-1.81,-0.57
1,-2,3,-45,-384,3923,0.00,-0.44,-0.44,-0.45,-3.84,39.23,-5.40,0.79,0.35,-0.25,-1.17,-0.67
1,3,0,-55,-373,3932,0.01,-0.38,-0.40,-0.55,-3.73,39.32,-5.42,0.80,0.35,-0.23,-2.20,-0.38
0,5,1,-59,-371,3934,0.01,-0.31,-0.35,-0.59,-3.71,39.34,-5.41,0.81,0.35,0.02,-2.45,-0.42
0,8,1,-54,-383,3942,0.01,-0.23,-0.31,-0.54,-3.83,39.42,-5.43,0.81,0.35,0.02,-2.91,-0.38
2,7,0,-49,-380,3940,0.02,-0.17,-0.28,-0.49,-3.80,39.40,-5.44,0.79,0.35,-0.44,-2.41,-0.26
1,4,1,-56,-364,3936,0.02,-0.13,-0.25,-0.56,-3.64,39.36,-5.42,0.79,0.35,-0.17,-1.49,-0.32
1,2,1,-59,-372,3941,0.03,-0.10,-0.22,-0.59,-3.72,39.41,-5.41,0.81,0.35,-0.16,-0.89,-0.29
0,0,1,-52,-370,3931,0.02,-0.09,-0.19,-0.52,-3.70,39.31,-5.40,0.79,0.35,0.09,-0.34,-0.26
1,0,1,-52,-370,3939,0.03,-0.08,-0.16,-0.52,-3.70,39.39,-5.39,0.78,0.36,-0.15,-0.31,-0.24
1,0,0,-45,-378,3953,0.03,-0.07,-0.15,-0.45,-3.78,39.53,-5.40,0.76,0.36,-0.14,-0.28,-0.14
1,-2,0,-60,-371,3941,0.03,-0.08,-0.13,-0.60,-3.71,39.41,-5.40,0.78,0.36,-0.13,0.21,-0.12
0,-3,1,-53,-380,3934,0.03,-0.09,-0.11,-0.53,-3.80,39.34,-5.41,0.78,0.36,0.11,0.43,-0.19
0,-4,1,-50,-372,3932,0.03,-0.10,-0.10,-0.50,-3.72,39.32,-5.41,0.76,0.36,0.10,0.62,-0.17
0,-5,0,-46,-376,3929,0.02,-0.12,-0.09,-0.46,-3.76,39.29,-5.42,0.74,0.36,0.09,0.80,-0.08
-1,-5,-2,-52,-377,3935,0.02,-0.14,-0.09,-0.52,-3.77,39.35,-5.44,0.75,0.36,0.31,0.73,0.09
1,-1,-3,-46,-406,3919,0.02,-0.13,-0.10,-0.46,-4.06,39.19,-5.46,0.74,0.36,-0.18,-0.25,0.16
0,0,-5,-34,-372,3934,0.02,-0.12,-0.12,-0.34,-3.72,39.34,-5.45,0.72,0.36,0.07,-0.46,0.31
0,2,-1,-52,-359,3939,0.02,-0.10,-0.11,-0.52,-3.59,39.39,-5.43,0.73,0.36,0.06,-0.87,-0.02
0,2,1,-60,-400,3949,0.01,-0.07,-0.10,-0.60,-4.00,39.49,-5.45,0.73,0.36,0.06,-0.79,-0.18
1,-2,-28,-70,-336,3933,0.02,-0.08,-0.26,-0.70,-3.36,39.33,-5.43,0.74,0.36,-0.18,0.21,2.13
15,16,-40,-44,-365,4024,0.11,0.03,-0.48,-0.44,-3.65,40.24,-5.42,0.73,0.36,-3.40,-3.97,2.94
4,9,-41,-52,-402,3921,0.12,0.08,-0.68,-0.52,-4.02,39.21,-5.44,0.73,0.37,-0.56,-1.99,2.84
2,4,-35,-39,-389,3915,0.12,0.09,-0.82,-0.39,-3.89,39.15,-5.45,0.72,0.37,-0.05,-0.66,2.19
2,0,-29,-47,-376,3938,0.12,0.09,-0.92,-0.47,-3.76,39.38,-5.45,0.71,0.37,-0.05,0.32,1.59
2,1,-27,-62,-399,3928,0.12,0.08,-0.99,-0.62,-3.99,39.28,-5.47,0.71,0.38,-0.05,0.06,1.36
-1,1,-18,-43,-402,3912,0.10,0.08,-1.00,-0.43,-4.02,39.12,-5.48,0.71,0.38,0.65,0.05,0.58
0,1,-16,-38,-410,3914,0.09,0.08,-1.00,-0.38,-4.10,39.14,-5.50,0.70,0.39,0.35,0.04,0.42
1,0,-13,-37,-370,3911,0.09,0.07,-0.98,-0.37,-3.70,39.11,-5.49,0.69,0.39,0.09,0.27,0.18
-2,-1,-2,-45,-360,3928,0.07,0.06,-0.89,-0.45,-3.60,39.28,-5.47,0.69,0.39,0.77,0.47,-0.67
-1,-7,18,-33,-269,3897,0.06,0.01,-0.69,-0.33,-2.69,38.97,-5.46,0.68,0.40,0.47,1.81,-2.18
-1,-10,18,-26,-211,3961,0.04,-0.05,-0.51,-0.26,-2.11,39.61,-5.44,0.68,0.40,0.42,2.34,-2.01
-1,-5,5,-49,-337,3922,0.03,-0.08,-0.43,-0.49,-3.37,39.22,-5.42,0.68,0.40,0.38,0.98,-0.83
0,-6,3,-42,-362,3940,0.03,-0.11,-0.37,-0.42,-3.62,39.40,-5.40,0.67,0.40,0.11,1.12,-0.60
-1,-3,2,-40,-370,3921,0.02,-0.11,-0.32,-0.40,-3.70,39.21,-5.40,0.65,0.40,0.33,0.33,-0.47
1,-4,2,-54,-370,3937,0.03,-0.13,-0.28,-0.54,-3.70,39.37,-5.39,0.67,0.40,-0.16,0.54,-0.43
1,-2,2,-47,-385,3917,0.03,-0.13,-0.24,-0.47,-3.85,39.17,-5.41,0.67,0.40,-0.15,0.03,-0.39
1,-2,3,-41,-379,3928,0.03,-0.13,-0.20,-0.41,-3.79,39.28,-5.43,0.66,0.40,-0.13,0.03,-0.44
1,-3,5,-63,-371,3928,0.03,-0.13,-0.15,-0.63,-3.71,39.28,-5.42,0.68,0.40,-0.12,0.27,-0.56
1,-4,3,-63,-375,3927,0.04,-0.14,-0.11,-0.63,-3.75,39.27,-5.43,0.70,0.40,-0.11,0.48,-0.36
0,-5,-3,-44,-411,3910,0.03,-0.16,-0.12,-0.44,-4.11,39.10,-5.45,0.69,0.41,0.13,0.67,0.14
0,-8,-4,-43,-383,3911,0.03,-0.19,-0.13,-0.43,-3.83,39.11,-5.46,0.69,0.41,0.11,1.31,0.21
1,-2,-3,-90,-390,3968,0.03,-0.19,-0.14,-0.90,-3.90,39.68,-5.47,0.70,0.41,-0.13,-0.19,0.13
6,1,-3,-68,-427,3992,0.07,-0.16,-0.14,-0.68,-4.27,39.92,-5.48,0.71,0.41,-1.27,-0.86,0.12
4,2,12,-95,-495,3950,0.08,-0.13,-0.05,-0.95,-4.95,39.50,-5.50,0.71,0.41,-0.70,-1.01,-1.07
1,1,25,-124,-525,3907,0.08,-0.11,0.10,-1.24,-5.25,39.07,-5.52,0.72,0.41,0.06,-0.68,-2.02
-8,-1,123,-188,-488,3925,0.03,-0.11,0.84,-1.88,-4.88,39.25,-5.53,0.74,0.40,2.13,-0.15,-9.63
-4,5,210,-221,-576,3907,-0.00,-0.07,2.04,-2.21,-5.76,39.07,-5.54,0.75,0.40,1.01,-1.52,-15.88
-6,-6,236,-103,-223,3984,-0.04,-0.10,3.28,-1.03,-2.23,39.84,-5.52,0.76,0.38,1.38,1.16,-16.92
0,8,239,-133,-419,3935,-0.03,-0.04,4.41,-1.33,-4.19,39.35,-5.53,0.77,0.37,-0.13,-2.18,-16.11
3,-1,273,-162,-435,3915,-0.01,-0.04,5.63,-1.62,-4.35,39.15,-5.54,0.79,0.34,-0.81,0.10,-17.84
-4,3,300,-88,-492,3860,-0.04,-0.02,6.90,-0.88,-4.92,38.60,-5.56,0.80,0.32,0.88,-0.83,-18.94
-10,1,366,-18,-478,3839,-0.09,-0.01,8.44,-0.18,-4.78,38.39,-5.57,0.80,0.28,2.19,-0.29,-23.08
-6,14,388,-19,-457,3960,-0.12,0.08,9.96,-0.19,-4.57,39.60,-5.59,0.79,0.24,1.07,-3.27,-23.52
9,7,532,-128,-384,4045,-0.05,0.11,12.21,-1.28,-3.84,40.45,-5.59,0.82,0.19,-2.49,-1.36,-33.61
-8,-3,563,-101,-398,3859,-0.10,0.08,14.43,-1.01,-3.98,38.59,-5.59,0.84,0.14,1.67,1.07,-34.15
-15,8,660,-40,-437,3836,-0.18,0.12,17.01,-0.40,-4.37,38.36,-5.61,0.84,0.07,3.14,-1.57,-39.95
-7,16,692,-45,-305,3964,-0.20,0.21,19.53,-0.45,-3.05,39.64,-5.59,0.85,-0.01,1.01,-3.28,-40.29
-3,24,813,45,-440,3949,-0.20,0.33,22.54,0.45,-4.40,39.49,-5.60,0.84,-0.10,0.00,-4.84,-47.72
-8,25,893,-53,-539,3878,-0.23,0.45,25.73,-0.53,-5.39,38.78,-5.62,0.85,-0.20,1.17,-4.65,-51.50
-17,24,1038,-41,-707,3855,-0.31,0.55,29.49,-0.41,-7.07,38.55,-5.63,0.86,-0.32,3.15,-4.01,-60.26
-16,23,1068,31,-697,4006,-0.38,0.64,33.05,0.31,-6.97,40.06,-5.65,0.87,-0.45,2.65,-3.44,-59.45
-19,11,1153,70,-579,3902,-0.46,0.64,36.78,0.70,-5.79,39.02,-5.67,0.88,-0.59,3.11,-0.38,-63.15
-25,25,1168,-5,-626,3963,-0.56,0.73,40.23,-0.05,-6.26,39.63,-5.68,0.90,-0.75,4.24,-3.60,-61.19
-27,33,1232,-6,-548,3984,-0.67,0.86,43.72,-0.06,-5.48,39.84,-5.70,0.91,-0.93,4.34,-5.15,-63.33
-27,26,1249,-40,-541,3893,-0.77,0.93,46.97,-0.40,-5.41,38.93,-5.72,0.93,-1.11,3.97,-3.10,-61.72
-27,5,1295,-43,-490,3922,-0.86,0.87,50.17,-0.43,-4.90,39.22,-5.74,0.95,-1.31,3.64,2.00,-62.61
-29,15,1303,-76,-440,3865,-0.95,0.87,53.10,-0.76,-4.40,38.65,-5.76,0.98,-1.52,3.80,-0.52,-60.54
-22,15,1296,-47,-382,3949,-0.99,0.88,55.70,-0.47,-3.82,39.49,-5.74,0.99,-1.74,1.87,-0.51,-57.51
-25,7,1278,-49,-359,3931,-1.04,0.83,57.92,-0.49,-3.59,39.31,-5.73,1.01,-1.97,2.43,1.36,-53.89
-21,12,1205,-33,-264,3897,-1.06,0.82,59.48,-0.33,-2.64,38.97,-5.71,1.03,-2.21,1.33,0.05,-46.24
-26,15,1180,-24,-304,3891,-1.12,0.83,60.73,-0.24,-3.04,38.91,-5.69,1.05,-2.45,2.40,-0.68,-42.95
-8,7,1086,-1,-203,3911,-1.05,0.79,61.28,-0.01,-2.03,39.11,-5.68,1.07,-2.70,-1.94,1.20,-34.47
-5,24,1060,6,-230,3972,-0.98,0.86,61.62,0.06,-2.30,39.72,-5.66,1.09,-2.94,-2.42,-2.87,-31.95
-9,21,946,-2,-241,3966,-0.94,0.90,61.23,-0.02,-2.41,39.66,-5.64,1.11,-3.19,-1.24,-1.94,-22.66
-4,17,909,-8,-150,3932,-0.87,0.91,60.65,-0.08,-1.50,39.32,-5.62,1.13,-3.43,-2.25,-0.88,-20.07
-16,7,778,-12,-264,3950,-0.88,0.87,59.33,-0.12,-2.64,39.50,-5.61,1.15,-3.66,0.76,1.48,-10.21
-23,18,744,-40,-243,3912,-0.93,0.89,57.94,-0.40,-2.43,39.12,-5.59,1.17,-3.89,2.34,-1.23,-8.64
3,18,646,-106,-204,3928,-0.82,0.91,56.08,-1.06,-2.04,39.28,-5.57,1.20,-4.12,-3.85,-1.15,-2.07
-3,17,615,-138,-264,3886,-0.76,0.92,54.23,-1.38,-2.64,38.86,-5.55,1.23,-4.33,-2.08,-0.85,-1.19
-8,12,598,-100,-349,3918,-0.73,0.90,52.45,-1.00,-3.49,39.18,-5.53,1.26,-4.54,-0.71,0.35,-1.42
-29,8,597,-77,-407,3944,-0.83,0.86,50.85,-0.77,-4.07,39.44,-5.55,1.28,-4.74,4.23,1.21,-2.84
-13,6,609,-31,-492,3960,-0.83,0.81,49.48,-0.31,-4.92,39.60,-5.56,1.29,-4.94,0.18,1.53,-5.14
-7,3,618,-51,-531,3953,-0.79,0.75,48.30,-0.51,-5.31,39.53,-5.58,1.31,-5.13,-1.19,2.06,-7.01
-12,5,694,-108,-556,3905,-0.78,0.70,47.70,-1.08,-5.56,39.05,-5.60,1.33,-5.32,0.10,1.38,-14.01
-3,14,734,-115,-477,3910,-0.72,0.72,47.41,-1.15,-4.77,39.10,-5.61,1.36,-5.51,-1.96,-0.85,-17.67
-11,28,905,-227,-447,3907,-0.72,0.82,48.19,-2.27,-4.47,39.07,-5.62,1.40,-5.70,0.09,-4.03,-31.43
-23,21,962,-306,-380,3948,-0.79,0.86,49.24,-3.06,-3.80,39.48,-5.62,1.44,-5.90,2.88,-2.08,-35.27
-26,64,1179,-301,-332,3875,-0.87,1.17,51.51,-3.01,-3.32,38.75,-5.61,1.48,-6.10,3.35,-11.86,-51.53
-6,62,1232,-237,-271,4018,-0.82,1.43,53.87,-2.37,-2.71,40.18,-5.60,1.52,-6.32,-1.55,-10.37,-53.80
-36,58,1296,-61,-486,4054,-0.95,1.64,56.39,-0.61,-4.86,40.54,-5.61,1.54,-6.54,5.56,-8.56,-56.86
-24,43,1304,-5,-441,3925,-1.01,1.74,58.71,-0.05,-4.41,39.25,-5.62,1.56,-6.77,2.31,-4.38,-55.36
-16,38,1328,-34,-575,3746,-1.00,1.80,60.94,-0.34,-5.75,37.46,-5.63,1.58,-7.01,0.29,-2.89,-55.30
-25,27,1339,5,-545,3958,-1.05,1.78,63.01,0.05,-5.45,39.58,-5.64,1.60,-7.26,2.38,-0.15,-54.28
-40,20,1393,-50,-518,3990,-1.19,1.73,65.21,-0.50,-5.18,39.90,-5.66,1.63,-7.52,5.67,1.42,-56.80
-24,21,1415,-115,-482,3892,-1.22,1.68,67.32,-1.15,-4.82,38.92,-5.67,1.66,-7.79,1.50,1.00,-56.68
-22,17,1487,-52,-419,3875,-1.23,1.62,69.66,-0.52,-4.19,38.75,-5.68,1.68,-8.07,0.95,1.77,-60.58
-15,11,1494,18,-335,3995,-1.20,1.52,71.80,0.18,-3.35,39.95,-5.67,1.70,-8.35,-0.71,2.94,-59.16
-25,-6,1497,-63,-340,4010,-1.23,1.33,73.76,-0.63,-3.40,40.10,-5.65,1.72,-8.64,1.71,6.55,-57.58
-27,-4,1482,-96,-300,3848,-1.27,1.18,75.42,-0.96,-3.00,38.48,-5.63,1.75,-8.95,2.06,5.45,-54.75
-7,2,1460,-140,-397,3931,-1.19,1.07,76.78,-1.40,-3.97,39.31,-5.63,1.80,-9.25,-2.70,3.52,-51.60
-10,1,1454,-141,-367,3987,-1.13,0.97,77.98,-1.41,-3.67,39.87,-5.61,1.84,-9.56,-1.72,3.40,-49.98
-16,25,1416,-193,-391,3936,-1.12,1.02,78.82,-1.93,-3.91,39.36,-5.61,1.89,-9.87,-0.14,-2.49,-45.97
-27,3,1411,-159,-326,4051,-1.17,0.94,79.54,-1.59,-3.26,40.51,-5.58,1.94,-10.19,2.46,2.78,-44.86
-21,17,1399,-349,-315,3905,-1.18,0.95,80.12,-3.49,-3.15,39.05,-5.57,1.99,-10.51,0.89,-0.74,-43.30
-25,14,1397,-441,-317,3942,-1.21,0.94,80.63,-4.41,-3.17,39.42,-5.56,2.04,-10.83,1.78,-0.01,-42.65
-15,18,1352,-120,-257,3892,-1.18,0.96,80.81,-1.20,-2.57,38.92,-5.54,2.07,-11.15,-0.65,-0.97,-38.67
-16,24,1325,-22,-317,3911,-1.16,1.01,80.82,-0.22,-3.17,39.11,-5.52,2.09,-11.48,-0.32,-2.31,-36.38
4,-8,1166,16,-196,3981,-1.02,0.86,79.85,0.16,-1.96,39.81,-5.50,2.11,-11.79,-4.87,5.26,-23.82
-28,-11,1094,106,-358,3923,-1.09,0.70,78.54,1.06,-3.58,39.23,-5.49,2.13,-12.11,3.00,5.45,-18.95
-5,15,981,-10,-391,3925,-1.01,0.73,76.67,-0.10,-3.91,39.25,-5.49,2.14,-12.41,-2.54,-1.08,-11.13
-24,10,959,-13,-470,3952,-1.06,0.71,74.85,-0.13,-4.70,39.52,-5.49,2.16,-12.71,2.11,0.15,-10.97
-11,14,925,-84,-358,3940,-1.02,0.73,73.01,-0.84,-3.58,39.40,-5.48,2.17,-13.00,-1.04,-0.82,-9.82
-11,26,932,-70,-394,3885,-0.98,0.81,71.39,-0.70,-3.94,38.85,-5.47,2.19,-13.28,-0.91,-3.54,-11.93
-6,18,945,-4,-293,3936,-0.92,0.84,70.02,-0.04,-2.93,39.36,-5.46,2.20,-13.56,-1.95,-1.40,-14.32
-26,1,946,-106,-306,4048,-0.99,0.76,68.79,-1.06,-3.06,40.48,-5.44,2.22,-13.84,2.88,2.62,-15.57
-17,10,926,-214,-307,3931,-0.99,0.75,67.56,-2.14,-3.07,39.31,-5.42,2.26,-14.11,0.58,0.28,-15.03
-11,17,915,-191,-301,3807,-0.96,0.78,66.38,-1.91,-3.01,38.07,-5.39,2.30,-14.37,-0.83,-1.39,-15.20
-23,3,879,184,-371,3945,-1.01,0.72,65.11,1.84,-3.71,39.45,-5.39,2.31,-14.63,2.06,1.94,-13.34
-13,-1,858,69,-450,3959,-0.98,0.64,63.83,0.69,-4.50,39.59,-5.39,2.32,-14.88,-0.40,2.67,-12.76
-14,2,816,89,-507,3991,-0.97,0.59,62.42,0.89,-5.07,39.91,-5.39,2.33,-15.13,-0.10,1.71,-10.52
-21,5,811,-76,-550,3929,-1.00,0.56,61.13,-0.76,-5.50,39.29,-5.40,2.34,-15.38,1.56,0.84,-11.32
-7,11,800,18,-524,3965,-0.94,0.57,59.90,0.18,-5.24,39.65,-5.41,2.35,-15.61,-1.78,-0.64,-11.54
-19,1,802,95,-499,3947,-0.97,0.52,58.80,0.95,-4.99,39.47,-5.41,2.36,-15.85,1.19,1.71,-12.74
-1,11,828,31,-558,3900,-0.88,0.54,57.97,0.31,-5.58,39.00,-5.41,2.37,-16.08,-3.04,-0.78,-15.72
-12,15,843,61,-534,3955,-0.86,0.57,57.31,0.61,-5.34,39.55,-5.42,2.38,-16.31,-0.19,-1.65,-17.61
-16,21,917,-189,-458,3826,-0.87,0.64,57.18,-1.89,-4.58,38.26,-5.43,2.41,-16.53,0.78,-2.91,-24.01
-15,33,939,-222,-533,3956,-0.88,0.78,57.19,-2.22,-5.33,39.56,-5.44,2.44,-16.76,0.51,-5.45,-25.86
-27,42,1021,-173,-426,3897,-0.95,0.96,57.70,-1.73,-4.26,38.97,-5.45,2.47,-16.99,3.27,-7.06,-32.33
-12,54,1053,-119,-369,3873,-0.93,1.19,58.35,-1.19,-3.69,38.73,-5.45,2.48,-17.22,-0.46,-9.23,-34.43
-27,43,1080,-47,-496,3887,-1.00,1.34,59.10,-0.47,-4.96,38.87,-5.45,2.49,-17.45,3.08,-5.90,-36.01
-13,21,1082,-101,-399,3984,-0.98,1.33,59.79,-1.01,-3.99,39.84,-5.45,2.50,-17.69,-0.40,-0.33,-35.53
-14,16,1082,58,-587,3944,-0.97,1.29,60.41,0.58,-5.87,39.44,-5.46,2.52,-17.93,-0.09,0.81,-34.95
-17,7,1079,137,-503,3969,-0.98,1.21,60.95,1.37,-5.03,39.69,-5.46,2.53,-18.17,0.64,2.77,-34.19
-25,12,1085,58,-586,3980,-1.03,1.16,61.48,0.58,-5.86,39.80,-5.46,2.54,-18.42,2.47,1.32,-34.20
-21,11,1077,-99,-647,3924,-1.06,1.11,61.90,-0.99,-6.47,39.24,-5.47,2.57,-18.66,1.36,1.39,-33.13
-6,15,1110,-45,-458,3999,-0.99,1.09,62.48,-0.45,-4.58,39.99,-5.48,2.58,-18.91,-2.19,0.30,-35.38
-16,20,1124,-34,-526,3875,-0.99,1.10,63.09,-0.34,-5.26,38.75,-5.48,2.59,-19.16,0.35,-0.92,-35.99
-11,19,1151,39,-420,3994,-0.95,1.11,63.80,0.39,-4.20,39.94,-5.48,2.60,-19.42,-0.80,-0.65,-37.61
-15,15,1163,-11,-492,3949,-0.95,1.09,64.52,-0.11,-4.92,39.49,-5.48,2.62,-19.67,0.23,0.30,-37.96
-15,28,1195,7,-390,3886,-0.95,1.15,65.35,0.07,-3.90,38.86,-5.47,2.63,-19.93,0.25,-2.78,-39.88
-20,30,1193,77,-421,3947,-0.97,1.22,66.10,0.77,-4.21,39.47,-5.47,2.64,-20.20,1.41,-3.03,-39.02
-10,25,1173,-132,-438,3974,-0.94,1.25,66.64,-1.32,-4.38,39.74,-5.47,2.66,-20.46,-0.99,-1.64,-36.81
-22,17,1173,-198,-459,3978,-0.98,1.23,67.13,-1.98,-4.59,39.78,-5.48,2.69,-20.73,1.91,0.31,-36.35
-35,10,1183,-90,-450,3907,-1.09,1.17,67.64,-0.90,-4.50,39.07,-5.49,2.71,-20.99,4.78,1.86,-36.72
-20,20,1178,-86,-498,3794,-1.11,1.17,68.06,-0.86,-4.98,37.94,-5.49,2.73,-21.27,0.92,-0.67,-35.90
-9,11,1157,-220,-513,3884,-1.05,1.12,68.31,-2.20,-5.13,38.84,-5.50,2.76,-21.54,-1.67,1.43,-33.89
-9,16,1154,-197,-480,3967,-1.00,1.11,68.52,-1.97,-4.80,39.67,-5.51,2.80,-21.81,-1.48,0.11,-33.44
-26,13,1132,-15,-391,3991,-1.06,1.08,68.57,-0.15,-3.91,39.91,-5.50,2.81,-22.08,2.62,0.75,-31.52
-13,30,1116,16,-396,3880,-1.03,1.15,68.52,0.16,-3.96,38.80,-5.49,2.82,-22.35,-0.59,-3.29,-30.22
-11,18,1082,-81,-331,3919,-1.00,1.15,68.27,-0.81,-3.31,39.19,-5.48,2.83,-22.63,-0.96,-0.26,-27.57
-17,24,1082,-60,-339,3946,-1.00,1.18,68.04,-0.60,-3.39,39.46,-5.46,2.85,-22.90,0.55,-1.66,-27.78
-2,27,1034,-190,-293,3950,-0.91,1.22,67.55,-1.90,-2.93,39.50,-5.43,2.88,-23.17,-2.93,-2.25,-24.18
-13,4,1026,-167,-236,3949,-0.90,1.13,67.05,-1.67,-2.36,39.49,-5.41,2.90,-23.43,-0.09,3.23,-23.97
-11,11,998,-173,-200,3934,-0.88,1.08,66.43,-1.73,-2.00,39.34,-5.38,2.93,-23.70,-0.51,1.28,-22.18
-16,23,979,-209,-264,3919,-0.89,1.11,65.76,-2.09,-2.64,39.19,-5.35,2.96,-23.96,0.72,-1.65,-21.20
-4,9,873,-103,-275,4023,-0.82,1.06,64.51,-1.03,-2.75,40.23,-5.33,2.97,-24.22,-2.08,1.69,-13.39
-10,-9,831,-114,-221,3871,-0.80,0.90,63.13,-1.14,-2.21,38.71,-5.30,2.99,-24.47,-0.48,5.66,-11.13
3,-19,689,-34,-345,3855,-0.70,0.69,61.02,-0.34,-3.45,38.55,-5.29,3.00,-24.72,-3.41,7.43,-1.08
-10,-9,631,-3,-355,3986,-0.69,0.57,58.77,-0.03,-3.55,39.86,-5.28,3.00,-24.95,-0.07,4.42,1.71
-7,-8,508,10,-326,3994,-0.67,0.46,55.99,0.10,-3.26,39.94,-5.27,3.01,-25.17,-0.73,3.77,9.53
1,-3,477,22,-311,3871,-0.59,0.40,53.30,0.22,-3.11,38.71,-5.26,3.01,-25.39,-2.49,2.26,9.63
-9,-4,405,-47,-317,3922,-0.59,0.33,50.44,-0.47,-3.17,39.22,-5.24,3.01,-25.59,0.07,2.27,13.04
4,4,390,-34,-279,3980,-0.51,0.32,47.77,-0.34,-2.79,39.80,-5.23,3.02,-25.78,-2.92,0.20,11.81
-6,13,346,-107,-323,3927,-0.49,0.37,45.11,-1.07,-3.23,39.27,-5.21,3.02,-25.96,-0.33,-1.91,13.04
1,-2,327,-104,-320,4009,-0.44,0.32,42.59,-1.04,-3.20,40.09,-5.20,3.02,-26.13,-1.90,1.72,12.28
-2,-1,275,-157,-417,3944,-0.41,0.28,40.01,-1.57,-4.17,39.44,-5.21,3.02,-26.29,-1.02,1.32,14.27
-5,1,279,-94,-438,3887,-0.40,0.26,37.71,-0.94,-4.38,38.87,-5.21,3.02,-26.44,-0.22,0.73,11.77
-7,5,284,-58,-466,3881,-0.40,0.27,35.67,-0.58,-4.66,38.81,-5.22,3.02,-26.58,0.28,-0.27,9.43
0,7,289,-49,-455,4021,-0.36,0.28,33.87,-0.49,-4.55,40.21,-5.22,3.02,-26.71,-1.35,-0.72,7.31
-8,8,292,-62,-493,3950,-0.37,0.30,32.26,-0.62,-4.93,39.50,-5.23,3.02,-26.84,0.63,-0.89,5.55
-8,9,294,-72,-457,3946,-0.38,0.33,30.83,-0.72,-4.57,39.46,-5.23,3.01,-26.96,0.59,-1.06,4.04
-2,8,304,4,-536,3942,-0.36,0.34,29.60,0.04,-5.36,39.42,-5.24,3.01,-27.08,-0.84,-0.74,2.04
-7,3,304,-40,-535,3940,-0.36,0.33,28.50,-0.40,-5.35,39.40,-5.25,3.01,-27.19,0.41,0.47,1.00
-4,-5,322,-12,-553,3923,-0.35,0.26,27.61,-0.12,-5.53,39.23,-5.26,3.01,-27.30,-0.31,2.26,-1.36
4,8,335,-18,-454,3917,-0.29,0.29,26.89,-0.18,-4.54,39.17,-5.26,3.00,-27.41,-2.12,-0.96,-3.13
-10,17,368,-69,-526,3938,-0.32,0.36,26.45,-0.69,-5.26,39.38,-5.27,3.00,-27.51,1.32,-2.96,-6.35
-10,4,381,-17,-503,3980,-0.35,0.35,26.13,-0.17,-5.03,39.80,-5.28,3.00,-27.62,1.21,0.30,-7.75
-2,22,419,-5,-416,3848,-0.33,0.45,26.07,-0.05,-4.16,38.48,-5.28,2.99,-27.72,-0.73,-3.90,-11.02
-5,8,443,62,-404,4031,-0.33,0.45,26.17,0.62,-4.04,40.31,-5.27,2.99,-27.82,0.04,-0.33,-12.97
-12,14,444,194,-396,3930,-0.37,0.49,26.26,1.94,-3.96,39.30,-5.27,2.98,-27.93,1.66,-1.70,-12.96
-15,10,455,294,-507,3907,-0.42,0.50,26.41,2.94,-5.07,39.07,-5.27,2.97,-28.03,2.22,-0.64,-13.76
34,59,477,604,-608,3906,-0.17,0.81,26.68,6.04,-6.08,39.06,-5.27,2.97,-28.14,-9.29,-11.93,-15.37
107,139,487,694,-679,3959,0.50,1.58,26.98,6.94,-6.79,39.59,-5.27,2.97,-28.25,-25.32,-29.38,-15.93
121,167,588,467,-761,3864,1.19,2.44,27.87,4.67,-7.61,38.64,-5.27,2.97,-28.36,-26.29,-33.25,-23.65
80,108,631,394,-790,3898,1.55,2.86,28.93,3.94,-7.90,38.98,-5.27,2.98,-28.47,-14.48,-16.69,-26.30
30,42,796,3,-742,3940,1.58,2.83,30.89,0.03,-7.42,39.40,-5.27,2.99,-28.59,-1.66,-0.03,-38.43
8,21,868,-171,-667,3863,1.47,2.67,33.10,-1.71,-6.67,38.63,-5.28,3.01,-28.72,3.52,4.73,-42.46
-15,-9,1029,-362,-407,3845,1.23,2.35,36.07,-3.62,-4.07,38.45,-5.27,3.05,-28.86,8.46,11.14,-53.32
-20,-18,1075,-315,-313,3977,0.99,2.01,39.02,-3.15,-3.13,39.77,-5.25,3.09,-29.02,8.81,12.13,-54.44
-71,-59,1081,-233,-189,3985,0.46,1.44,41.71,-2.33,-1.89,39.85,-5.22,3.11,-29.19,19.77,20.44,-52.42
-141,-121,1076,-209,-36,3896,-0.45,0.56,44.10,-2.09,-0.36,38.96,-5.20,3.13,-29.36,34.15,32.87,-49.75
-77,-67,942,-142,-152,3934,-0.87,0.10,45.44,-1.42,-1.52,39.34,-5.17,3.14,-29.55,16.28,17.40,-37.15
-70,-36,870,-164,-225,3941,-1.21,-0.13,46.20,-1.64,-2.25,39.41,-5.15,3.15,-29.73,13.22,8.65,-30.33
-18,7,602,-83,-269,3923,-1.20,-0.08,45.25,-0.83,-2.69,39.23,-5.14,3.15,-29.91,0.05,-2.07,-8.52
-4,13,540,-97,-305,3997,-1.11,0.01,44.02,-0.97,-3.05,39.97,-5.12,3.15,-30.09,-3.15,-3.26,-4.42
-13,3,312,-176,-206,3958,-1.07,0.03,41.52,-1.76,-2.06,39.58,-5.10,3.16,-30.25,-0.74,-0.66,12.55
-2,9,249,-182,-240,3928,-0.98,0.08,38.89,-1.82,-2.40,39.28,-5.08,3.17,-30.41,-3.18,-1.99,15.42
-8,-1,127,-125,-443,3925,-0.93,0.07,35.78,-1.25,-4.43,39.25,-5.09,3.17,-30.55,-1.47,0.50,22.83
-23,-20,102,-84,-489,3932,-0.98,-0.06,32.82,-0.84,-4.89,39.32,-5.10,3.17,-30.68,2.16,4.85,22.17
-31,-31,79,-86,-508,3897,-1.07,-0.25,30.02,-0.86,-5.08,38.97,-5.11,3.17,-30.80,3.85,6.95,21.49
-28,-24,78,-56,-502,3933,-1.13,-0.37,27.49,-0.56,-5.02,39.33,-5.12,3.16,-30.91,2.85,4.72,19.21
-13,-6,94,-16,-478,3947,-1.10,-0.37,25.32,-0.16,-4.78,39.47,-5.13,3.15,-31.01,-0.83,0.14,15.81
-10,-1,91,-36,-477,3918,-1.05,-0.34,23.34,-0.36,-4.77,39.18,-5.14,3.15,-31.10,-1.41,-1.01,14.20
-1,-4,83,-59,-418,3934,-0.95,-0.33,21.51,-0.59,-4.18,39.34,-5.14,3.14,-31.19,-3.33,-0.22,13.17
-1,-2,91,-63,-402,3942,-0.86,-0.31,19.92,-0.63,-4.02,39.42,-5.15,3.12,-31.27,-2.99,-0.65,10.99
0,3,105,-91,-420,3928,-0.78,-0.26,18.57,-0.91,-4.20,39.28,-5.16,3.11,-31.34,-2.92,-1.73,8.54
-1,0,108,-93,-393,3941,-0.70,-0.23,17.37,-0.93,-3.93,39.41,-5.16,3.10,-31.41,-2.40,-0.87,7.16
1,-7,144,-80,-542,3921,-0.63,-0.25,16.51,-0.80,-5.42,39.21,-5.17,3.10,-31.48,-2.62,0.83,3.30
2,-9,143,-35,-566,3912,-0.55,-0.28,15.73,-0.35,-5.66,39.12,-5.19,3.09,-31.54,-2.59,1.23,2.65
-4,-14,207,-31,-647,3940,-0.52,-0.34,15.42,-0.31,-6.47,39.40,-5.20,3.08,-31.60,-0.95,2.28,-3.06
-5,-6,236,3,-669,3934,-0.50,-0.34,15.32,0.03,-6.69,39.34,-5.21,3.08,-31.66,-0.61,0.24,-5.61
2,-13,348,112,-645,4012,-0.44,-0.39,15.91,1.12,-6.45,40.12,-5.22,3.07,-31.72,-2.16,1.85,-14.55
-16,1,382,125,-682,3764,-0.49,-0.34,16.65,1.25,-6.82,37.64,-5.24,3.06,-31.79,2.21,-1.54,-16.73
-7,10,530,21,-617,3871,-0.49,-0.25,18.22,0.21,-6.17,38.71,-5.25,3.05,-31.86,-0.05,-3.47,-27.80
-5,1,579,-18,-641,3996,-0.47,-0.22,19.93,-0.18,-6.41,39.96,-5.26,3.05,-31.94,-0.49,-1.07,-30.35
-4,2,742,-109,-574,3959,-0.44,-0.18,22.46,-1.09,-5.74,39.59,-5.27,3.05,-32.03,-0.66,-1.19,-41.78
-2,7,776,-140,-610,3887,-0.41,-0.12,24.95,-1.40,-6.10,38.87,-5.29,3.05,-32.13,-1.05,-2.24,-42.32
-33,-22,854,-47,-424,3903,-0.57,-0.24,27.66,-0.47,-4.24,39.03,-5.29,3.04,-32.24,6.23,4.68,-46.38
-14,-15,856,-50,-402,3936,-0.60,-0.31,30.12,-0.50,-4.02,39.36,-5.29,3.04,-32.36,1.30,2.64,-44.24
-9,7,817,-117,-443,3808,-0.60,-0.24,32.09,-1.17,-4.43,38.08,-5.30,3.03,-32.49,0.04,-2.67,-39.09
-17,2,793,-132,-420,3963,-0.64,-0.20,33.72,-1.32,-4.20,39.63,-5.31,3.03,-32.62,1.91,-1.26,-35.53
-17,1,697,-25,-373,3845,-0.68,-0.17,34.60,-0.25,-3.73,38.45,-5.30,3.02,-32.76,1.76,-0.91,-26.57
-10,19,665,3,-353,3946,-0.67,-0.04,35.19,0.03,-3.53,39.46,-5.30,3.02,-32.90,0.01,-4.98,-23.30
-7,10,559,45,-264,4060,-0.65,0.02,35.09,0.45,-2.64,40.60,-5.28,3.01,-33.04,-0.66,-2.45,-14.42
-17,-2,529,48,-244,4020,-0.69,0.01,34.80,0.48,-2.44,40.20,-5.27,3.01,-33.18,1.73,0.54,-12.14
-6,7,400,-88,-295,3918,-0.65,0.05,33.76,-0.88,-2.95,39.18,-5.26,3.01,-33.31,-0.94,-1.59,-2.19
-14,7,370,-101,-315,3936,-0.67,0.09,32.64,-1.01,-3.15,39.36,-5.25,3.00,-33.44,1.02,-1.45,-0.70
-14,6,291,-62,-362,3930,-0.69,0.12,31.15,-0.62,-3.62,39.30,-5.24,3.00,-33.57,0.95,-1.09,4.60
-10,-15,245,-30,-289,4025,-0.68,0.01,29.53,-0.30,-2.89,40.25,-5.23,2.99,-33.69,-0.04,3.86,6.97
-5,-9,94,47,-355,3916,-0.65,-0.04,27.15,0.47,-3.55,39.16,-5.23,2.98,-33.79,-1.16,2.13,17.53
0,-1,78,87,-422,3938,-0.58,-0.04,24.91,0.87,-4.22,39.38,-5.23,2.97,-33.89,-2.19,0.09,16.78
2,8,100,88,-567,3905,-0.51,0.01,23.03,0.88,-5.67,39.05,-5.24,2.97,-33.98,-2.43,-2.00,13.15
1,5,127,54,-589,3942,-0.45,0.04,21.50,0.54,-5.89,39.42,-5.25,2.96,-34.07,-1.96,-1.13,9.43
-4,-5,275,-93,-624,4055,-0.43,0.00,21.03,-0.93,-6.24,40.55,-5.26,2.96,-34.15,-0.61,1.29,-3.55
-13,-16,318,-98,-632,3848,-0.47,-0.09,20.87,-0.98,-6.32,38.48,-5.28,2.96,-34.23,1.54,3.71,-7.35
-11,-7,436,-50,-553,3854,-0.49,-0.13,21.44,-0.50,-5.53,38.54,-5.29,2.96,-34.32,0.95,1.30,-16.81
-8,5,459,-70,-521,3962,-0.49,-0.08,22.10,-0.70,-5.21,39.62,-5.30,2.95,-34.41,0.19,-1.59,-18.14
-9,6,522,-47,-404,3942,-0.50,-0.04,23.07,-0.47,-4.04,39.42,-5.30,2.94,-34.50,0.42,-1.67,-22.56
-2,14,522,18,-415,3902,-0.46,0.05,23.95,0.18,-4.15,39.02,-5.30,2.94,-34.59,-1.22,-3.37,-21.74
-19,23,532,132,-533,3976,-0.53,0.19,24.80,1.32,-5.33,39.76,-5.31,2.93,-34.69,2.84,-5.15,-21.79
-7,12,542,210,-486,3959,-0.52,0.24,25.62,2.10,-4.86,39.59,-5.31,2.92,-34.79,-0.17,-2.15,-21.86
-15,-12,542,225,-400,3974,-0.56,0.14,26.37,2.25,-4.00,39.74,-5.31,2.91,-34.90,1.71,3.59,-21.16
-24,-2,537,134,-425,3874,-0.65,0.12,27.01,1.34,-4.25,38.74,-5.31,2.91,-35.01,3.66,0.95,-20.14
-8,-3,524,-104,-380,3938,-0.63,0.09,27.50,-1.04,-3.80,39.38,-5.31,2.90,-35.12,-0.35,1.09,-18.57
-7,-1,512,-195,-452,3897,-0.61,0.07,27.88,-1.95,-4.52,38.97,-5.32,2.91,-35.23,-0.52,0.52,-17.21
-10,-4,464,-66,-397,3894,-0.61,0.04,27.92,-0.66,-3.97,38.94,-5.32,2.90,-35.34,0.24,1.17,-13.10
-15,2,449,2,-392,3950,-0.64,0.05,27.87,0.02,-3.92,39.50,-5.32,2.89,-35.45,1.39,-0.33,-11.88
-1,14,372,-8,-330,4024,-0.58,0.13,27.35,-0.08,-3.30,40.24,-5.32,2.89,-35.56,-1.94,-3.07,-5.84
2,6,354,-103,-356,3821,-0.51,0.15,26.77,-1.03,-3.56,38.21,-5.31,2.88,-35.66,-2.44,-0.95,-4.85
3,26,300,-196,-343,3944,-0.44,0.30,25.93,-1.96,-3.43,39.44,-5.29,2.89,-35.77,-2.43,-5.49,-1.08
-2,15,286,-217,-307,3985,-0.41,0.36,25.08,-2.17,-3.07,39.85,-5.27,2.90,-35.87,-1.04,-2.46,-0.69
3,12,294,-178,-411,3955,-0.35,0.40,24.36,-1.78,-4.11,39.55,-5.28,2.90,-35.97,-2.09,-1.56,-2.03
-8,16,314,-102,-471,3814,-0.37,0.45,23.84,-1.02,-4.71,38.14,-5.29,2.90,-36.06,0.66,-2.36,-4.22
11,8,380,9,-408,3890,-0.26,0.46,23.78,0.09,-4.08,38.90,-5.29,2.90,-36.15,-3.78,-0.31,-9.87
-8,6,409,-54,-404,3970,-0.28,0.45,23.89,-0.54,-4.04,39.70,-5.30,2.89,-36.25,0.96,0.16,-12.22
-12,9,495,92,-531,3907,-0.33,0.46,24.52,0.92,-5.31,39.07,-5.30,2.88,-36.35,1.81,-0.56,-18.91
-9,-1,513,162,-487,3966,-0.35,0.41,25.20,1.62,-4.87,39.66,-5.30,2.88,-36.45,0.96,1.78,-19.80
-21,-20,556,97,-615,3884,-0.44,0.24,26.07,0.97,-6.15,38.84,-5.31,2.87,-36.55,3.66,6.00,-22.63
-20,-18,571,164,-571,3961,-0.52,0.11,26.95,1.64,-5.71,39.61,-5.32,2.87,-36.66,3.12,4.99,-23.08
-10,-8,561,86,-523,4072,-0.53,0.05,27.68,0.86,-5.23,40.72,-5.32,2.86,-36.77,0.54,2.22,-21.55
-7,-16,557,72,-463,4014,-0.52,-0.05,28.31,0.72,-4.63,40.14,-5.32,2.86,-36.88,-0.18,3.87,-20.61
-4,11,522,-114,-498,3906,-0.49,0.02,28.66,-1.14,-4.98,39.06,-5.34,2.86,-36.99,-0.84,-2.72,-17.32
-4,22,514,-193,-512,3899,-0.47,0.15,28.93,-1.93,-5.12,38.99,-5.35,2.87,-37.11,-0.75,-5.02,-16.39
-3,10,443,-207,-513,3862,-0.44,0.20,28.74,-2.07,-5.13,38.62,-5.36,2.88,-37.22,-0.89,-1.80,-10.55
-12,5,428,-169,-546,3936,-0.47,0.21,28.48,-1.69,-5.46,39.36,-5.38,2.89,-37.33,1.29,-0.49,-9.53
-7,3,342,-52,-276,3913,-0.46,0.21,27.71,-0.52,-2.76,39.13,-5.37,2.88,-37.44,0.03,0.01,-2.95
-7,5,302,-88,-287,3984,-0.46,0.22,26.78,-0.88,-2.87,39.84,-5.35,2.88,-37.55,0.04,-0.46,-0.44
-5,-8,179,110,-381,3961,-0.45,0.15,25.20,1.10,-3.81,39.61,-5.35,2.87,-37.65,-0.41,2.58,8.49
-1,16,135,127,-432,3944,-0.41,0.23,23.50,1.27,-4.32,39.44,-5.35,2.86,-37.75,-1.28,-3.21,10.63
3,7,74,172,-400,3993,-0.35,0.25,21.60,1.72,-4.00,39.93,-5.35,2.86,-37.83,-2.07,-0.84,14.01
-3,5,69,111,-389,3921,-0.33,0.25,19.86,1.11,-3.89,39.21,-5.35,2.85,-37.91,-0.49,-0.31,12.80
-2,2,36,-40,-335,3910,-0.31,0.24,18.10,-0.40,-3.35,39.10,-5.34,2.84,-37.98,-0.66,0.40,13.94
4,2,19,-13,-346,3941,-0.25,0.23,16.40,-0.13,-3.46,39.41,-5.34,2.82,-38.05,-1.98,0.35,13.79
3,-5,10,6,-427,3927,-0.21,0.18,14.82,0.06,-4.27,39.27,-5.34,2.81,-38.11,-1.56,1.93,13.07
3,-9,11,14,-448,3920,-0.17,0.10,13.41,0.14,-4.48,39.20,-5.34,2.80,-38.16,-1.41,2.68,11.66
0,29,44,1,-125,4224,-0.15,0.27,12.34,0.01,-1.25,42.24,-5.33,2.80,-38.21,-0.58,-6.36,7.85
12,37,67,16,-239,4058,-0.07,0.47,11.51,0.16,-2.39,40.58,-5.31,2.79,-38.26,-3.30,-7.64,5.13
1,9,34,-18,-722,3807,-0.05,0.48,10.57,-0.18,-7.22,38.07,-5.33,2.78,-38.30,-0.45,-0.49,7.04
-8,-18,27,3,-530,3877,-0.10,0.32,9.68,0.03,-5.30,38.77,-5.34,2.78,-38.34,1.67,5.78,6.80
-6,-21,18,-3,-481,3939,-0.12,0.16,8.82,-0.03,-4.81,39.39,-5.35,2.76,-38.37,1.06,5.94,6.75
-3,-20,14,-26,-476,3969,-0.13,0.02,8.02,-0.26,-4.76,39.69,-5.36,2.75,-38.40,0.27,5.16,6.34
-2,-12,9,9,-473,3945,-0.13,-0.05,7.27,0.09,-4.73,39.45,-5.36,2.74,-38.43,0.02,2.85,6.07
-2,-9,6,-5,-483,3949,-0.13,-0.10,6.58,-0.05,-4.83,39.49,-5.37,2.72,-38.46,0.03,1.90,5.67
-4,1,-6,-4,-469,3947,-0.14,-0.09,5.89,-0.04,-4.69,39.47,-5.38,2.71,-38.48,0.49,-0.58,6.04
-5,0,-7,-7,-463,3950,-0.16,-0.08,5.26,-0.07,-4.63,39.50,-5.39,2.69,-38.50,0.68,-0.30,5.53
0,1,-2,14,-444,3917,-0.14,-0.06,4.72,0.14,-4.44,39.17,-5.40,2.68,-38.52,-0.53,-0.50,4.60
1,2,0,23,-437,3910,-0.12,-0.05,4.25,0.23,-4.37,39.10,-5.40,2.66,-38.53,-0.71,-0.68,3.99
2,-4,4,20,-451,3918,-0.10,-0.07,3.85,0.20,-4.51,39.18,-5.41,2.65,-38.55,-0.87,0.77,3.27
2,-7,4,9,-452,3938,-0.07,-0.10,3.49,0.09,-4.52,39.38,-5.41,2.63,-38.56,-0.79,1.40,2.93
-1,-8,2,19,-457,3934,-0.07,-0.14,3.15,0.19,-4.57,39.34,-5.42,2.61,-38.58,-0.02,1.50,2.79
-1,-8,2,11,-450,3925,-0.07,-0.18,2.85,0.11,-4.50,39.25,-5.43,2.60,-38.59,-0.02,1.37,2.50
-2,-6,0,8,-465,3928,-0.08,-0.19,2.56,0.08,-4.65,39.28,-5.44,2.58,-38.60,0.22,0.79,2.41
-2,-4,-1,8,-472,3939,-0.08,-0.20,2.30,0.08,-4.72,39.39,-5.44,2.57,-38.61,0.20,0.27,2.24
2,-5,-2,-33,-502,3978,-0.06,-0.21,2.06,-0.33,-5.02,39.78,-5.46,2.55,-38.61,-0.74,0.48,2.10
0,-10,-2,7,-451,3905,-0.05,-0.25,1.84,0.07,-4.51,39.05,-5.46,2.53,-38.62,-0.21,1.60,1.90
0,-3,-7,3,-492,3922,-0.05,-0.24,1.61,0.03,-4.92,39.22,-5.47,2.52,-38.63,-0.19,-0.15,2.11
2,-7,-12,-24,-505,3898,-0.03,-0.26,1.38,-0.24,-5.05,38.98,-5.48,2.50,-38.63,-0.63,0.79,2.31
2,-12,-17,-16,-463,3934,-0.02,-0.31,1.14,-0.16,-4.63,39.34,-5.49,2.49,-38.64,-0.57,1.89,2.51
5,-11,-24,-30,-484,3925,0.02,-0.34,0.88,-0.30,-4.84,39.25,-5.50,2.47,-38.64,-1.21,1.50,2.86
1,-7,-40,2,-473,3945,0.02,-0.35,0.55,0.02,-4.73,39.45,-5.51,2.45,-38.64,-0.18,0.45,3.90
2,-6,-41,-8,-496,3937,0.03,-0.35,0.24,-0.08,-4.96,39.37,-5.52,2.44,-38.64,-0.39,0.19,3.70
2,-5,-57,43,-527,3918,0.04,-0.35,-0.13,0.43,-5.27,39.18,-5.53,2.42,-38.64,-0.36,-0.05,4.71
-3,-3,-62,64,-533,3943,0.02,-0.33,-0.50,0.64,-5.33,39.43,-5.54,2.40,-38.64,0.83,-0.49,4.79
0,-2,-72,-3,-505,3936,0.02,-0.31,-0.89,-0.03,-5.05,39.36,-5.55,2.39,-38.63,0.06,-0.67,5.27
1,1,-73,4,-536,3937,0.02,-0.27,-1.24,0.04,-5.36,39.37,-5.57,2.37,-38.63,-0.18,-1.29,5.02
-5,-8,-111,38,-489,3954,-0.01,-0.30,-1.80,0.38,-4.89,39.54,-5.57,2.36,-38.62,1.22,0.92,7.72
-4,-9,-125,80,-481,3971,-0.04,-0.32,-2.38,0.80,-4.81,39.71,-5.58,2.34,-38.61,0.88,1.08,8.36
-3,-1,-156,50,-526,3917,-0.05,-0.30,-3.09,0.50,-5.26,39.17,-5.59,2.32,-38.60,0.57,-0.86,10.31
-4,4,-179,106,-541,3886,-0.07,-0.24,-3.87,1.06,-5.41,38.86,-5.60,2.30,-38.58,0.75,-1.93,11.53
3,-6,-265,197,-449,3936,-0.04,-0.25,-5.10,1.97,-4.49,39.36,-5.61,2.28,-38.56,-0.93,0.57,17.66
19,-9,-296,211,-441,3910,0.08,-0.28,-6.40,2.11,-4.41,39.10,-5.61,2.26,-38.54,-4.54,1.22,19.07
13,-13,-431,112,-385,3880,0.15,-0.33,-8.39,1.12,-3.85,38.80,-5.61,2.23,-38.50,-2.75,2.05,28.64
10,-10,-479,34,-297,3945,0.19,-0.36,-10.47,0.34,-2.97,39.45,-5.60,2.21,-38.46,-1.81,1.18,30.75
6,-16,-760,-122,30,4035,0.21,-0.42,-14.06,-1.22,0.30,40.35,-5.59,2.20,-38.41,-0.73,2.47,51.19
32,-11,-850,-84,-105,3880,0.39,-0.45,-17.84,-0.84,-1.05,38.80,-5.57,2.19,-38.34,-6.68,1.11,55.26
25,7,-1101,-126,-337,3897,0.50,-0.36,-22.77,-1.26,-3.37,38.97,-5.56,2.17,-38.25,-4.47,-3.14,71.90
34,12,-1135,-136,-389,3901,0.66,-0.25,-27.42,-1.36,-3.89,39.01,-5.57,2.15,-38.14,-6.17,-4.00,70.42
35,4,-1232,-30,-371,3915,0.80,-0.20,-32.19,-0.30,-3.71,39.15,-5.57,2.11,-38.01,-5.87,-1.78,74.15
34,7,-1270,-51,-341,3967,0.93,-0.14,-36.72,-0.51,-3.41,39.67,-5.56,2.08,-37.86,-5.13,-2.30,73.12
45,-21,-1277,50,-432,4009,1.11,-0.25,-40.84,0.50,-4.32,40.09,-5.57,2.05,-37.70,-7.25,4.38,69.85
22,-21,-1256,22,-569,3866,1.14,-0.36,-44.41,0.22,-5.69,38.66,-5.58,2.02,-37.52,-1.31,4.00,64.71
7,-13,-1120,-40,-547,4008,1.06,-0.40,-46.81,-0.40,-5.47,40.08,-5.60,1.99,-37.34,2.23,1.80,50.94
43,-9,-1077,-60,-594,3916,1.22,-0.41,-48.69,-0.60,-5.94,39.16,-5.62,1.96,-37.14,-6.33,0.73,45.53
5,-17,-885,-102,-604,4060,1.13,-0.48,-49.22,-1.02,-6.04,40.60,-5.64,1.94,-36.95,2.98,2.53,28.76
20,-19,-831,-45,-562,3919,1.14,-0.54,-49.37,-0.45,-5.62,39.19,-5.66,1.91,-36.75,-0.80,2.78,24.05
9,10,-658,-23,-613,3831,1.08,-0.43,-48.45,-0.23,-6.13,38.31,-5.68,1.88,-36.56,1.78,-4.16,10.26
21,8,-628,-75,-564,3938,1.10,-0.34,-47.43,-0.75,-5.64,39.38,-5.70,1.85,-36.37,-1.20,-3.31,8.67
10,-1,-521,-91,-508,3931,1.05,-0.31,-45.87,-0.91,-5.08,39.31,-5.72,1.83,-36.18,1.42,-0.91,1.08
15,-2,-484,-112,-563,3927,1.04,-0.29,-44.23,-1.12,-5.63,39.27,-5.74,1.81,-36.01,0.09,-0.59,-0.52
7,-5,-391,-86,-527,3940,0.98,-0.29,-42.20,-0.86,-5.27,39.40,-5.75,1.78,-35.84,1.90,0.17,-6.49
9,-2,-367,-15,-502,4005,0.93,-0.28,-40.21,-0.15,-5.02,40.05,-5.77,1.75,-35.68,1.23,-0.53,-6.66
10,4,-327,30,-471,3960,0.90,-0.22,-38.19,0.30,-4.71,39.60,-5.78,1.72,-35.53,0.85,-1.86,-8.15
3,1,-327,0,-448,3919,0.83,-0.20,-36.36,0.00,-4.48,39.19,-5.78,1.69,-35.38,2.36,-0.99,-6.44
8,-1,-368,-32,-408,3870,0.80,-0.18,-34.97,-0.32,-4.08,38.70,-5.79,1.65,-35.24,0.96,-0.43,-1.66
11,11,-377,-6,-438,3902,0.78,-0.10,-33.77,-0.06,-4.38,39.02,-5.80,1.62,-35.11,0.15,-3.16,0.23
-1,-8,-343,139,-430,3925,0.70,-0.14,-32.49,1.39,-4.30,39.25,-5.80,1.59,-34.98,2.88,1.52,-1.44
2,3,-340,121,-430,3876,0.64,-0.10,-31.31,1.21,-4.30,38.76,-5.80,1.56,-34.85,1.90,-1.15,-0.60
4,2,-250,99,-378,3994,0.60,-0.08,-29.71,0.99,-3.78,39.94,-5.80,1.53,-34.74,1.25,-0.81,-6.71
9,10,-194,17,-367,3933,0.60,-0.01,-27.92,0.17,-3.67,39.33,-5.80,1.50,-34.62,-0.04,-2.59,-9.78
6,8,-228,82,-366,3943,0.57,0.04,-26.52,0.82,-3.66,39.43,-5.79,1.47,-34.52,0.63,-1.89,-5.58
9,2,-265,101,-349,3962,0.57,0.05,-25.48,1.01,-3.49,39.62,-5.79,1.44,-34.42,-0.14,-0.33,-1.48
18,-3,-445,117,-517,3958,0.62,0.02,-25.65,1.17,-5.17,39.58,-5.80,1.42,-34.32,-2.23,0.85,13.62
14,2,-505,-50,-372,3864,0.65,0.03,-26.17,-0.50,-3.72,38.64,-5.79,1.39,-34.21,-1.12,-0.38,18.22
14,-12,-690,110,-370,3997,0.67,-0.04,-27.76,1.10,-3.70,39.97,-5.79,1.36,-34.10,-1.05,2.89,32.40
-2,-22,-736,91,-440,3963,0.59,-0.17,-29.47,0.91,-4.40,39.63,-5.79,1.33,-33.98,2.72,4.94,34.68
16,-12,-853,109,-408,4034,0.63,-0.23,-31.73,1.09,-4.08,40.34,-5.79,1.30,-33.86,-1.71,2.19,42.48
26,-12,-878,110,-390,4003,0.72,-0.28,-33.91,1.10,-3.90,40.03,-5.79,1.27,-33.72,-3.89,2.00,42.55
20,-6,-955,54,-347,3978,0.77,-0.29,-36.35,0.54,-3.47,39.78,-5.78,1.23,-33.58,-2.17,0.44,46.79
16,5,-1006,87,-324,3900,0.79,-0.23,-38.85,0.87,-3.24,39.00,-5.78,1.20,-33.42,-1.08,-2.13,48.76
24,-16,-1071,-186,-367,3803,0.86,-0.30,-41.50,-1.86,-3.67,38.03,-5.77,1.20,-33.26,-2.86,2.92,51.78
8,-16,-1091,-182,-506,3842,0.82,-0.37,-44.00,-1.82,-5.06,38.42,-5.79,1.19,-33.08,1.07,2.67,51.12
21,-8,-1104,-189,-490,3927,0.87,-0.38,-46.34,-1.89,-4.90,39.27,-5.80,1.19,-32.90,-2.07,0.59,50.03
9,-18,-1095,-181,-467,3861,0.84,-0.45,-48.38,-1.81,-4.67,38.61,-5.81,1.18,-32.71,0.86,2.87,47.35
2,-13,-1026,-112,-570,3946,0.77,-0.49,-49.80,-1.12,-5.70,39.46,-5.83,1.16,-32.51,2.37,1.47,40.17
30,-6,-1006,-124,-531,3894,0.87,-0.48,-50.96,-1.24,-5.31,38.94,-5.85,1.14,-32.30,-4.34,-0.27,37.39
7,-2,-888,-130,-590,3999,0.83,-0.44,-51.28,-1.30,-5.90,39.99,-5.87,1.13,-32.10,1.34,-1.15,27.09
12,-8,-862,-97,-534,3898,0.82,-0.45,-51.41,-0.97,-5.34,38.98,-5.89,1.10,-31.90,0.03,0.36,24.76
9,1,-832,27,-497,3821,0.79,-0.39,-51.34,0.27,-4.97,38.21,-5.90,1.07,-31.69,0.69,-1.74,22.28
17,-3,-854,57,-400,3859,0.82,-0.37,-51.42,0.57,-4.00,38.59,-5.90,1.03,-31.49,-1.25,-0.64,24.08
7,-18,-884,13,-436,4015,0.78,-0.45,-51.67,0.13,-4.36,40.15,-5.91,0.99,-31.28,1.15,2.90,26.38
0,-4,-895,-6,-455,3824,0.70,-0.43,-51.96,-0.06,-4.55,38.24,-5.92,0.95,-31.07,2.63,-0.59,27.04
19,1,-984,-84,-350,3858,0.74,-0.38,-52.77,-0.84,-3.50,38.58,-5.90,0.93,-30.87,-2.02,-1.67,33.82
8,-2,-1014,-122,-370,3973,0.72,-0.35,-53.68,-1.22,-3.70,39.73,-5.89,0.93,-30.65,0.68,-0.82,35.51
8,8,-1106,-124,-381,3927,0.70,-0.27,-55.06,-1.24,-3.81,39.27,-5.89,0.92,-30.43,0.59,-3.04,42.01
24,-15,-1123,-57,-381,4041,0.77,-0.33,-56.40,-0.57,-3.81,40.41,-5.87,0.89,-30.21,-3.19,2.56,42.19
25,-21,-1158,-68,-287,3850,0.85,-0.43,-57.82,-0.68,-2.87,38.50,-5.85,0.87,-29.98,-3.16,3.73,43.82
18,-7,-1164,-15,-408,3883,0.87,-0.43,-59.14,-0.15,-4.08,38.83,-5.86,0.82,-29.74,-1.29,0.17,43.09
-2,-8,-1167,26,-415,3850,0.77,-0.43,-60.35,0.26,-4.15,38.50,-5.86,0.78,-29.50,3.42,0.40,42.21
24,-15,-1169,71,-390,4031,0.84,-0.48,-61.44,0.71,-3.90,40.31,-5.86,0.73,-29.26,-2.93,2.00,41.35
4,-19,-1176,71,-460,3890,0.78,-0.55,-62.47,0.71,-4.60,38.90,-5.86,0.69,-29.01,1.93,2.76,40.98
7,-12,-1186,-44,-451,3921,0.75,-0.57,-63.46,-0.44,-4.51,39.21,-5.88,0.66,-28.76,1.04,0.91,40.90
34,-27,-1198,-96,-423,3930,0.88,-0.68,-64.42,-0.96,-4.23,39.30,-5.89,0.65,-28.50,-5.33,4.32,41.01
23,-25,-1190,-87,-365,4038,0.93,-0.76,-65.24,-0.87,-3.65,40.38,-5.87,0.63,-28.24,-2.33,3.49,39.57
31,-29,-1185,-126,-408,4000,1.03,-0.86,-65.94,-1.26,-4.08,40.00,-5.87,0.62,-27.98,-4.01,4.13,38.48
31,-26,-1181,-118,-323,3934,1.11,-0.93,-66.55,-1.18,-3.23,39.34,-5.86,0.60,-27.72,-3.68,3.09,37.57
22,-42,-1167,-145,-457,4053,1.14,-1.10,-67.02,-1.45,-4.57,40.53,-5.86,0.59,-27.45,-1.31,6.54,35.95
17,-37,-1157,-137,-328,3858,1.13,-1.21,-67.37,-1.37,-3.28,38.58,-5.85,0.57,-27.18,-0.08,4.84,34.77
10,-36,-1090,-113,-509,4153,1.08,-1.31,-67.28,-1.13,-5.09,41.53,-5.86,0.55,-26.92,1.51,4.21,29.17
3,-3,-1054,-101,-545,3848,0.99,-1.20,-66.99,-1.01,-5.45,38.48,-5.88,0.52,-26.65,2.95,-3.75,26.41
23,-22,-1005,-59,-453,3958,1.03,-1.21,-66.42,-0.59,-4.53,39.58,-5.89,0.50,-26.39,-1.97,1.02,22.79
18,-27,-993,-26,-560,3932,1.03,-1.26,-65.83,-0.26,-5.60,39.32,-5.91,0.47,-26.12,-0.68,2.13,22.32
11,-7,-938,17,-568,3913,1.00,-1.17,-64.97,0.17,-5.68,39.13,-5.92,0.43,-25.87,0.97,-2.64,18.47
29,-16,-930,16,-456,4037,1.08,-1.15,-64.15,0.16,-4.56,40.37,-5.93,0.38,-25.61,-3.32,-0.28,18.56
5,3,-874,-74,-494,3888,1.00,-1.02,-63.06,-0.74,-4.94,38.88,-5.95,0.36,-25.36,2.49,-4.60,14.84
12,-2,-858,-49,-503,4090,0.97,-0.93,-61.99,-0.49,-5.03,40.90,-5.96,0.34,-25.11,0.61,-2.99,14.49
3,-8,-820,-82,-462,3958,0.89,-0.89,-60.79,-0.82,-4.62,39.58,-5.97,0.32,-24.87,2.60,-1.30,12.39
-4,-12,-820,-118,-567,3838,0.78,-0.87,-59.72,-1.18,-5.67,38.38,-5.98,0.30,-24.64,3.95,-0.23,13.40
16,-11,-817,-62,-474,3818,0.80,-0.85,-58.73,-0.62,-4.74,38.18,-6.00,0.28,-24.40,-1.06,-0.41,14.08
15,-17,-814,-46,-502,4025,0.81,-0.87,-57.82,-0.46,-5.02,40.25,-6.01,0.26,-24.17,-0.76,1.05,14.68
4,-11,-785,-5,-308,3986,0.75,-0.85,-56.83,-0.05,-3.08,39.86,-5.99,0.23,-23.95,1.82,-0.40,13.15
6,15,-787,-33,-473,3756,0.72,-0.67,-55.95,-0.33,-4.73,37.56,-6.01,0.21,-23.72,1.17,-6.35,14.15
16,9,-796,-81,-362,3881,0.74,-0.55,-55.21,-0.81,-3.62,38.81,-6.00,0.20,-23.51,-1.27,-4.36,15.61
3,-4,-805,-97,-433,4006,0.69,-0.52,-54.60,-0.97,-4.33,40.06,-6.00,0.19,-23.29,1.82,-0.94,16.94
8,-24,-827,-59,-356,4072,0.67,-0.61,-54.18,-0.59,-3.56,40.72,-5.98,0.18,-23.07,0.47,3.79,19.19
8,-6,-836,-139,-399,3745,0.65,-0.59,-53.86,-1.39,-3.99,37.45,-5.98,0.17,-22.86,0.41,-0.70,20.26
24,-8,-895,-50,-305,3836,0.73,-0.58,-53.94,-0.50,-3.05,38.36,-5.96,0.15,-22.64,-3.35,-0.15,25.19
21,0,-924,-44,-353,3941,0.78,-0.52,-54.18,-0.44,-3.53,39.41,-5.94,0.14,-22.43,-2.38,-1.96,27.42
23,-5,-1063,-76,-331,3960,0.85,-0.50,-55.25,-0.76,-3.31,39.60,-5.92,0.13,-22.21,-2.66,-0.61,38.19
5,-15,-1140,-47,-335,3877,0.79,-0.54,-56.67,-0.47,-3.35,38.77,-5.91,0.11,-21.98,1.71,1.77,43.37
26,-24,-1263,-22,-300,3866,0.87,-0.63,-58.71,-0.22,-3.00,38.66,-5.88,0.09,-21.75,-3.32,3.71,51.88
29,-12,-1296,-133,-362,3880,0.96,-0.64,-60.75,-1.33,-3.62,38.80,-5.88,0.08,-21.51,-3.75,0.63,52.77
17,-22,-1373,-157,-328,3893,0.97,-0.71,-63.05,-1.57,-3.28,38.93,-5.86,0.06,-21.26,-0.67,2.90,57.13
14,-31,-1392,-153,-277,3984,0.96,-0.83,-65.23,-1.53,-2.77,39.84,-5.85,0.05,-21.00,0.05,4.75,56.69
12,-36,-1422,-191,-373,3848,0.93,-0.97,-67.38,-1.91,-3.73,38.48,-5.84,0.03,-20.73,0.47,5.51,57.21
9,-16,-1430,-205,-344,3902,0.90,-0.97,-69.37,-2.05,-3.44,39.02,-5.83,0.02,-20.46,1.09,0.42,56.02
30,-34,-1454,-224,-309,3988,0.99,-1.08,-71.30,-2.24,-3.09,39.88,-5.82,0.00,-20.17,-3.90,4.58,56.24
33,-15,-1447,-233,-300,3831,1.09,-1.06,-73.00,-2.33,-3.00,38.31,-5.81,-0.01,-19.88,-4.27,-0.19,54.06
55,-12,-1441,91,-515,4020,1.32,-1.03,-74.49,0.91,-5.15,40.20,-5.82,-0.06,-19.59,-9.01,-0.83,52.15
43,-18,-1430,169,-617,4064,1.45,-1.04,-75.76,1.69,-6.17,40.64,-5.83,-0.11,-19.29,-5.47,0.67,50.02
20,3,-1422,185,-579,3859,1.43,-0.91,-76.86,1.85,-5.79,38.59,-5.84,-0.15,-18.98,0.29,-4.21,48.31
23,-9,-1429,220,-584,3962,1.42,-0.88,-77.89,2.20,-5.84,39.62,-5.84,-0.20,-18.67,-0.48,-1.02,47.94
-4,17,-1437,251,-523,3841,1.26,-0.69,-78.87,2.51,-5.23,38.41,-5.84,-0.25,-18.36,5.75,-6.91,47.70
22,2,-1437,188,-554,3898,1.27,-0.61,-79.75,1.88,-5.54,38.98,-5.85,-0.30,-18.04,-0.83,-2.79,46.87
20,-29,-1417,31,-478,3995,1.26,-0.72,-80.42,0.31,-4.78,39.95,-5.86,-0.34,-17.72,-0.33,4.65,44.55
44,-14,-1410,4,-343,3981,1.40,-0.74,-80.98,0.04,-3.43,39.81,-5.83,-0.37,-17.40,-5.90,0.79,43.43
21,-32,-1390,-77,-337,4071,1.39,-0.86,-81.36,-0.77,-3.37,40.71,-5.82,-0.39,-17.08,-0.10,4.91,41.38
16,-27,-1379,-43,-412,3895,1.35,-0.94,-81.63,-0.43,-4.12,38.95,-5.81,-0.41,-16.75,1.02,3.34,40.19
36,-32,-1341,-5,-316,4110,1.43,-1.04,-81.65,-0.05,-3.16,41.10,-5.79,-0.44,-16.43,-3.75,4.23,36.95
-4,-6,-1321,-51,-429,3925,1.27,-0.97,-81.54,-0.51,-4.29,39.25,-5.79,-0.46,-16.10,5.79,-2.13,35.36
16,-25,-1312,-80,-273,3959,1.24,-1.03,-81.39,-0.80,-2.73,39.59,-5.76,-0.49,-15.78,0.59,2.49,34.74
6,-9,-1300,-130,-351,3885,1.15,-0.98,-81.18,-1.30,-3.51,38.85,-5.75,-0.51,-15.46,2.81,-1.40,33.92
34,-18,-1275,-141,-219,3900,1.24,-0.99,-80.84,-1.41,-2.19,39.00,-5.73,-0.53,-15.13,-3.96,0.85,32.12
31,0,-1267,-185,-340,3900,1.31,-0.89,-80.49,-1.85,-3.40,39.00,-5.72,-0.55,-14.81,-2.95,-3.36,31.78
27,-15,-1255,-109,-326,3901,1.34,-0.89,-80.09,-1.09,-3.26,39.01,-5.70,-0.57,-14.50,-1.81,0.45,31.13
18,-22,-1257,-151,-385,3897,1.32,-0.94,-79.75,-1.51,-3.85,38.97,-5.69,-0.58,-14.18,0.39,2.06,31.62
26,-6,-1299,-102,-422,3995,1.34,-0.88,-79.70,-1.02,-4.22,39.95,-5.69,-0.60,-13.86,-1.55,-1.79,35.22
15,-33,-1321,-83,-396,3997,1.30,-0.99,-79.79,-0.83,-3.96,39.97,-5.68,-0.62,-13.54,1.09,4.64,37.01
17,-20,-1439,-96,-467,3888,1.27,-1.02,-80.59,-0.96,-4.67,38.88,-5.68,-0.64,-13.22,0.48,1.25,46.25
32,-16,-1498,-74,-436,4029,1.34,-1.01,-81.67,-0.74,-4.36,40.29,-5.68,-0.66,-12.90,-3.08,0.25,50.24
22,-2,-1579,13,-429,4065,1.34,-0.92,-83.13,0.13,-4.29,40.65,-5.68,-0.68,-12.57,-0.54,-2.97,55.72
29,-26,-1582,-6,-383,3855,1.38,-0.99,-84.47,-0.06,-3.83,38.55,-5.67,-0.70,-12.23,-2.15,2.88,54.72
40,-3,-1577,-83,-365,3698,1.49,-0.91,-85.64,-0.83,-3.65,36.98,-5.66,-0.72,-11.89,-4.55,-2.66,53.20
25,1,-1573,-139,-446,3924,1.49,-0.81,-86.67,-1.39,-4.46,39.24,-5.65,-0.74,-11.55,-0.73,-3.31,51.89
17,-19,-1568,-147,-433,3926,1.45,-0.85,-87.57,-1.47,-4.33,39.26,-5.65,-0.76,-11.20,1.13,1.64,50.63
28,-32,-1563,-89,-404,3999,1.47,-0.96,-88.35,-0.89,-4.04,39.99,-5.64,-0.78,-10.85,-1.56,4.53,49.47
42,-30,-1546,-38,-416,4083,1.58,-1.04,-88.94,-0.38,-4.16,40.83,-5.63,-0.80,-10.50,-4.71,3.69,47.47
20,-33,-1540,-71,-381,3927,1.55,-1.14,-89.44,-0.71,-3.81,39.27,-5.62,-0.82,-10.14,0.74,4.09,46.50
36,-13,-1524,-120,-450,3967,1.61,-1.11,-89.80,-1.20,-4.50,39.67,-5.61,-0.84,-9.78,-3.08,-0.86,44.81
10,-28,-1517,-175,-492,3908,1.51,-1.17,-90.07,-1.75,-4.92,39.08,-5.61,-0.86,-9.42,3.15,2.72,43.96
33,-22,-1486,-230,-374,3884,1.56,-1.18,-90.13,-2.30,-3.74,38.84,-5.59,-0.89,-9.07,-2.51,1.13,41.28
41,-5,-1468,-155,-396,4001,1.66,-1.10,-90.07,-1.55,-3.96,40.01,-5.58,-0.91,-8.71,-4.18,-2.86,39.81
25,-27,-1394,-172,-268,3892,1.64,-1.15,-89.57,-1.72,-2.68,38.92,-5.56,-0.93,-8.35,-0.17,2.53,34.01
4,-9,-1371,-260,-306,3866,1.50,-1.09,-88.97,-2.60,-3.06,38.66,-5.55,-0.95,-8.00,4.64,-1.82,32.62
15,-12,-1354,-166,-276,3901,1.44,-1.06,-88.33,-1.66,-2.76,39.01,-5.53,-0.97,-7.65,1.63,-0.92,31.78
26,-25,-1369,-107,-411,3991,1.46,-1.10,-87.85,-1.07,-4.11,39.91,-5.52,-0.99,-7.30,-1.12,2.20,33.50
20,-53,-1483,-116,-544,4097,1.43,-1.32,-88.11,-1.16,-5.44,40.97,-5.52,-1.02,-6.95,0.32,8.52,42.91
9,-79,-1530,-52,-582,3867,1.35,-1.67,-88.63,-0.52,-5.82,38.67,-5.52,-1.05,-6.59,2.78,13.81,46.41
25,-37,-1737,-18,-717,4009,1.36,-1.72,-90.37,-0.18,-7.17,40.09,-5.53,-1.08,-6.24,-1.22,2.91,62.32
11,-33,-1821,-82,-747,3879,1.29,-1.75,-92.44,-0.82,-7.47,38.79,-5.53,-1.12,-5.87,2.08,1.78,67.49
53,-38,-1916,33,-705,3977,1.49,-1.81,-94.88,0.33,-7.05,39.77,-5.54,-1.16,-5.49,-7.87,2.84,73.24
49,-8,-1921,-71,-777,3853,1.64,-1.68,-97.11,-0.71,-7.77,38.53,-5.54,-1.20,-5.11,-6.28,-4.29,71.57
8,-23,-1856,-159,-549,3882,1.52,-1.65,-98.72,-1.59,-5.49,38.82,-5.54,-1.23,-4.71,3.70,-0.37,64.56
-1,-21,-1812,-193,-625,3863,1.36,-1.61,-99.90,-1.93,-6.25,38.63,-5.53,-1.26,-4.32,5.40,-0.74,59.72
2,-21,-1622,-101,-540,3826,1.24,-1.58,-99.81,-1.01,-5.40,38.26,-5.53,-1.29,-3.92,4.16,-0.61,43.71
33,-8,-1571,-52,-505,3967,1.32,-1.47,-99.41,-0.52,-5.05,39.67,-5.53,-1.32,-3.53,-3.42,-3.51,39.76
34,-12,-1376,72,-536,3914,1.39,-1.40,-97.86,0.72,-5.36,39.14,-5.53,-1.36,-3.14,-3.39,-2.21,24.70
26,-5,-1326,68,-465,3949,1.41,-1.29,-96.16,0.68,-4.65,39.49,-5.54,-1.40,-2.75,-1.29,-3.58,22.05
12,2,-1169,25,-573,3879,1.34,-1.15,-93.68,0.25,-5.73,38.79,-5.54,-1.43,-2.38,2.01,-4.83,11.09
25,-15,-1123,52,-524,3933,1.36,-1.12,-91.16,0.52,-5.24,39.33,-5.54,-1.47,-2.02,-1.22,-0.42,9.55
7,-7,-1063,-109,-572,3924,1.27,-1.05,-88.53,-1.09,-5.72,39.24,-5.54,-1.49,-1.67,3.00,-2.19,6.94
7,-11,-1054,-117,-554,3889,1.18,-1.02,-86.11,-1.17,-5.54,38.89,-5.54,-1.52,-1.33,2.68,-1.03,8.45
24,-19,-1027,-123,-461,3909,1.21,-1.03,-83.76,-1.23,-4.61,39.09,-5.53,-1.53,-0.99,-1.53,0.95,8.37
13,-12,-1011,-155,-523,3900,1.17,-1.00,-81.55,-1.55,-5.23,39.00,-5.53,-1.55,-0.67,1.11,-0.72,9.09
15,-8,-963,-31,-362,4042,1.15,-0.95,-79.27,-0.31,-3.62,40.42,-5.51,-1.57,-0.35,0.50,-1.54,7.16
18,-15,-938,1,-316,3936,1.14,-0.95,-77.07,0.01,-3.16,39.36,-5.49,-1.59,-0.05,-0.28,0.25,7.11
12,2,-888,21,-241,3978,1.10,-0.84,-74.78,0.21,-2.41,39.78,-5.46,-1.61,0.25,1.09,-3.67,5.03
10,3,-884,23,-237,3916,1.05,-0.74,-72.69,0.23,-2.37,39.16,-5.43,-1.63,0.54,1.42,-3.54,6.65
11,68,-869,174,-191,3924,1.01,-0.25,-70.72,1.74,-1.91,39.24,-5.40,-1.66,0.82,1.02,-18.22,7.22
16,31,-852,196,-214,4045,1.01,-0.03,-68.85,1.96,-2.14,40.45,-5.37,-1.70,1.10,-0.27,-8.01,7.54
-9,4,-860,22,-230,4017,0.85,-0.01,-67.21,0.22,-2.30,40.17,-5.35,-1.71,1.37,5.50,-1.04,9.76
-4,3,-861,-2,-208,3882,0.74,0.01,-65.74,-0.02,-2.08,38.82,-5.32,-1.73,1.63,3.82,-0.72,11.22
-2,-18,-881,-62,-270,3953,0.66,-0.10,-64.54,-0.62,-2.70,39.53,-5.30,-1.73,1.89,2.98,4.20,14.04
-1,-4,-883,-75,-324,3864,0.59,-0.11,-63.47,-0.75,-3.24,38.64,-5.29,-1.74,2.14,2.46,0.59,15.22
25,-16,-879,-3,-316,3935,0.68,-0.20,-62.49,-0.03,-3.16,39.35,-5.27,-1.75,2.39,-3.80,3.32,15.80
16,-26,-878,35,-296,3886,0.71,-0.34,-61.59,0.35,-2.96,38.86,-5.25,-1.76,2.63,-1.40,5.33,16.56
5,-12,-852,-8,-353,3896,0.67,-0.38,-60.63,-0.08,-3.53,38.96,-5.24,-1.76,2.88,1.25,1.63,15.26
14,-11,-842,-37,-307,3973,0.69,-0.41,-59.70,-0.37,-3.07,39.73,-5.22,-1.77,3.11,-0.97,1.26,15.28
22,-10,-788,-83,-350,3934,0.75,-0.43,-58.54,-0.83,-3.50,39.34,-5.21,-1.77,3.35,-2.76,0.93,11.80
23,-9,-755,-66,-336,3912,0.82,-0.44,-57.29,-0.66,-3.36,39.12,-5.20,-1.78,3.57,-2.77,0.63,10.17
19,-13,-700,-110,-350,3913,0.85,-0.47,-55.83,-1.10,-3.50,39.13,-5.19,-1.78,3.80,-1.62,1.52,6.88
25,-19,-685,-96,-321,3939,0.92,-0.54,-54.43,-0.96,-3.21,39.39,-5.17,-1.78,4.01,-2.89,2.78,6.93
10,-9,-618,-171,-370,3942,0.89,-0.54,-52.76,-1.71,-3.70,39.42,-5.17,-1.79,4.22,0.80,0.24,2.83
9,-11,-600,-157,-359,3880,0.85,-0.56,-51.14,-1.57,-3.59,38.80,-5.16,-1.79,4.43,0.93,0.70,2.82
5,-2,-542,-184,-410,3864,0.80,-0.51,-49.33,-1.84,-4.10,38.64,-5.15,-1.79,4.62,1.74,-1.42,-0.40
9,-11,-530,-151,-470,3938,0.77,-0.53,-47.63,-1.51,-4.70,39.38,-5.15,-1.79,4.81,0.63,0.80,0.18
-5,-8,-480,-48,-467,3938,0.67,-0.52,-45.80,-0.48,-4.67,39.38,-5.15,-1.80,5.00,3.78,0.06,-2.33
-1,-4,-460,-16,-459,3981,0.59,-0.50,-44.02,-0.16,-4.59,39.81,-5.15,-1.80,5.17,2.49,-0.85,-2.36
-10,1,-392,72,-453,3968,0.47,-0.44,-42.01,0.72,-4.53,39.68,-5.16,-1.81,5.34,4.32,-1.91,-6.23
-42,0,-355,90,-454,3988,0.17,-0.40,-39.98,0.90,-4.54,39.88,-5.17,-1.82,5.50,11.31,-1.49,-7.46
-233,0,-271,132,-572,4034,-1.27,-0.36,-37.63,1.32,-5.72,40.34,-5.19,-1.83,5.64,54.44,-1.35,-12.37
-125,13,-253,128,-606,3789,-1.90,-0.24,-35.41,1.28,-6.06,37.89,-5.21,-1.85,5.79,24.60,-4.22,-11.81
-43,9,-190,43,-508,3894,-1.98,-0.16,-33.03,0.43,-5.08,38.94,-5.23,-1.85,5.92,3.49,-2.90,-14.91
-29,-1,-221,-14,-414,3772,-1.96,-0.15,-31.07,-0.14,-4.14,37.72,-5.24,-1.85,6.04,0.01,-0.32,-10.45
1,-18,-307,-152,-554,3995,-1.75,-0.25,-29.84,-1.52,-5.54,39.95,-5.26,-1.84,6.16,-6.86,3.64,-2.01
3,-14,-320,-178,-608,3923,-1.56,-0.31,-28.81,-1.78,-6.08,39.23,-5.27,-1.84,6.27,-6.64,2.40,0.06
4,-11,-92,-49,-251,3987,-1.38,-0.34,-26.49,-0.49,-2.51,39.87,-5.26,-1.84,6.38,-6.21,1.50,-17.08
-12,-56,-1,-293,-320,3852,-1.31,-0.65,-23.85,-2.93,-3.20,38.52,-5.26,-1.83,6.47,-1.90,11.78,-22.30
27,-23,237,46,-453,3926,-1.02,-0.73,-20.02,0.46,-4.53,39.26,-5.28,-1.83,6.55,-10.70,3.11,-38.87
27,-62,281,124,-255,3953,-0.75,-1.03,-16.30,1.24,-2.55,39.53,-5.26,-1.84,6.62,-9.70,11.87,-39.11
97,-25,380,133,-310,3800,-0.09,-1.08,-12.35,1.33,-3.10,38.00,-5.24,-1.85,6.67,-24.98,2.28,-43.79
133,-23,399,158,-313,3744,0.73,-1.11,-8.68,1.58,-3.13,37.44,-5.23,-1.87,6.70,-31.04,1.65,-41.96
77,-19,476,146,-290,4253,1.13,-1.12,-4.91,1.46,-2.90,42.53,-5.20,-1.88,6.72,-15.31,0.62,-44.94
40,-40,477,142,-310,4016,1.26,-1.25,-1.51,1.42,-3.10,40.16,-5.18,-1.89,6.73,-5.41,5.46,-41.83
0,-3,524,97,-297,4078,1.14,-1.14,1.84,0.97,-2.97,40.78,-5.16,-1.88,6.72,4.28,-3.55,-42.67
-2,-4,528,115,-291,3891,1.01,-1.05,4.87,1.15,-2.91,38.91,-5.14,-1.88,6.70,4.31,-2.95,-40.16
-9,-5,551,88,-202,3933,0.85,-0.98,7.75,0.88,-2.02,39.33,-5.12,-1.88,6.67,5.50,-2.42,-39.41
-8,-2,560,83,-225,3867,0.72,-0.89,10.39,0.83,-2.25,38.67,-5.10,-1.87,6.63,4.74,-2.86,-37.69
-8,2,601,-81,-176,3892,0.60,-0.79,13.02,-0.81,-1.76,38.92,-5.09,-1.86,6.58,4.29,-3.49,-38.70
-4,7,613,-209,-169,4021,0.51,-0.67,15.45,-2.09,-1.69,40.21,-5.08,-1.84,6.52,2.96,-4.30,-37.43
-10,-23,570,-319,-366,4191,0.40,-0.74,17.39,-3.19,-3.66,41.91,-5.08,-1.82,6.45,4.06,3.05,-31.97
-19,-17,557,-289,-332,3916,0.25,-0.77,19.04,-2.89,-3.32,39.16,-5.08,-1.79,6.37,5.76,1.41,-29.31
-11,8,504,-274,-355,3976,0.15,-0.65,20.21,-2.74,-3.55,39.76,-5.08,-1.77,6.29,3.38,-4.47,-23.72
-5,15,491,-209,-342,3919,0.11,-0.49,21.19,-2.09,-3.42,39.19,-5.08,-1.75,6.20,1.68,-5.66,-21.71
-2,1,415,-177,-259,3952,0.09,-0.44,21.60,-1.77,-2.59,39.52,-5.08,-1.72,6.12,0.83,-1.89,-14.88
-6,-1,393,-159,-262,3937,0.04,-0.40,21.84,-1.59,-2.62,39.37,-5.08,-1.70,6.03,1.68,-1.24,-12.79
-2,8,317,-182,-271,3960,0.02,-0.31,21.59,-1.82,-2.71,39.60,-5.08,-1.68,5.95,0.60,-3.20,-6.59
0,13,293,-184,-257,3950,0.02,-0.20,21.22,-1.84,-2.57,39.50,-5.07,-1.65,5.86,0.08,-4.05,-4.90
-7,-14,207,-171,-252,3984,-0.02,-0.26,20.36,-1.71,-2.52,39.84,-5.07,-1.63,5.78,1.69,2.56,1.58
-6,-3,172,-175,-252,3957,-0.06,-0.26,19.37,-1.75,-2.52,39.57,-5.07,-1.61,5.70,1.31,-0.20,3.62
-3,0,87,-161,-266,3930,-0.07,-0.23,17.96,-1.61,-2.66,39.30,-5.06,-1.58,5.63,0.50,-0.87,9.50
-1,6,64,-186,-259,3931,-0.07,-0.17,16.56,-1.86,-2.59,39.31,-5.06,-1.56,5.57,-0.01,-2.17,10.12
-1,1,11,-71,-346,3939,-0.07,-0.15,14.97,-0.71,-3.46,39.39,-5.06,-1.54,5.51,-0.00,-0.81,13.12
1,0,10,-83,-344,3944,-0.06,-0.13,13.53,-0.83,-3.44,39.44,-5.06,-1.51,5.45,-0.46,-0.50,11.86
0,-1,4,-71,-373,3942,-0.05,-0.13,12.20,-0.71,-3.73,39.42,-5.07,-1.49,5.40,-0.19,-0.22,11.12
0,0,3,-56,-372,3941,-0.04,-0.11,11.00,-0.56,-3.72,39.41,-5.07,-1.47,5.36,-0.17,-0.43,10.08
-1,1,3,-46,-368,3944,-0.05,-0.10,9.92,-0.46,-3.68,39.44,-5.07,-1.45,5.32,0.08,-0.62,9.06
1,-1,2,-33,-360,3945,-0.04,-0.09,8.94,-0.33,-3.60,39.45,-5.08,-1.43,5.28,-0.39,-0.09,8.23
1,-1,2,-45,-377,3935,-0.03,-0.09,8.06,-0.45,-3.77,39.35,-5.08,-1.41,5.25,-0.35,-0.08,7.40
-1,1,1,-45,-369,3933,-0.03,-0.07,7.26,-0.45,-3.69,39.33,-5.08,-1.39,5.22,0.14,-0.53,6.73
1,1,0,-45,-377,3926,-0.02,-0.06,6.53,-0.45,-3.77,39.26,-5.09,-1.37,5.20,-0.33,-0.48,6.13
1,-1,1,-46,-383,3922,-0.01,-0.06,5.89,-0.46,-3.83,39.22,-5.09,-1.35,5.17,-0.30,0.03,5.44
1,-1,1,-48,-377,3937,-0.01,-0.06,5.30,-0.48,-3.77,39.37,-5.10,-1.33,5.15,-0.27,0.03,4.89
0,0,3,-54,-360,3957,-0.00,-0.05,4.79,-0.54,-3.60,39.57,-5.10,-1.31,5.13,-0.02,-0.21,4.24
0,1,2,-52,-359,3939,-0.00,-0.04,4.32,-0.52,-3.59,39.39,-5.10,-1.29,5.12,-0.02,-0.42,3.89
1,0,2,-48,-368,3934,0.00,-0.04,3.90,-0.48,-3.68,39.34,-5.10,-1.27,5.10,-0.24,-0.15,3.50
0,1,3,-45,-378,3941,0.00,-0.03,3.53,-0.45,-3.78,39.41,-5.11,-1.25,5.09,0.01,-0.36,3.06
0,0,1,-54,-371,3945,0.00,-0.03,3.19,-0.54,-3.71,39.45,-5.11,-1.23,5.07,0.01,-0.10,2.91
-1,0,2,-49,-362,3935,-0.00,-0.02,2.88,-0.49,-3.62,39.35,-5.11,-1.21,5.06,0.24,-0.09,2.53
0,1,2,-47,-369,3940,-0.00,-0.01,2.60,-0.47,-3.69,39.40,-5.11,-1.19,5.05,-0.01,-0.31,2.27
0,0,2,-46,-367,3926,-0.00,-0.01,2.35,-0.46,-3.67,39.26,-5.12,-1.17,5.04,-0.01,-0.05,2.04
1,1,3,-49,-364,3932,0.00,-0.01,2.14,-0.49,-3.64,39.32,-5.12,-1.15,5.03,-0.24,-0.28,1.75
1,0,1,-46,-374,3937,0.01,-0.01,1.93,-0.46,-3.74,39.37,-5.12,-1.14,5.02,-0.22,-0.02,1.73
0,0,1,-52,-383,3931,0.01,-0.00,1.74,-0.52,-3.83,39.31,-5.12,-1.12,5.02,0.03,-0.02,1.55
0,0,2,-45,-376,3943,0.01,-0.00,1.58,-0.45,-3.76,39.43,-5.13,-1.10,5.01,0.03,-0.02,1.31
0,0,2,-44,-367,3941,0.01,-0.00,1.44,-0.44,-3.67,39.41,-5.13,-1.08,5.01,0.02,-0.01,1.18
1,-1,2,-52,-366,3934,0.01,-0.01,1.30,-0.52,-3.66,39.34,-5.13,-1.06,5.00,-0.21,0.22,1.05
1,-1,2,-49,-371,3934,0.02,-0.01,1.19,-0.49,-3.71,39.34,-5.13,-1.04,5.00,-0.19,0.20,0.94
2,0,2,-45,-370,3933,0.03,-0.01,1.08,-0.45,-3.70,39.33,-5.14,-1.02,4.99,-0.41,-0.05,0.84
1,0,1,-55,-369,3926,0.03,-0.01,0.98,-0.55,-3.69,39.26,-5.14,-1.01,4.99,-0.14,-0.05,0.83
0,1,1,-52,-369,3923,0.03,-0.00,0.89,-0.52,-3.69,39.23,-5.14,-0.99,4.98,0.10,-0.27,0.75
0,1,2,-54,-366,3927,0.02,0.00,0.81,-0.54,-3.66,39.27,-5.14,-0.97,4.98,0.09,-0.25,0.59
0,-1,2,-51,-366,3923,0.02,-0.00,0.74,-0.51,-3.66,39.23,-5.15,-0.95,4.98,0.08,0.24,0.53
0,-1,2,-51,-373,3927,0.02,-0.01,0.68,-0.51,-3.73,39.27,-5.15,-0.93,4.97,0.08,0.22,0.47
-1,-1,2,-43,-378,3936,0.01,-0.02,0.62,-0.43,-3.78,39.36,-5.15,-0.91,4.97,0.30,0.20,0.42
0,-1,2,-40,-372,3943,0.01,-0.02,0.57,-0.40,-3.72,39.43,-5.16,-0.90,4.97,0.04,0.18,0.37
0,-1,2,-49,-362,3936,0.01,-0.02,0.53,-0.49,-3.62,39.36,-5.16,-0.88,4.97,0.04,0.16,0.33
1,0,2,-40,-363,3925,0.01,-0.02,0.49,-0.40,-3.63,39.25,-5.16,-0.86,4.97,-0.20,-0.08,0.29
0,0,3,-45,-369,3939,0.01,-0.02,0.46,-0.45,-3.69,39.39,-5.16,-0.84,4.96,0.05,-0.07,0.17
1,1,2,-50,-367,3930,0.02,-0.01,0.42,-0.50,-3.67,39.30,-5.16,-0.82,4.96,-0.19,-0.30,0.23
0,0,2,-49,-369,3928,0.02,-0.01,0.39,-0.49,-3.69,39.28,-5.16,-0.80,4.96,0.06,-0.04,0.20
1,1,2,-52,-367,3928,0.02,-0.00,0.37,-0.52,-3.67,39.28,-5.17,-0.79,4.96,-0.18,-0.27,0.17
-2,5,-7,-133,-329,4001,0.01,0.03,0.29,-1.33,-3.29,40.01,-5.16,-0.77,4.96,0.53,-1.17,0.86
-2,-3,2,-59,-396,3947,-0.01,0.01,0.27,-0.59,-3.96,39.47,-5.17,-0.75,4.96,0.48,0.79,0.08
1,-2,1,-39,-360,3940,0.00,-0.01,0.25,-0.39,-3.60,39.40,-5.17,-0.73,4.96,-0.25,0.49,0.15
-1,0,3,-39,-357,3944,-0.01,-0.01,0.24,-0.39,-3.57,39.44,-5.17,-0.71,4.96,0.23,-0.02,-0.03
-1,0,2,-44,-336,3961,-0.01,-0.01,0.23,-0.44,-3.36,39.61,-5.17,-0.70,4.95,0.21,-0.02,0.05
3,0,0,-71,-378,3927,0.01,-0.00,0.21,-0.71,-3.78,39.27,-5.17,-0.68,4.95,-0.73,-0.02,0.19
0,1,1,-70,-380,3935,0.01,0.00,0.19,-0.70,-3.80,39.35,-5.17,-0.66,4.95,0.03,-0.25,0.10
1,1,2,-28,-349,3929,0.01,0.01,0.19,-0.28,-3.49,39.29,-5.17,-0.64,4.95,-0.21,-0.22,0.01
2,1,1,-29,-375,3921,0.02,0.01,0.17,-0.29,-3.75,39.21,-5.18,-0.62,4.95,-0.42,-0.20,0.08
0,0,2,-55,-378,3944,0.02,0.01,0.17,-0.55,-3.78,39.44,-5.18,-0.61,4.95,0.08,0.04,-0.01
-1,0,1,-64,-365,3937,0.01,0.01,0.16,-0.64,-3.65,39.37,-5.18,-0.59,4.95,0.30,0.04,0.06
1,1,2,-39,-359,3927,0.02,0.02,0.15,-0.39,-3.59,39.27,-5.18,-0.57,4.95,-0.19,-0.19,-0.02
0,-1,1,-37,-370,3933,0.02,0.01,0.14,-0.37,-3.70,39.33,-5.18,-0.55,4.95,0.06,0.28,0.05
0,-1,1,-56,-377,3936,0.01,0.00,0.14,-0.56,-3.77,39.36,-5.19,-0.53,4.95,0.05,0.26,0.04
7,9,-1,-59,-346,3929,0.06,0.06,0.12,-0.59,-3.46,39.29,-5.19,-0.51,4.95,-1.57,-2.08,0.19
10,15,-4,-27,-360,3898,0.11,0.14,0.08,-0.27,-3.60,38.98,-5.19,-0.49,4.95,-2.12,-3.28,0.41
8,31,-209,-231,-20,3860,0.15,0.32,-1.20,-2.31,-0.20,38.60,-5.17,-0.48,4.95,-1.47,-6.69,16.58
4,93,-358,-69,-161,3808,0.16,0.85,-3.27,-0.69,-1.61,38.08,-5.16,-0.47,4.97,-0.42,-20.43,27.26
12,62,-137,-128,-323,4035,0.22,1.15,-3.78,-1.28,-3.23,40.35,-5.15,-0.45,4.98,-2.24,-11.44,8.06
14,55,-122,-132,-163,3986,0.28,1.37,-4.14,-1.32,-1.63,39.86,-5.14,-0.43,5.00,-2.51,-8.83,6.45
9,9,-149,-139,-71,3986,0.31,1.28,-4.64,-1.39,-0.71,39.86,-5.12,-0.42,5.02,-1.13,2.55,8.27
5,2,-166,-196,-25,3822,0.31,1.17,-5.19,-1.96,-0.25,38.22,-5.10,-0.41,5.04,-0.12,3.89,9.20
4,4,-240,-226,12,3896,0.30,1.08,-6.13,-2.26,0.12,38.96,-5.09,-0.40,5.06,0.11,3.04,14.58
-10,-20,-266,-219,16,3885,0.21,0.85,-7.14,-2.19,0.16,38.85,-5.07,-0.39,5.09,3.33,8.27,15.83
-9,-23,-368,-219,-9,3873,0.13,0.62,-8.67,-2.19,-0.09,38.73,-5.05,-0.37,5.13,2.79,8.19,23.04
11,2,-394,-216,-55,3926,0.19,0.57,-10.21,-2.16,-0.55,39.26,-5.04,-0.36,5.17,-2.09,1.64,23.80
7,-4,-433,-156,-219,3922,0.21,0.49,-11.83,-1.56,-2.19,39.22,-5.03,-0.35,5.22,-0.98,2.86,25.58
2,-15,-423,-156,-309,3944,0.20,0.35,-13.23,-1.56,-3.09,39.44,-5.02,-0.34,5.27,0.25,5.13,23.42
-6,-120,-335,-129,-508,3991,0.15,-0.42,-13.95,-1.29,-5.08,39.91,-5.03,-0.33,5.32,2.07,28.93,15.29
2,-90,-279,-136,-525,3854,0.14,-0.92,-14.25,-1.36,-5.25,38.54,-5.05,-0.33,5.38,0.03,19.39,10.25
-6,-17,-160,-2,-626,3928,0.09,-0.94,-13.80,-0.02,-6.26,39.28,-5.07,-0.33,5.43,1.87,0.80,0.59
4,-26,-138,-42,-705,3947,0.11,-1.00,-13.27,-0.42,-7.05,39.47,-5.08,-0.34,5.49,-0.61,2.84,-0.76
1,-2,-15,-75,-670,3945,0.10,-0.91,-12.03,-0.75,-6.70,39.45,-5.10,-0.34,5.53,0.13,-2.93,-10.02
5,-3,31,-103,-676,3938,0.12,-0.84,-10.64,-1.03,-6.76,39.38,-5.12,-0.34,5.58,-0.81,-2.40,-12.61
0,-14,136,-91,-630,3957,0.11,-0.84,-8.75,-0.91,-6.30,39.57,-5.13,-0.34,5.61,0.42,0.39,-19.73
-7,3,156,-120,-616,3897,0.06,-0.74,-6.92,-1.20,-6.16,38.97,-5.15,-0.34,5.64,1.99,-3.55,-19.71
-6,1,92,206,-438,4039,0.01,-0.66,-5.67,2.06,-4.38,40.39,-5.15,-0.36,5.66,1.58,-2.74,-13.11
-3,-2,-31,637,-873,3793,-0.01,-0.61,-5.29,6.37,-8.73,37.93,-5.17,-0.38,5.68,0.74,-1.77,-2.34
-3,-3,-617,797,-610,3973,-0.02,-0.56,-8.52,7.97,-6.10,39.73,-5.17,-0.40,5.71,0.68,-1.36,44.27
29,-9,-741,667,-628,3901,0.16,-0.56,-12.19,6.67,-6.28,39.01,-5.18,-0.42,5.76,-6.78,0.17,51.33
13,-17,-1039,257,-571,3934,0.22,-0.61,-17.31,2.57,-5.71,39.34,-5.19,-0.45,5.83,-2.48,2.03,71.77
31,-19,-1111,142,-512,3944,0.39,-0.66,-22.36,1.42,-5.12,39.44,-5.20,-0.47,5.92,-6.42,2.33,73.14
17,-21,-1284,-221,-311,3942,0.45,-0.73,-27.95,-2.21,-3.11,39.42,-5.20,-0.46,6.03,-2.62,2.60,82.54
19,-25,-1320,-268,-248,3983,0.52,-0.81,-33.21,-2.68,-2.48,39.83,-5.19,-0.46,6.16,-2.86,3.32,80.65
0,-14,-1423,-355,-165,4010,0.47,-0.81,-38.57,-3.55,-1.65,40.10,-5.17,-0.46,6.32,1.77,0.51,84.35
20,-28,-1447,-334,-89,3940,0.55,-0.90,-43.54,-3.34,-0.89,39.40,-5.16,-0.47,6.49,-3.03,3.73,81.72
19,-14,-1519,-348,-281,3859,0.61,-0.90,-48.45,-3.48,-2.81,38.59,-5.15,-0.47,6.68,-2.54,0.18,83.20
33,-6,-1561,-366,-353,3857,0.75,-0.84,-53.13,-3.66,-3.53,38.57,-5.15,-0.47,6.89,-5.57,-1.65,82.37
25,-3,-1613,-276,-374,3917,0.83,-0.78,-57.65,-2.76,-3.74,39.17,-5.14,-0.48,7.12,-3.25,-2.16,82.53
23,-3,-1614,-241,-312,3948,0.88,-0.72,-61.73,-2.41,-3.12,39.48,-5.14,-0.49,7.37,-2.52,-1.94,78.78
24,7,-1565,-208,-288,3879,0.94,-0.60,-65.11,-2.08,-2.88,38.79,-5.13,-0.49,7.63,-2.56,-4.05,71.46
29,9,-1540,-181,-281,3983,1.02,-0.49,-67.99,-1.81,-2.81,39.83,-5.11,-0.50,7.90,-3.51,-4.12,66.64
33,-29,-1449,-157,-339,3927,1.12,-0.62,-70.03,-1.57,-3.39,39.27,-5.10,-0.51,8.18,-4.16,5.05,57.01
3,-14,-1425,-80,-307,4049,1.03,-0.64,-71.72,-0.80,-3.07,40.49,-5.09,-0.52,8.46,3.11,1.15,53.39
18,-40,-1396,-56,-365,4007,1.04,-0.82,-73.06,-0.56,-3.65,40.07,-5.08,-0.53,8.75,-0.67,7.08,49.67
19,-59,-1394,-64,-362,3980,1.05,-1.10,-74.26,-0.64,-3.62,39.80,-5.08,-0.55,9.05,-0.88,10.86,48.38
25,-41,-1404,-59,-336,3941,1.10,-1.24,-75.40,-0.59,-3.36,39.41,-5.07,-0.56,9.35,-2.23,5.76,48.16
33,-33,-1421,-51,-303,3913,1.19,-1.32,-76.53,-0.51,-3.03,39.13,-5.05,-0.58,9.65,-3.91,3.43,48.54
1,-34,-1450,-108,-362,3839,1.07,-1.39,-77.72,-1.08,-3.62,38.39,-5.05,-0.59,9.96,3.79,3.40,49.88
22,-32,-1466,-72,-382,3980,1.10,-1.45,-78.89,-0.72,-3.82,39.80,-5.05,-0.61,10.28,-1.44,2.68,50.13
20,-17,-1494,-152,-417,3903,1.11,-1.41,-80.11,-1.52,-4.17,39.03,-5.04,-0.62,10.60,-0.89,-0.98,51.36
28,-35,-1496,-94,-380,3953,1.17,-1.48,-81.23,-0.94,-3.80,39.53,-5.04,-0.64,10.92,-2.70,3.32,50.48
31,-17,-1487,5,-381,3972,1.24,-1.44,-82.18,0.05,-3.81,39.72,-5.04,-0.66,11.25,-3.19,-1.08,48.83
33,-27,-1478,25,-306,3944,1.32,-1.46,-82.97,0.25,-3.06,39.44,-5.02,-0.69,11.58,-3.41,1.38,47.32
17,-29,-1457,18,-347,3872,1.29,-1.49,-83.56,0.18,-3.47,38.72,-5.01,-0.70,11.91,0.55,1.77,44.98
15,-32,-1457,50,-319,3946,1.26,-1.53,-84.10,0.50,-3.19,39.46,-4.98,-0.74,12.24,0.92,2.36,44.48
21,-21,-1459,28,-379,3890,1.26,-1.51,-84.59,0.28,-3.79,38.90,-4.99,-0.77,12.58,-0.60,-0.35,44.19
23,-19,-1453,17,-393,3929,1.27,-1.47,-84.99,0.17,-3.93,39.29,-5.00,-0.79,12.92,-1.05,-0.72,43.30
26,-18,-1412,7,-290,3953,1.30,-1.44,-85.11,0.07,-2.90,39.53,-4.97,-0.82,13.26,-1.70,-0.83,39.72
29,-14,-1391,6,-263,3890,1.35,-1.38,-85.08,0.06,-2.63,38.90,-4.95,-0.84,13.60,-2.28,-1.63,37.97
26,-18,-1306,44,-198,3939,1.37,-1.35,-84.54,0.44,-1.98,39.39,-4.92,-0.87,13.93,-1.43,-0.51,31.28
38,-12,-1297,26,-272,3973,1.47,-1.29,-84.00,0.26,-2.72,39.73,-4.89,-0.90,14.27,-4.13,-1.80,31.02
8,-2,-1279,-3,-402,3939,1.37,-1.17,-83.40,-0.03,-4.02,39.39,-4.89,-0.92,14.60,3.13,-3.90,30.06
8,-10,-1280,40,-378,3949,1.28,-1.12,-82.87,0.40,-3.78,39.49,-4.90,-0.94,14.93,2.80,-1.66,30.64
37,-9,-1281,88,-482,3954,1.38,-1.06,-82.39,0.88,-4.82,39.54,-4.91,-0.98,15.26,-4.21,-1.70,31.17
29,-2,-1280,34,-445,3922,1.42,-0.97,-81.96,0.34,-4.45,39.22,-4.91,-1.00,15.58,-2.03,-3.13,31.49
13,39,-1249,29,-451,3957,1.36,-0.63,-81.39,0.29,-4.51,39.57,-4.92,-1.03,15.91,1.80,-12.29,29.41
15,44,-1225,34,-411,3922,1.31,-0.30,-80.72,0.34,-4.11,39.22,-4.92,-1.05,16.23,1.13,-12.31,28.00
15,20,-1196,22,-468,3906,1.27,-0.15,-79.94,0.22,-4.68,39.06,-4.93,-1.07,16.55,0.98,-5.64,26.27
23,-3,-1174,-79,-430,4073,1.29,-0.15,-79.11,-0.79,-4.30,40.73,-4.93,-1.08,16.86,-1.00,0.19,25.19
3,-11,-1144,-31,-452,3965,1.17,-0.20,-78.18,-0.31,-4.52,39.65,-4.93,-1.10,17.17,3.66,2.03,23.52
10,-11,-1131,-4,-380,3883,1.12,-0.25,-77.26,-0.04,-3.80,38.83,-4.93,-1.11,17.48,1.67,1.86,23.28
24,-18,-1109,-59,-294,3929,1.15,-0.33,-76.30,-0.59,-2.94,39.29,-4.91,-1.12,17.78,-1.76,3.32,22.32
21,-14,-1112,-37,-217,3903,1.17,-0.39,-75.45,-0.37,-2.17,39.03,-4.89,-1.13,18.09,-0.95,2.10,23.37
35,-19,-1169,-115,-279,3934,1.26,-0.46,-75.04,-1.15,-2.79,39.34,-4.87,-1.14,18.38,-4.14,3.08,28.59
29,-18,-1187,-133,-317,4000,1.31,-0.53,-74.77,-1.33,-3.17,40.00,-4.86,-1.15,18.68,-2.42,2.59,30.36
7,-10,-1267,-187,-268,3968,1.22,-0.54,-75.03,-1.87,-2.68,39.68,-4.84,-1.16,18.98,2.83,0.52,36.90
24,-17,-1290,-78,-302,3875,1.25,-0.59,-75.39,-0.78,-3.02,38.75,-4.83,-1.17,19.28,-1.40,2.12,38.51
28,-25,-1322,-42,-268,3884,1.29,-0.68,-75.92,-0.42,-2.68,38.84,-4.81,-1.18,19.58,-2.24,3.79,40.73
10,-27,-1334,-132,-306,3937,1.23,-0.78,-76.46,-1.32,-3.06,39.37,-4.80,-1.19,19.89,2.08,3.94,41.23
10,-31,-1367,-28,-348,3911,1.16,-0.89,-77.15,-0.28,-3.48,39.11,-4.79,-1.20,20.20,1.84,4.54,43.38
23,-24,-1380,-92,-266,3912,1.19,-0.95,-77.86,-0.92,-2.66,39.12,-4.77,-1.22,20.51,-1.37,2.54,43.82
25,-6,-1403,-85,-223,3860,1.22,-0.89,-78.63,-0.85,-2.23,38.60,-4.75,-1.23,20.82,-1.75,-1.82,45.04
26,-15,-1407,-102,-295,3881,1.26,-0.89,-79.35,-1.02,-2.95,38.81,-4.73,-1.24,21.14,-1.87,0.46,44.70
26,-14,-1394,36,-333,3921,1.29,-0.89,-79.92,0.36,-3.33,39.21,-4.73,-1.25,21.45,-1.74,0.22,43.07
28,-15,-1383,75,-288,3967,1.33,-0.89,-80.36,0.75,-2.88,39.67,-4.70,-1.28,21.77,-2.10,0.46,41.72
45,-33,-1309,52,-314,3876,1.47,-1.00,-80.31,0.52,-3.14,38.76,-4.68,-1.29,22.09,-5.89,4.61,35.50
3,-56,-1270,-16,-367,4070,1.34,-1.24,-80.03,-0.16,-3.67,40.70,-4.67,-1.30,22.41,4.30,9.55,32.46
16,-111,-1170,17,-252,3991,1.31,-1.80,-79.16,0.17,-2.52,39.91,-4.65,-1.32,22.73,0.86,21.45,24.80
35,-85,-1139,140,-231,3998,1.39,-2.13,-78.19,1.40,-2.31,39.98,-4.62,-1.37,23.04,-3.66,13.56,23.08
20,-10,-1073,76,-245,3939,1.37,-1.98,-76.92,0.76,-2.45,39.39,-4.59,-1.40,23.35,0.09,-4.93,18.69
18,-39,-1055,46,-193,3991,1.35,-2.02,-75.66,0.46,-1.93,39.91,-4.56,-1.42,23.65,0.50,2.30,18.34
11,-22,-1044,-19,-270,4062,1.28,-1.95,-74.46,-0.19,-2.70,40.62,-4.54,-1.44,23.94,2.02,-1.77,18.54
27,-41,-1053,0,-249,3889,1.32,-2.01,-73.44,0.00,-2.49,38.89,-4.52,-1.45,24.24,-1.91,2.85,20.26
23,-36,-1136,-125,-247,3805,1.32,-2.03,-73.03,-1.25,-2.47,38.05,-4.50,-1.46,24.53,-0.86,1.51,27.68
21,-28,-1173,-129,-178,3943,1.32,-2.00,-72.88,-1.29,-1.78,39.43,-4.48,-1.48,24.82,-0.37,-0.40,30.95
13,-4,-1279,-56,-228,3942,1.27,-1.82,-73.39,-0.56,-2.28,39.42,-4.46,-1.49,25.11,1.47,-5.84,39.45
14,16,-1304,-237,-85,3950,1.23,-1.54,-74.01,-2.37,-0.85,39.50,-4.43,-1.51,25.41,1.06,-9.87,40.99
13,11,-1466,-38,-413,3888,1.18,-1.32,-75.55,-0.38,-4.13,38.88,-4.43,-1.52,25.71,1.15,-7.77,53.27
31,-5,-1463,80,-423,4059,1.25,-1.22,-76.92,0.80,-4.23,40.59,-4.44,-1.54,26.01,-3.16,-3.32,51.73
15,3,-1381,121,-601,3971,1.22,-1.08,-77.65,1.21,-6.01,39.71,-4.44,-1.57,26.32,0.78,-4.82,44.09
32,-26,-1347,164,-569,3968,1.29,-1.13,-78.10,1.64,-5.69,39.68,-4.45,-1.61,26.63,-3.26,2.36,40.79
21,15,-1268,166,-443,3907,1.29,-0.92,-78.03,1.66,-4.43,39.07,-4.45,-1.64,26.94,-0.47,-7.29,34.17
6,10,-1251,88,-430,3900,1.20,-0.77,-77.86,0.88,-4.30,39.00,-4.45,-1.66,27.25,2.99,-5.45,32.89
26,6,-1241,29,-441,3980,1.24,-0.66,-77.64,0.29,-4.41,39.80,-4.45,-1.68,27.56,-1.95,-4.00,32.24
19,11,-1237,-2,-504,3917,1.23,-0.52,-77.42,-0.02,-5.04,39.17,-4.46,-1.70,27.87,-0.20,-4.77,32.11
21,0,-1223,-25,-613,3961,1.24,-0.47,-77.14,-0.25,-6.13,39.61,-4.46,-1.72,28.18,-0.69,-1.78,31.19
17,-1,-1199,-14,-639,3958,1.22,-0.43,-76.74,-0.14,-6.39,39.58,-4.46,-1.73,28.48,0.26,-1.37,29.53
21,36,-1150,19,-500,3874,1.22,-0.17,-76.08,0.19,-5.00,38.74,-4.46,-1.75,28.79,-0.74,-9.78,26.00
6,40,-1127,-32,-540,3943,1.14,0.09,-75.35,-0.32,-5.40,39.43,-4.47,-1.76,29.09,2.75,-9.82,24.74
77,79,-1081,-5,-447,3995,1.49,0.57,-74.41,-0.05,-4.47,39.95,-4.46,-1.77,29.38,-13.95,-17.95,21.72
115,91,-1067,-29,-387,3966,2.04,1.06,-73.48,-0.29,-3.87,39.66,-4.45,-1.77,29.68,-21.53,-19.12,21.41
27,13,-1001,-47,-284,3948,2.00,1.04,-72.23,-0.47,-2.84,39.48,-4.43,-1.77,29.96,0.69,0.60,16.99
33,8,-974,-29,-296,4027,2.01,0.98,-70.95,-0.29,-2.96,40.27,-4.42,-1.77,30.25,-0.83,1.67,15.90
9,3,-844,28,-267,3947,1.86,0.90,-69.00,0.28,-2.67,39.47,-4.39,-1.77,30.52,4.72,2.63,6.72
8,-6,-804,40,-203,3879,1.72,0.78,-67.01,0.40,-2.03,38.79,-4.36,-1.78,30.79,4.46,4.44,5.20
3,7,-654,85,-185,3876,1.57,0.74,-64.30,0.85,-1.85,38.76,-4.33,-1.79,31.05,5.15,1.01,-4.96
13,-3,-592,68,-65,3960,1.49,0.65,-61.48,0.68,-0.65,39.60,-4.30,-1.80,31.30,2.31,3.20,-7.57
11,4,-504,22,-81,3970,1.41,0.61,-58.41,0.22,-0.81,39.70,-4.27,-1.81,31.53,2.51,1.27,-12.14
10,8,-481,3,-91,3940,1.33,0.60,-55.50,0.03,-0.91,39.40,-4.24,-1.82,31.75,2.47,0.21,-11.36
12,-8,-399,39,-141,3974,1.27,0.49,-52.38,0.39,-1.41,39.74,-4.22,-1.82,31.96,1.73,3.87,-15.38
9,8,-377,17,-214,3993,1.20,0.49,-49.44,0.17,-2.14,39.93,-4.19,-1.82,32.16,2.22,-0.20,-14.48
4,-7,-344,-122,-121,3973,1.10,0.40,-46.60,-1.22,-1.21,39.73,-4.17,-1.81,32.35,3.13,3.27,-14.61
8,8,-339,-40,-217,4037,1.04,0.41,-44.01,-0.40,-2.17,40.37,-4.16,-1.81,32.52,1.89,-0.51,-12.60
2,-5,-345,-100,-301,4014,0.95,0.33,-41.71,-1.00,-3.01,40.14,-4.15,-1.80,32.69,3.07,2.53,-9.93
5,7,-343,-121,-310,3911,0.88,0.34,-39.63,-1.21,-3.10,39.11,-4.14,-1.79,32.85,2.06,-0.49,-8.15
4,-4,-343,-68,-373,3866,0.82,0.28,-37.76,-0.68,-3.73,38.66,-4.14,-1.79,33.00,2.07,2.09,-6.39
6,3,-339,-125,-363,3981,0.77,0.27,-36.05,-1.25,-3.63,39.81,-4.14,-1.78,33.14,1.39,0.27,-5.13
15,0,-365,-118,-278,3957,0.79,0.25,-34.67,-1.18,-2.78,39.57,-4.13,-1.77,33.28,-0.84,0.93,-1.63
1,4,-364,-95,-335,3869,0.72,0.25,-33.43,-0.95,-3.35,38.69,-4.13,-1.76,33.41,2.44,-0.09,-0.55
6,-18,-402,-73,-358,3900,0.68,0.11,-32.54,-0.73,-3.58,39.00,-4.13,-1.75,33.54,1.04,5.00,3.51
9,0,-413,-80,-397,3982,0.67,0.10,-31.80,-0.80,-3.97,39.82,-4.13,-1.74,33.67,0.23,0.38,5.13
6,-3,-461,-33,-365,3849,0.64,0.07,-31.43,-0.33,-3.65,38.49,-4.13,-1.74,33.79,0.88,1.04,9.54
5,-22,-476,-49,-270,3937,0.60,-0.07,-31.19,-0.49,-2.70,39.37,-4.13,-1.73,33.92,1.01,5.33,11.04
13,-10,-524,-60,-250,3952,0.62,-0.12,-31.27,-0.60,-2.50,39.52,-4.12,-1.72,34.04,-0.96,2.08,15.03
11,5,-541,-61,-229,3941,0.63,-0.08,-31.44,-0.61,-2.29,39.41,-4.10,-1.71,34.17,-0.43,-1.57,16.31
10,14,-640,-99,-286,3859,0.63,0.01,-32.20,-0.99,-2.86,38.59,-4.10,-1.70,34.30,-0.18,-3.51,23.99
1,10,-683,-134,-304,3897,0.57,0.07,-33.15,-1.34,-3.04,38.97,-4.09,-1.69,34.43,1.89,-2.27,26.74
6,5,-748,-148,-282,3844,0.55,0.10,-34.40,-1.48,-2.82,38.44,-4.09,-1.68,34.57,0.54,-0.91,31.08
14,-19,-760,-37,-330,3921,0.58,-0.03,-35.59,-0.37,-3.30,39.21,-4.09,-1.68,34.71,-1.37,4.72,30.97
18,-12,-805,-147,-362,3805,0.63,-0.10,-36.94,-1.47,-3.62,38.05,-4.09,-1.67,34.86,-2.20,2.67,33.51
10,-27,-816,-134,-328,3921,0.63,-0.25,-38.23,-1.34,-3.28,39.21,-4.08,-1.66,35.01,-0.17,5.90,33.24
6,-25,-864,-98,-215,3861,0.60,-0.38,-39.68,-0.98,-2.15,38.61,-4.07,-1.66,35.17,0.75,4.92,35.95
3,-12,-863,-128,-263,4017,0.56,-0.42,-40.97,-1.28,-2.63,40.17,-4.06,-1.65,35.33,1.35,1.48,34.65
17,9,-884,-72,-172,3997,0.61,-0.32,-42.27,-0.72,-1.72,39.97,-4.05,-1.65,35.50,-2.03,-3.49,35.21
13,-2,-871,-5,-208,4024,0.63,-0.30,-43.35,-0.05,-2.08,40.24,-4.03,-1.65,35.67,-0.94,-0.62,33.09
-12,-24,-892,-123,-323,3984,0.49,-0.42,-44.46,-1.23,-3.23,39.84,-4.03,-1.65,35.85,4.90,4.53,33.83
15,-5,-907,-191,-211,3949,0.53,-0.41,-45.55,-1.91,-2.11,39.49,-4.01,-1.64,36.03,-1.80,-0.26,34.08
14,0,-998,-122,-194,3790,0.57,-0.36,-47.08,-1.22,-1.94,37.90,-4.00,-1.64,36.22,-1.43,-1.37,40.35
25,-25,-1018,-56,-269,4114,0.66,-0.48,-48.58,-0.56,-2.69,41.14,-3.99,-1.64,36.41,-3.86,4.54,40.63
16,-11,-1038,-86,-231,3892,0.69,-0.50,-50.06,-0.86,-2.31,38.92,-3.98,-1.64,36.61,-1.46,0.91,40.95
38,12,-1030,25,-271,3978,0.86,-0.38,-51.33,0.25,-2.71,39.78,-3.97,-1.63,36.82,-6.44,-4.47,39.07
-8,-30,-1023,-44,-397,3973,0.72,-0.52,-52.44,-0.44,-3.97,39.73,-3.97,-1.63,37.03,4.75,5.66,37.44
4,-12,-1023,-44,-158,4066,0.67,-0.54,-53.44,-0.44,-1.58,40.66,-3.95,-1.64,37.24,1.52,1.00,36.50
-3,-4,-1019,-60,-221,3994,0.59,-0.51,-54.31,-0.60,-2.21,39.94,-3.94,-1.64,37.46,2.98,-0.92,35.34
11,-21,-1007,1,-314,3995,0.60,-0.59,-55.02,0.01,-3.14,39.95,-3.93,-1.64,37.68,-0.55,3.12,33.66
20,-1,-1000,43,-333,3886,0.66,-0.54,-55.62,0.43,-3.33,38.86,-3.94,-1.64,37.90,-2.60,-1.77,32.50
7,-6,-991,-8,-269,3972,0.64,-0.52,-56.10,-0.08,-2.69,39.72,-3.93,-1.64,38.12,0.61,-0.43,31.29
15,5,-936,20,-307,3969,0.66,-0.44,-56.20,0.20,-3.07,39.69,-3.92,-1.64,38.35,-1.31,-2.92,26.53
29,-13,-923,81,-320,3896,0.77,-0.47,-56.21,0.81,-3.20,38.96,-3.93,-1.65,38.57,-4.46,1.52,25.42
14,-8,-886,62,-314,3935,0.78,-0.47,-55.99,0.62,-3.14,39.35,-3.93,-1.65,38.79,-0.61,0.25,22.49
9,2,-863,28,-438,3968,0.76,-0.41,-55.66,0.28,-4.38,39.68,-3.94,-1.66,39.01,0.57,-2.07,20.86
-10,13,-779,69,-429,3866,0.62,-0.29,-54.85,0.69,-4.29,38.66,-3.95,-1.67,39.23,4.88,-4.41,14.50
11,-26,-757,135,-299,4037,0.63,-0.42,-53.98,1.35,-2.99,40.37,-3.95,-1.70,39.45,-0.44,5.01,13.45
-8,-10,-693,88,-356,3895,0.52,-0.44,-52.81,0.88,-3.56,38.95,-3.96,-1.71,39.66,3.97,0.88,9.13
22,-21,-660,101,-365,4032,0.60,-0.53,-51.55,1.01,-3.65,40.32,-3.97,-1.72,39.86,-3.34,3.36,7.51
8,-33,-600,-16,-316,3997,0.59,-0.67,-50.06,-0.16,-3.16,39.97,-3.97,-1.72,40.06,0.18,5.85,3.83
4,-38,-534,251,-499,3989,0.55,-0.84,-48.31,2.51,-4.99,39.89,-3.98,-1.75,40.25,1.06,6.50,-0.12
-7,-25,-451,139,-332,3973,0.45,-0.91,-46.23,1.39,-3.32,39.73,-3.99,-1.77,40.44,3.49,2.94,-5.19
5,-26,-449,104,-330,3884,0.44,-0.98,-44.35,1.04,-3.30,38.84,-4.00,-1.78,40.61,0.39,2.93,-3.60
5,-19,-459,132,-286,3930,0.43,-0.99,-42.71,1.32,-2.86,39.30,-4.00,-1.81,40.78,0.33,1.09,-1.21
-6,-28,-464,125,-342,3796,0.35,-1.07,-41.27,1.25,-3.42,37.96,-4.02,-1.83,40.95,2.83,3.10,0.56
-4,-19,-414,-9,-383,4003,0.29,-1.07,-39.67,-0.09,-3.83,40.03,-4.02,-1.83,41.11,2.10,0.78,-2.17
-4,-22,-391,44,-472,4018,0.23,-1.10,-38.09,0.44,-4.72,40.18,-4.03,-1.83,41.26,1.90,1.44,-2.63
3,-12,-339,-27,-338,3926,0.23,-1.06,-36.35,-0.27,-3.38,39.26,-4.03,-1.83,41.40,0.10,-0.96,-5.40
-9,-19,-343,86,-457,3818,0.15,-1.07,-34.80,0.86,-4.57,38.18,-4.05,-1.84,41.54,2.86,0.78,-3.62
-3,-2,-349,56,-491,3950,0.12,-0.98,-33.45,0.56,-4.91,39.50,-4.06,-1.85,41.67,1.21,-3.18,-1.84
2,-1,-360,-41,-214,4054,0.12,-0.89,-32.30,-0.41,-2.14,40.54,-4.05,-1.84,41.80,-0.06,-3.09,0.17
11,13,-347,-1,-284,3999,0.17,-0.72,-31.19,-0.01,-2.84,39.99,-4.04,-1.84,41.93,-2.14,-6.01,0.12
9,18,-354,-16,-229,3938,0.21,-0.54,-30.23,-0.16,-2.29,39.38,-4.03,-1.83,42.05,-1.49,-6.60,1.61
16,0,-419,-101,-265,3969,0.29,-0.48,-29.76,-1.01,-2.65,39.69,-4.03,-1.82,42.17,-2.98,-1.82,7.55
0,22,-457,-128,-271,3781,0.26,-0.30,-29.57,-1.28,-2.71,37.81,-4.02,-1.81,42.28,0.98,-6.73,10.95
3,8,-565,-135,-163,3914,0.25,-0.22,-30.06,-1.35,-1.63,39.14,-4.01,-1.81,42.40,0.18,-2.87,19.64
10,8,-587,-155,-130,3989,0.29,-0.15,-30.64,-1.55,-1.30,39.89,-4.00,-1.80,42.53,-1.46,-2.60,20.97
-1,-5,-659,-110,-189,3955,0.25,-0.17,-31.59,-1.10,-1.89,39.55,-3.98,-1.79,42.65,1.21,0.64,26.17
5,-7,-669,-59,-196,3940,0.26,-0.19,-32.52,-0.59,-1.96,39.40,-3.97,-1.79,42.78,-0.30,1.05,26.15
13,-6,-671,28,-256,3915,0.31,-0.21,-33.36,0.28,-2.56,39.15,-3.96,-1.78,42.92,-2.13,0.73,25.53
-3,-9,-675,-5,-311,3939,0.26,-0.24,-34.14,-0.05,-3.11,39.39,-3.96,-1.77,43.05,1.75,1.37,25.14
11,-19,-647,30,-326,3980,0.30,-0.34,-34.67,0.30,-3.26,39.80,-3.97,-1.77,43.19,-1.66,3.57,22.26
4,1,-648,9,-286,3911,0.30,-0.30,-35.16,0.09,-2.86,39.11,-3.96,-1.76,43.33,0.10,-1.37,21.89
3,-10,-644,17,-396,4054,0.29,-0.33,-35.57,0.17,-3.96,40.54,-3.97,-1.76,43.47,0.31,1.31,21.16
14,-11,-652,5,-388,3869,0.34,-0.36,-35.99,0.05,-3.88,38.69,-3.98,-1.76,43.61,-2.27,1.43,21.45
0,-19,-594,-8,-461,3944,0.31,-0.44,-36.01,-0.08,-4.61,39.44,-3.99,-1.76,43.76,1.16,3.17,16.51
14,3,-581,46,-414,3999,0.36,-0.38,-35.96,0.46,-4.14,39.99,-4.00,-1.76,43.90,-2.19,-2.19,15.46
-2,-18,-568,24,-259,4007,0.31,-0.45,-35.83,0.24,-2.59,40.07,-3.99,-1.75,44.04,1.69,2.88,14.49
22,26,-566,22,-216,3904,0.42,-0.25,-35.70,0.22,-2.16,39.04,-3.97,-1.75,44.19,-4.02,-7.54,14.44
3,-14,-538,-90,-414,3929,0.39,-0.31,-35.41,-0.90,-4.14,39.29,-3.98,-1.74,44.33,0.72,2.40,12.34
1,1,-527,82,-285,3942,0.36,-0.27,-35.08,0.82,-2.85,39.42,-3.98,-1.74,44.47,1.10,-1.27,11.71
0,-4,-522,-74,-264,3911,0.32,-0.27,-34.76,-0.74,-2.64,39.11,-3.97,-1.73,44.61,1.22,0.01,11.59
11,-17,-521,-34,-215,3981,0.36,-0.35,-34.46,-0.34,-2.15,39.81,-3.96,-1.72,44.74,-1.44,3.02,11.79
0,2,-566,-35,-172,3960,0.32,-0.30,-34.47,-0.35,-1.72,39.60,-3.94,-1.72,44.88,1.22,-1.63,15.59
13,-13,-571,-73,-294,3943,0.37,-0.35,-34.50,-0.73,-2.94,39.43,-3.94,-1.71,45.02,-1.91,1.99,15.98
9,-21,-588,-58,-381,3871,0.39,-0.44,-34.64,-0.58,-3.81,38.71,-3.94,-1.71,45.16,-0.83,3.68,17.29
12,5,-601,-105,-294,3873,0.42,-0.37,-34.84,-1.05,-2.94,38.73,-3.94,-1.70,45.30,-1.46,-2.65,18.21
8,-24,-605,64,-362,3907,0.43,-0.48,-35.05,0.64,-3.62,39.07,-3.95,-1.70,45.44,-0.42,4.31,18.35
-2,-10,-608,46,-262,3989,0.37,-0.49,-35.25,0.46,-2.62,39.89,-3.94,-1.70,45.58,1.92,0.70,18.41
-1,-15,-560,117,-386,4010,0.33,-0.53,-35.14,1.17,-3.86,40.10,-3.95,-1.71,45.72,1.50,1.81,14.45
-1,-14,-577,186,-321,3887,0.29,-0.56,-35.15,1.86,-3.21,38.87,-3.96,-1.73,45.86,1.35,1.43,15.88
-2,1,-532,124,-367,3910,0.25,-0.50,-34.88,1.24,-3.67,39.10,-3.97,-1.75,45.99,1.45,-2.14,12.32
10,-9,-522,89,-393,3880,0.29,-0.51,-34.58,0.89,-3.93,38.80,-3.99,-1.75,46.13,-1.46,0.38,11.76
3,2,-403,144,-422,3994,0.28,-0.44,-33.58,1.44,-4.22,39.94,-4.00,-1.77,46.26,0.28,-2.18,2.62
16,-6,-387,272,-414,3921,0.35,-0.44,-32.58,2.72,-4.14,39.21,-4.01,-1.79,46.39,-2.76,-0.12,2.20
9,2,-232,164,-437,3938,0.37,-0.38,-30.74,1.64,-4.37,39.38,-4.02,-1.81,46.52,-0.91,-1.94,-9.20
6,4,-187,169,-498,3930,0.37,-0.32,-28.80,1.69,-4.98,39.30,-4.03,-1.82,46.63,-0.15,-2.21,-11.20
5,5,-94,-6,-365,3994,0.36,-0.26,-26.50,-0.06,-3.65,39.94,-4.04,-1.81,46.74,0.08,-2.23,-16.91
7,10,-80,73,-348,3936,0.37,-0.17,-24.33,0.73,-3.48,39.36,-4.05,-1.81,46.83,-0.40,-3.18,-16.07
6,0,-64,-70,-367,3906,0.37,-0.15,-22.29,-0.70,-3.67,39.06,-4.05,-1.80,46.92,-0.14,-0.57,-15.51
4,2,-41,-87,-383,3950,0.35,-0.12,-20.31,-0.87,-3.83,39.50,-4.05,-1.79,47.00,0.32,-0.98,-15.60
4,6,-18,-9,-325,3937,0.34,-0.08,-18.39,-0.09,-3.25,39.37,-4.06,-1.78,47.08,0.28,-1.81,-15.74
4,6,-16,10,-324,3938,0.33,-0.03,-16.65,0.10,-3.24,39.38,-4.06,-1.77,47.14,0.24,-1.64,-14.28
0,5,-46,8,-328,3949,0.30,0.00,-15.27,0.08,-3.28,39.49,-4.06,-1.75,47.20,1.13,-1.26,-10.44
4,7,-56,-66,-303,3942,0.29,0.04,-14.08,-0.66,-3.03,39.42,-4.06,-1.74,47.26,0.09,-1.61,-8.48
1,14,-81,-59,-307,3917,0.27,0.13,-13.17,-0.59,-3.07,39.17,-4.06,-1.72,47.31,0.77,-3.09,-5.50
0,12,-88,-22,-314,3925,0.24,0.19,-12.39,-0.22,-3.14,39.25,-4.06,-1.71,47.36,0.92,-2.35,-4.17
-1,-1,-86,-26,-453,3875,0.21,0.16,-11.67,-0.26,-4.53,38.75,-4.08,-1.70,47.41,1.06,0.86,-3.67
-3,-7,-87,-40,-405,3946,0.17,0.10,-11.04,-0.40,-4.05,39.46,-4.09,-1.69,47.45,1.42,2.17,-2.99
0,-2,-75,61,-280,3915,0.16,0.08,-10.39,0.61,-2.80,39.15,-4.08,-1.67,47.49,0.59,0.81,-3.40
-5,-5,-76,75,-303,3932,0.11,0.04,-9.81,0.75,-3.03,39.32,-4.09,-1.66,47.53,1.69,1.43,-2.78
-4,-6,-40,84,-272,3924,0.07,0.00,-9.08,0.84,-2.72,39.24,-4.09,-1.64,47.57,1.30,1.53,-5.13
-2,-8,-35,69,-283,3931,0.06,-0.05,-8.38,0.69,-2.83,39.31,-4.08,-1.63,47.60,0.72,1.85,-4.91
2,-17,-47,132,-248,3897,0.06,-0.15,-7.83,1.32,-2.48,38.97,-4.07,-1.64,47.63,-0.28,3.77,-3.37
-3,-19,-58,92,-239,3900,0.04,-0.25,-7.40,0.92,-2.39,39.00,-4.05,-1.64,47.66,0.90,3.89,-2.04
-10,-30,-113,191,-139,3921,-0.03,-0.41,-7.35,1.91,-1.39,39.21,-4.03,-1.65,47.69,2.44,6.09,2.67
-7,-35,-130,39,-174,3952,-0.07,-0.58,-7.41,0.39,-1.74,39.52,-4.02,-1.64,47.72,1.53,6.71,4.06
4,-45,-175,46,-221,3937,-0.04,-0.80,-7.74,0.46,-2.21,39.37,-4.01,-1.63,47.75,-1.15,8.44,7.56
-12,-40,-163,14,-250,4003,-0.11,-0.96,-7.96,0.14,-2.50,40.03,-4.00,-1.62,47.78,2.65,6.55,6.34
-62,-72,-114,-193,-591,4074,-0.47,-1.30,-7.86,-1.93,-5.91,40.74,-4.02,-1.62,47.81,13.98,13.39,2.28
-55,-58,-54,5,-480,3995,-0.76,-1.53,-7.40,0.05,-4.80,39.95,-4.03,-1.62,47.84,11.11,8.99,-2.37
-22,-53,-41,-28,-282,3863,-0.82,-1.70,-6.91,-0.28,-2.82,38.63,-4.04,-1.61,47.87,2.50,7.08,-3.01
-17,-48,-31,-62,-381,3915,-0.84,-1.82,-6.41,-0.62,-3.81,39.15,-4.05,-1.60,47.90,1.15,5.34,-3.39
-8,-22,3,18,-328,3912,-0.81,-1.77,-5.75,0.18,-3.28,39.12,-4.06,-1.59,47.92,-1.00,-1.09,-5.65
-6,-13,9,15,-311,3902,-0.76,-1.67,-5.12,0.15,-3.11,39.02,-4.07,-1.58,47.94,-1.35,-3.00,-5.57
5,14,14,57,-296,3912,-0.66,-1.42,-4.52,0.57,-2.96,39.12,-4.08,-1.57,47.95,-3.74,-8.91,-5.43
7,19,14,63,-289,3919,-0.55,-1.16,-3.98,0.63,-2.89,39.19,-4.08,-1.56,47.97,-3.84,-9.21,-4.93
11,25,22,37,-326,3925,-0.43,-0.89,-3.45,0.37,-3.26,39.25,-4.09,-1.55,47.98,-4.40,-9.72,-5.10
9,26,19,30,-352,3953,-0.33,-0.65,-2.99,0.30,-3.52,39.53,-4.11,-1.54,47.99,-3.52,-9.04,-4.42
5,16,14,21,-371,3946,-0.26,-0.48,-2.61,0.21,-3.71,39.46,-4.12,-1.53,48.00,-2.27,-5.89,-3.63
3,11,11,17,-343,3958,-0.22,-0.37,-2.28,0.17,-3.43,39.58,-4.13,-1.52,48.01,-1.59,-4.19,-3.07
-5,-1,6,17,-340,3932,-0.23,-0.34,-2.01,0.17,-3.40,39.32,-4.14,-1.50,48.02,0.41,-1.02,-2.40
-6,-3,4,17,-342,3930,-0.24,-0.32,-1.79,0.17,-3.42,39.30,-4.15,-1.49,48.03,0.61,-0.45,-2.02
-7,-6,4,20,-356,3955,-0.26,-0.33,-1.58,0.20,-3.56,39.55,-4.17,-1.48,48.03,0.80,0.29,-1.83
-4,-5,6,27,-377,3943,-0.26,-0.32,-1.39,0.27,-3.77,39.43,-4.18,-1.47,48.04,0.04,0.05,-1.81
-1,-2,9,23,-303,3922,-0.24,-0.30,-1.20,0.23,-3.03,39.22,-4.19,-1.45,48.04,-0.65,-0.64,-1.89
-1,-1,7,29,-314,3920,-0.22,-0.28,-1.03,0.29,-3.14,39.20,-4.19,-1.43,48.05,-0.58,-0.80,-1.56
3,6,5,54,-297,3919,-0.18,-0.22,-0.90,0.54,-2.97,39.19,-4.20,-1.42,48.05,-1.44,-2.34,-1.27
11,4,0,70,-285,3905,-0.10,-0.17,-0.81,0.70,-2.85,39.05,-4.20,-1.40,48.05,-3.16,-1.66,-0.76
7,14,-7,9,-337,3925,-0.04,-0.07,-0.77,0.09,-3.37,39.25,-4.21,-1.39,48.06,-1.94,-3.81,-0.13
9,16,-10,5,-345,3937,0.02,0.04,-0.76,0.05,-3.45,39.37,-4.22,-1.37,48.06,-2.23,-3.93,0.14
18,21,-6,53,-348,3944,0.12,0.16,-0.72,0.53,-3.48,39.44,-4.23,-1.36,48.06,-4.11,-4.73,-0.16
20,24,-3,32,-342,3936,0.23,0.29,-0.66,0.32,-3.42,39.36,-4.24,-1.34,48.06,-4.20,-5.00,-0.37
24,28,-6,30,-329,3935,0.36,0.43,-0.63,0.30,-3.29,39.35,-4.25,-1.33,48.07,-4.76,-5.48,-0.09
25,29,-3,19,-344,3932,0.47,0.57,-0.59,0.19,-3.44,39.32,-4.26,-1.31,48.07,-4.57,-5.24,-0.30
16,22,-7,17,-346,3935,0.52,0.64,-0.57,0.17,-3.46,39.35,-4.27,-1.29,48.07,-2.09,-3.16,0.06
10,19,-7,27,-346,3934,0.53,0.70,-0.56,0.27,-3.46,39.34,-4.28,-1.28,48.07,-0.54,-2.21,0.07
2,4,-9,2,-352,3901,0.49,0.65,-0.56,0.02,-3.52,39.01,-4.28,-1.26,48.08,1.34,1.43,0.24
-1,1,-9,-9,-346,3940,0.44,0.59,-0.56,-0.09,-3.46,39.40,-4.29,-1.24,48.08,1.90,1.97,0.24
0,-2,-6,66,-289,3927,0.39,0.52,-0.54,0.66,-2.89,39.27,-4.28,-1.22,48.08,1.48,2.47,0.00
1,0,0,60,-315,3929,0.36,0.47,-0.48,0.60,-3.15,39.29,-4.29,-1.20,48.08,1.10,1.76,-0.45
3,0,5,29,-318,3931,0.34,0.42,-0.40,0.29,-3.18,39.31,-4.30,-1.19,48.08,0.52,1.59,-0.80
0,0,5,41,-306,3899,0.31,0.38,-0.33,0.41,-3.06,38.99,-4.30,-1.17,48.09,1.16,1.43,-0.74
0,2,11,2,-315,3947,0.28,0.35,-0.23,0.02,-3.15,39.47,-4.31,-1.15,48.09,1.04,0.82,-1.15
1,1,9,8,-310,3952,0.26,0.32,-0.15,0.08,-3.10,39.52,-4.31,-1.13,48.09,0.71,0.97,-0.91
2,-4,8,-7,-324,3961,0.24,0.27,-0.09,-0.07,-3.24,39.61,-4.31,-1.11,48.09,0.40,2.02,-0.76
2,-3,6,15,-345,3938,0.23,0.22,-0.04,0.15,-3.45,39.38,-4.32,-1.09,48.09,0.36,1.60,-0.55
2,0,14,24,-318,3914,0.22,0.20,0.04,0.24,-3.18,39.14,-4.33,-1.08,48.09,0.32,0.75,-1.14
2,0,17,20,-321,3925,0.21,0.18,0.14,0.20,-3.21,39.25,-4.34,-1.06,48.09,0.28,0.68,-1.30
3,3,20,5,-340,3937,0.21,0.18,0.25,0.05,-3.40,39.37,-4.35,-1.04,48.09,0.02,-0.08,-1.46
-4,3,23,-40,-347,3932,0.16,0.18,0.37,-0.40,-3.47,39.32,-4.35,-1.03,48.08,1.63,-0.08,-1.60
-5,-3,73,-51,-494,3916,0.12,0.14,0.78,-0.51,-4.94,39.16,-4.37,-1.01,48.08,1.70,1.31,-5.46
-9,-10,90,5,-426,3929,0.05,0.07,1.25,0.05,-4.26,39.29,-4.38,-1.01,48.08,2.47,2.80,-6.45
-1,-13,116,-75,-414,3949,0.04,-0.02,1.83,-0.75,-4.14,39.49,-4.39,-0.99,48.07,0.40,3.24,-8.11
-4,-8,133,-22,-455,3923,0.01,-0.06,2.46,-0.22,-4.55,39.23,-4.41,-0.98,48.06,1.05,1.79,-8.96
-10,-4,155,-10,-324,3963,-0.05,-0.08,3.16,-0.10,-3.24,39.63,-4.42,-0.96,48.05,2.34,0.71,-10.17
-5,-5,148,41,-222,3934,-0.08,-0.10,3.74,0.41,-2.22,39.34,-4.40,-0.96,48.03,0.98,0.88,-9.02
0,4,151,-35,-397,3948,-0.07,-0.07,4.29,-0.35,-3.97,39.48,-4.41,-0.94,48.01,-0.26,-1.28,-8.76
0,2,160,27,-416,3906,-0.06,-0.05,4.84,0.27,-4.16,39.06,-4.43,-0.93,47.99,-0.24,-0.70,-9.01
5,-2,196,35,-365,3914,-0.03,-0.06,5.55,0.35,-3.65,39.14,-4.45,-0.93,47.97,-1.37,0.29,-11.39
-7,3,207,23,-315,3927,-0.07,-0.03,6.26,0.23,-3.15,39.27,-4.45,-0.91,47.95,1.53,-0.89,-11.66
0,-9,227,71,-266,3959,-0.06,-0.09,7.02,0.71,-2.66,39.59,-4.43,-0.91,47.92,-0.22,1.97,-12.64
-6,-4,225,58,-243,3938,-0.09,-0.10,7.69,0.58,-2.43,39.38,-4.42,-0.90,47.89,1.19,0.64,-11.84
2,7,209,12,-237,3922,-0.07,-0.05,8.19,0.12,-2.37,39.22,-4.40,-0.89,47.86,-0.77,-1.96,-10.01
-2,5,198,46,-252,3932,-0.07,-0.01,8.58,0.46,-2.52,39.32,-4.39,-0.88,47.82,0.23,-1.32,-8.72
7,8,211,68,-414,3879,-0.02,0.04,9.01,0.68,-4.14,38.79,-4.40,-0.88,47.79,-1.87,-1.89,-9.42
1,0,223,43,-415,3909,-0.02,0.03,9.47,0.43,-4.15,39.09,-4.42,-0.88,47.75,-0.31,0.13,-10.00
-14,-13,269,-7,-356,3976,-0.10,-0.05,10.16,-0.07,-3.56,39.76,-4.44,-0.86,47.71,3.18,3.12,-13.25
1,-2,262,-11,-276,3908,-0.08,-0.06,10.75,-0.11,-2.76,39.08,-4.43,-0.84,47.66,-0.57,0.30,-12.11
2,6,252,71,-269,3959,-0.06,-0.01,11.21,0.71,-2.69,39.59,-4.41,-0.84,47.62,-0.75,-1.58,-10.83
1,8,279,99,-368,3911,-0.05,0.04,11.79,0.99,-3.68,39.11,-4.43,-0.85,47.57,-0.44,-1.90,-12.57
15,22,344,84,-334,3950,0.05,0.17,12.71,0.84,-3.34,39.50,-4.44,-0.85,47.52,-3.64,-4.96,-17.21
2,26,364,147,-274,3905,0.05,0.31,13.66,1.47,-2.74,39.05,-4.44,-0.87,47.47,-0.31,-5.45,-18.02
-10,21,396,-2,-282,4001,-0.01,0.41,14.71,-0.02,-2.82,40.01,-4.43,-0.84,47.41,2.49,-3.81,-19.74
4,21,407,-25,-305,3937,0.01,0.49,15.72,-0.25,-3.05,39.37,-4.43,-0.82,47.35,-0.97,-3.48,-19.72
3,5,414,9,-178,3962,0.03,0.47,16.67,0.09,-1.78,39.62,-4.42,-0.80,47.28,-0.65,0.52,-19.42
1,14,420,9,-185,3927,0.03,0.51,17.57,0.09,-1.85,39.27,-4.40,-0.79,47.21,-0.13,-1.63,-19.09
-2,14,427,5,-263,3891,0.02,0.55,18.42,0.05,-2.63,38.91,-4.39,-0.77,47.14,0.57,-1.50,-18.89
-9,13,425,27,-277,3918,-0.04,0.57,19.17,0.27,-2.77,39.18,-4.38,-0.75,47.06,2.14,-1.15,-18.01
-4,17,432,65,-241,3866,-0.06,0.62,19.89,0.65,-2.41,38.66,-4.36,-0.74,46.98,0.79,-1.99,-17.93
8,12,420,66,-214,3969,-0.00,0.63,20.46,0.66,-2.14,39.69,-4.35,-0.74,46.90,-2.05,-0.68,-16.37
4,10,435,71,-239,3939,0.02,0.63,21.07,0.71,-2.39,39.39,-4.33,-0.73,46.82,-0.94,-0.18,-17.08
-2,19,447,56,-360,3966,0.01,0.68,21.69,0.56,-3.60,39.66,-4.35,-0.73,46.73,0.53,-2.27,-17.51
5,4,460,46,-350,3938,0.04,0.64,22.32,0.46,-3.50,39.38,-4.37,-0.71,46.64,-1.14,1.38,-18.01
-5,9,466,30,-457,3863,0.00,0.63,22.93,0.30,-4.57,38.63,-4.39,-0.70,46.55,1.28,0.08,-17.95
-4,-1,481,42,-444,3835,-0.02,0.56,23.57,0.42,-4.44,38.35,-4.41,-0.69,46.46,0.93,2.36,-18.62
-4,13,482,3,-418,3984,-0.04,0.58,24.16,0.03,-4.18,39.84,-4.42,-0.68,46.36,0.85,-1.11,-18.15
-12,3,480,115,-382,3883,-0.11,0.54,24.67,1.15,-3.82,38.83,-4.44,-0.68,46.26,2.62,1.28,-17.50
-2,16,451,-49,-263,4012,-0.11,0.59,24.95,-0.49,-2.63,40.12,-4.43,-0.65,46.16,0.08,-1.86,-14.78
4,12,417,-65,-316,3908,-0.08,0.60,25.00,-0.65,-3.16,39.08,-4.44,-0.62,46.06,-1.31,-0.79,-11.85
-7,13,402,-57,-330,3973,-0.11,0.62,24.95,-0.57,-3.30,39.73,-4.44,-0.60,45.96,1.35,-0.97,-10.63
2,6,305,-26,-296,3937,-0.09,0.59,24.32,-0.26,-2.96,39.37,-4.44,-0.57,45.87,-0.85,0.71,-3.01
0,2,293,-12,-321,3916,-0.08,0.55,23.67,-0.12,-3.21,39.16,-4.45,-0.54,45.77,-0.30,1.55,-2.60
-1,1,278,61,-327,3927,-0.08,0.50,23.00,0.61,-3.27,39.27,-4.46,-0.54,45.68,-0.04,1.62,-1.96
-4,0,273,58,-278,3912,-0.10,0.45,22.37,0.58,-2.78,39.12,-4.45,-0.55,45.59,0.66,1.69,-2.13
1,2,252,-33,-293,3915,-0.08,0.42,21.67,-0.33,-2.93,39.15,-4.45,-0.52,45.51,-0.55,1.06,-1.01
-3,1,254,78,-361,3973,-0.09,0.38,21.05,0.78,-3.61,39.73,-4.46,-0.52,45.42,0.42,1.18,-1.75
0,10,245,-2,-288,3898,-0.08,0.40,20.44,-0.02,-2.88,38.98,-4.46,-0.50,45.34,-0.31,-1.02,-1.57
-1,2,230,-37,-209,3917,-0.08,0.38,19.80,-0.37,-2.09,39.17,-4.44,-0.48,45.26,-0.04,0.91,-0.90
-2,3,164,-31,-283,3930,-0.08,0.36,18.82,-0.31,-2.83,39.30,-4.44,-0.46,45.19,0.19,0.58,3.78
0,-2,137,-70,-248,3921,-0.08,0.31,17.77,-0.70,-2.48,39.21,-4.43,-0.43,45.12,-0.28,1.67,5.08
4,7,116,30,-365,3918,-0.04,0.32,16.70,0.30,-3.65,39.18,-4.45,-0.43,45.05,-1.18,-0.57,5.86
1,1,115,51,-375,3913,-0.03,0.29,15.73,0.51,-3.75,39.13,-4.47,-0.43,44.99,-0.38,0.85,5.03
-3,-3,112,18,-303,3923,-0.05,0.25,14.84,0.18,-3.03,39.23,-4.46,-0.40,44.93,0.58,1.69,4.45
-2,-7,104,31,-311,3914,-0.06,0.18,13.99,0.31,-3.11,39.14,-4.48,-0.41,44.87,0.30,2.45,4.33
-1,3,98,91,-356,3915,-0.06,0.18,13.19,0.91,-3.56,39.15,-4.49,-0.42,44.82,0.04,-0.09,4.08
1,2,88,110,-367,3923,-0.04,0.17,12.41,1.10,-3.67,39.23,-4.50,-0.43,44.77,-0.42,0.15,4.20
-1,-4,99,37,-325,3925,-0.05,0.13,11.77,0.37,-3.25,39.25,-4.52,-0.43,44.72,0.08,1.51,2.67
2,-3,103,-8,-283,3956,-0.03,0.10,11.22,-0.08,-2.83,39.56,-4.51,-0.41,44.68,-0.62,1.14,1.81
0,0,92,48,-296,3926,-0.03,0.09,10.66,0.48,-2.96,39.26,-4.50,-0.42,44.63,-0.10,0.34,2.22
1,3,99,62,-316,3926,-0.02,0.10,10.20,0.62,-3.16,39.26,-4.50,-0.44,44.59,-0.32,-0.39,1.19
-3,-4,100,36,-317,3949,-0.03,0.07,9.79,0.36,-3.17,39.49,-4.52,-0.45,44.55,0.63,1.26,0.72
0,-1,98,26,-349,3953,-0.03,0.05,9.41,0.26,-3.49,39.53,-4.53,-0.44,44.52,-0.12,0.45,0.53
2,4,58,-13,-307,3933,-0.02,0.07,8.82,-0.13,-3.07,39.33,-4.53,-0.42,44.48,-0.57,-0.75,3.37
2,5,53,-18,-287,3926,-0.00,0.10,8.26,-0.18,-2.87,39.26,-4.52,-0.40,44.45,-0.51,-0.91,3.27
1,1,36,24,-342,3933,0.00,0.09,7.66,0.24,-3.42,39.33,-4.54,-0.40,44.42,-0.24,0.09,4.14
1,3,29,23,-341,3930,0.01,0.10,7.07,0.23,-3.41,39.30,-4.56,-0.39,44.39,-0.22,-0.38,4.18
0,6,14,35,-334,3931,0.01,0.13,6.45,0.35,-3.34,39.31,-4.58,-0.40,44.36,0.03,-1.05,4.87
0,5,10,38,-335,3940,0.01,0.15,5.86,0.38,-3.35,39.40,-4.59,-0.40,44.34,0.03,-0.72,4.66
1,1,-1,28,-326,3936,0.01,0.14,5.27,0.28,-3.26,39.36,-4.61,-0.40,44.32,-0.20,0.26,5.03
2,-2,-4,28,-321,3936,0.02,0.11,4.72,0.28,-3.21,39.36,-4.63,-0.40,44.30,-0.42,0.93,4.77
4,-5,-5,19,-307,3942,0.05,0.07,4.22,0.19,-3.07,39.42,-4.62,-0.39,44.28,-0.84,1.53,4.38
4,-5,-6,16,-306,3930,0.07,0.03,3.76,0.16,-3.06,39.30,-4.60,-0.37,44.27,-0.77,1.39,4.04
2,-2,-9,34,-312,3916,0.07,0.02,3.33,0.34,-3.12,39.16,-4.60,-0.39,44.26,-0.24,0.57,3.89
1,-2,-11,25,-309,3912,0.07,0.00,2.93,0.25,-3.09,39.12,-4.58,-0.38,44.24,0.01,0.52,3.68
3,-2,-12,12,-317,3934,0.08,-0.01,2.56,0.12,-3.17,39.34,-4.58,-0.36,44.23,-0.45,0.47,3.42
2,-3,-12,14,-313,3935,0.09,-0.03,2.23,0.14,-3.13,39.35,-4.58,-0.35,44.23,-0.18,0.66,3.11
0,-3,-15,59,-315,3932,0.08,-0.04,1.92,0.59,-3.15,39.32,-4.58,-0.36,44.22,0.29,0.60,3.07
1,-3,-16,48,-299,3927,0.08,-0.06,1.63,0.48,-2.99,39.27,-4.57,-0.38,44.21,0.03,0.55,2.88
1,-7,-20,-14,-322,3928,0.07,-0.09,1.34,-0.14,-3.22,39.28,-4.57,-0.36,44.21,0.03,1.43,2.96
2,-5,-14,-3,-331,3942,0.08,-0.11,1.12,-0.03,-3.31,39.42,-4.58,-0.35,44.20,-0.21,0.84,2.24
1,-1,-8,13,-310,3935,0.08,-0.11,0.96,0.13,-3.10,39.35,-4.57,-0.33,44.20,0.04,-0.16,1.58
1,-1,-8,12,-316,3940,0.08,-0.10,0.82,0.12,-3.16,39.40,-4.57,-0.31,44.19,0.03,-0.14,1.45
1,3,-6,-1,-312,3941,0.07,-0.08,0.70,-0.01,-3.12,39.41,-4.57,-0.29,44.19,0.03,-1.05,1.16
2,5,-6,6,-320,3948,0.08,-0.04,0.59,0.06,-3.20,39.48,-4.57,-0.28,44.19,-0.21,-1.41,1.06
1,4,-2,22,-319,3933,0.08,-0.01,0.52,0.22,-3.19,39.33,-4.59,-0.29,44.19,0.04,-1.05,0.66
0,2,1,21,-318,3936,0.07,0.00,0.48,0.21,-3.18,39.36,-4.60,-0.29,44.19,0.26,-0.50,0.36
-1,0,3,15,-326,3935,0.06,0.00,0.45,0.15,-3.26,39.35,-4.62,-0.29,44.18,0.47,0.01,0.16
-1,0,4,14,-331,3929,0.04,0.00,0.43,0.14,-3.31,39.29,-4.64,-0.28,44.18,0.42,0.01,0.06
-1,1,5,22,-313,3926,0.03,0.01,0.41,0.22,-3.13,39.26,-4.62,-0.29,44.18,0.38,-0.22,-0.04
-1,2,6,22,-304,3928,0.02,0.02,0.41,0.22,-3.04,39.28,-4.60,-0.29,44.18,0.35,-0.43,-0.12
1,3,8,16,-313,3941,0.03,0.04,0.42,0.16,-3.13,39.41,-4.59,-0.28,44.18,-0.15,-0.63,-0.29
2,2,9,18,-317,3947,0.04,0.04,0.43,0.18,-3.17,39.47,-4.59,-0.26,44.18,-0.37,-0.34,-0.36
0,2,13,-1,-304,3915,0.03,0.05,0.47,-0.01,-3.04,39.15,-4.58,-0.24,44.17,0.13,-0.31,-0.66
0,2,13,11,-315,3935,0.03,0.06,0.50,0.11,-3.15,39.35,-4.58,-0.22,44.17,0.11,-0.28,-0.63
-1,3,20,17,-323,3931,0.02,0.07,0.57,0.17,-3.23,39.31,-4.60,-0.23,44.17,0.33,-0.49,-1.16
-3,1,19,29,-322,3913,0.00,0.07,0.63,0.29,-3.22,39.13,-4.61,-0.24,44.17,0.77,0.01,-1.02
-1,2,22,5,-311,3920,-0.01,0.08,0.70,0.05,-3.11,39.20,-4.60,-0.22,44.16,0.23,-0.22,-1.21
1,3,32,3,-306,3934,0.00,0.09,0.83,0.03,-3.06,39.34,-4.59,-0.21,44.16,-0.25,-0.44,-1.94
3,5,64,20,-315,3927,0.02,0.11,1.13,0.20,-3.15,39.27,-4.59,-0.23,44.16,-0.69,-0.86,-4.36
1,7,80,34,-319,3925,0.02,0.14,1.51,0.34,-3.19,39.25,-4.59,-0.24,44.15,-0.17,-1.25,-5.36
-1,-3,108,48,-326,3926,0.02,0.11,2.02,0.48,-3.26,39.26,-4.60,-0.26,44.14,0.31,1.17,-7.26
-2,-3,107,16,-294,3954,0.00,0.08,2.47,0.16,-2.94,39.54,-4.58,-0.26,44.13,0.51,1.06,-6.75
-4,-8,147,45,-302,3952,-0.02,0.02,3.12,0.45,-3.02,39.52,-4.57,-0.27,44.12,0.93,2.12,-9.53
-3,-3,162,36,-288,3971,-0.04,0.00,3.79,0.36,-2.88,39.71,-4.56,-0.28,44.10,0.62,0.77,-10.16
-3,8,204,-7,-299,3972,-0.05,0.05,4.66,-0.07,-2.99,39.72,-4.55,-0.26,44.09,0.56,-1.84,-12.91
-6,3,217,74,-331,3877,-0.08,0.06,5.52,0.74,-3.31,38.77,-4.55,-0.28,44.06,1.21,-0.52,-13.21
-5,3,242,36,-253,3935,-0.11,0.08,6.44,0.36,-2.53,39.35,-4.54,-0.28,44.04,0.87,-0.48,-14.46
-4,12,250,6,-267,3950,-0.12,0.14,7.32,0.06,-2.67,39.50,-4.52,-0.27,44.01,0.56,-2.52,-14.31
3,6,290,17,-363,3874,-0.09,0.16,8.36,0.17,-3.63,38.74,-4.54,-0.27,43.98,-1.10,-0.91,-16.72
-8,-7,301,102,-347,3970,-0.13,0.10,9.36,1.02,-3.47,39.70,-4.55,-0.28,43.94,1.54,2.17,-16.71
-13,-6,361,82,-392,3940,-0.20,0.06,10.63,0.82,-3.92,39.40,-4.56,-0.29,43.90,2.57,1.74,-20.61
0,20,361,56,-300,4019,-0.18,0.17,11.76,0.56,-3.00,40.19,-4.55,-0.30,43.85,-0.67,-4.43,-19.54
-2,2,343,7,-231,3878,-0.17,0.17,12.68,0.07,-2.31,38.78,-4.54,-0.30,43.80,-0.14,0.13,-17.15
-11,-1,335,-8,-215,3883,-0.22,0.15,13.46,-0.08,-2.15,38.83,-4.52,-0.29,43.75,1.96,0.80,-15.75
-6,4,317,-25,-204,3928,-0.24,0.16,14.04,-0.25,-2.04,39.28,-4.50,-0.27,43.69,0.64,-0.43,-13.67
-2,2,321,23,-321,3948,-0.22,0.15,14.60,0.23,-3.21,39.48,-4.52,-0.27,43.63,-0.34,0.06,-13.49
-6,4,326,9,-261,3957,-0.24,0.16,15.13,0.09,-2.61,39.57,-4.50,-0.27,43.57,0.63,-0.41,-13.42
-5,1,324,59,-322,3917,-0.25,0.15,15.59,0.59,-3.22,39.17,-4.51,-0.28,43.51,0.35,0.32,-12.81
6,-1,375,78,-331,3926,-0.18,0.13,16.32,0.78,-3.31,39.26,-4.52,-0.29,43.44,-2.22,0.74,-16.45
-13,-4,404,74,-358,4014,-0.24,0.09,17.15,0.74,-3.58,40.14,-4.53,-0.30,43.38,2.38,1.37,-18.12
4,10,471,65,-358,3947,-0.20,0.14,18.31,0.65,-3.58,39.47,-4.55,-0.30,43.30,-1.75,-2.00,-22.71
1,-7,474,80,-341,3907,-0.17,0.09,19.37,0.80,-3.41,39.07,-4.56,-0.31,43.23,-0.90,2.11,-21.97
-7,5,467,-31,-203,3895,-0.20,0.11,20.28,-0.31,-2.03,38.95,-4.54,-0.30,43.14,1.04,-0.86,-20.52
-11,5,476,40,-321,3956,-0.24,0.13,21.16,0.40,-3.21,39.56,-4.55,-0.31,43.06,1.88,-0.79,-20.46
-8,6,477,49,-201,3967,-0.27,0.15,21.95,0.49,-2.01,39.67,-4.53,-0.31,42.97,1.02,-0.95,-19.80
-1,5,476,-22,-282,3946,-0.25,0.17,22.66,-0.22,-2.82,39.46,-4.52,-0.28,42.88,-0.68,-0.64,-19.05
-3,-3,461,-35,-393,3930,-0.24,0.13,23.21,-0.35,-3.93,39.30,-4.54,-0.27,42.79,-0.14,1.26,-17.27
-13,-7,455,-14,-391,3936,-0.30,0.08,23.66,-0.14,-3.91,39.36,-4.56,-0.25,42.70,2.19,2.07,-16.33
-6,2,450,33,-250,3944,-0.30,0.08,24.04,0.33,-2.50,39.44,-4.54,-0.25,42.60,0.38,-0.20,-15.55
-7,-2,463,75,-385,3911,-0.32,0.06,24.46,0.75,-3.85,39.11,-4.56,-0.25,42.50,0.59,0.74,-16.26
-8,-1,502,37,-451,3844,-0.33,0.05,25.08,0.37,-4.51,38.44,-4.58,-0.24,42.40,0.78,0.44,-18.99
-8,-4,504,41,-424,4025,-0.35,0.02,25.64,0.41,-4.24,40.25,-4.60,-0.24,42.30,0.72,1.09,-18.62
-10,-7,551,127,-385,4014,-0.37,-0.03,26.44,1.27,-3.85,40.14,-4.61,-0.25,42.19,1.13,1.68,-21.86
-9,7,552,64,-303,3985,-0.39,0.02,27.16,0.64,-3.03,39.85,-4.60,-0.26,42.09,0.81,-1.70,-21.26
-6,1,627,107,-362,3958,-0.39,0.02,28.27,1.07,-3.62,39.58,-4.61,-0.26,41.97,0.06,-0.16,-26.58
-5,-1,651,124,-438,3940,-0.38,0.02,29.42,1.24,-4.38,39.40,-4.63,-0.27,41.86,-0.16,0.31,-27.54
-25,-12,740,103,-366,3900,-0.50,-0.06,30.99,1.03,-3.66,39.00,-4.64,-0.27,41.73,4.49,2.83,-33.60
-52,-16,767,81,-405,3871,-0.76,-0.15,32.57,0.81,-4.05,38.71,-4.66,-0.27,41.60,10.34,3.50,-34.40
-32,-20,816,9,-308,3900,-0.88,-0.26,34.29,0.09,-3.08,39.00,-4.65,-0.25,41.47,4.81,4.11,-36.94
-30,1,819,37,-335,3962,-0.98,-0.23,35.86,0.37,-3.35,39.62,-4.67,-0.25,41.32,3.95,-1.11,-35.72
-16,4,827,-42,-293,3969,-0.98,-0.18,37.31,-0.42,-2.93,39.69,-4.66,-0.23,41.17,0.39,-1.69,-35.03
-8,11,832,-98,-197,3982,-0.93,-0.09,38.66,-0.98,-1.97,39.82,-4.65,-0.20,41.02,-1.46,-3.15,-34.19
-6,14,782,-107,-218,3890,-0.87,0.00,39.56,-1.07,-2.18,38.90,-4.64,-0.18,40.86,-1.76,-3.56,-29.11
-7,3,774,-74,-120,3944,-0.83,0.02,40.33,-0.74,-1.20,39.44,-4.63,-0.16,40.70,-1.34,-0.69,-27.71
-18,15,707,-66,-220,3992,-0.85,0.11,40.61,-0.66,-2.20,39.92,-4.62,-0.13,40.54,1.36,-3.40,-21.77
0,11,708,-92,-290,3828,-0.77,0.16,40.87,-0.92,-2.90,38.28,-4.62,-0.10,40.38,-2.90,-2.17,-21.61
-9,14,722,88,-379,3868,-0.75,0.23,41.18,0.88,-3.79,38.68,-4.64,-0.10,40.21,-0.53,-2.68,-22.50
-9,2,712,92,-445,3833,-0.73,0.22,41.41,0.92,-4.45,38.33,-4.65,-0.09,40.05,-0.45,0.33,-21.44
-13,8,782,214,-316,3922,-0.73,0.25,42.04,2.14,-3.16,39.22,-4.66,-0.10,39.88,0.54,-1.09,-26.78
-13,9,843,9,-428,3759,-0.74,0.28,42.98,0.09,-4.28,37.59,-4.68,-0.08,39.71,0.52,-1.24,-31.07
-23,18,897,169,-351,3827,-0.81,0.36,44.15,1.69,-3.51,38.27,-4.69,-0.09,39.53,2.81,-3.22,-34.54
-17,19,893,81,-384,4004,-0.83,0.44,45.18,0.81,-3.84,40.04,-4.70,-0.08,39.35,1.20,-3.17,-33.24
-11,18,912,-86,-409,3936,-0.81,0.51,46.23,-0.86,-4.09,39.36,-4.72,-0.05,39.17,-0.27,-2.67,-33.86
-19,12,917,-1,-351,3880,-0.85,0.53,47.20,-0.01,-3.51,38.80,-4.74,-0.03,38.98,1.64,-1.06,-33.38
-17,-4,909,9,-228,3864,-0.87,0.45,48.02,0.09,-2.28,38.64,-4.72,-0.02,38.79,1.06,2.72,-31.92
-21,3,929,-57,-378,4000,-0.91,0.42,48.89,-0.57,-3.78,40.00,-4.74,0.02,38.59,1.92,0.84,-32.81
-23,0,913,-43,-323,3838,-0.96,0.38,49.57,-0.43,-3.23,38.38,-4.74,0.05,38.40,2.24,1.44,-30.81
-18,0,916,30,-296,4065,-0.97,0.34,50.20,0.30,-2.96,40.65,-4.73,0.06,38.20,0.92,1.30,-30.47
-20,0,886,-88,-304,3932,-1.00,0.31,50.58,-0.88,-3.04,39.32,-4.73,0.09,38.00,1.33,1.17,-27.57
-10,5,872,7,-195,3984,-0.96,0.31,50.84,0.07,-1.95,39.84,-4.72,0.11,37.79,-1.07,-0.11,-26.14
-9,15,817,-90,-383,3977,-0.92,0.37,50.74,-0.90,-3.83,39.77,-4.73,0.14,37.59,-1.17,-2.42,-21.58
-17,4,798,-48,-368,3877,-0.93,0.36,50.54,-0.48,-3.68,38.77,-4.75,0.17,37.39,0.82,0.33,-20.16
-17,3,731,-201,-409,4007,-0.94,0.34,49.94,-2.01,-4.09,40.07,-4.76,0.21,37.19,0.78,0.52,-15.04
5,8,732,-72,-200,4038,-0.82,0.35,49.41,-0.72,-2.00,40.38,-4.74,0.23,36.99,-4.34,-0.70,-15.62
-7,3,668,-118,-314,3838,-0.78,0.34,48.55,-1.18,-3.14,38.38,-4.75,0.27,36.80,-1.15,0.51,-11.01
-18,3,650,-214,-407,3908,-0.81,0.32,47.66,-2.14,-4.07,39.08,-4.76,0.30,36.61,1.53,0.45,-10.32
-10,4,543,-139,-243,3939,-0.79,0.31,46.20,-1.39,-2.43,39.39,-4.75,0.33,36.43,-0.43,0.17,-2.62
5,-1,516,-234,-256,3911,-0.68,0.28,44.73,-2.34,-2.56,39.11,-4.74,0.37,36.25,-3.83,1.30,-1.72
-23,4,439,8,-390,3862,-0.75,0.27,42.94,0.08,-3.90,38.62,-4.76,0.38,36.08,3.01,0.01,3.12
-2,1,431,-98,-358,3941,-0.69,0.25,41.27,-0.98,-3.58,39.41,-4.77,0.41,35.91,-2.09,0.70,2.23
-9,-16,386,-28,-336,3951,-0.67,0.13,39.50,-0.28,-3.36,39.51,-4.79,0.42,35.76,-0.25,4.55,4.38
-11,-5,395,82,-300,3998,-0.67,0.09,37.96,0.82,-3.00,39.98,-4.79,0.42,35.60,0.26,1.59,2.17
-6,-25,413,11,-519,3941,-0.64,-0.08,36.68,0.11,-5.19,39.41,-4.81,0.42,35.46,-0.90,6.07,-0.55
-7,-19,436,36,-452,3935,-0.62,-0.18,35.67,0.36,-4.52,39.35,-4.82,0.43,35.32,-0.56,4.14,-3.45
-25,-8,474,1,-429,3875,-0.71,-0.21,35.00,0.01,-4.29,38.75,-4.84,0.43,35.18,3.67,1.23,-7.30
-4,-15,502,-45,-256,3995,-0.67,-0.28,34.56,-0.45,-2.56,39.95,-4.83,0.45,35.04,-1.49,2.74,-10.08
-2,2,503,-71,-279,4004,-0.61,-0.24,34.17,-0.71,-2.79,40.04,-4.81,0.47,34.90,-1.79,-1.43,-10.53
-8,6,497,-5,-317,3865,-0.60,-0.18,33.79,-0.05,-3.17,38.65,-4.81,0.46,34.77,-0.22,-2.21,-10.38
1,5,465,-58,-234,3975,-0.53,-0.13,33.24,-0.58,-2.34,39.75,-4.79,0.47,34.63,-2.26,-1.77,-8.18
-4,3,428,-45,-218,3915,-0.50,-0.10,32.53,-0.45,-2.18,39.15,-4.77,0.49,34.51,-0.88,-1.15,-5.72
2,1,391,-46,-232,3940,-0.44,-0.09,31.66,-0.46,-2.32,39.40,-4.76,0.50,34.38,-2.17,-0.58,-3.40
1,1,390,37,-230,3961,-0.39,-0.07,30.88,0.37,-2.30,39.61,-4.74,0.50,34.26,-1.73,-0.52,-4.05
-3,4,412,61,-341,3881,-0.37,-0.04,30.30,0.61,-3.41,38.81,-4.75,0.49,34.13,-0.63,-1.17,-6.46
1,8,419,-2,-331,4037,-0.33,0.01,29.83,-0.02,-3.31,40.37,-4.74,0.48,34.02,-1.49,-1.98,-7.49
-7,13,429,-7,-439,4006,-0.34,0.09,29.46,-0.07,-4.39,40.06,-4.76,0.49,33.90,0.51,-2.96,-8.69
-7,24,426,-124,-361,3987,-0.35,0.23,29.11,-1.24,-3.61,39.87,-4.77,0.52,33.78,0.48,-5.24,-8.76
-12,16,464,89,-382,3884,-0.38,0.30,29.03,0.89,-3.82,38.84,-4.78,0.51,33.67,1.60,-2.92,-12.05
-4,15,473,-34,-365,3977,-0.37,0.36,29.01,-0.34,-3.65,39.77,-4.79,0.52,33.55,-0.38,-2.44,-12.83
-16,15,457,73,-517,3940,-0.43,0.42,28.90,0.73,-5.17,39.40,-4.81,0.52,33.44,2.44,-2.23,-11.58
7,3,454,-232,-301,3894,-0.35,0.40,28.78,-2.32,-3.01,38.94,-4.81,0.55,33.32,-3.08,0.73,-11.44
-15,22,469,102,-336,3980,-0.40,0.49,28.76,1.02,-3.36,39.80,-4.81,0.55,33.21,2.30,-3.74,-12.73
-14,18,457,-128,-287,3885,-0.45,0.55,28.67,-1.28,-2.87,38.85,-4.80,0.57,33.09,1.87,-2.50,-11.80
3,18,456,-63,-258,3940,-0.38,0.61,28.59,-0.63,-2.58,39.40,-4.79,0.59,32.98,-2.21,-2.29,-11.79
0,12,468,-59,-235,3917,-0.35,0.62,28.58,-0.59,-2.35,39.17,-4.77,0.61,32.87,-1.30,-0.72,-12.81
-7,14,469,18,-298,3938,-0.35,0.64,28.59,0.18,-2.98,39.38,-4.76,0.60,32.75,0.45,-1.14,-12.89
-18,12,475,48,-339,3924,-0.43,0.65,28.63,0.48,-3.39,39.24,-4.76,0.60,32.64,2.96,-0.60,-13.37
-4,-3,502,17,-344,3994,-0.41,0.57,28.83,0.17,-3.44,39.94,-4.77,0.59,32.52,-0.53,2.90,-15.47
-5,8,506,59,-397,3946,-0.40,0.56,29.03,0.59,-3.97,39.46,-4.78,0.59,32.41,-0.23,0.07,-15.61
-5,11,550,66,-286,3903,-0.39,0.57,29.48,0.66,-2.86,39.03,-4.77,0.58,32.29,-0.20,-0.65,-18.92
-8,13,571,-60,-210,3955,-0.40,0.59,30.02,-0.60,-2.10,39.55,-4.75,0.60,32.17,0.53,-1.07,-20.19
-18,8,589,52,-269,3978,-0.47,0.58,30.61,0.52,-2.69,39.78,-4.74,0.60,32.05,2.81,0.16,-21.16
-10,11,590,81,-238,3987,-0.48,0.59,31.15,0.81,-2.38,39.87,-4.73,0.59,31.92,0.72,-0.57,-20.74
-2,10,623,40,-300,4029,-0.45,0.59,31.83,0.40,-3.00,40.29,-4.73,0.59,31.80,-1.18,-0.31,-22.90
-11,6,625,68,-360,3872,-0.47,0.57,32.46,0.68,-3.60,38.72,-4.73,0.58,31.67,1.03,0.62,-22.47
-1,10,678,13,-336,3908,-0.43,0.57,33.35,0.13,-3.36,39.08,-4.74,0.58,31.54,-1.36,-0.38,-26.13
-9,5,697,15,-308,3861,-0.44,0.55,34.27,0.15,-3.08,38.61,-4.74,0.58,31.40,0.63,0.79,-26.88
-17,7,716,-48,-230,3903,-0.50,0.54,35.21,-0.48,-2.30,39.03,-4.72,0.59,31.26,2.44,0.24,-27.60
-8,4,722,59,-372,3881,-0.50,0.51,36.09,0.59,-3.72,38.81,-4.73,0.59,31.12,0.15,0.89,-27.28
-20,8,718,80,-386,4076,-0.57,0.50,36.86,0.80,-3.86,40.76,-4.73,0.59,30.97,2.93,-0.13,-26.22
-8,16,760,-100,-104,3814,-0.56,0.55,37.81,-1.00,-1.04,38.14,-4.72,0.61,30.82,-0.09,-1.99,-28.89
-7,14,749,-45,-324,4027,-0.55,0.58,38.60,-0.45,-3.24,40.27,-4.70,0.63,30.66,-0.29,-1.37,-27.22
-21,7,746,2,-402,3891,-0.62,0.57,39.29,0.02,-4.02,38.91,-4.72,0.63,30.51,2.99,0.35,-26.31
-8,12,737,3,-97,3897,-0.61,0.58,39.86,0.03,-0.97,38.97,-4.70,0.64,30.35,-0.26,-0.85,-25.02
-7,11,742,-2,-242,3883,-0.59,0.59,40.40,-0.02,-2.42,38.83,-4.68,0.65,30.19,-0.45,-0.57,-24.94
-12,13,715,67,-327,4003,-0.61,0.61,40.72,0.67,-3.27,40.03,-4.69,0.65,30.03,0.77,-1.00,-22.35
1,24,730,31,-205,4011,-0.54,0.70,41.10,0.31,-2.05,40.11,-4.67,0.65,29.86,-2.28,-3.47,-23.26
-5,9,723,-33,-272,3918,-0.52,0.68,41.40,-0.33,-2.72,39.18,-4.65,0.67,29.70,-0.67,0.28,-22.38
-9,9,712,43,-342,3957,-0.52,0.67,41.60,0.43,-3.42,39.57,-4.66,0.66,29.53,0.33,0.23,-21.26
-15,13,727,84,-296,3920,-0.56,0.68,41.88,0.84,-2.96,39.20,-4.65,0.66,29.36,1.71,-0.74,-22.27
9,20,703,15,-380,3939,-0.45,0.74,41.98,0.15,-3.80,39.39,-4.67,0.67,29.20,-3.97,-2.31,-20.15
3,28,695,47,-346,3884,-0.38,0.83,42.02,0.47,-3.46,38.84,-4.67,0.67,29.03,-2.21,-3.98,-19.43
-15,18,694,-95,-260,3947,-0.44,0.86,42.05,-0.95,-2.60,39.47,-4.66,0.69,28.86,2.16,-1.34,-19.32
7,17,687,-22,-296,3897,-0.35,0.88,42.04,-0.22,-2.96,38.97,-4.64,0.70,28.70,-3.10,-1.02,-18.74
-9,17,684,-18,-353,3894,-0.37,0.89,42.01,-0.18,-3.53,38.94,-4.66,0.70,28.53,0.89,-0.96,-18.51
-13,15,677,-5,-288,3956,-0.41,0.90,41.93,-0.05,-2.88,39.56,-4.65,0.71,28.36,1.75,-0.44,-17.98
-5,5,677,29,-281,3981,-0.40,0.84,41.87,0.29,-2.81,39.81,-4.64,0.71,28.19,-0.24,1.88,-18.04
-14,14,714,32,-337,3975,-0.45,0.84,42.04,0.32,-3.37,39.75,-4.64,0.71,28.03,1.87,-0.40,-21.02
-7,11,723,22,-408,3845,-0.45,0.82,42.25,0.22,-4.08,38.45,-4.65,0.71,27.86,0.10,0.30,-21.59
-20,8,768,116,-445,3896,-0.52,0.79,42.71,1.16,-4.45,38.96,-4.67,0.71,27.69,3.11,0.93,-24.97
-4,21,790,-28,-228,3940,-0.49,0.84,43.25,-0.28,-2.28,39.40,-4.65,0.73,27.52,-0.85,-2.18,-26.32
-13,9,778,-46,-230,4012,-0.52,0.81,43.67,-0.46,-2.30,40.12,-4.63,0.74,27.34,1.33,0.76,-24.91
-8,3,769,-2,-283,3894,-0.52,0.75,44.00,-0.02,-2.83,38.94,-4.62,0.75,27.17,0.07,2.05,-23.84
-8,10,773,-87,-256,3969,-0.52,0.73,44.31,-0.87,-2.56,39.69,-4.60,0.77,26.99,0.08,0.22,-23.88
-6,3,766,7,-197,4036,-0.50,0.68,44.55,0.07,-1.97,40.36,-4.59,0.78,26.81,-0.37,1.79,-23.07
-3,-2,769,23,-462,3963,-0.47,0.60,44.79,0.23,-4.62,39.63,-4.60,0.79,26.63,-1.01,2.76,-23.10
-15,11,767,-78,-322,3845,-0.52,0.60,44.99,-0.78,-3.22,38.45,-4.61,0.82,26.46,1.87,-0.52,-22.74
-18,9,773,-88,-392,3933,-0.57,0.60,45.21,-0.88,-3.92,39.33,-4.63,0.85,26.28,2.42,-0.03,-23.05
-11,9,808,-79,-298,3901,-0.58,0.59,45.61,-0.79,-2.98,39.01,-4.61,0.88,26.09,0.60,-0.05,-25.63
-8,-1,822,12,-325,3926,-0.57,0.53,46.07,0.12,-3.25,39.26,-4.62,0.88,25.91,-0.13,2.25,-26.39
-8,10,855,-89,-259,3880,-0.57,0.54,46.68,-0.89,-2.59,38.80,-4.60,0.90,25.72,-0.10,-0.52,-28.61
-16,1,864,-10,-408,3985,-0.61,0.49,47.28,-0.10,-4.08,39.85,-4.61,0.91,25.54,1.78,1.59,-28.81
2,15,871,-78,-311,3921,-0.53,0.53,47.86,-0.78,-3.11,39.21,-4.61,0.94,25.35,-2.52,-1.81,-28.85
-7,4,913,-38,-335,3884,-0.52,0.50,48.65,-0.38,-3.35,38.84,-4.62,0.95,25.15,-0.19,0.88,-31.68
-5,10,926,42,-361,3898,-0.50,0.51,49.43,0.42,-3.61,38.98,-4.62,0.95,24.96,-0.62,-0.61,-32.04
-35,4,936,22,-422,4094,-0.66,0.49,50.20,0.22,-4.22,40.94,-4.64,0.95,24.76,6.39,0.82,-32.17
-10,7,925,-32,-159,3891,-0.66,0.48,50.82,-0.32,-1.59,38.91,-4.62,0.97,24.55,0.06,0.03,-30.65
-5,14,908,-221,-230,3811,-0.62,0.52,51.28,-2.21,-2.30,38.11,-4.61,1.00,24.35,-1.08,-1.61,-28.78
-34,9,894,96,-382,3926,-0.77,0.52,51.60,0.96,-3.82,39.26,-4.61,1.01,24.14,5.75,-0.32,-27.29
-12,17,904,-40,-469,3947,-0.76,0.57,51.96,-0.40,-4.69,39.47,-4.63,1.02,23.94,0.17,-2.16,-27.81
-8,23,881,-40,-406,3960,-0.74,0.66,52.14,-0.40,-4.06,39.60,-4.65,1.03,23.73,-0.74,-3.38,-25.69
-11,21,833,-24,-338,3896,-0.73,0.72,52.00,-0.24,-3.38,38.96,-4.65,1.04,23.52,0.04,-2.63,-21.75
-23,12,829,-88,-427,3911,-0.80,0.72,51.86,-0.88,-4.27,39.11,-4.67,1.06,23.32,2.84,-0.34,-21.54
-8,3,814,-54,-328,3960,-0.77,0.67,51.64,-0.54,-3.28,39.60,-4.68,1.06,23.11,-0.86,1.75,-20.48
-3,13,819,-49,-391,3920,-0.71,0.68,51.47,-0.49,-3.91,39.20,-4.69,1.08,22.90,-1.91,-0.75,-21.06
-8,6,767,-99,-364,3867,-0.69,0.65,51.00,-0.99,-3.64,38.67,-4.71,1.10,22.70,-0.55,0.91,-17.10
-7,5,762,-100,-373,3918,-0.66,0.61,50.55,-1.00,-3.73,39.18,-4.72,1.13,22.50,-0.71,1.04,-17.10
-20,14,698,32,-545,3898,-0.72,0.64,49.75,0.32,-5.45,38.98,-4.74,1.14,22.30,2.38,-1.16,-12.42
-13,8,651,-136,-465,3885,-0.72,0.62,48.75,-1.36,-4.65,38.85,-4.75,1.17,22.11,0.58,0.31,-9.38
-17,4,569,-14,-488,3916,-0.76,0.58,47.35,-0.14,-4.88,39.16,-4.77,1.18,21.92,1.48,1.18,-3.76
6,9,546,-170,-242,3978,-0.64,0.58,45.94,-1.70,-2.42,39.78,-4.75,1.21,21.74,-3.95,-0.10,-3.12
-10,4,472,-62,-428,3889,-0.64,0.55,44.23,-0.62,-4.28,38.89,-4.77,1.22,21.56,0.13,1.04,1.53
-4,16,452,-4,-385,4036,-0.60,0.59,42.56,-0.04,-3.85,40.36,-4.78,1.22,21.39,-1.24,-1.84,1.67
2,11,420,-37,-396,3933,-0.53,0.60,40.87,-0.37,-3.96,39.33,-4.79,1.23,21.23,-2.50,-0.54,2.79
-12,-15,404,-15,-413,3900,-0.55,0.45,39.24,-0.15,-4.13,39.00,-4.81,1.23,21.07,0.98,5.50,2.62
-1,-2,378,-70,-257,3918,-0.50,0.39,37.63,-0.70,-2.57,39.18,-4.79,1.24,20.92,-1.63,1.98,3.30
-6,4,374,-44,-286,3914,-0.49,0.38,36.14,-0.44,-2.86,39.14,-4.77,1.24,20.78,-0.31,0.40,2.25
0,11,361,-73,-266,3923,-0.44,0.40,34.73,-0.73,-2.66,39.23,-4.75,1.25,20.64,-1.65,-1.27,2.03
-9,11,357,-9,-400,3886,-0.45,0.43,33.44,-0.09,-4.00,38.86,-4.77,1.25,20.51,0.60,-1.17,1.15
-1,17,314,-5,-472,3958,-0.41,0.49,32.01,-0.05,-4.72,39.58,-4.78,1.26,20.38,-1.29,-2.47,3.45
2,16,303,-23,-355,3902,-0.36,0.54,30.66,-0.23,-3.55,39.02,-4.79,1.25,20.26,-1.85,-2.03,3.11
3,18,343,22,-334,3970,-0.30,0.60,29.68,0.22,-3.34,39.70,-4.79,1.24,20.14,-1.90,-2.33,-1.19
1,16,347,22,-423,3898,-0.27,0.63,28.83,0.22,-4.23,38.98,-4.80,1.24,20.03,-1.26,-1.68,-2.33
-2,11,351,36,-242,4014,-0.25,0.64,28.09,0.36,-2.42,40.14,-4.78,1.24,19.91,-0.44,-0.39,-3.36
3,10,352,-41,-303,3898,-0.21,0.64,27.43,-0.41,-3.03,38.98,-4.77,1.24,19.81,-1.55,-0.15,-4.07
-3,3,319,16,-341,3923,-0.21,0.59,26.63,0.16,-3.41,39.23,-4.77,1.23,19.70,-0.01,1.46,-2.02
-9,12,327,67,-402,3954,-0.24,0.60,25.96,0.67,-4.02,39.54,-4.78,1.22,19.60,1.38,-0.77,-3.33
-10,-4,392,65,-494,3941,-0.28,0.52,25.76,0.65,-4.94,39.41,-4.79,1.22,19.49,1.50,2.97,-9.03
-9,1,398,-30,-373,3922,-0.30,0.47,25.61,-0.30,-3.73,39.22,-4.80,1.22,19.39,1.14,1.53,-9.68
-14,2,458,-11,-429,3883,-0.36,0.44,25.84,-0.11,-4.29,38.83,-4.82,1.22,19.29,2.20,1.14,-14.54
-7,-1,461,-47,-410,3943,-0.37,0.39,26.07,-0.47,-4.10,39.43,-4.83,1.22,19.19,0.40,1.72,-14.58
-6,0,520,-5,-288,3928,-0.37,0.35,26.64,-0.05,-2.88,39.28,-4.82,1.22,19.08,0.15,1.32,-19.05
-12,-3,547,37,-303,3947,-0.40,0.30,27.31,0.37,-3.03,39.47,-4.82,1.21,18.97,1.53,1.88,-20.70
-11,12,585,-20,-374,3871,-0.43,0.34,28.15,-0.20,-3.74,38.71,-4.83,1.20,18.86,1.18,-1.77,-23.14
-11,-3,580,-18,-431,3994,-0.45,0.29,28.87,-0.18,-4.31,39.94,-4.84,1.20,18.74,1.09,1.85,-22.03
-5,12,623,1,-216,3973,-0.44,0.33,29.78,0.01,-2.16,39.73,-4.83,1.21,18.63,-0.38,-1.80,-24.82
