gyroADC_X,gyroADC_Y,gyroADC_Z,accADC_X,accADC_Y,accADC_Z,GyroX,GyroY,GyroZ,AccX,AccY,AccZ,roll_IMU,pitch_IMU,yaw_IMU,roll_PID,pitch_PID,yaw_PID
-16,27,-1,34,-160,3721,-0.45,-1.58,6.57,0.34,-1.60,37.21,-5.10,-0.71,55.90,3.81,0.35,6.82
-6,-27,-69,-145,-429,4041,-0.44,-1.59,5.50,-1.45,-4.29,40.41,-5.11,-0.70,55.88,3.61,1.44,11.20
11,-65,-65,-90,-564,3926,-0.33,-1.83,4.55,-0.90,-5.64,39.26,-5.12,-0.70,55.86,3.25,2.28,9.65
12,-75,-57,-61,-483,3846,-0.22,-2.10,3.75,-0.61,-4.83,38.46,-5.14,-0.69,55.84,3.21,2.55,7.95
-1,-21,-42,63,-176,3835,-0.21,-2.02,3.12,0.63,-1.76,38.35,-5.12,-0.70,55.83,3.46,1.44,5.87
0,-15,-45,57,-238,3881,-0.19,-1.91,2.53,0.57,-2.38,38.81,-5.10,-0.71,55.82,3.42,1.29,5.37
0,7,-54,51,-314,3823,-0.17,-1.68,1.95,0.51,-3.14,38.23,-5.09,-0.72,55.81,3.40,0.79,5.39
-5,15,-41,38,-280,3873,-0.18,-1.42,1.50,0.38,-2.80,38.73,-5.07,-0.72,55.80,3.50,0.56,3.72
-4,0,-17,-14,-280,3902,-0.19,-1.28,1.25,-0.14,-2.80,39.02,-5.06,-0.71,55.80,3.47,0.82,1.36
-2,-6,-11,8,-299,3879,-0.18,-1.18,1.06,0.08,-2.99,38.79,-5.04,-0.70,55.79,3.42,0.91,0.61
-3,-3,0,-30,-347,3907,-0.18,-1.08,0.95,-0.30,-3.47,39.07,-5.04,-0.69,55.79,3.44,0.81,-0.46
-2,0,5,-38,-366,3913,-0.18,-0.98,0.89,-0.38,-3.66,39.13,-5.05,-0.67,55.79,3.42,0.71,-0.96
-2,2,8,-28,-366,3927,-0.17,-0.87,0.85,-0.28,-3.66,39.27,-5.06,-0.66,55.78,3.42,0.63,-1.27
0,13,13,11,-359,3888,-0.15,-0.70,0.84,0.11,-3.59,38.88,-5.06,-0.65,55.78,3.38,0.35,-1.70
-1,18,14,16,-362,3881,-0.14,-0.52,0.84,0.16,-3.62,38.81,-5.07,-0.63,55.77,3.41,0.19,-1.78
-4,27,13,7,-317,4014,-0.15,-0.30,0.84,0.07,-3.17,40.14,-5.06,-0.62,55.77,3.46,-0.06,-1.70
-14,13,11,18,-295,3942,-0.22,-0.19,0.82,0.18,-2.95,39.42,-5.05,-0.61,55.77,3.68,0.19,-1.55
-2,10,15,-30,-391,3862,-0.21,-0.11,0.83,-0.30,-3.91,38.62,-5.06,-0.60,55.76,3.44,0.22,-1.88
0,10,17,-16,-373,3879,-0.19,-0.04,0.85,-0.16,-3.73,38.79,-5.07,-0.58,55.76,3.40,0.19,-2.02
2,4,21,-5,-338,3898,-0.16,-0.01,0.89,-0.05,-3.38,38.98,-5.06,-0.56,55.76,3.35,0.29,-2.31
2,5,20,-11,-349,3905,-0.13,0.02,0.93,-0.11,-3.49,39.05,-5.07,-0.55,55.75,3.34,0.25,-2.18
4,6,24,12,-313,3885,-0.10,0.05,0.98,0.12,-3.13,38.85,-5.05,-0.53,55.75,3.28,0.22,-2.45
1,5,24,18,-341,3891,-0.08,0.08,1.03,0.18,-3.41,38.91,-5.05,-0.51,55.75,3.33,0.22,-2.39
2,7,12,6,-374,3891,-0.06,0.11,1.00,0.06,-3.74,38.91,-5.06,-0.50,55.74,3.32,0.16,-1.41
2,7,10,1,-382,3883,-0.04,0.15,0.96,0.01,-3.82,38.83,-5.08,-0.49,55.74,3.32,0.14,-1.29
1,6,11,-1,-381,3880,-0.03,0.17,0.93,-0.01,-3.81,38.80,-5.09,-0.47,55.73,3.35,0.15,-1.41
1,6,10,-1,-374,3883,-0.02,0.19,0.90,-0.01,-3.74,38.83,-5.10,-0.46,55.73,3.35,0.13,-1.37
0,4,8,-8,-369,3887,-0.02,0.19,0.86,-0.08,-3.69,38.87,-5.11,-0.44,55.73,3.38,0.16,-1.25
1,3,8,-8,-371,3896,-0.01,0.19,0.82,-0.08,-3.71,38.96,-5.12,-0.43,55.72,3.36,0.17,-1.30
1,3,12,-3,-348,3892,-0.00,0.19,0.81,-0.03,-3.48,38.92,-5.12,-0.41,55.72,3.36,0.15,-1.65
2,3,13,-5,-351,3894,0.01,0.19,0.81,-0.05,-3.51,38.94,-5.12,-0.39,55.72,3.34,0.14,-1.74
-7,2,13,2,-292,3956,-0.04,0.18,0.81,0.02,-2.92,39.56,-5.10,-0.38,55.71,3.52,0.16,-1.74
3,8,9,16,-368,3868,-0.01,0.21,0.78,0.16,-3.68,38.68,-5.12,-0.37,55.71,3.32,0.02,-1.43
2,7,12,-4,-363,3878,0.00,0.24,0.78,-0.04,-3.63,38.78,-5.13,-0.35,55.71,3.34,0.03,-1.69
4,6,13,-1,-346,3887,0.02,0.25,0.78,-0.01,-3.46,38.87,-5.13,-0.33,55.70,3.30,0.03,-1.78
2,8,11,5,-380,3890,0.03,0.27,0.77,0.05,-3.80,38.90,-5.14,-0.32,55.70,3.34,-0.02,-1.62
1,6,12,1,-370,3878,0.04,0.28,0.76,0.01,-3.70,38.78,-5.16,-0.31,55.70,3.37,0.01,-1.71
2,4,14,7,-342,3888,0.05,0.28,0.77,0.07,-3.42,38.88,-5.15,-0.29,55.70,3.34,0.04,-1.87
2,4,17,4,-341,3894,0.05,0.27,0.80,0.04,-3.41,38.94,-5.14,-0.27,55.69,3.33,0.03,-2.09
0,-3,22,0,-328,3868,0.05,0.23,0.85,0.00,-3.28,38.68,-5.12,-0.26,55.69,3.37,0.17,-2.44
0,-3,20,-7,-332,3890,0.04,0.19,0.89,-0.07,-3.32,38.90,-5.11,-0.24,55.69,3.36,0.17,-2.23
0,-5,7,1,-347,3907,0.04,0.14,0.84,0.01,-3.47,39.07,-5.11,-0.23,55.68,3.36,0.21,-1.18
1,-7,3,-109,-360,3905,0.04,0.08,0.78,-1.09,-3.60,39.05,-5.11,-0.21,55.68,3.34,0.26,-0.93
0,-26,13,30,-350,3907,0.04,-0.09,0.78,0.30,-3.50,39.07,-5.11,-0.23,55.68,3.36,0.70,-1.77
-1,-16,14,22,-329,3847,0.03,-0.17,0.79,0.22,-3.29,38.47,-5.09,-0.23,55.67,3.38,0.53,-1.85
-2,5,13,-1,-368,3976,0.01,-0.13,0.79,-0.01,-3.68,39.76,-5.11,-0.22,55.67,3.41,0.08,-1.76
-3,2,11,7,-372,3901,-0.01,-0.10,0.78,0.07,-3.72,39.01,-5.12,-0.21,55.67,3.44,0.13,-1.61
-2,-2,8,-7,-379,3892,-0.02,-0.10,0.75,-0.07,-3.79,38.92,-5.14,-0.20,55.66,3.44,0.20,-1.39
-1,-3,7,-10,-382,3873,-0.02,-0.11,0.72,-0.10,-3.82,38.73,-5.15,-0.19,55.66,3.43,0.22,-1.35
-3,-8,5,-24,-404,3888,-0.04,-0.15,0.67,-0.24,-4.04,38.88,-5.17,-0.18,55.66,3.48,0.32,-1.23
-3,-8,3,-18,-386,3892,-0.05,-0.18,0.63,-0.18,-3.86,38.92,-5.18,-0.17,55.66,3.50,0.33,-1.12
-2,-8,-1,-15,-355,3893,-0.06,-0.21,0.56,-0.15,-3.55,38.93,-5.18,-0.15,55.65,3.48,0.32,-0.87
-1,-5,0,-25,-359,3902,-0.06,-0.22,0.50,-0.25,-3.59,39.02,-5.19,-0.14,55.65,3.46,0.25,-1.03
1,-8,6,-2,-336,3896,-0.05,-0.25,0.49,-0.02,-3.36,38.96,-5.17,-0.13,55.65,3.41,0.31,-1.55
3,-8,6,-3,-344,3890,-0.03,-0.27,0.48,-0.03,-3.44,38.90,-5.16,-0.11,55.65,3.35,0.31,-1.57
1,-6,14,-5,-348,3885,-0.02,-0.28,0.51,-0.05,-3.48,38.85,-5.16,-0.10,55.65,3.39,0.26,-2.20
0,-4,15,-18,-326,3871,-0.01,-0.28,0.55,-0.18,-3.26,38.71,-5.14,-0.08,55.64,3.40,0.21,-2.23
0,3,17,6,-339,3938,-0.01,-0.23,0.60,0.06,-3.39,39.38,-5.13,-0.08,55.64,3.39,0.06,-2.34
-13,1,26,3,-258,3989,-0.09,-0.20,0.70,0.03,-2.58,39.89,-5.11,-0.08,55.64,3.66,0.09,-2.98
10,-32,57,31,-278,3932,-0.02,-0.38,0.98,0.31,-2.78,39.32,-5.09,-0.09,55.63,3.16,0.81,-5.25
12,-31,67,-17,-337,4014,0.05,-0.53,1.29,-0.17,-3.37,40.14,-5.08,-0.08,55.63,3.09,0.83,-5.70
13,-7,33,14,-237,3826,0.13,-0.52,1.36,0.14,-2.37,38.26,-5.06,-0.08,55.62,3.04,0.34,-2.72
13,12,38,110,-384,3863,0.19,-0.39,1.46,1.10,-3.84,38.63,-5.07,-0.10,55.62,3.03,-0.07,-3.02
22,-27,42,-60,-324,3976,0.31,-0.52,1.57,-0.60,-3.24,39.76,-5.06,-0.08,55.61,2.81,0.75,-3.22
22,-38,37,-5,-359,3934,0.41,-0.70,1.64,-0.05,-3.59,39.34,-5.07,-0.07,55.60,2.79,1.01,-2.71
27,-60,48,-70,-268,3860,0.54,-1.00,1.77,-0.70,-2.68,38.60,-5.05,-0.06,55.60,2.64,1.53,-3.48
15,-53,40,-100,-239,3787,0.57,-1.22,1.83,-1.00,-2.39,37.87,-5.04,-0.06,55.59,2.86,1.45,-2.71
-19,49,-124,-80,142,3831,0.40,-0.80,0.89,-0.80,1.42,38.31,-5.02,-0.05,55.58,3.59,-0.74,9.98
-25,56,-190,-73,78,3806,0.21,-0.38,-0.36,-0.73,0.78,38.06,-5.00,-0.05,55.59,3.75,-1.00,13.98
-1,41,-387,33,-447,4057,0.18,-0.09,-2.68,0.33,-4.47,40.57,-5.02,-0.06,55.60,3.28,-0.77,20.00
-20,8,-382,34,-474,4013,0.04,-0.03,-4.74,0.34,-4.74,40.13,-5.04,-0.07,55.62,3.72,-0.11,20.00
-6,-8,-250,-1,-736,3758,0.00,-0.08,-5.79,-0.01,-7.36,37.58,-5.05,-0.07,55.64,3.46,0.23,12.10
-6,26,-185,54,-759,3883,-0.04,0.09,-6.34,0.54,-7.59,38.83,-5.07,-0.07,55.66,3.48,-0.51,5.89
11,-26,-47,36,-574,4007,0.03,-0.08,-5.99,0.36,-5.74,40.07,-5.09,-0.08,55.69,3.13,0.60,-5.36
14,-44,-32,21,-514,3993,0.12,-0.34,-5.59,0.21,-5.14,39.93,-5.11,-0.08,55.71,3.05,1.04,-6.11
10,-18,-25,3,-311,3801,0.17,-0.41,-5.18,0.03,-3.11,38.01,-5.09,-0.08,55.73,3.11,0.53,-6.18
2,-4,-39,31,-304,3772,0.16,-0.40,-4.90,0.31,-3.04,37.72,-5.07,-0.10,55.75,3.26,0.26,-4.64
-1,30,-95,49,-394,3929,0.14,-0.17,-4.99,0.49,-3.94,39.29,-5.09,-0.11,55.77,3.34,-0.49,-0.01
2,19,-92,49,-437,3972,0.14,-0.04,-5.05,0.49,-4.37,39.72,-5.10,-0.12,55.79,3.29,-0.29,-0.34
12,-40,-52,6,-367,3950,0.20,-0.28,-4.87,0.06,-3.67,39.50,-5.12,-0.12,55.81,3.08,0.97,-3.49
14,-46,-52,32,-348,3910,0.26,-0.53,-4.70,0.32,-3.48,39.10,-5.12,-0.15,55.83,3.02,1.18,-3.28
6,-38,-74,-62,-331,3843,0.27,-0.71,-4.68,-0.62,-3.31,38.43,-5.11,-0.13,55.85,3.18,1.05,-1.39
1,-16,-95,-57,-301,3812,0.25,-0.74,-4.79,-0.57,-3.01,38.12,-5.10,-0.12,55.86,3.28,0.61,0.25
0,18,-85,50,-445,3936,0.23,-0.55,-4.83,0.50,-4.45,39.36,-5.12,-0.13,55.88,3.32,-0.13,-0.65
0,6,-69,8,-443,3974,0.20,-0.46,-4.77,0.08,-4.43,39.74,-5.13,-0.14,55.90,3.33,0.09,-1.93
14,-37,-37,12,-343,3890,0.27,-0.64,-4.52,0.12,-3.43,38.90,-5.12,-0.15,55.92,3.02,1.02,-4.32
12,-35,-33,16,-339,3890,0.32,-0.79,-4.27,0.16,-3.39,38.90,-5.10,-0.16,55.94,3.04,1.03,-4.34
11,-25,-11,-10,-363,3896,0.35,-0.86,-3.91,-0.10,-3.63,38.96,-5.11,-0.15,55.95,3.05,0.84,-5.74
11,-27,-9,-14,-353,3902,0.38,-0.94,-3.57,-0.14,-3.53,39.02,-5.11,-0.14,55.97,3.05,0.90,-5.48
-1,-27,-8,-49,-314,3811,0.34,-1.01,-3.26,-0.49,-3.14,38.11,-5.10,-0.13,55.98,3.30,0.91,-5.17
3,-8,-23,-26,-268,3819,0.32,-0.96,-3.08,-0.26,-2.68,38.19,-5.08,-0.12,55.99,3.21,0.51,-3.67
-18,37,-93,25,-246,3924,0.18,-0.64,-3.34,0.25,-2.46,39.24,-5.07,-0.13,56.00,3.66,-0.49,1.93
-1,3,-108,-19,-324,4093,0.16,-0.56,-3.66,-0.19,-3.24,40.93,-5.05,-0.12,56.02,3.31,0.17,2.79
12,-55,-112,16,-376,3815,0.21,-0.84,-3.98,0.16,-3.76,38.15,-5.07,-0.13,56.03,3.04,1.43,2.72
10,-38,-107,22,-395,3736,0.25,-0.98,-4.23,0.22,-3.95,37.36,-5.08,-0.14,56.05,3.08,1.13,1.97
-22,38,-101,-10,-277,3861,0.09,-0.65,-4.43,-0.10,-2.77,38.61,-5.07,-0.14,56.07,3.76,-0.50,1.21
-28,43,-111,-7,-243,3876,-0.09,-0.33,-4.66,-0.07,-2.43,38.76,-5.05,-0.14,56.09,3.92,-0.69,1.76
-2,-22,-136,31,-330,4027,-0.09,-0.43,-5.02,0.31,-3.30,40.27,-5.03,-0.16,56.11,3.39,0.67,3.41
8,-41,-132,25,-353,3975,-0.03,-0.64,-5.33,0.25,-3.53,39.75,-5.04,-0.18,56.13,3.17,1.12,2.69
1,-21,-91,34,-407,3735,-0.02,-0.70,-5.35,0.34,-4.07,37.35,-5.06,-0.19,56.15,3.32,0.74,-0.82
-10,10,-77,28,-357,3746,-0.08,-0.57,-5.28,0.28,-3.57,37.46,-5.07,-0.20,56.17,3.57,0.08,-1.92
-11,34,-59,-6,-434,3969,-0.14,-0.30,-5.12,-0.06,-4.34,39.69,-5.09,-0.20,56.19,3.62,-0.48,-3.23
-5,9,-44,-2,-409,3976,-0.16,-0.22,-4.87,-0.02,-4.09,39.76,-5.11,-0.20,56.21,3.52,0.01,-4.19
-25,-3,-68,-52,-72,3821,-0.29,-0.22,-4.80,-0.52,-0.72,38.21,-5.09,-0.20,56.23,3.95,0.25,-2.06
-23,10,-93,22,-108,3888,-0.40,-0.13,-4.89,0.22,-1.08,38.88,-5.07,-0.20,56.25,3.93,-0.04,-0.06
29,-140,-21,-97,-591,4082,-0.19,-0.97,-4.53,-0.97,-5.91,40.82,-5.09,-0.20,56.26,2.82,3.24,-5.70
31,-144,-3,-52,-481,3766,0.02,-1.75,-4.09,-0.52,-4.81,37.66,-5.11,-0.20,56.28,2.74,3.54,-6.67
14,-18,-6,62,-415,3740,0.10,-1.69,-3.72,0.62,-4.15,37.40,-5.12,-0.21,56.29,3.07,0.97,-5.94
4,0,4,0,-444,3877,0.12,-1.52,-3.32,0.00,-4.44,38.77,-5.14,-0.22,56.31,3.28,0.56,-6.28
10,-36,-13,18,-362,3947,0.17,-1.59,-3.07,0.18,-3.62,39.47,-5.16,-0.23,56.32,3.15,1.32,-4.51
14,-50,-19,62,-346,3886,0.24,-1.73,-2.88,0.62,-3.46,38.86,-5.15,-0.26,56.33,3.05,1.66,-3.76
3,5,-23,39,-411,3828,0.23,-1.53,-2.73,0.39,-4.11,38.28,-5.17,-0.27,56.34,3.29,0.50,-3.23
-7,16,-27,24,-383,3899,0.16,-1.28,-2.62,0.24,-3.83,38.99,-5.19,-0.28,56.35,3.52,0.21,-2.76
2,3,-31,-14,-369,3937,0.16,-1.13,-2.55,-0.14,-3.69,39.37,-5.19,-0.27,56.36,3.34,0.43,-2.33
-1,-5,-26,-32,-396,3949,0.14,-1.05,-2.45,-0.32,-3.96,39.49,-5.20,-0.26,56.37,3.42,0.56,-2.63
0,-8,-13,39,-291,3825,0.12,-0.99,-2.29,0.39,-2.91,38.25,-5.19,-0.27,56.38,3.39,0.61,-3.52
1,1,-9,28,-283,3835,0.12,-0.89,-2.11,0.28,-2.83,38.35,-5.17,-0.28,56.39,3.36,0.41,-3.63
-2,20,-7,1,-345,3888,0.09,-0.68,-1.94,0.01,-3.45,38.88,-5.16,-0.26,56.39,3.42,-0.05,-3.59
-15,14,-10,72,-360,3973,-0.01,-0.52,-1.81,0.72,-3.60,39.73,-5.16,-0.29,56.40,3.71,0.05,-3.16
3,-10,-64,5,-335,3810,0.01,-0.53,-2.02,0.05,-3.35,38.10,-5.15,-0.27,56.41,3.33,0.53,1.15
10,-11,-66,4,-354,3931,0.07,-0.55,-2.22,0.04,-3.54,39.31,-5.15,-0.26,56.42,3.18,0.54,1.06
1,3,-39,-14,-378,3888,0.07,-0.47,-2.24,-0.14,-3.78,38.88,-5.16,-0.25,56.43,3.37,0.23,-1.25
3,-3,-31,-12,-360,3910,0.08,-0.44,-2.20,-0.12,-3.60,39.10,-5.17,-0.23,56.43,3.33,0.33,-1.88
9,-12,-42,28,-332,3884,0.13,-0.47,-2.24,0.28,-3.32,38.84,-5.15,-0.24,56.44,3.18,0.53,-1.00
9,-9,-45,24,-344,3888,0.17,-0.48,-2.29,0.24,-3.44,38.88,-5.14,-0.26,56.45,3.16,0.49,-0.81
9,-3,-25,1,-350,3880,0.21,-0.45,-2.21,0.01,-3.50,38.80,-5.14,-0.24,56.46,3.15,0.35,-2.41
10,-2,-15,5,-342,3883,0.25,-0.42,-2.08,0.05,-3.42,38.83,-5.13,-0.23,56.47,3.11,0.31,-3.09
11,-9,1,8,-310,3917,0.29,-0.43,-1.87,0.08,-3.10,39.17,-5.11,-0.23,56.48,3.07,0.45,-4.17
13,-14,-1,-10,-306,3927,0.34,-0.47,-1.69,-0.10,-3.06,39.27,-5.09,-0.22,56.48,3.00,0.56,-3.77
-4,-3,-54,-30,-125,3751,0.28,-0.44,-1.85,-0.30,-1.25,37.51,-5.07,-0.22,56.49,3.35,0.33,0.52
-16,18,-91,-39,-65,3729,0.16,-0.29,-2.22,-0.39,-0.65,37.29,-5.05,-0.22,56.50,3.62,-0.14,3.18
-33,88,-230,-101,-322,3942,-0.06,0.28,-3.40,-1.01,-3.22,39.42,-5.05,-0.20,56.51,4.02,-1.73,13.44
-17,59,-203,11,-571,4068,-0.16,0.61,-4.30,0.11,-5.71,40.68,-5.07,-0.20,56.53,3.73,-1.23,10.01
7,-32,-44,-29,-581,3933,-0.10,0.35,-4.14,-0.29,-5.81,39.33,-5.09,-0.20,56.55,3.24,0.69,-3.26
8,-35,-21,19,-470,3878,-0.04,0.10,-3.85,0.19,-4.70,38.78,-5.10,-0.20,56.56,3.22,0.82,-4.84
0,21,-37,16,-285,3854,-0.04,0.22,-3.69,0.16,-2.85,38.54,-5.09,-0.20,56.58,3.37,-0.35,-3.28
-2,30,-52,6,-273,3912,-0.05,0.38,-3.64,0.06,-2.73,39.12,-5.07,-0.20,56.59,3.40,-0.58,-1.95
7,-3,-95,-43,-439,3918,0.00,0.33,-3.86,-0.43,-4.39,39.18,-5.08,-0.19,56.61,3.21,0.10,1.42
7,-13,-91,2,-481,3926,0.04,0.21,-4.02,0.02,-4.81,39.26,-5.10,-0.19,56.62,3.21,0.33,0.86
8,-40,-59,33,-343,3892,0.09,-0.05,-3.98,0.33,-3.43,38.92,-5.10,-0.21,56.64,3.18,0.96,-1.79
12,-45,-65,28,-302,3864,0.15,-0.32,-3.98,0.28,-3.02,38.64,-5.08,-0.22,56.65,3.07,1.15,-1.28
3,-14,-72,-18,-388,3753,0.16,-0.37,-4.02,-0.18,-3.88,37.53,-5.09,-0.21,56.67,3.26,0.53,-0.74
-1,21,-58,7,-437,3866,0.13,-0.21,-3.97,0.07,-4.37,38.66,-5.11,-0.21,56.69,3.36,-0.23,-1.87
6,-7,6,-2,-418,3938,0.16,-0.23,-3.54,-0.02,-4.18,39.38,-5.13,-0.21,56.70,3.22,0.34,-6.74
7,-28,21,19,-410,3948,0.18,-0.38,-3.06,0.19,-4.10,39.48,-5.15,-0.21,56.71,3.20,0.81,-7.39
4,-8,27,78,-302,3824,0.19,-0.39,-2.59,0.78,-3.02,38.24,-5.14,-0.23,56.72,3.26,0.42,-7.30
0,7,21,76,-300,3858,0.17,-0.31,-2.20,0.76,-3.00,38.58,-5.12,-0.25,56.73,3.33,0.10,-6.29
3,8,1,61,-299,3896,0.17,-0.23,-1.97,0.61,-2.99,38.96,-5.11,-0.26,56.74,3.26,0.07,-4.31
4,10,0,60,-320,3872,0.18,-0.14,-1.78,0.60,-3.20,38.72,-5.10,-0.28,56.75,3.23,0.02,-3.97
-4,23,11,24,-359,3871,0.14,0.01,-1.53,0.24,-3.59,38.71,-5.12,-0.28,56.75,3.42,-0.28,-4.59
-5,23,12,7,-359,3887,0.09,0.15,-1.31,0.07,-3.59,38.87,-5.13,-0.27,56.76,3.46,-0.33,-4.39
-3,17,6,-14,-357,3903,0.07,0.24,-1.14,-0.14,-3.57,39.03,-5.13,-0.25,56.76,3.43,-0.24,-3.67
-2,16,2,-9,-367,3900,0.05,0.31,-1.01,-0.09,-3.67,39.00,-5.14,-0.24,56.77,3.42,-0.25,-3.17
-4,24,-4,6,-341,3875,0.02,0.43,-0.94,0.06,-3.41,38.75,-5.13,-0.22,56.77,3.46,-0.46,-2.56
-4,31,-5,11,-336,3891,-0.01,0.57,-0.87,0.11,-3.36,38.91,-5.11,-0.21,56.77,3.46,-0.65,-2.40
-8,30,7,3,-343,3904,-0.06,0.70,-0.74,0.03,-3.43,39.04,-5.10,-0.19,56.78,3.55,-0.67,-3.25
-8,23,7,14,-346,3906,-0.10,0.77,-0.63,0.14,-3.46,39.06,-5.09,-0.20,56.78,3.55,-0.55,-3.10
-7,31,7,20,-355,3873,-0.13,0.88,-0.52,0.20,-3.55,38.73,-5.10,-0.20,56.78,3.55,-0.74,-2.96
-10,39,7,8,-359,3870,-0.18,1.03,-0.43,0.08,-3.59,38.70,-5.12,-0.19,56.78,3.63,-0.95,-2.84
-7,31,1,-8,-379,3942,-0.20,1.12,-0.38,-0.08,-3.79,39.42,-5.13,-0.18,56.79,3.59,-0.82,-2.27
-3,25,2,-12,-374,3940,-0.20,1.16,-0.33,-0.12,-3.74,39.40,-5.15,-0.16,56.79,3.51,-0.72,-2.29
-4,26,15,4,-389,3879,-0.21,1.20,-0.20,0.04,-3.89,38.79,-5.17,-0.15,56.79,3.55,-0.76,-3.23
-9,30,28,-10,-370,3901,-0.24,1.26,-0.01,-0.10,-3.70,39.01,-5.18,-0.13,56.79,3.67,-0.87,-4.09
-9,34,20,-11,-408,3886,-0.27,1.34,0.11,-0.11,-4.08,38.86,-5.20,-0.12,56.79,3.69,-0.98,-3.26
-9,45,27,-9,-406,3841,-0.30,1.48,0.27,-0.09,-4.06,38.41,-5.22,-0.11,56.79,3.71,-1.25,-3.65
6,18,41,8,-514,3849,-0.23,1.45,0.49,0.08,-5.14,38.49,-5.23,-0.10,56.79,3.40,-0.69,-4.55
4,11,49,-8,-521,3929,-0.19,1.37,0.74,-0.08,-5.21,39.29,-5.25,-0.09,56.78,3.44,-0.53,-4.91
-4,7,120,-16,-599,3900,-0.19,1.27,1.40,-0.16,-5.99,39.00,-5.27,-0.09,56.78,3.61,-0.43,-10.08
-4,9,142,-42,-593,3789,-0.20,1.20,2.12,-0.42,-5.93,37.89,-5.29,-0.08,56.77,3.63,-0.46,-11.02
6,-3,197,-13,-534,3811,-0.14,1.06,3.11,-0.13,-5.34,38.11,-5.31,-0.07,56.76,3.42,-0.18,-14.41
-12,-9,214,37,-501,3953,-0.20,0.90,4.11,0.37,-5.01,39.53,-5.33,-0.07,56.74,3.81,-0.02,-14.58
-19,2,306,24,-423,3795,-0.30,0.82,5.56,0.24,-4.23,37.95,-5.35,-0.07,56.72,4.00,-0.22,-20.00
9,14,303,46,-321,4055,-0.21,0.83,6.85,0.46,-3.21,40.55,-5.33,-0.07,56.69,3.39,-0.46,-18.61
4,-11,362,196,-109,3857,-0.17,0.68,8.38,1.96,-1.09,38.57,-5.32,-0.08,56.66,3.47,0.09,-20.00
4,-4,373,163,-141,3809,-0.12,0.59,9.82,1.63,-1.41,38.09,-5.31,-0.08,56.62,3.45,-0.02,-20.00
4,24,345,74,-112,3872,-0.09,0.67,10.94,0.74,-1.12,38.72,-5.29,-0.08,56.58,3.43,-0.62,-16.94
2,33,338,41,-173,3852,-0.07,0.81,11.91,0.41,-1.73,38.52,-5.27,-0.08,56.53,3.46,-0.84,-15.11
-1,15,314,103,-163,3870,-0.07,0.82,12.63,1.03,-1.63,38.70,-5.25,-0.08,56.48,3.51,-0.48,-12.14
-6,39,302,95,-236,3818,-0.10,0.97,13.21,0.95,-2.36,38.18,-5.24,-0.08,56.43,3.61,-1.01,-10.38
5,38,269,28,-268,3825,-0.06,1.11,13.53,0.28,-2.68,38.25,-5.22,-0.08,56.38,3.36,-1.02,-7.18
16,37,252,-19,-364,3917,0.05,1.22,13.71,-0.19,-3.64,39.17,-5.23,-0.05,56.32,3.11,-1.05,-5.50
-13,7,212,81,-454,3942,-0.04,1.14,13.64,0.81,-4.54,39.42,-5.24,-0.05,56.27,3.73,-0.42,-2.21
-7,17,209,-206,-310,3772,-0.08,1.13,13.55,-2.06,-3.10,37.72,-5.24,-0.02,56.21,3.62,-0.64,-2.07
1,10,124,-98,-329,3815,-0.06,1.08,12.95,-0.98,-3.29,38.15,-5.24,0.00,56.16,3.45,-0.50,4.37
-6,4,107,-103,-298,3945,-0.09,1.00,12.31,-1.03,-2.98,39.45,-5.23,0.03,56.11,3.60,-0.37,4.99
-6,-9,78,-221,-441,3935,-0.12,0.84,11.55,-2.21,-4.41,39.35,-5.23,0.05,56.07,3.61,-0.08,6.48
-9,-15,66,-256,-442,3902,-0.16,0.67,10.80,-2.56,-4.42,39.02,-5.24,0.08,56.03,3.69,0.07,6.54
-2,-20,36,-169,-607,3868,-0.16,0.48,9.94,-1.69,-6.07,38.68,-5.26,0.09,55.99,3.55,0.22,7.98
-6,-22,45,-168,-632,3799,-0.18,0.30,9.22,-1.68,-6.32,37.99,-5.27,0.11,55.95,3.65,0.30,6.30
11,-34,129,-62,-710,3961,-0.09,0.06,9.08,-0.62,-7.10,39.61,-5.29,0.11,55.91,3.29,0.60,-0.99
-37,-82,177,-272,-532,3612,-0.31,-0.45,9.26,-2.72,-5.32,36.12,-5.30,0.13,55.88,4.34,1.70,-4.84
-17,33,167,33,-332,4032,-0.38,-0.20,9.35,0.33,-3.32,40.32,-5.29,0.12,55.84,3.94,-0.69,-3.87
-5,-4,157,-53,-390,4036,-0.38,-0.21,9.37,-0.53,-3.90,40.36,-5.30,0.14,55.80,3.70,0.05,-2.99
9,-22,224,-9,-492,3810,-0.28,-0.32,9.80,-0.09,-4.92,38.10,-5.32,0.14,55.76,3.40,0.44,-8.12
-3,-19,241,-37,-435,3779,-0.27,-0.40,10.29,-0.37,-4.35,37.79,-5.34,0.15,55.72,3.66,0.40,-8.93
-9,20,296,98,-404,3953,-0.30,-0.24,11.07,0.98,-4.04,39.53,-5.34,0.13,55.68,3.79,-0.43,-12.59
-9,1,316,45,-326,3920,-0.33,-0.21,11.89,0.45,-3.26,39.20,-5.33,0.12,55.63,3.79,-0.04,-13.24
8,-5,312,72,-161,3920,-0.24,-0.22,12.60,0.72,-1.61,39.20,-5.32,0.12,55.58,3.41,0.08,-11.98
-12,12,290,120,-160,3906,-0.29,-0.12,13.11,1.20,-1.60,39.06,-5.30,0.11,55.53,3.82,-0.29,-9.47
1,13,197,62,-137,3889,-0.26,-0.03,13.00,0.62,-1.37,38.89,-5.29,0.11,55.48,3.54,-0.33,-1.73
2,2,179,52,-165,3932,-0.22,-0.02,12.79,0.52,-1.65,39.32,-5.27,0.11,55.43,3.50,-0.11,-0.47
-17,20,130,7,-150,3792,-0.30,0.11,12.31,0.07,-1.50,37.92,-5.25,0.12,55.38,3.89,-0.51,3.06
-20,40,85,10,-162,3903,-0.39,0.34,11.60,0.10,-1.62,39.03,-5.24,0.12,55.33,3.97,-0.99,5.97
1,-3,48,-16,-384,3961,-0.35,0.29,10.73,-0.16,-3.84,39.61,-5.25,0.13,55.29,3.54,-0.10,8.00
-1,-10,54,23,-400,3912,-0.32,0.20,9.98,0.23,-4.00,39.12,-5.27,0.12,55.25,3.58,0.07,6.54
-6,40,91,26,-456,3879,-0.32,0.42,9.54,0.26,-4.56,38.79,-5.29,0.12,55.21,3.70,-1.01,2.84
2,22,109,59,-458,4059,-0.28,0.51,9.25,0.59,-4.58,40.59,-5.30,0.12,55.17,3.54,-0.67,0.94
2,-19,184,-11,-410,3844,-0.24,0.35,9.45,-0.11,-4.10,38.44,-5.32,0.12,55.14,3.54,0.21,-5.16
4,-6,184,-7,-359,3888,-0.19,0.28,9.63,-0.07,-3.59,38.88,-5.31,0.12,55.10,3.47,-0.03,-4.93
6,1,191,-3,-479,3956,-0.14,0.25,9.83,-0.03,-4.79,39.56,-5.32,0.12,55.06,3.43,-0.17,-5.26
-11,-29,220,-81,-413,3866,-0.19,0.05,10.19,-0.81,-4.13,38.66,-5.34,0.14,55.02,3.80,0.48,-7.26
-9,68,114,-45,-67,4050,-0.22,0.46,9.86,-0.45,-0.67,40.50,-5.32,0.15,54.98,3.75,-1.61,1.31
-2,20,61,-94,-282,3938,-0.21,0.54,9.25,-0.94,-2.82,39.38,-5.31,0.17,54.94,3.60,-0.66,5.01
-5,9,56,-59,-308,3917,-0.22,0.54,8.67,-0.59,-3.08,39.17,-5.29,0.19,54.91,3.66,-0.45,4.69
7,15,70,-122,-334,3886,-0.16,0.58,8.23,-1.22,-3.34,38.86,-5.29,0.21,54.88,3.39,-0.60,2.95
-1,8,105,-81,-408,3875,-0.15,0.57,8.05,-0.81,-4.08,38.75,-5.30,0.23,54.84,3.56,-0.47,-0.25
-1,11,117,-60,-414,3909,-0.14,0.58,7.95,-0.60,-4.14,39.09,-5.32,0.25,54.81,3.57,-0.54,-1.38
-10,6,130,-7,-379,3886,-0.19,0.56,7.95,-0.07,-3.79,38.86,-5.33,0.24,54.78,3.77,-0.43,-2.49
-1,14,127,0,-339,3883,-0.17,0.59,7.93,0.00,-3.39,38.83,-5.32,0.24,54.75,3.58,-0.60,-2.26
13,21,161,160,-329,3913,-0.08,0.66,8.12,1.60,-3.29,39.13,-5.31,0.23,54.72,3.26,-0.75,-4.90
6,14,170,173,-280,3863,-0.03,0.68,8.35,1.73,-2.80,38.63,-5.31,0.21,54.68,3.39,-0.61,-5.37
3,12,121,89,-345,3872,-0.01,0.68,8.25,0.89,-3.45,38.72,-5.30,0.20,54.65,3.44,-0.56,-1.34
10,14,95,57,-426,3933,0.05,0.70,8.00,0.57,-4.26,39.33,-5.32,0.19,54.62,3.29,-0.60,0.55
-4,10,160,0,-667,3921,0.02,0.69,8.18,0.00,-6.67,39.21,-5.33,0.20,54.59,3.60,-0.52,-4.73
13,16,186,-3,-732,3952,0.10,0.72,8.50,-0.03,-7.32,39.52,-5.35,0.20,54.55,3.24,-0.66,-6.53
-15,-7,142,-186,-317,4053,-0.00,0.60,8.51,-1.86,-3.17,40.53,-5.35,0.23,54.52,3.83,-0.17,-2.78
0,0,99,13,-322,3829,-0.00,0.54,8.27,0.13,-3.22,38.29,-5.33,0.22,54.49,3.52,-0.29,0.55
9,13,79,-23,-536,3816,0.05,0.57,7.92,-0.23,-5.36,38.16,-5.35,0.23,54.46,3.33,-0.57,1.80
11,14,96,-26,-552,3869,0.11,0.60,7.71,-0.26,-5.52,38.69,-5.37,0.23,54.43,3.29,-0.60,0.10
-3,4,203,-69,-413,3858,0.08,0.56,8.18,-0.69,-4.13,38.58,-5.38,0.25,54.39,3.59,-0.40,-8.37
-19,-3,218,-36,-272,3921,-0.04,0.49,8.69,-0.36,-2.72,39.21,-5.36,0.26,54.36,3.94,-0.24,-8.98
-5,5,195,16,-135,3882,-0.07,0.47,9.01,0.16,-1.35,38.82,-5.34,0.26,54.32,3.65,-0.40,-6.62
-2,7,166,-15,-125,3856,-0.07,0.46,9.12,-0.15,-1.25,38.56,-5.32,0.27,54.29,3.57,-0.45,-4.02
-1,0,86,-12,-110,3857,-0.07,0.42,8.74,-0.12,-1.10,38.57,-5.31,0.27,54.25,3.54,-0.29,2.26
1,-1,64,-42,-168,3886,-0.06,0.37,8.25,-0.42,-1.68,38.86,-5.29,0.28,54.22,3.49,-0.27,3.51
-1,2,26,-71,-311,3906,-0.06,0.35,7.59,-0.71,-3.11,39.06,-5.28,0.30,54.19,3.52,-0.33,5.87
-1,3,23,-77,-331,3883,-0.06,0.33,6.97,-0.77,-3.31,38.83,-5.27,0.32,54.16,3.51,-0.36,5.34
-2,3,30,-37,-358,3894,-0.06,0.31,6.45,-0.37,-3.58,38.94,-5.27,0.34,54.14,3.53,-0.37,4.09
-3,5,42,-25,-370,3890,-0.08,0.31,6.07,-0.25,-3.70,38.90,-5.28,0.35,54.11,3.57,-0.42,2.57
-3,8,78,-20,-318,3854,-0.09,0.33,5.93,-0.20,-3.18,38.54,-5.27,0.35,54.09,3.56,-0.48,-0.64
6,15,93,-36,-266,3915,-0.04,0.39,5.91,-0.36,-2.66,39.15,-5.25,0.35,54.07,3.35,-0.64,-1.95
13,15,149,13,-442,3888,0.04,0.44,6.23,0.13,-4.42,38.88,-5.26,0.35,54.04,3.20,-0.66,-6.28
2,14,158,-52,-332,3898,0.05,0.48,6.57,-0.52,-3.32,38.98,-5.25,0.37,54.01,3.41,-0.66,-6.61
-10,-6,83,-97,-328,3848,-0.02,0.40,6.42,-0.97,-3.28,38.48,-5.25,0.39,53.99,3.67,-0.24,-0.44
-9,-2,71,-61,-331,3937,-0.07,0.35,6.21,-0.61,-3.31,39.37,-5.23,0.41,53.96,3.66,-0.32,0.31
-6,3,59,-37,-413,3879,-0.10,0.33,5.95,-0.37,-4.13,38.79,-5.25,0.41,53.94,3.62,-0.42,0.99
1,7,48,-60,-364,3864,-0.08,0.34,5.65,-0.60,-3.64,38.64,-5.26,0.43,53.92,3.47,-0.52,1.54
-1,9,23,-32,-377,3893,-0.08,0.36,5.22,-0.32,-3.77,38.93,-5.28,0.44,53.90,3.52,-0.57,3.11
-2,8,24,-29,-382,3881,-0.09,0.37,4.85,-0.29,-3.82,38.81,-5.29,0.44,53.88,3.56,-0.56,2.55
-2,3,30,-48,-366,3879,-0.09,0.35,4.54,-0.48,-3.66,38.79,-5.30,0.46,53.86,3.56,-0.46,1.65
-4,3,30,-28,-361,3893,-0.10,0.34,4.27,-0.28,-3.61,38.93,-5.30,0.45,53.84,3.61,-0.45,1.31
-3,-2,28,-41,-347,3889,-0.11,0.29,4.02,-0.41,-3.47,38.89,-5.29,0.46,53.83,3.58,-0.34,1.15
-2,1,21,-28,-348,3878,-0.11,0.27,3.74,-0.28,-3.48,38.78,-5.27,0.46,53.81,3.55,-0.40,1.39
-2,2,16,-16,-372,3895,-0.11,0.25,3.47,-0.16,-3.72,38.95,-5.28,0.45,53.80,3.56,-0.40,1.46
-2,1,18,-14,-392,3884,-0.11,0.23,3.23,-0.14,-3.92,38.84,-5.30,0.44,53.79,3.57,-0.37,0.99
4,2,62,0,-504,3909,-0.08,0.22,3.28,0.00,-5.04,39.09,-5.32,0.44,53.77,3.45,-0.39,-2.67
5,5,86,-7,-544,3897,-0.04,0.23,3.48,-0.07,-5.44,38.97,-5.33,0.44,53.76,3.43,-0.45,-4.45
8,16,179,-55,-487,3947,0.01,0.31,4.22,-0.55,-4.87,39.47,-5.35,0.44,53.74,3.37,-0.70,-11.38
2,4,187,-68,-467,3908,0.02,0.30,4.94,-0.68,-4.67,39.08,-5.37,0.45,53.72,3.50,-0.46,-11.13
-5,2,209,-30,-362,3838,-0.01,0.28,5.72,-0.30,-3.62,38.38,-5.38,0.45,53.70,3.66,-0.41,-12.00
2,17,212,-9,-344,3797,0.00,0.36,6.44,-0.09,-3.44,37.97,-5.37,0.44,53.68,3.51,-0.73,-11.33
2,9,181,-10,-200,3853,0.02,0.38,6.90,-0.10,-2.00,38.53,-5.36,0.44,53.65,3.49,-0.58,-8.11
-5,-2,151,-4,-235,3866,-0.02,0.33,7.13,-0.04,-2.35,38.66,-5.34,0.44,53.62,3.63,-0.34,-5.28
-7,0,152,-11,-426,3871,-0.06,0.29,7.35,-0.11,-4.26,38.71,-5.36,0.44,53.59,3.69,-0.37,-5.09
2,11,163,-5,-484,3818,-0.04,0.33,7.61,-0.05,-4.84,38.18,-5.37,0.44,53.56,3.52,-0.60,-5.69
3,8,237,-15,-527,3835,-0.02,0.35,8.29,-0.15,-5.27,38.35,-5.39,0.44,53.53,3.50,-0.55,-11.08
-15,11,268,-247,-424,3657,-0.11,0.38,9.10,-2.47,-4.24,36.57,-5.40,0.47,53.49,3.90,-0.63,-12.67
-8,14,254,65,-391,3777,-0.15,0.43,9.74,0.65,-3.91,37.77,-5.40,0.45,53.45,3.77,-0.70,-10.67
9,27,248,-29,-304,4010,-0.08,0.55,10.28,-0.29,-3.04,40.10,-5.39,0.46,53.41,3.39,-1.00,-9.47
-32,-3,269,-147,-348,3840,-0.26,0.48,10.89,-1.47,-3.48,38.40,-5.38,0.48,53.37,4.28,-0.39,-10.46
9,19,260,-183,-240,4050,-0.18,0.54,11.39,-1.83,-2.40,40.50,-5.37,0.50,53.32,3.41,-0.87,-9.06
4,10,212,-70,-290,3924,-0.14,0.55,11.54,-0.70,-2.90,39.24,-5.36,0.52,53.28,3.49,-0.69,-4.80
-4,9,198,-90,-245,3860,-0.15,0.55,11.60,-0.90,-2.45,38.60,-5.34,0.53,53.23,3.65,-0.68,-3.54
0,-1,94,-25,-116,3886,-0.14,0.49,11.01,-0.25,-1.16,38.86,-5.32,0.54,53.19,3.55,-0.47,4.52
-1,-10,70,-2,-170,3956,-0.13,0.38,10.34,-0.02,-1.70,39.56,-5.30,0.54,53.15,3.56,-0.26,5.69
5,-4,14,-10,-340,3914,-0.08,0.32,9.39,-0.10,-3.40,39.14,-5.29,0.53,53.11,3.41,-0.35,9.23
5,-4,15,9,-321,3910,-0.05,0.26,8.54,0.09,-3.21,39.10,-5.28,0.52,53.08,3.39,-0.33,8.06
-2,-7,-2,88,-337,3854,-0.05,0.19,7.67,0.88,-3.37,38.54,-5.28,0.51,53.05,3.54,-0.24,8.39
-3,-9,-5,57,-319,3916,-0.07,0.12,6.88,0.57,-3.19,39.16,-5.27,0.49,53.02,3.56,-0.17,7.63
-3,-13,-2,-33,-304,3922,-0.08,0.03,6.18,-0.33,-3.04,39.22,-5.25,0.49,52.99,3.55,-0.07,6.48
-1,-13,3,-65,-317,3916,-0.08,-0.05,5.58,-0.65,-3.17,39.16,-5.24,0.51,52.97,3.50,-0.06,5.29
3,-2,24,-137,-410,3875,-0.05,-0.06,5.17,-1.37,-4.10,38.75,-5.24,0.52,52.95,3.41,-0.29,2.98
1,0,22,-141,-414,3892,-0.04,-0.06,4.78,-1.41,-4.14,38.92,-5.25,0.54,52.93,3.46,-0.34,2.67
-1,-1,17,-32,-340,3893,-0.04,-0.06,4.41,-0.32,-3.40,38.93,-5.24,0.54,52.91,3.49,-0.32,2.61
-3,-2,21,-6,-329,3904,-0.06,-0.06,4.10,-0.06,-3.29,39.04,-5.22,0.53,52.90,3.52,-0.29,1.87
-1,6,32,-1,-325,3889,-0.06,-0.02,3.88,-0.01,-3.25,38.89,-5.21,0.51,52.88,3.47,-0.46,0.67
-1,6,38,2,-356,3885,-0.06,0.02,3.73,0.02,-3.56,38.85,-5.21,0.50,52.87,3.48,-0.46,-0.04
2,9,71,-11,-440,3905,-0.04,0.07,3.79,-0.11,-4.40,39.05,-5.23,0.49,52.85,3.42,-0.53,-2.76
1,7,78,-28,-440,3902,-0.03,0.11,3.88,-0.28,-4.40,39.02,-5.25,0.49,52.84,3.45,-0.50,-3.23
-6,5,145,8,-534,3860,-0.06,0.13,4.38,0.08,-5.34,38.60,-5.27,0.49,52.82,3.61,-0.46,-8.27
-3,4,170,5,-518,3897,-0.07,0.14,4.98,0.05,-5.18,38.97,-5.28,0.49,52.80,3.57,-0.44,-9.62
1,7,239,3,-508,3887,-0.06,0.17,5.94,0.03,-5.08,38.87,-5.30,0.49,52.78,3.50,-0.51,-14.24
-5,9,313,-10,-620,3854,-0.09,0.21,7.25,-0.10,-6.20,38.54,-5.32,0.49,52.75,3.64,-0.56,-18.82
3,22,474,-21,-627,3857,-0.06,0.32,9.42,-0.21,-6.27,38.57,-5.34,0.49,52.71,3.48,-0.86,-20.00
-11,11,524,53,-597,3989,-0.12,0.35,11.67,0.53,-5.97,39.89,-5.35,0.49,52.66,3.79,-0.65,-20.00
-2,21,654,-68,-574,3968,-0.12,0.45,14.50,-0.68,-5.74,39.68,-5.37,0.50,52.61,3.62,-0.88,-20.00
-18,8,688,-8,-613,3844,-0.22,0.45,17.24,-0.08,-6.13,38.44,-5.39,0.51,52.54,3.98,-0.62,-20.00
-1,27,756,52,-314,3846,-0.20,0.57,20.13,0.52,-3.14,38.46,-5.38,0.50,52.46,3.63,-1.04,-20.00
-64,-17,776,-70,-370,3787,-0.57,0.41,22.85,-0.70,-3.70,37.87,-5.39,0.53,52.37,5.01,-0.12,-20.00
-7,20,807,-40,-344,3824,-0.56,0.49,25.49,-0.40,-3.44,38.24,-5.37,0.55,52.27,3.84,-0.90,-20.00
-1,17,807,-25,-375,3866,-0.51,0.55,27.86,-0.25,-3.75,38.66,-5.39,0.55,52.16,3.71,-0.86,-20.00
-21,10,811,-103,-296,3850,-0.59,0.55,30.02,-1.03,-2.96,38.50,-5.38,0.57,52.04,4.13,-0.73,-20.00
-19,9,802,-76,-259,3884,-0.64,0.55,31.91,-0.76,-2.59,38.84,-5.36,0.59,51.91,4.10,-0.73,-20.00
-15,-4,724,3,-206,3867,-0.67,0.47,33.14,0.03,-2.06,38.67,-5.34,0.60,51.78,4.01,-0.45,-20.00
-26,6,706,-72,-256,3784,-0.76,0.46,34.13,-0.72,-2.56,37.84,-5.33,0.62,51.64,4.25,-0.66,-17.71
-23,-28,662,155,-287,3934,-0.83,0.24,34.76,1.55,-2.87,39.34,-5.32,0.62,51.50,4.21,0.09,-13.18
-53,-36,670,-3,-260,3673,-1.07,0.00,35.37,-0.03,-2.60,36.73,-5.31,0.63,51.36,4.87,0.32,-13.07
-5,-17,684,167,-383,3892,-0.99,-0.10,36.00,1.67,-3.83,38.92,-5.31,0.62,51.22,3.88,-0.04,-13.44
-12,-20,709,154,-486,3893,-0.96,-0.21,36.73,1.54,-4.86,38.93,-5.32,0.62,51.07,4.02,0.06,-14.63
-2,7,820,-79,-359,3930,-0.88,-0.15,38.06,-0.79,-3.59,39.30,-5.32,0.65,50.92,3.79,-0.53,-20.00
-10,3,830,49,-469,3981,-0.85,-0.12,39.31,0.49,-4.69,39.81,-5.34,0.65,50.76,3.96,-0.46,-20.00
-28,4,864,-215,-271,3651,-0.94,-0.08,40.65,-2.15,-2.71,36.51,-5.33,0.68,50.60,4.34,-0.51,-20.00
-7,10,908,94,-305,3819,-0.89,-0.01,42.13,0.94,-3.05,38.19,-5.33,0.68,50.43,3.90,-0.65,-20.00
-46,-25,955,-109,-347,3833,-1.08,-0.16,43.74,-1.09,-3.47,38.33,-5.33,0.71,50.26,4.75,0.08,-20.00
-20,21,968,-152,-243,3844,-1.09,-0.02,45.27,-1.52,-2.43,38.44,-5.32,0.74,50.08,4.21,-0.91,-20.00
-24,-2,1007,-91,-191,3922,-1.13,-0.03,46.89,-0.91,-1.91,39.22,-5.30,0.76,49.89,4.29,-0.46,-20.00
-18,-3,1018,-63,-258,3898,-1.13,-0.04,48.41,-0.63,-2.58,38.98,-5.28,0.78,49.70,4.16,-0.44,-20.00
-21,14,1067,-91,-244,3920,-1.14,0.05,50.08,-0.91,-2.44,39.20,-5.27,0.81,49.50,4.22,-0.83,-20.00
-29,-6,1076,-114,-231,3904,-1.21,0.00,51.63,-1.14,-2.31,39.04,-5.25,0.84,49.29,4.39,-0.43,-20.00
-66,-1,1065,-53,-383,3786,-1.49,-0.00,52.96,-0.53,-3.83,37.86,-5.27,0.85,49.08,5.23,-0.54,-20.00
-1,14,1050,48,-216,3903,-1.34,0.08,54.07,0.48,-2.16,39.03,-5.26,0.86,48.87,3.86,-0.88,-20.00
-29,3,1042,-39,-269,3880,-1.39,0.09,55.02,-0.39,-2.69,38.80,-5.25,0.88,48.65,4.43,-0.67,-19.37
-22,-11,1007,79,-175,3847,-1.38,0.02,55.66,0.79,-1.75,38.47,-5.23,0.89,48.43,4.28,-0.37,-15.58
-39,-14,936,-68,-251,3802,-1.48,-0.07,55.81,-0.68,-2.51,38.02,-5.22,0.91,48.20,4.64,-0.30,-9.38
-29,2,931,-123,-167,3873,-1.51,-0.05,55.90,-1.23,-1.67,38.73,-5.20,0.94,47.98,4.44,-0.64,-8.82
6,-8,984,70,-28,3986,-1.32,-0.09,56.32,0.70,-0.28,39.86,-5.19,0.95,47.76,3.66,-0.44,-12.78
-32,1,1009,76,-233,3963,-1.39,-0.08,56.84,0.76,-2.33,39.63,-5.18,0.96,47.53,4.45,-0.63,-14.22
-31,15,1042,76,-467,3990,-1.44,0.02,57.51,0.76,-4.67,39.90,-5.19,0.96,47.30,4.45,-0.95,-16.15
-29,36,1051,11,-420,4049,-1.47,0.24,58.17,0.11,-4.20,40.49,-5.20,0.97,47.07,4.42,-1.44,-16.06
-72,17,1153,134,-528,4054,-1.76,0.32,59.39,1.34,-5.28,40.54,-5.22,0.98,46.83,5.39,-1.08,-20.00
-18,47,1160,42,-492,3838,-1.70,0.57,60.53,0.42,-4.92,38.38,-5.23,0.99,46.59,4.28,-1.77,-20.00
-4,36,1256,190,-364,3911,-1.55,0.73,62.13,1.90,-3.64,39.11,-5.24,1.00,46.34,3.96,-1.59,-20.00
-50,22,1331,83,-311,3847,-1.70,0.80,64.04,0.83,-3.11,38.47,-5.23,1.01,46.09,4.93,-1.33,-20.00
-36,27,1413,94,-408,3818,-1.75,0.88,66.26,0.94,-4.08,38.18,-5.24,1.02,45.83,4.67,-1.46,-20.00
-22,40,1407,59,-323,3919,-1.71,1.04,68.21,0.59,-3.23,39.19,-5.24,1.03,45.55,4.37,-1.77,-20.00
-25,38,1413,45,-414,3825,-1.69,1.16,70.01,0.45,-4.14,38.25,-5.25,1.04,45.28,4.43,-1.78,-20.00
-2,35,1420,83,-356,3984,-1.53,1.26,71.67,0.83,-3.56,39.84,-5.25,1.06,44.99,3.92,-1.75,-20.00
-36,31,1434,1,-481,3913,-1.60,1.32,73.25,0.01,-4.81,39.13,-5.27,1.08,44.70,4.64,-1.70,-20.00
-33,19,1455,47,-310,3823,-1.64,1.31,74.80,0.47,-3.10,38.23,-5.26,1.09,44.40,4.59,-1.46,-20.00
5,60,1526,-10,-434,3943,-1.45,1.54,76.63,-0.10,-4.34,39.43,-5.27,1.12,44.10,3.77,-2.38,-20.00
-36,38,1550,25,-445,3836,-1.52,1.62,78.42,0.25,-4.45,38.36,-5.29,1.14,43.79,4.64,-1.96,-20.00
-23,50,1641,-3,-509,3851,-1.51,1.76,80.59,-0.03,-5.09,38.51,-5.30,1.17,43.47,4.38,-2.27,-20.00
-17,28,1642,-49,-472,3847,-1.46,1.76,82.55,-0.49,-4.72,38.47,-5.32,1.20,43.14,4.26,-1.84,-20.00
-34,32,1610,34,-674,3969,-1.52,1.78,84.11,0.34,-6.74,39.69,-5.34,1.23,42.80,4.63,-1.95,-20.00
-22,47,1580,-7,-593,3783,-1.51,1.89,85.34,-0.07,-5.93,37.83,-5.35,1.26,42.47,4.39,-2.30,-20.00
-19,33,1463,-71,-599,3844,-1.47,1.90,85.73,-0.71,-5.99,38.44,-5.37,1.30,42.12,4.33,-2.05,-15.57
-24,17,1446,24,-646,3908,-1.47,1.81,85.98,0.24,-6.46,39.08,-5.38,1.34,41.78,4.44,-1.72,-13.81
-46,17,1420,-30,-745,3911,-1.60,1.74,86.04,-0.30,-7.45,39.11,-5.40,1.37,41.44,4.94,-1.72,-11.51
-37,22,1424,9,-804,3830,-1.67,1.70,86.12,0.09,-8.04,38.30,-5.42,1.41,41.10,4.78,-1.84,-11.73
-31,13,1454,-57,-547,3899,-1.69,1.61,86.38,-0.57,-5.47,38.99,-5.43,1.44,40.76,4.68,-1.65,-13.94
-3,28,1463,70,-517,3880,-1.54,1.62,86.67,0.70,-5.17,38.80,-5.44,1.47,40.41,4.07,-1.98,-14.32
-20,37,1485,55,-528,3832,-1.51,1.68,87.06,0.55,-5.28,38.32,-5.45,1.49,40.07,4.42,-2.20,-15.68
-8,43,1488,70,-564,3931,-1.41,1.77,87.43,0.70,-5.64,39.31,-5.46,1.52,39.72,4.15,-2.36,-15.44
-1,47,1515,57,-503,3895,-1.27,1.88,87.93,0.57,-5.03,38.95,-5.47,1.55,39.37,3.98,-2.49,-17.08
-20,39,1520,124,-435,3895,-1.27,1.93,88.41,1.24,-4.35,38.95,-5.47,1.57,39.02,4.36,-2.36,-16.88
-22,31,1482,56,-413,3935,-1.27,1.93,88.61,0.56,-4.13,39.35,-5.47,1.60,38.67,4.40,-2.21,-13.40
-29,44,1469,-16,-553,3838,-1.32,2.00,88.71,-0.16,-5.53,38.38,-5.48,1.63,38.31,4.57,-2.52,-12.16
-22,53,1445,-77,-427,3938,-1.33,2.13,88.65,-0.77,-4.27,39.38,-5.49,1.66,37.96,4.43,-2.75,-10.19
-11,43,1443,-73,-411,4055,-1.26,2.18,88.59,-0.73,-4.11,40.55,-5.49,1.69,37.61,4.19,-2.58,-10.09
-25,36,1487,-125,-324,3941,-1.29,2.18,88.80,-1.25,-3.24,39.41,-5.47,1.73,37.26,4.47,-2.47,-13.53
-23,38,1494,-185,-234,3948,-1.30,2.19,89.03,-1.85,-2.34,39.48,-5.45,1.78,36.90,4.42,-2.55,-13.82
-33,36,1447,-289,-259,3846,-1.37,2.19,88.96,-2.89,-2.59,38.46,-5.43,1.84,36.55,4.63,-2.54,-9.92
4,45,1392,-178,-283,3937,-1.21,2.25,88.55,-1.78,-2.83,39.37,-5.41,1.89,36.20,3.82,-2.78,-5.77
-23,25,1327,-93,-473,3873,-1.23,2.18,87.79,-0.93,-4.73,38.73,-5.42,1.93,35.85,4.38,-2.37,-1.23
-10,32,1320,-30,-460,3890,-1.17,2.15,87.06,-0.30,-4.60,38.90,-5.42,1.96,35.50,4.10,-2.53,-1.55
-25,35,1283,-156,-514,3902,-1.20,2.15,86.18,-1.56,-5.14,39.02,-5.44,2.00,35.16,4.42,-2.62,0.47
-23,25,1274,-153,-439,3861,-1.22,2.09,85.34,-1.53,-4.39,38.61,-5.45,2.04,34.82,4.40,-2.43,0.16
-12,31,1205,-86,-362,3890,-1.17,2.07,84.15,-0.86,-3.62,38.90,-5.44,2.07,34.49,4.15,-2.56,4.50
-22,32,1192,-138,-327,3912,-1.19,2.06,83.01,-1.38,-3.27,39.12,-5.41,2.10,34.16,4.34,-2.60,4.15
-16,35,1169,-152,-334,3860,-1.17,2.07,81.84,-1.52,-3.34,38.60,-5.39,2.15,33.83,4.20,-2.69,4.61
-21,36,1149,-238,-404,3773,-1.18,2.08,80.66,-2.38,-4.04,37.73,-5.39,2.20,33.51,4.30,-2.75,4.81
-20,20,1066,-12,-320,3904,-1.18,1.99,79.10,-0.12,-3.20,39.04,-5.37,2.22,33.20,4.28,-2.42,9.85
-19,8,1026,-240,-391,3849,-1.18,1.84,77.45,-2.40,-3.91,38.49,-5.37,2.28,32.89,4.25,-2.17,11.14
-9,9,1031,-229,-185,3929,-1.12,1.71,75.99,-2.29,-1.85,39.29,-5.35,2.32,32.58,4.02,-2.18,8.86
-17,13,1059,9,-206,3942,-1.11,1.62,74.85,0.09,-2.06,39.42,-5.33,2.34,32.29,4.16,-2.25,5.04
-17,14,1004,245,-517,3888,-1.10,1.54,73.49,2.45,-5.17,38.88,-5.32,2.36,31.99,4.16,-2.26,7.97
-9,24,979,32,-581,3855,-1.05,1.54,72.12,0.32,-5.81,38.55,-5.33,2.38,31.71,3.99,-2.48,8.33
-31,-2,894,-366,-361,3799,-1.13,1.37,70.36,-3.66,-3.61,37.99,-5.32,2.43,31.43,4.45,-1.94,13.29
-18,11,875,-542,-239,3985,-1.13,1.30,68.66,-5.42,-2.39,39.85,-5.31,2.48,31.15,4.18,-2.21,12.74
-19,9,898,68,-359,3918,-1.13,1.23,67.27,0.68,-3.59,39.18,-5.30,2.49,30.89,4.20,-2.16,9.03
-4,14,867,275,-538,3861,-1.04,1.19,65.83,2.75,-5.38,38.61,-5.30,2.50,30.63,3.87,-2.26,9.82
-5,21,706,-61,-647,3890,-0.97,1.20,63.56,-0.61,-6.47,38.90,-5.31,2.52,30.37,3.87,-2.42,20.00
-14,8,675,-528,-261,3917,-0.96,1.13,61.32,-5.28,-2.61,39.17,-5.30,2.57,30.13,4.04,-2.16,20.00
-15,10,726,-100,-212,3870,-0.95,1.07,59.61,-1.00,-2.12,38.70,-5.28,2.58,29.89,4.05,-2.20,13.84
11,33,724,39,-185,3925,-0.79,1.17,58.07,0.39,-1.85,39.25,-5.26,2.60,29.66,3.46,-2.70,12.04
-10,-10,665,-59,-228,3882,-0.77,0.99,56.32,-0.59,-2.28,38.82,-5.24,2.61,29.43,3.87,-1.79,14.80
-4,4,668,-99,-160,3859,-0.72,0.92,54.76,-0.99,-1.60,38.59,-5.21,2.63,29.22,3.72,-2.06,12.56
-19,21,655,51,-345,3929,-0.76,0.95,53.28,0.51,-3.45,39.29,-5.21,2.63,29.00,4.03,-2.42,11.78
-19,5,623,126,-430,3901,-0.80,0.89,51.75,1.26,-4.30,39.01,-5.20,2.63,28.80,4.04,-2.08,12.54
9,7,528,-134,-303,4021,-0.67,0.84,49.80,-1.34,-3.03,40.21,-5.18,2.64,28.60,3.42,-2.12,18.10
-10,9,554,-104,-340,3825,-0.66,0.81,48.20,-1.04,-3.40,38.25,-5.18,2.65,28.41,3.80,-2.15,13.85
-20,1,589,33,-353,3831,-0.72,0.74,46.97,0.33,-3.53,38.31,-5.17,2.65,28.22,4.02,-1.97,9.32
-19,7,613,-4,-511,3819,-0.76,0.71,46.01,-0.04,-5.11,38.19,-5.18,2.65,28.04,4.01,-2.09,6.07
-15,20,586,-20,-632,3853,-0.78,0.76,44.99,-0.20,-6.32,38.53,-5.19,2.66,27.86,3.94,-2.37,7.05
-9,16,570,8,-539,3935,-0.75,0.78,43.97,0.08,-5.39,39.35,-5.20,2.67,27.68,3.82,-2.30,7.10
3,22,540,-18,-378,3890,-0.66,0.84,42.86,-0.18,-3.78,38.90,-5.19,2.67,27.51,3.55,-2.44,8.24
-7,35,543,-35,-407,3957,-0.64,0.97,41.89,-0.35,-4.07,39.57,-5.19,2.67,27.35,3.74,-2.74,6.75
-8,20,507,-32,-298,3934,-0.62,0.99,40.79,-0.32,-2.98,39.34,-5.18,2.67,27.18,3.75,-2.44,8.40
-1,20,496,-98,-295,3918,-0.57,1.01,39.74,-0.98,-2.95,39.18,-5.17,2.68,27.03,3.58,-2.45,7.99
-16,24,471,-91,-447,3902,-0.61,1.06,38.64,-0.91,-4.47,39.02,-5.17,2.68,26.87,3.91,-2.55,8.70
2,8,461,-68,-430,3925,-0.53,1.00,37.59,-0.68,-4.30,39.25,-5.18,2.69,26.72,3.52,-2.21,8.21
-2,11,453,-136,-431,3904,-0.49,0.97,36.59,-1.36,-4.31,39.04,-5.19,2.69,26.58,3.60,-2.26,7.62
-13,17,463,-113,-505,3890,-0.52,0.98,35.76,-1.13,-5.05,38.90,-5.20,2.70,26.44,3.84,-2.39,5.71
-10,-2,460,-1,-540,3834,-0.53,0.87,34.99,-0.01,-5.40,38.34,-5.21,2.71,26.30,3.79,-1.98,4.98
-13,-4,461,88,-552,3860,-0.56,0.75,34.30,0.88,-5.52,38.60,-5.22,2.71,26.16,3.86,-1.91,4.02
-10,5,529,-6,-513,3869,-0.56,0.71,34.10,-0.06,-5.13,38.69,-5.23,2.71,26.03,3.81,-2.08,-1.99
-11,-1,553,8,-500,3910,-0.57,0.63,34.06,0.08,-5.00,39.10,-5.23,2.71,25.89,3.83,-1.94,-4.07
-15,12,626,-77,-444,3873,-0.61,0.64,34.47,-0.77,-4.44,38.73,-5.24,2.71,25.76,3.93,-2.21,-9.72
-12,12,635,-97,-423,3889,-0.62,0.65,34.90,-0.97,-4.23,38.89,-5.25,2.71,25.62,3.88,-2.21,-9.93
-9,21,696,-133,-377,3815,-0.61,0.71,35.65,-1.33,-3.77,38.15,-5.25,2.71,25.48,3.82,-2.41,-14.13
-13,19,716,-94,-460,3888,-0.63,0.76,36.46,-0.94,-4.60,38.88,-5.26,2.71,25.33,3.91,-2.38,-14.80
-10,23,764,15,-502,3910,-0.63,0.82,37.47,0.15,-5.02,39.10,-5.27,2.72,25.18,3.85,-2.48,-17.56
-12,31,803,-16,-474,3906,-0.64,0.93,38.62,-0.16,-4.74,39.06,-5.27,2.72,25.03,3.90,-2.68,-19.39
-7,21,830,-212,-409,3887,-0.62,0.97,39.82,-2.12,-4.09,38.87,-5.28,2.74,24.87,3.80,-2.50,-20.00
-23,4,822,-194,-480,3813,-0.70,0.89,40.86,-1.94,-4.80,38.13,-5.30,2.77,24.71,4.15,-2.15,-18.13
-6,13,857,-18,-463,3799,-0.66,0.88,42.00,-0.18,-4.63,37.99,-5.30,2.77,24.54,3.80,-2.33,-19.63
-21,20,873,-136,-572,3770,-0.73,0.92,43.12,-1.36,-5.72,37.70,-5.31,2.78,24.37,4.13,-2.49,-19.54
-16,21,970,-1,-558,3924,-0.75,0.95,44.73,-0.01,-5.58,39.24,-5.32,2.79,24.20,4.04,-2.53,-20.00
-27,18,1010,8,-468,3950,-0.84,0.97,46.42,0.08,-4.68,39.50,-5.32,2.80,24.01,4.29,-2.48,-20.00
-23,18,1094,-100,-479,3881,-0.90,0.98,48.45,-1.00,-4.79,38.81,-5.33,2.81,23.82,4.23,-2.49,-20.00
-26,5,1115,-157,-567,3802,-0.97,0.91,50.40,-1.57,-5.67,38.02,-5.34,2.83,23.62,4.32,-2.22,-20.00
-20,12,1201,-18,-402,3904,-0.99,0.90,52.69,-0.18,-4.02,39.04,-5.34,2.83,23.41,4.20,-2.36,-20.00
-30,14,1193,-159,-522,3902,-1.07,0.89,54.70,-1.59,-5.22,39.02,-5.35,2.85,23.19,4.44,-2.41,-20.00
-3,10,1154,-23,-460,3940,-0.99,0.86,56.27,-0.23,-4.60,39.40,-5.35,2.86,22.97,3.86,-2.33,-20.00
-28,19,1160,39,-595,3830,-1.06,0.89,57.72,0.39,-5.95,38.30,-5.36,2.87,22.74,4.40,-2.53,-20.00
-22,31,1141,44,-548,3880,-1.09,0.99,58.91,0.44,-5.48,38.80,-5.36,2.88,22.51,4.28,-2.80,-20.00
-21,29,1132,29,-439,3887,-1.11,1.07,59.92,0.29,-4.39,38.87,-5.36,2.89,22.27,4.27,-2.79,-19.94
-21,26,1038,-16,-446,3845,-1.12,1.12,60.26,-0.16,-4.46,38.45,-5.36,2.90,22.03,4.27,-2.75,-11.54
-2,19,1006,-21,-293,3919,-1.02,1.13,60.37,-0.21,-2.93,39.19,-5.35,2.91,21.79,3.85,-2.62,-8.68
-21,11,925,-169,-462,3907,-1.05,1.08,59.98,-1.69,-4.62,39.07,-5.36,2.93,21.55,4.25,-2.46,-2.31
-3,4,920,-43,-380,3927,-0.96,1.00,59.59,-0.43,-3.80,39.27,-5.35,2.94,21.31,3.85,-2.30,-2.37
-11,21,987,-72,-488,3891,-0.93,1.02,59.65,-0.72,-4.88,38.91,-5.35,2.96,21.08,4.01,-2.66,-7.96
-12,13,1044,-150,-417,3855,-0.91,1.00,60.06,-1.50,-4.17,38.55,-5.36,2.97,20.84,4.03,-2.50,-12.27
-16,7,1105,-156,-271,3934,-0.92,0.94,60.79,-1.56,-2.71,39.34,-5.33,2.99,20.59,4.10,-2.37,-16.49
-33,12,1119,-224,-280,3771,-1.03,0.92,61.54,-2.24,-2.80,37.71,-5.31,3.02,20.35,4.45,-2.49,-16.72
-10,21,1114,-126,-202,4048,-0.99,0.96,62.18,-1.26,-2.02,40.48,-5.28,3.04,20.10,3.96,-2.69,-15.46
-5,9,1087,-101,-218,3956,-0.92,0.92,62.59,-1.01,-2.18,39.56,-5.26,3.06,19.85,3.82,-2.45,-12.64
-22,5,956,-3,-568,3802,-0.96,0.86,62.16,-0.03,-5.68,38.02,-5.26,3.07,19.60,4.18,-2.36,-2.08
-35,14,931,13,-567,3877,-1.08,0.86,61.63,0.13,-5.67,38.77,-5.27,3.08,19.36,4.48,-2.55,-0.64
-11,41,968,661,-210,3920,-1.04,1.02,61.37,6.61,-2.10,39.20,-5.25,3.09,19.11,3.97,-3.15,-4.10
-13,40,1012,745,-263,3876,-1.01,1.16,61.41,7.45,-2.63,38.76,-5.24,3.10,18.87,4.00,-3.18,-7.77
-15,48,1137,405,-461,3863,-1.00,1.34,62.20,4.05,-4.61,38.63,-5.24,3.11,18.62,4.03,-3.39,-17.34
-10,44,1220,31,-704,3836,-0.96,1.47,63.42,0.31,-7.04,38.36,-5.24,3.13,18.37,3.93,-3.36,-20.00
-25,17,1203,-425,-635,3935,-1.02,1.43,64.42,-4.25,-6.35,39.35,-5.25,3.17,18.11,4.25,-2.83,-20.00
-33,27,1159,-515,-698,3858,-1.12,1.45,65.05,-5.15,-6.98,38.58,-5.25,3.21,17.86,4.44,-3.06,-15.54
-8,27,1045,-343,-536,3899,-1.06,1.47,64.92,-3.43,-5.36,38.99,-5.25,3.25,17.60,3.92,-3.09,-6.04
-14,29,1034,-350,-500,3886,-1.04,1.50,64.73,-3.50,-5.00,38.86,-5.26,3.29,17.34,4.04,-3.17,-5.34
-11,16,1007,-195,-301,3979,-1.00,1.45,64.40,-1.95,-3.01,39.79,-5.23,3.31,17.08,3.95,-2.91,-3.47
-19,23,1013,-72,-312,3878,-1.02,1.44,64.14,-0.72,-3.12,38.78,-5.21,3.32,16.83,4.11,-3.06,-4.30
-17,12,1038,161,-287,3896,-1.02,1.37,64.06,1.61,-2.87,38.96,-5.20,3.33,16.57,4.06,-2.82,-6.52
-5,8,1045,111,-246,3981,-0.95,1.28,64.03,1.11,-2.46,39.81,-5.18,3.35,16.32,3.78,-2.72,-7.14
-19,18,1128,19,-496,3836,-0.97,1.27,64.51,0.19,-4.96,38.36,-5.18,3.36,16.06,4.07,-2.93,-13.55
-19,19,1175,-5,-430,3923,-0.99,1.25,65.22,-0.05,-4.30,39.23,-5.18,3.37,15.80,4.07,-2.95,-16.61
-13,10,1112,-155,-639,3910,-0.97,1.19,65.48,-1.55,-6.39,39.10,-5.18,3.39,15.54,3.95,-2.77,-10.93
-21,16,1095,-201,-655,3957,-1.00,1.17,65.61,-2.01,-6.55,39.57,-5.19,3.42,15.28,4.12,-2.90,-9.32
-20,5,978,-157,-423,3954,-1.02,1.08,65.02,-1.57,-4.23,39.54,-5.19,3.43,15.02,4.11,-2.66,-0.16
-19,22,952,-144,-387,4074,-1.03,1.11,64.32,-1.44,-3.87,40.74,-5.18,3.44,14.77,4.09,-3.02,1.16
-24,24,869,-105,-441,3834,-1.08,1.14,63.19,-1.05,-4.41,38.34,-5.18,3.45,14.52,4.20,-3.08,6.76
-17,-11,853,57,-281,4019,-1.07,0.96,62.08,0.57,-2.81,40.19,-5.17,3.46,14.27,4.05,-2.32,6.69
-25,14,846,46,-416,3849,-1.12,0.95,61.03,0.46,-4.16,38.49,-5.16,3.47,14.03,4.22,-2.84,5.95
-27,13,818,7,-353,3890,-1.17,0.94,59.92,0.07,-3.53,38.90,-5.15,3.48,13.79,4.27,-2.82,6.91
-12,1,697,-110,-440,3846,-1.13,0.85,58.18,-1.10,-4.40,38.46,-5.15,3.49,13.56,3.95,-2.55,14.94
-10,23,700,-72,-611,3891,-1.08,0.90,56.63,-0.72,-6.11,38.91,-5.16,3.50,13.33,3.90,-3.03,12.72
-7,15,698,-68,-386,3944,-1.01,0.90,55.22,-0.68,-3.86,39.44,-5.15,3.51,13.11,3.82,-2.87,11.10
-1,18,693,-43,-399,3861,-0.92,0.92,53.93,-0.43,-3.99,38.61,-5.15,3.51,12.90,3.67,-2.94,9.87
-11,7,666,32,-395,3964,-0.89,0.87,52.60,0.32,-3.95,39.64,-5.14,3.52,12.69,3.86,-2.70,10.46
-14,1,658,82,-396,3829,-0.89,0.79,51.35,0.82,-3.96,38.29,-5.13,3.52,12.48,3.91,-2.56,9.55
-16,1,677,70,-478,3919,-0.90,0.72,50.35,0.70,-4.78,39.19,-5.13,3.52,12.28,3.96,-2.54,6.66
-8,-6,654,57,-408,3943,-0.86,0.61,49.30,0.57,-4.08,39.43,-5.13,3.53,12.09,3.78,-2.37,7.28
-22,-8,577,53,-491,3834,-0.90,0.50,47.89,0.53,-4.91,38.34,-5.13,3.53,11.90,4.08,-2.30,12.01
12,9,558,-15,-437,3896,-0.74,0.51,46.51,-0.15,-4.37,38.96,-5.12,3.53,11.71,3.34,-2.65,11.85
-13,-5,489,-10,-386,3837,-0.75,0.43,44.84,-0.10,-3.86,38.37,-5.12,3.53,11.53,3.85,-2.34,15.57
-10,-4,464,3,-408,3890,-0.73,0.36,43.18,0.03,-4.08,38.90,-5.12,3.53,11.36,3.78,-2.35,15.58
-10,-4,438,10,-457,3831,-0.72,0.30,41.54,0.10,-4.57,38.31,-5.12,3.53,11.19,3.78,-2.33,15.68
5,4,453,58,-470,3895,-0.62,0.29,40.15,0.58,-4.70,38.95,-5.12,3.53,11.03,3.44,-2.49,12.63
-3,6,523,30,-425,3853,-0.57,0.30,39.32,0.30,-4.25,38.53,-5.11,3.52,10.88,3.59,-2.53,5.65
-11,0,532,39,-413,3927,-0.58,0.27,38.64,0.39,-4.13,39.27,-5.11,3.52,10.72,3.76,-2.40,4.02
-16,-3,530,-188,-246,3871,-0.62,0.22,38.01,-1.88,-2.46,38.71,-5.09,3.53,10.57,3.85,-2.33,3.38
-1,12,508,-129,-428,3908,-0.57,0.28,37.30,-1.29,-4.28,39.08,-5.09,3.53,10.42,3.54,-2.65,4.36
-27,9,543,-42,-346,3910,-0.67,0.30,36.89,-0.42,-3.46,39.10,-5.08,3.52,10.28,4.09,-2.59,0.86
-19,17,573,-80,-411,3854,-0.72,0.38,36.69,-0.80,-4.11,38.54,-5.09,3.52,10.13,3.94,-2.77,-1.92
-2,21,537,-171,-377,3886,-0.66,0.47,36.30,-1.71,-3.77,38.86,-5.09,3.52,9.99,3.58,-2.88,0.63
2,32,542,-114,-332,3917,-0.58,0.62,35.98,-1.14,-3.32,39.17,-5.08,3.52,9.84,3.47,-3.14,-0.21
-2,25,501,-39,-490,3912,-0.54,0.71,35.43,-0.39,-4.90,39.12,-5.08,3.52,9.70,3.54,-3.02,2.58
-6,16,492,16,-472,3846,-0.52,0.73,34.89,0.16,-4.72,38.46,-5.08,3.52,9.56,3.62,-2.85,2.65
-18,17,491,16,-675,3859,-0.58,0.76,34.40,0.16,-6.75,38.59,-5.09,3.52,9.43,3.89,-2.88,2.11
-6,11,492,41,-522,3895,-0.56,0.75,33.96,0.41,-5.22,38.95,-5.10,3.52,9.29,3.64,-2.75,1.47
-24,6,517,-53,-580,3867,-0.65,0.72,33.72,-0.53,-5.80,38.67,-5.11,3.52,9.16,4.03,-2.64,-0.96
-11,27,524,-107,-436,3890,-0.65,0.81,33.54,-1.07,-4.36,38.90,-5.11,3.52,9.03,3.77,-3.09,-1.77
1,19,568,-235,-455,4030,-0.58,0.84,33.65,-2.35,-4.55,40.30,-5.12,3.53,8.89,3.52,-2.95,-5.35
-10,-9,573,-211,-347,3871,-0.58,0.70,33.78,-2.11,-3.47,38.71,-5.12,3.53,8.76,3.74,-2.34,-5.60
-10,35,580,-154,-371,3856,-0.59,0.85,33.94,-1.54,-3.71,38.56,-5.12,3.53,8.62,3.74,-3.27,-5.99
-13,14,555,-59,-412,3832,-0.61,0.85,33.93,-0.59,-4.12,38.32,-5.12,3.53,8.49,3.81,-2.84,-3.88
10,32,518,-24,-538,3878,-0.48,0.96,33.70,-0.24,-5.38,38.78,-5.12,3.53,8.36,3.31,-3.24,-1.04
-9,-4,505,40,-495,3987,-0.49,0.84,33.41,0.40,-4.95,39.87,-5.12,3.53,8.22,3.70,-2.48,-0.30
-8,7,491,38,-515,3854,-0.49,0.80,33.06,0.38,-5.15,38.54,-5.13,3.53,8.09,3.68,-2.69,0.44
-9,24,482,-20,-532,3848,-0.50,0.86,32.70,-0.20,-5.32,38.48,-5.13,3.53,7.96,3.71,-3.05,0.74
8,17,502,-76,-516,3921,-0.40,0.88,32.49,-0.76,-5.16,39.21,-5.14,3.53,7.83,3.34,-2.92,-1.21
-5,22,511,-67,-492,3879,-0.39,0.93,32.36,-0.67,-4.92,38.79,-5.14,3.53,7.71,3.60,-3.03,-2.14
-11,10,567,-197,-432,3934,-0.42,0.90,32.58,-1.97,-4.32,39.34,-5.15,3.54,7.58,3.74,-2.78,-6.60
-9,8,567,-240,-381,3820,-0.43,0.85,32.78,-2.40,-3.81,38.20,-5.17,3.55,7.45,3.71,-2.74,-6.34
-17,8,551,-161,-366,3745,-0.49,0.82,32.86,-1.61,-3.66,37.45,-5.17,3.55,7.32,3.89,-2.73,-4.87
-13,5,498,-122,-446,3847,-0.52,0.77,32.62,-1.22,-4.46,38.47,-5.17,3.55,7.19,3.82,-2.66,-0.69
-8,6,411,-51,-374,3882,-0.52,0.73,31.86,-0.51,-3.74,38.82,-5.17,3.55,7.06,3.71,-2.66,5.71
-3,14,402,-56,-287,3830,-0.48,0.74,31.13,-0.56,-2.87,38.30,-5.16,3.55,6.94,3.60,-2.83,5.54
-11,23,379,-69,-672,3891,-0.50,0.81,30.33,-0.69,-6.72,38.91,-5.17,3.55,6.82,3.77,-3.03,6.47
18,14,361,-44,-543,3947,-0.34,0.81,29.50,-0.44,-5.43,39.47,-5.17,3.55,6.70,3.14,-2.85,6.94
6,21,306,100,-551,3892,-0.27,0.86,28.41,1.00,-5.51,38.92,-5.18,3.55,6.59,3.37,-3.00,10.21
-10,13,318,156,-587,3902,-0.31,0.85,27.51,1.56,-5.87,39.02,-5.18,3.55,6.48,3.71,-2.84,8.05
-2,31,355,13,-506,3899,-0.29,0.96,26.93,0.13,-5.06,38.99,-5.18,3.54,6.37,3.54,-3.23,4.17
11,46,358,-50,-527,3872,-0.19,1.14,26.42,-0.50,-5.27,38.72,-5.19,3.54,6.27,3.25,-3.59,3.27
1,12,351,-94,-646,3849,-0.17,1.10,25.92,-0.94,-6.46,38.49,-5.20,3.55,6.17,3.46,-2.89,3.22
5,13,359,-123,-643,3892,-0.12,1.07,25.51,-1.23,-6.43,38.92,-5.21,3.56,6.07,3.37,-2.90,2.03
-3,34,559,1083,-211,4150,-0.13,1.17,26.37,10.83,-2.11,41.50,-5.20,3.55,5.96,3.53,-3.36,-13.81
13,16,850,888,331,3925,-0.03,1.15,28.92,8.88,3.31,39.25,-5.19,3.55,5.85,3.17,-2.98,-20.00
-36,-4,1053,-465,-719,3841,-0.25,1.01,32.45,-4.65,-7.19,38.41,-5.20,3.58,5.72,4.23,-2.56,-20.00
-33,-11,1103,-442,-706,3881,-0.43,0.84,35.94,-4.42,-7.06,38.81,-5.21,3.60,5.57,4.22,-2.38,-20.00
-12,-5,1016,-162,-529,3827,-0.46,0.73,38.54,-1.62,-5.29,38.27,-5.21,3.61,5.42,3.81,-2.48,-20.00
-12,4,945,-138,-480,3931,-0.48,0.68,40.45,-1.38,-4.80,39.31,-5.22,3.62,5.26,3.82,-2.65,-20.00
-11,12,797,32,-266,3883,-0.50,0.68,41.27,0.32,-2.66,38.83,-5.21,3.62,5.10,3.80,-2.82,-14.90
-7,-6,770,-123,-437,3796,-0.50,0.58,41.84,-1.23,-4.37,37.96,-5.21,3.62,4.93,3.72,-2.43,-11.88
-5,16,693,-92,-314,3905,-0.48,0.62,41.88,-0.92,-3.14,39.05,-5.20,3.62,4.76,3.66,-2.88,-5.29
-34,24,671,27,-292,3839,-0.64,0.70,41.79,0.27,-2.92,38.39,-5.18,3.62,4.60,4.29,-3.07,-3.55
-23,8,613,-108,-354,3885,-0.71,0.68,41.35,-1.08,-3.54,38.85,-5.18,3.62,4.43,4.08,-2.74,0.81
3,12,602,-130,-493,3845,-0.62,0.69,40.88,-1.30,-4.93,38.45,-5.18,3.63,4.27,3.53,-2.82,1.16
-21,-2,638,-84,-464,3971,-0.69,0.61,40.69,-0.84,-4.64,39.71,-5.18,3.63,4.11,4.04,-2.52,-2.14
7,30,623,-178,-485,3739,-0.58,0.73,40.42,-1.78,-4.85,37.39,-5.19,3.64,3.95,3.44,-3.21,-1.21
22,25,561,-60,-233,3973,-0.39,0.81,39.80,-0.60,-2.33,39.73,-5.18,3.64,3.79,3.07,-3.13,3.26
-8,13,546,18,-296,3940,-0.40,0.81,39.15,0.18,-2.96,39.40,-5.16,3.64,3.63,3.68,-2.89,3.70
0,21,567,35,-570,3819,-0.36,0.85,38.69,0.35,-5.70,38.19,-5.17,3.64,3.48,3.51,-3.06,1.34
-16,-1,588,-11,-710,3890,-0.42,0.76,38.41,-0.11,-7.10,38.90,-5.17,3.65,3.33,3.85,-2.60,-0.79
-3,38,640,58,-629,3739,-0.39,0.92,38.47,0.58,-6.29,37.39,-5.18,3.65,3.18,3.59,-3.43,-5.11
-18,11,684,85,-418,3794,-0.46,0.89,38.80,0.85,-4.18,37.94,-5.17,3.65,3.02,3.91,-2.88,-8.42
-8,21,698,58,-424,3763,-0.47,0.93,39.18,0.58,-4.24,37.63,-5.17,3.65,2.87,3.70,-3.09,-9.12
-9,18,703,10,-517,3947,-0.48,0.95,39.55,0.10,-5.17,39.47,-5.17,3.66,2.71,3.73,-3.04,-9.06
-23,11,739,-46,-458,3854,-0.57,0.92,40.10,-0.46,-4.58,38.54,-5.17,3.66,2.55,4.04,-2.89,-11.40
-15,5,737,-5,-499,3959,-0.60,0.86,40.59,-0.05,-4.99,39.59,-5.17,3.66,2.39,3.88,-2.75,-10.61
-30,-2,778,1,-505,3976,-0.73,0.76,41.27,0.01,-5.05,39.76,-5.18,3.66,2.22,4.22,-2.58,-13.20
-6,13,812,16,-507,3890,-0.69,0.76,42.10,0.16,-5.07,38.90,-5.18,3.66,2.06,3.73,-2.89,-15.02
-18,12,909,-81,-362,4041,-0.73,0.76,43.43,-0.81,-3.62,40.41,-5.17,3.67,1.88,3.98,-2.87,-20.00
-15,16,916,-105,-514,3882,-0.75,0.78,44.68,-1.05,-5.14,38.82,-5.17,3.67,1.71,3.92,-2.96,-20.00
-3,25,818,-54,-670,3961,-0.69,0.86,45.20,-0.54,-6.70,39.61,-5.18,3.68,1.53,3.67,-3.17,-11.54
-9,14,792,-17,-732,3831,-0.68,0.86,45.51,-0.17,-7.32,38.31,-5.19,3.69,1.35,3.79,-2.96,-8.94
-30,12,821,-55,-636,3859,-0.79,0.84,45.97,-0.55,-6.36,38.59,-5.19,3.70,1.16,4.25,-2.92,-10.80
-20,23,813,-98,-572,3768,-0.84,0.90,46.33,-0.98,-5.72,37.68,-5.20,3.71,0.98,4.07,-3.16,-9.66
-2,27,878,59,-436,3799,-0.76,0.97,47.05,0.59,-4.36,37.99,-5.20,3.72,0.79,3.68,-3.27,-14.23
-15,33,902,111,-630,3933,-0.78,1.08,47.85,1.11,-6.30,39.33,-5.20,3.72,0.60,3.95,-3.42,-15.24
-16,25,922,239,-557,4046,-0.80,1.12,48.69,2.39,-5.57,40.46,-5.19,3.73,0.41,3.97,-3.27,-15.86
1,34,946,234,-677,3821,-0.71,1.22,49.59,2.34,-6.77,38.21,-5.19,3.73,0.21,3.60,-3.49,-16.73
-2,32,985,93,-630,3825,-0.65,1.29,50.64,0.93,-6.30,38.25,-5.20,3.74,0.01,3.65,-3.47,-18.69
-19,27,1003,50,-576,3913,-0.70,1.33,51.69,0.50,-5.76,39.13,-5.20,3.75,-0.19,4.01,-3.39,-18.86
-23,18,1029,48,-321,3872,-0.77,1.30,52.80,0.48,-3.21,38.72,-5.18,3.76,-0.40,4.10,-3.20,-19.64
-26,20,1012,-5,-374,3947,-0.86,1.30,53.70,-0.05,-3.74,39.47,-5.17,3.77,-0.62,4.18,-3.25,-17.05
-21,9,902,-53,-393,4009,-0.90,1.22,53.83,-0.53,-3.93,40.09,-5.17,3.77,-0.83,4.08,-3.01,-7.55
-10,13,884,-141,-399,3814,-0.87,1.18,53.84,-1.41,-3.99,38.14,-5.16,3.78,-1.04,3.85,-3.08,-6.01
-21,10,843,-195,-424,3790,-0.91,1.12,53.60,-1.95,-4.24,37.90,-5.17,3.79,-1.26,4.09,-3.01,-2.84
-24,11,834,-86,-427,3947,-0.97,1.08,53.32,-0.86,-4.27,39.47,-5.16,3.80,-1.47,4.16,-3.02,-2.42
-11,15,736,-55,-358,3899,-0.94,1.06,52.48,-0.55,-3.58,38.99,-5.15,3.80,-1.68,3.88,-3.10,4.81
-19,13,722,-37,-497,3809,-0.96,1.03,51.64,-0.37,-4.97,38.09,-5.16,3.81,-1.88,4.05,-3.06,4.93
-5,28,734,38,-549,3849,-0.89,1.10,50.95,0.38,-5.49,38.49,-5.16,3.82,-2.09,3.75,-3.39,3.04
-2,24,743,44,-580,4003,-0.82,1.14,50.39,0.44,-5.80,40.03,-5.16,3.83,-2.29,3.67,-3.32,1.56
1,20,739,-53,-429,3875,-0.73,1.15,49.86,-0.53,-4.29,38.75,-5.15,3.83,-2.48,3.58,-3.25,1.23
-1,24,727,-125,-479,3886,-0.66,1.18,49.31,-1.25,-4.79,38.86,-5.15,3.84,-2.68,3.60,-3.34,1.54
-20,8,702,-149,-468,3756,-0.72,1.11,48.66,-1.49,-4.68,37.56,-5.16,3.85,-2.87,4.01,-3.01,2.84
-31,2,687,-155,-450,3983,-0.83,1.01,47.98,-1.55,-4.50,39.83,-5.16,3.86,-3.06,4.26,-2.86,3.25
-6,13,664,-174,-417,4098,-0.79,0.99,47.23,-1.74,-4.17,40.98,-5.16,3.86,-3.25,3.74,-3.08,4.25
6,-2,655,-170,-380,3818,-0.67,0.88,46.51,-1.70,-3.80,38.18,-5.16,3.87,-3.44,3.46,-2.75,4.09
-9,18,571,-209,-267,3817,-0.66,0.90,45.34,-2.09,-2.67,38.17,-5.13,3.88,-3.62,3.75,-3.17,9.72
-6,11,532,-223,-289,3977,-0.63,0.88,44.05,-2.23,-2.89,39.77,-5.11,3.88,-3.79,3.66,-3.03,11.38
14,7,405,-182,-272,3888,-0.48,0.83,42.12,-1.82,-2.72,38.88,-5.08,3.89,-3.96,3.20,-2.94,19.67
4,-1,375,-136,-334,3885,-0.41,0.74,40.19,-1.36,-3.34,38.85,-5.07,3.89,-4.12,3.38,-2.75,19.75
-7,11,340,128,-572,3983,-0.41,0.74,38.25,1.28,-5.72,39.83,-5.07,3.89,-4.28,3.60,-2.99,20.00
-11,21,333,105,-632,3824,-0.44,0.79,36.45,1.05,-6.32,38.24,-5.08,3.89,-4.42,3.69,-3.21,18.54
-2,28,341,80,-473,3943,-0.41,0.88,34.89,0.80,-4.73,39.43,-5.08,3.89,-4.56,3.50,-3.38,15.86
14,28,341,102,-531,3885,-0.28,0.96,33.48,1.02,-5.31,38.85,-5.08,3.89,-4.69,3.14,-3.40,14.07
-1,27,344,32,-520,3739,-0.26,1.03,32.23,0.32,-5.20,37.39,-5.08,3.89,-4.82,3.44,-3.40,12.22
0,33,343,39,-504,3879,-0.23,1.13,31.10,0.39,-5.04,38.79,-5.08,3.89,-4.94,3.42,-3.55,10.86
-2,-5,315,90,-454,3969,-0.22,0.99,29.91,0.90,-4.54,39.69,-5.08,3.88,-5.06,3.45,-2.73,11.72
-11,-18,308,26,-369,3871,-0.27,0.78,28.80,0.26,-3.69,38.71,-5.07,3.88,-5.18,3.64,-2.41,10.89
-18,8,310,-26,-348,3808,-0.35,0.75,27.81,-0.26,-3.48,38.08,-5.07,3.87,-5.29,3.81,-2.92,9.46
-15,16,304,-105,-400,3878,-0.41,0.77,26.88,-1.05,-4.00,38.78,-5.07,3.87,-5.39,3.76,-3.09,8.79
-9,-5,323,-139,-438,3806,-0.42,0.66,26.17,-1.39,-4.38,38.06,-5.07,3.87,-5.50,3.65,-2.63,6.26
1,-15,340,-140,-387,3860,-0.37,0.51,25.62,-1.40,-3.87,38.60,-5.07,3.86,-5.60,3.43,-2.38,4.13
2,10,350,-113,-328,3939,-0.32,0.52,25.20,-1.13,-3.28,39.39,-5.07,3.85,-5.70,3.39,-2.89,2.74
-10,2,344,-125,-306,4020,-0.35,0.48,24.77,-1.25,-3.06,40.20,-5.05,3.85,-5.80,3.64,-2.71,2.71
-7,-9,313,22,-432,3961,-0.36,0.37,24.21,0.22,-4.32,39.61,-5.05,3.84,-5.89,3.58,-2.45,4.62
-12,-1,305,49,-521,3713,-0.40,0.33,23.65,0.49,-5.21,37.13,-5.06,3.83,-5.99,3.69,-2.60,4.58
0,7,318,133,-600,3758,-0.36,0.34,23.22,1.33,-6.00,37.58,-5.07,3.83,-6.08,3.44,-2.76,2.94
-7,2,340,104,-610,3980,-0.36,0.32,22.97,1.04,-6.10,39.80,-5.07,3.82,-6.17,3.59,-2.65,0.76
-10,8,406,149,-458,4099,-0.39,0.34,23.15,1.49,-4.58,40.99,-5.07,3.81,-6.26,3.66,-2.77,-4.60
-11,13,426,144,-412,3764,-0.42,0.38,23.44,1.44,-4.12,37.64,-5.07,3.81,-6.36,3.68,-2.88,-5.93
-11,5,427,52,-453,3965,-0.44,0.37,23.70,0.52,-4.53,39.65,-5.07,3.80,-6.45,3.69,-2.71,-5.68
-16,21,465,15,-475,3871,-0.50,0.46,24.16,0.15,-4.75,38.71,-5.07,3.79,-6.55,3.81,-3.06,-8.30
-12,12,531,57,-479,3939,-0.52,0.49,24.99,0.57,-4.79,39.39,-5.08,3.79,-6.65,3.74,-2.88,-12.83
-5,2,554,-18,-415,3861,-0.50,0.45,25.87,-0.18,-4.15,38.61,-5.08,3.78,-6.75,3.59,-2.66,-13.65
-4,16,582,-109,-255,3850,-0.47,0.51,26.83,-1.09,-2.55,38.50,-5.06,3.78,-6.86,3.55,-2.96,-14.79
20,29,568,-84,-224,3915,-0.30,0.63,27.61,-0.84,-2.24,39.15,-5.05,3.77,-6.97,3.01,-3.25,-12.60
1,18,503,150,-421,3898,-0.27,0.68,27.92,1.50,-4.21,38.98,-5.04,3.77,-7.08,3.38,-3.04,-6.70
-7,28,515,128,-503,3827,-0.28,0.78,28.27,1.28,-5.03,38.27,-5.04,3.76,-7.19,3.55,-3.27,-7.26
3,16,558,287,-580,3937,-0.24,0.80,28.85,2.87,-5.80,39.37,-5.04,3.76,-7.30,3.33,-3.03,-10.17
-11,6,578,237,-657,3882,-0.28,0.76,29.49,2.37,-6.57,38.82,-5.05,3.76,-7.42,3.63,-2.81,-11.04
-35,-36,664,331,-580,3750,-0.47,0.46,30.59,3.31,-5.80,37.50,-5.05,3.75,-7.54,4.17,-1.87,-16.91
9,9,678,133,-652,4058,-0.36,0.47,31.67,1.33,-6.52,40.58,-5.05,3.75,-7.67,3.25,-2.79,-16.71
-42,-15,735,37,-645,3831,-0.58,0.33,32.98,0.37,-6.45,38.31,-5.06,3.75,-7.80,4.35,-2.26,-19.86
-20,-7,742,-63,-554,3873,-0.65,0.26,34.21,-0.63,-5.54,38.73,-5.07,3.75,-7.93,3.93,-2.40,-18.87
-26,16,758,-180,-474,3942,-0.74,0.33,35.41,-1.80,-4.74,39.42,-5.08,3.76,-8.07,4.08,-2.89,-18.69
-10,18,730,-176,-335,3959,-0.73,0.41,36.32,-1.76,-3.35,39.59,-5.07,3.75,-8.22,3.75,-2.95,-15.15
-5,15,680,-159,-420,3940,-0.69,0.46,36.84,-1.59,-4.20,39.40,-5.07,3.75,-8.37,3.63,-2.91,-10.25
-17,24,688,-156,-440,3835,-0.72,0.56,37.35,-1.56,-4.40,38.35,-5.08,3.76,-8.51,3.89,-3.12,-10.26
9,49,661,-334,-317,3885,-0.59,0.80,37.65,-3.34,-3.17,38.85,-5.06,3.79,-8.66,3.32,-3.72,-7.59
23,38,631,-220,-294,3958,-0.39,0.95,37.73,-2.20,-2.94,39.58,-5.04,3.80,-8.82,2.97,-3.54,-4.94
-6,3,514,330,-599,3929,-0.39,0.88,37.10,3.30,-5.99,39.29,-5.04,3.80,-8.96,3.55,-2.80,4.16
-16,8,559,290,-840,3856,-0.45,0.84,36.80,2.90,-8.40,38.56,-5.04,3.80,-9.11,3.78,-2.90,-0.03
-13,23,718,267,-705,3928,-0.48,0.89,37.50,2.67,-7.05,39.28,-5.05,3.80,-9.26,3.73,-3.22,-12.60
2,18,750,286,-704,3843,-0.42,0.91,38.32,2.86,-7.04,38.43,-5.05,3.80,-9.41,3.41,-3.12,-14.25
6,25,832,-109,-591,3803,-0.34,0.97,39.56,-1.09,-5.91,38.03,-5.05,3.81,-9.57,3.31,-3.29,-19.60
-8,25,838,-147,-509,3943,-0.36,1.03,40.72,-1.47,-5.09,39.43,-5.06,3.82,-9.73,3.60,-3.31,-18.63
-31,-7,812,-161,-329,3885,-0.51,0.88,41.60,-1.61,-3.29,38.85,-5.05,3.82,-9.89,4.10,-2.62,-15.29
-9,13,807,-124,-307,3891,-0.52,0.88,42.36,-1.24,-3.07,38.91,-5.03,3.82,-10.06,3.65,-3.02,-13.89
14,16,758,-87,-355,3980,-0.38,0.89,42.75,-0.87,-3.55,39.80,-5.02,3.82,-10.23,3.13,-3.09,-9.24
-18,-10,753,-134,-487,4064,-0.45,0.74,43.07,-1.34,-4.87,40.64,-5.03,3.82,-10.40,3.81,-2.52,-8.40
-31,-5,782,-60,-518,3923,-0.59,0.63,43.53,-0.60,-5.18,39.23,-5.03,3.83,-10.58,4.11,-2.60,-10.26
-9,6,785,-65,-533,3929,-0.59,0.60,43.97,-0.65,-5.33,39.29,-5.03,3.83,-10.75,3.67,-2.82,-9.95
-18,4,769,-167,-383,3879,-0.64,0.57,44.26,-1.67,-3.83,38.79,-5.03,3.83,-10.93,3.86,-2.77,-8.22
-1,12,750,-208,-387,3943,-0.58,0.59,44.41,-2.08,-3.87,39.43,-5.03,3.84,-11.10,3.50,-2.94,-6.41
8,21,632,-172,-246,3918,-0.48,0.65,43.83,-1.72,-2.46,39.18,-5.01,3.84,-11.28,3.27,-3.14,2.84
-18,4,603,-13,-352,3919,-0.54,0.61,43.12,-0.13,-3.52,39.19,-5.00,3.84,-11.45,3.81,-2.78,4.40
-12,11,587,29,-515,3922,-0.56,0.62,42.39,0.29,-5.15,39.22,-5.00,3.84,-11.62,3.70,-2.93,4.83
6,9,580,-14,-493,3900,-0.47,0.61,41.69,-0.14,-4.93,39.00,-5.00,3.84,-11.79,3.31,-2.89,4.53
-6,10,567,-175,-438,3943,-0.46,0.61,40.98,-1.75,-4.38,39.43,-5.00,3.85,-11.95,3.55,-2.91,4.73
1,8,564,-151,-262,3866,-0.40,0.60,40.32,-1.51,-2.62,38.66,-4.99,3.85,-12.11,3.38,-2.87,4.15
-8,17,471,-228,-232,3958,-0.41,0.64,39.16,-2.28,-2.32,39.58,-4.96,3.86,-12.27,3.55,-3.07,10.55
15,16,427,-209,-191,3888,-0.28,0.68,37.85,-2.09,-1.91,38.88,-4.93,3.87,-12.42,3.03,-3.06,12.60
0,5,343,-101,-377,3904,-0.25,0.64,36.16,-1.01,-3.77,39.04,-4.93,3.87,-12.56,3.32,-2.83,17.56
-2,3,321,-99,-407,3801,-0.24,0.59,34.50,-0.99,-4.07,38.01,-4.93,3.86,-12.70,3.36,-2.77,17.31
-8,6,284,-9,-337,3904,-0.26,0.57,32.78,-0.09,-3.37,39.04,-4.92,3.86,-12.83,3.48,-2.82,18.25
-3,-2,268,13,-353,3923,-0.26,0.50,31.14,0.13,-3.53,39.23,-4.91,3.85,-12.95,3.37,-2.64,17.51
-11,-7,215,67,-398,3870,-0.30,0.41,29.34,0.67,-3.98,38.70,-4.91,3.85,-13.07,3.55,-2.51,19.70
-11,1,204,100,-366,3816,-0.33,0.37,27.65,1.00,-3.66,38.16,-4.91,3.84,-13.18,3.55,-2.66,18.47
-4,3,188,121,-479,3866,-0.33,0.36,26.03,1.21,-4.79,38.66,-4.91,3.83,-13.29,3.41,-2.69,17.76
-5,3,182,136,-495,3914,-0.32,0.34,24.54,1.36,-4.95,39.14,-4.91,3.83,-13.38,3.43,-2.68,16.36
-4,3,184,103,-423,3886,-0.32,0.32,23.21,1.03,-4.23,38.86,-4.91,3.82,-13.47,3.41,-2.67,14.49
-8,0,174,104,-476,3898,-0.33,0.29,21.95,1.04,-4.76,38.98,-4.91,3.81,-13.56,3.49,-2.59,13.73
-10,-7,175,16,-442,3866,-0.36,0.22,20.82,0.16,-4.42,38.66,-4.91,3.80,-13.64,3.54,-2.42,12.21
-7,-6,174,40,-433,3864,-0.37,0.16,19.80,0.40,-4.33,38.64,-4.92,3.79,-13.72,3.49,-2.42,10.99
-10,-4,157,48,-488,3924,-0.39,0.12,18.78,0.48,-4.88,39.24,-4.92,3.78,-13.80,3.56,-2.45,11.13
0,-2,139,82,-522,3889,-0.35,0.10,17.75,0.82,-5.22,38.89,-4.93,3.77,-13.87,3.35,-2.47,11.34
0,-2,161,67,-506,3894,-0.32,0.07,16.95,0.67,-5.06,38.94,-4.93,3.76,-13.94,3.34,-2.46,8.46
3,2,160,4,-472,3869,-0.27,0.08,16.23,0.04,-4.72,38.69,-4.94,3.75,-14.00,3.27,-2.54,7.63
-7,-2,152,15,-514,3887,-0.28,0.06,15.54,0.15,-5.14,38.87,-4.94,3.74,-14.06,3.48,-2.44,7.42
-1,2,163,85,-521,3903,-0.26,0.06,14.98,0.85,-5.21,39.03,-4.95,3.73,-14.12,3.36,-2.52,5.77
-8,4,170,69,-593,3976,-0.28,0.08,14.52,0.69,-5.93,39.76,-4.96,3.72,-14.18,3.51,-2.56,4.59
-1,7,173,19,-493,3878,-0.26,0.12,14.12,0.19,-4.93,38.78,-4.96,3.71,-14.23,3.37,-2.62,3.83
-4,6,208,-75,-527,3866,-0.26,0.14,13.98,-0.75,-5.27,38.66,-4.98,3.70,-14.29,3.44,-2.60,0.68
-4,3,214,-97,-454,3877,-0.26,0.15,13.89,-0.97,-4.54,38.77,-4.98,3.69,-14.34,3.44,-2.54,0.06
12,11,215,-102,-400,3915,-0.16,0.20,13.81,-1.02,-4.00,39.15,-4.99,3.68,-14.40,3.09,-2.71,-0.12
-9,-1,205,3,-509,3929,-0.20,0.17,13.68,0.03,-5.09,39.29,-5.00,3.67,-14.45,3.53,-2.45,0.56
-5,-1,189,26,-447,3890,-0.21,0.15,13.46,0.26,-4.47,38.90,-5.00,3.66,-14.50,3.46,-2.44,1.64
3,6,203,35,-496,3902,-0.17,0.17,13.36,0.35,-4.96,39.02,-5.01,3.65,-14.56,3.29,-2.58,0.32
-3,11,227,-11,-455,3941,-0.17,0.22,13.40,-0.11,-4.55,39.41,-5.01,3.64,-14.61,3.41,-2.68,-1.65
-3,-4,222,0,-468,3936,-0.17,0.17,13.42,0.00,-4.68,39.36,-5.02,3.63,-14.66,3.42,-2.36,-1.21
-6,-4,235,-45,-490,3911,-0.19,0.13,13.51,-0.45,-4.90,39.11,-5.02,3.62,-14.72,3.49,-2.34,-2.19
-5,-2,243,-4,-456,3852,-0.20,0.11,13.64,-0.04,-4.56,38.52,-5.03,3.61,-14.77,3.48,-2.37,-2.70
-3,-10,215,11,-366,3870,-0.20,0.04,13.59,0.11,-3.66,38.70,-5.03,3.59,-14.82,3.43,-2.18,-0.39
-8,-12,210,-15,-356,3935,-0.23,-0.04,13.51,-0.15,-3.56,39.35,-5.03,3.58,-14.88,3.54,-2.11,-0.07
-2,-1,172,59,-464,3993,-0.22,-0.04,13.21,0.59,-4.64,39.93,-5.03,3.57,-14.93,3.42,-2.32,2.77
-7,-6,173,112,-534,3935,-0.24,-0.08,12.94,1.12,-5.34,39.35,-5.04,3.55,-14.98,3.53,-2.20,2.35
-11,5,183,141,-471,3800,-0.28,-0.04,12.77,1.41,-4.71,38.00,-5.04,3.54,-15.03,3.63,-2.43,1.27
-2,16,179,78,-456,3909,-0.27,0.06,12.58,0.78,-4.56,39.09,-5.04,3.53,-15.08,3.44,-2.67,1.38
12,16,167,82,-487,3972,-0.17,0.16,12.34,0.82,-4.87,39.72,-5.05,3.52,-15.13,3.13,-2.69,2.09
8,19,163,106,-524,3869,-0.10,0.26,12.10,1.06,-5.24,38.69,-5.06,3.51,-15.18,3.20,-2.77,2.12
10,15,201,119,-554,3830,-0.03,0.32,12.12,1.19,-5.54,38.30,-5.06,3.50,-15.23,3.15,-2.70,-1.08
4,18,224,53,-518,3888,-0.00,0.40,12.27,0.53,-5.18,38.88,-5.07,3.49,-15.27,3.26,-2.78,-2.82
5,5,201,83,-453,3846,0.03,0.39,12.27,0.83,-4.53,38.46,-5.07,3.47,-15.32,3.24,-2.50,-0.88
7,18,205,53,-504,3888,0.07,0.46,12.29,0.53,-5.04,38.88,-5.08,3.46,-15.37,3.19,-2.78,-1.18
-1,9,255,147,-668,3853,0.06,0.47,12.62,1.47,-6.68,38.53,-5.09,3.46,-15.42,3.36,-2.59,-5.00
-2,-1,283,177,-615,3908,0.04,0.42,13.08,1.77,-6.15,39.08,-5.09,3.45,-15.47,3.39,-2.37,-6.78
-16,-35,350,108,-602,3855,-0.06,0.16,13.91,1.08,-6.02,38.55,-5.10,3.44,-15.53,3.71,-1.60,-11.40
-19,-34,367,123,-593,3893,-0.17,-0.06,14.76,1.23,-5.93,38.93,-5.11,3.43,-15.59,3.80,-1.55,-11.75
-20,-27,455,203,-709,3794,-0.28,-0.22,16.06,2.03,-7.09,37.94,-5.12,3.42,-15.65,3.86,-1.65,-17.54
-18,-31,472,208,-680,4002,-0.36,-0.39,17.33,2.08,-6.80,40.02,-5.12,3.41,-15.72,3.85,-1.51,-17.35
-13,-6,485,-11,-358,3887,-0.40,-0.39,18.56,-0.11,-3.58,38.87,-5.12,3.40,-15.79,3.76,-2.01,-16.88
-6,-4,379,-155,39,3928,-0.40,-0.37,19.01,-1.55,0.39,39.28,-5.10,3.40,-15.87,3.60,-2.06,-7.32
-9,6,180,-137,-451,3922,-0.41,-0.30,18.21,-1.37,-4.51,39.22,-5.11,3.39,-15.94,3.67,-2.28,8.52
-1,12,180,-137,-512,3901,-0.38,-0.19,17.49,-1.37,-5.12,39.01,-5.13,3.39,-16.01,3.51,-2.43,7.59
2,23,234,-79,-486,3886,-0.33,-0.03,17.17,-0.79,-4.86,38.86,-5.14,3.38,-16.08,3.44,-2.69,2.61
0,19,230,-107,-422,3919,-0.30,0.08,16.85,-1.07,-4.22,39.19,-5.14,3.37,-16.14,3.47,-2.63,2.55
-5,6,152,-130,-190,3988,-0.30,0.11,16.09,-1.30,-1.90,39.88,-5.12,3.37,-16.21,3.56,-2.37,8.19
-4,-3,114,-116,-162,3917,-0.29,0.08,15.18,-1.16,-1.62,39.17,-5.11,3.36,-16.27,3.53,-2.18,10.24
1,-2,21,8,-355,3858,-0.26,0.06,13.79,0.08,-3.55,38.58,-5.10,3.35,-16.33,3.42,-2.19,16.35
1,-5,14,31,-392,3874,-0.22,0.03,12.50,0.31,-3.92,38.74,-5.11,3.33,-16.38,3.41,-2.11,15.29
-3,-12,5,49,-417,3890,-0.22,-0.05,11.28,0.49,-4.17,38.90,-5.11,3.32,-16.42,3.49,-1.93,14.49
-3,-10,6,53,-416,3899,-0.22,-0.11,10.19,0.53,-4.16,38.99,-5.11,3.31,-16.46,3.49,-1.95,13.01
0,-5,15,24,-445,3886,-0.20,-0.13,9.26,0.24,-4.45,38.86,-5.12,3.29,-16.50,3.43,-2.04,11.07
-3,-6,15,12,-442,3890,-0.19,-0.15,8.42,0.12,-4.42,38.90,-5.12,3.28,-16.53,3.49,-2.00,10.00
-2,-5,12,44,-475,3881,-0.19,-0.17,7.66,0.44,-4.75,38.81,-5.13,3.26,-16.56,3.48,-2.01,9.27
-2,-3,12,41,-475,3895,-0.18,-0.17,6.96,0.41,-4.75,38.95,-5.14,3.25,-16.59,3.48,-2.04,8.39
-4,2,11,44,-440,3944,-0.19,-0.14,6.33,0.44,-4.40,39.44,-5.14,3.23,-16.61,3.52,-2.14,7.67
-6,-2,9,45,-425,3906,-0.20,-0.14,5.76,0.45,-4.25,39.06,-5.14,3.22,-16.64,3.57,-2.04,7.10
-2,-1,9,38,-460,3882,-0.20,-0.13,5.23,0.38,-4.60,38.82,-5.15,3.20,-16.66,3.49,-2.06,6.43
-1,-1,8,44,-459,3892,-0.18,-0.12,4.76,0.44,-4.59,38.92,-5.16,3.19,-16.68,3.47,-2.05,5.91
-2,-1,9,16,-463,3890,-0.18,-0.12,4.34,0.16,-4.63,38.90,-5.17,3.17,-16.69,3.50,-2.04,5.29
-2,-1,7,11,-473,3885,-0.17,-0.11,3.95,0.11,-4.73,38.85,-5.17,3.15,-16.71,3.50,-2.03,4.96
-1,0,1,13,-482,3906,-0.16,-0.10,3.56,0.13,-4.82,39.06,-5.18,3.14,-16.72,3.48,-2.04,4.97
-2,-4,1,9,-480,3912,-0.16,-0.11,3.21,0.09,-4.80,39.12,-5.19,3.12,-16.73,3.51,-1.95,4.52
-2,-2,-2,35,-456,3883,-0.15,-0.11,2.88,0.35,-4.56,38.83,-5.20,3.11,-16.74,3.51,-1.98,4.35
-1,-2,-3,40,-453,3874,-0.14,-0.12,2.57,0.40,-4.53,38.74,-5.21,3.09,-16.75,3.50,-1.97,4.04
1,-1,-1,35,-439,3895,-0.12,-0.11,2.31,0.35,-4.39,38.95,-5.21,3.07,-16.76,3.45,-1.98,3.54
2,0,0,44,-437,3873,-0.10,-0.10,2.08,0.44,-4.37,38.73,-5.22,3.06,-16.77,3.43,-1.99,3.16
2,-1,7,31,-451,3896,-0.08,-0.10,1.91,0.31,-4.51,38.96,-5.22,3.04,-16.78,3.43,-1.96,2.35
3,0,10,36,-455,3879,-0.05,-0.09,1.78,0.36,-4.55,38.79,-5.23,3.02,-16.79,3.41,-1.97,1.93
-4,-6,14,46,-426,3910,-0.07,-0.11,1.69,0.46,-4.26,39.10,-5.24,3.01,-16.79,3.56,-1.83,1.48
-4,-6,16,24,-429,3877,-0.09,-0.14,1.62,0.24,-4.29,38.77,-5.24,2.99,-16.80,3.56,-1.81,1.22
2,-3,28,20,-445,3892,-0.07,-0.14,1.63,0.20,-4.45,38.92,-5.25,2.97,-16.80,3.44,-1.86,0.21
1,-4,29,17,-455,3852,-0.05,-0.15,1.64,0.17,-4.55,38.52,-5.26,2.96,-16.81,3.46,-1.83,0.15
-3,-5,37,31,-445,3886,-0.07,-0.17,1.70,0.31,-4.45,38.86,-5.26,2.94,-16.82,3.55,-1.79,-0.45
1,-2,41,22,-428,3899,-0.05,-0.16,1.78,0.22,-4.28,38.99,-5.27,2.92,-16.82,3.47,-1.84,-0.69
5,5,46,83,-480,3917,-0.02,-0.12,1.88,0.83,-4.80,39.17,-5.27,2.90,-16.83,3.38,-1.99,-0.98
6,6,44,44,-429,3907,0.02,-0.07,1.96,0.44,-4.29,39.07,-5.28,2.89,-16.84,3.36,-2.01,-0.71
7,3,48,14,-504,3917,0.06,-0.04,2.06,0.14,-5.04,39.17,-5.29,2.87,-16.85,3.33,-1.94,-0.93
7,0,58,24,-512,3876,0.10,-0.04,2.21,0.24,-5.12,38.76,-5.30,2.86,-16.85,3.33,-1.88,-1.58
-2,0,79,50,-502,3867,0.08,-0.04,2.47,0.50,-5.02,38.67,-5.31,2.84,-16.86,3.52,-1.87,-3.03
-1,1,62,-22,-418,3887,0.06,-0.03,2.60,-0.22,-4.18,38.87,-5.31,2.83,-16.87,3.51,-1.88,-1.42
-1,-1,28,-3,-456,3891,0.05,-0.03,2.51,-0.03,-4.56,38.91,-5.32,2.81,-16.88,3.52,-1.83,1.35
-3,-4,25,0,-458,3895,0.03,-0.05,2.41,0.00,-4.58,38.95,-5.33,2.79,-16.89,3.57,-1.75,1.47
-3,-1,25,-2,-464,3903,0.01,-0.05,2.32,-0.02,-4.64,39.03,-5.33,2.78,-16.90,3.58,-1.80,1.36
-2,-1,24,24,-454,3889,-0.01,-0.05,2.24,0.24,-4.54,38.89,-5.34,2.76,-16.91,3.57,-1.79,1.34
1,3,11,56,-464,3892,-0.00,-0.03,2.08,0.56,-4.64,38.92,-5.35,2.75,-16.92,3.51,-1.87,2.24
1,3,9,59,-461,3886,0.01,-0.01,1.93,0.59,-4.61,38.86,-5.35,2.73,-16.93,3.51,-1.86,2.21
1,3,3,40,-453,3881,0.01,0.01,1.75,0.40,-4.53,38.81,-5.36,2.71,-16.93,3.51,-1.85,2.50
1,2,4,41,-455,3887,0.02,0.02,1.60,0.41,-4.55,38.87,-5.37,2.70,-16.94,3.52,-1.83,2.22
0,-4,5,38,-457,3877,0.01,-0.00,1.47,0.38,-4.57,38.77,-5.37,2.68,-16.94,3.54,-1.69,1.97
0,-4,7,27,-449,3878,0.01,-0.03,1.37,0.27,-4.49,38.78,-5.38,2.66,-16.95,3.55,-1.67,1.67
-2,-6,12,28,-459,3890,-0.00,-0.06,1.30,0.28,-4.59,38.90,-5.39,2.65,-16.95,3.60,-1.61,1.16
-1,-5,14,32,-452,3887,-0.01,-0.09,1.26,0.32,-4.52,38.87,-5.39,2.63,-16.96,3.58,-1.61,0.93
-2,-8,38,76,-519,3898,-0.02,-0.13,1.37,0.76,-5.19,38.98,-5.40,2.61,-16.96,3.61,-1.53,-0.96
-9,-4,50,73,-467,3944,-0.07,-0.14,1.53,0.73,-4.67,39.44,-5.41,2.60,-16.97,3.77,-1.60,-1.77
0,1,59,53,-444,3886,-0.06,-0.12,1.74,0.53,-4.44,38.86,-5.41,2.58,-16.98,3.59,-1.69,-2.26
-2,0,59,45,-447,3877,-0.07,-0.11,1.93,0.45,-4.47,38.77,-5.42,2.56,-16.98,3.64,-1.66,-2.03
-3,-3,55,33,-442,3865,-0.08,-0.11,2.07,0.33,-4.42,38.65,-5.43,2.55,-16.99,3.66,-1.59,-1.50
-2,-3,50,9,-424,3897,-0.09,-0.12,2.17,0.09,-4.24,38.97,-5.43,2.53,-17.00,3.65,-1.58,-0.95
-1,0,32,72,-449,3892,-0.08,-0.11,2.15,0.72,-4.49,38.92,-5.44,2.51,-17.01,3.63,-1.63,0.54
-1,4,36,110,-479,3903,-0.08,-0.07,2.15,1.10,-4.79,39.03,-5.44,2.50,-17.02,3.64,-1.71,0.21
0,11,59,201,-534,3853,-0.07,0.00,2.30,2.01,-5.34,38.53,-5.45,2.48,-17.03,3.62,-1.86,-1.55
1,12,64,162,-557,3878,-0.06,0.07,2.46,1.62,-5.57,38.78,-5.46,2.47,-17.04,3.60,-1.89,-1.77
-6,-4,97,71,-498,3962,-0.09,0.04,2.80,0.71,-4.98,39.62,-5.47,2.45,-17.05,3.76,-1.55,-4.12
-7,-5,101,61,-473,3919,-0.12,0.01,3.14,0.61,-4.73,39.19,-5.47,2.43,-17.06,3.79,-1.51,-4.03
-7,-10,89,31,-436,3878,-0.15,-0.05,3.37,0.31,-4.36,38.78,-5.48,2.42,-17.07,3.80,-1.38,-2.72
-7,-9,81,-29,-458,3930,-0.18,-0.10,3.52,-0.29,-4.58,39.30,-5.49,2.40,-17.09,3.82,-1.37,-1.84
-8,-9,60,-176,-349,3968,-0.21,-0.15,3.54,-1.76,-3.49,39.68,-5.47,2.41,-17.10,3.83,-1.37,-0.05
-7,-4,49,-124,-366,3870,-0.23,-0.16,3.48,-1.24,-3.66,38.70,-5.47,2.39,-17.11,3.82,-1.45,0.82
-3,-1,34,-54,-458,3899,-0.23,-0.15,3.34,-0.54,-4.58,38.99,-5.48,2.38,-17.13,3.74,-1.51,1.91
2,1,30,6,-455,3901,-0.19,-0.13,3.19,0.06,-4.55,39.01,-5.49,2.36,-17.14,3.64,-1.54,2.05
-6,3,20,31,-443,3892,-0.21,-0.10,2.99,0.31,-4.43,38.92,-5.50,2.34,-17.15,3.81,-1.58,2.65
-5,5,16,47,-458,3875,-0.22,-0.06,2.79,0.47,-4.58,38.75,-5.50,2.33,-17.16,3.79,-1.62,2.73
-1,3,8,49,-481,3878,-0.20,-0.03,2.56,0.49,-4.81,38.78,-5.51,2.31,-17.17,3.71,-1.58,3.11
0,2,5,78,-481,3886,-0.18,-0.02,2.34,0.78,-4.81,38.86,-5.52,2.30,-17.18,3.69,-1.55,3.08
1,-1,15,72,-518,3888,-0.16,-0.02,2.19,0.72,-5.18,38.88,-5.53,2.28,-17.19,3.67,-1.48,2.05
2,0,21,65,-514,3899,-0.13,-0.02,2.10,0.65,-5.14,38.99,-5.54,2.27,-17.20,3.65,-1.49,1.43
-7,-3,6,-50,-422,3913,-0.16,-0.04,1.93,-0.50,-4.22,39.13,-5.55,2.25,-17.21,3.85,-1.42,2.47
-1,-2,0,-110,-429,3968,-0.15,-0.04,1.74,-1.10,-4.29,39.68,-5.56,2.24,-17.21,3.73,-1.42,2.74
4,0,2,76,-527,3882,-0.11,-0.04,1.57,0.76,-5.27,38.82,-5.57,2.22,-17.22,3.63,-1.46,2.36
9,4,25,14,-515,3915,-0.05,-0.01,1.57,0.14,-5.15,39.15,-5.58,2.21,-17.22,3.51,-1.54,0.41
5,7,33,-49,-382,3891,-0.01,0.03,1.61,-0.49,-3.82,38.91,-5.58,2.19,-17.23,3.59,-1.60,-0.21
4,7,27,-49,-356,3889,0.02,0.07,1.62,-0.49,-3.56,38.89,-5.58,2.18,-17.24,3.60,-1.60,0.30
3,4,6,-16,-415,3883,0.03,0.09,1.49,-0.16,-4.15,38.83,-5.58,2.16,-17.24,3.61,-1.53,1.92
1,2,7,4,-429,3878,0.03,0.09,1.39,0.04,-4.29,38.78,-5.59,2.14,-17.25,3.66,-1.48,1.70
1,-1,7,33,-460,3873,0.04,0.08,1.29,0.33,-4.60,38.73,-5.59,2.13,-17.25,3.66,-1.40,1.57
0,-4,8,34,-464,3877,0.03,0.04,1.21,0.34,-4.64,38.77,-5.60,2.11,-17.26,3.69,-1.32,1.39
-3,-9,11,26,-460,3893,0.01,-0.01,1.16,0.26,-4.60,38.93,-5.61,2.09,-17.26,3.76,-1.19,1.06
-2,-11,11,25,-460,3893,-0.00,-0.08,1.11,0.25,-4.60,38.93,-5.62,2.08,-17.27,3.75,-1.13,1.00
-3,-9,12,17,-465,3902,-0.02,-0.13,1.07,0.17,-4.65,39.02,-5.63,2.06,-17.27,3.78,-1.14,0.87
-2,-7,10,16,-461,3887,-0.03,-0.16,1.02,0.16,-4.61,38.87,-5.63,2.04,-17.27,3.77,-1.16,0.98
-2,-3,5,22,-469,3890,-0.04,-0.16,0.95,0.22,-4.69,38.90,-5.64,2.03,-17.28,3.78,-1.23,1.31
-1,-3,4,21,-471,3898,-0.04,-0.16,0.88,0.21,-4.71,38.98,-5.65,2.01,-17.28,3.76,-1.22,1.31
-3,-6,4,36,-467,3892,-0.06,-0.18,0.82,0.36,-4.67,38.92,-5.66,1.99,-17.28,3.81,-1.14,1.22
-3,-7,4,30,-459,3889,-0.07,-0.21,0.76,0.30,-4.59,38.89,-5.67,1.98,-17.29,3.82,-1.11,1.15
-4,-13,8,49,-462,3875,-0.09,-0.27,0.73,0.49,-4.62,38.75,-5.67,1.96,-17.29,3.85,-0.96,0.78
-6,-9,9,66,-475,3848,-0.11,-0.29,0.71,0.66,-4.75,38.48,-5.68,1.94,-17.29,3.90,-1.02,0.67
0,-13,16,45,-492,3884,-0.10,-0.34,0.74,0.45,-4.92,38.84,-5.69,1.92,-17.29,3.78,-0.91,0.11
-2,-15,17,61,-553,3789,-0.10,-0.40,0.77,0.61,-5.53,37.89,-5.70,1.91,-17.30,3.83,-0.85,0.06
-4,-21,24,120,-535,3921,-0.12,-0.49,0.84,1.20,-5.35,39.21,-5.71,1.89,-17.30,3.88,-0.69,-0.44
-2,-16,42,68,-555,3912,-0.12,-0.54,1.01,0.68,-5.55,39.12,-5.73,1.88,-17.30,3.85,-0.77,-1.75
-16,-13,41,30,-439,3854,-0.20,-0.56,1.16,0.30,-4.39,38.54,-5.73,1.86,-17.31,4.16,-0.81,-1.47
-10,-15,24,29,-417,3900,-0.24,-0.60,1.19,0.29,-4.17,39.00,-5.74,1.84,-17.31,4.06,-0.74,0.01
-5,-13,27,89,-503,3886,-0.25,-0.62,1.24,0.89,-5.03,38.86,-5.74,1.82,-17.32,3.96,-0.77,-0.19
-3,-9,29,135,-546,3843,-0.24,-0.61,1.29,1.35,-5.46,38.43,-5.76,1.80,-17.32,3.93,-0.84,-0.29
-26,-27,105,-4,-502,3831,-0.38,-0.71,1.80,-0.04,-5.02,38.31,-5.77,1.79,-17.33,4.44,-0.44,-6.07
-8,-5,99,-51,-307,3911,-0.39,-0.67,2.23,-0.51,-3.07,39.11,-5.76,1.77,-17.34,4.07,-0.88,-5.02
1,-1,45,-102,-324,3891,-0.34,-0.61,2.28,-1.02,-3.24,38.91,-5.74,1.77,-17.35,3.86,-0.98,-0.38
-1,1,33,-52,-364,3888,-0.32,-0.54,2.25,-0.52,-3.64,38.88,-5.73,1.75,-17.36,3.89,-1.03,0.60
-4,-3,19,22,-460,3897,-0.31,-0.51,2.14,0.22,-4.60,38.97,-5.74,1.73,-17.37,3.96,-0.94,1.65
-5,-4,19,15,-453,3899,-0.31,-0.48,2.04,0.15,-4.53,38.99,-5.75,1.71,-17.38,3.98,-0.92,1.52
-1,-3,5,30,-449,3877,-0.28,-0.45,1.87,0.30,-4.49,38.77,-5.76,1.69,-17.38,3.90,-0.93,2.49
-1,-4,1,33,-458,3869,-0.26,-0.43,1.69,0.33,-4.58,38.69,-5.77,1.68,-17.39,3.90,-0.91,2.60
-1,-2,-6,45,-462,3885,-0.24,-0.40,1.48,0.45,-4.62,38.85,-5.78,1.66,-17.40,3.90,-0.95,2.93
0,0,-9,49,-462,3890,-0.22,-0.36,1.28,0.49,-4.62,38.90,-5.78,1.64,-17.40,3.88,-0.99,2.92
3,-4,-17,67,-430,3883,-0.18,-0.35,1.05,0.67,-4.30,38.83,-5.79,1.62,-17.40,3.81,-0.89,3.30
1,-4,-32,100,-425,3909,-0.15,-0.34,0.75,1.00,-4.25,39.09,-5.79,1.60,-17.41,3.84,-0.88,4.19
3,-12,-74,-18,-479,3990,-0.12,-0.38,0.22,-0.18,-4.79,39.90,-5.80,1.59,-17.41,3.80,-0.70,7.08
1,-11,-67,34,-454,3855,-0.10,-0.41,-0.21,0.34,-4.54,38.55,-5.81,1.57,-17.41,3.84,-0.70,5.93
8,7,-105,22,-460,3908,-0.04,-0.32,-0.83,0.22,-4.60,39.08,-5.82,1.55,-17.40,3.69,-1.08,8.36
9,2,-68,-88,-495,3935,0.02,-0.28,-1.16,-0.88,-4.95,39.35,-5.84,1.55,-17.40,3.66,-0.98,4.80
-6,2,-78,102,-408,3881,-0.02,-0.24,-1.52,1.02,-4.08,38.81,-5.84,1.53,-17.39,3.98,-0.98,5.19
12,10,-91,8,-431,3756,0.05,-0.15,-1.92,0.08,-4.31,37.56,-5.85,1.51,-17.39,3.60,-1.16,5.77
-9,-8,-116,145,-420,3843,-0.01,-0.19,-2.44,1.45,-4.20,38.43,-5.85,1.49,-17.38,4.04,-0.77,7.23
-4,-1,-127,38,-460,3866,-0.03,-0.17,-2.97,0.38,-4.60,38.66,-5.86,1.47,-17.36,3.95,-0.90,7.48
2,-9,-133,108,-433,3876,-0.02,-0.21,-3.48,1.08,-4.33,38.76,-5.86,1.45,-17.35,3.83,-0.72,7.33
1,0,-132,-17,-426,3894,-0.01,-0.19,-3.94,-0.17,-4.26,38.94,-5.87,1.43,-17.33,3.85,-0.89,6.66
2,-16,-162,226,-493,3861,0.01,-0.27,-4.53,2.26,-4.93,38.61,-5.87,1.41,-17.32,3.83,-0.53,8.45
7,-14,-192,207,-358,3857,0.05,-0.33,-5.25,2.07,-3.58,38.57,-5.87,1.39,-17.30,3.72,-0.54,10.07
13,1,-227,-106,-399,3843,0.12,-0.29,-6.11,-1.06,-3.99,38.43,-5.87,1.40,-17.27,3.58,-0.87,11.93
-11,4,-249,-9,-408,3867,0.04,-0.24,-7.02,-0.09,-4.08,38.67,-5.88,1.38,-17.24,4.09,-0.93,12.64
18,-14,-373,131,-404,3915,0.15,-0.30,-8.59,1.31,-4.04,39.15,-5.88,1.36,-17.21,3.47,-0.53,20.00
23,-12,-370,97,-496,3895,0.27,-0.34,-9.99,0.97,-4.96,38.95,-5.89,1.33,-17.17,3.34,-0.54,19.09
7,-23,-330,48,-478,3847,0.29,-0.45,-11.00,0.48,-4.78,38.47,-5.89,1.31,-17.13,3.67,-0.28,14.40
13,-17,-328,45,-411,3807,0.34,-0.51,-11.90,0.45,-4.11,38.07,-5.90,1.29,-17.08,3.53,-0.37,13.08
6,16,-331,-78,-458,4072,0.34,-0.36,-12.73,-0.78,-4.58,40.72,-5.91,1.27,-17.03,3.69,-1.07,12.27
10,5,-299,-93,-515,3982,0.37,-0.29,-13.28,-0.93,-5.15,39.82,-5.93,1.27,-16.97,3.61,-0.86,8.85
21,-35,-324,114,-338,3747,0.46,-0.48,-13.93,1.14,-3.38,37.47,-5.93,1.24,-16.92,3.36,0.02,10.14
2,-19,-342,-67,-386,3835,0.43,-0.54,-14.63,-0.67,-3.86,38.35,-5.91,1.22,-16.86,3.75,-0.27,10.78
-6,-18,-365,177,-511,3982,0.35,-0.60,-15.39,1.77,-5.11,39.82,-5.92,1.19,-16.80,3.94,-0.26,11.75
13,-51,-376,151,-443,4047,0.39,-0.85,-16.14,1.51,-4.43,40.47,-5.92,1.16,-16.74,3.54,0.50,11.71
7,-18,-409,100,-472,3669,0.40,-0.88,-17.02,1.00,-4.72,36.69,-5.93,1.14,-16.67,3.66,-0.15,13.38
21,1,-406,79,-454,3928,0.48,-0.78,-17.80,0.79,-4.54,39.28,-5.94,1.11,-16.60,3.36,-0.54,12.13
-19,-19,-430,87,-489,3868,0.32,-0.82,-18.64,0.87,-4.89,38.68,-5.94,1.08,-16.52,4.22,-0.10,13.09
2,-21,-446,54,-477,3948,0.30,-0.87,-19.50,0.54,-4.77,39.48,-5.95,1.05,-16.45,3.81,-0.03,13.34
15,-82,-466,-177,-466,3916,0.36,-1.28,-20.39,-1.77,-4.66,39.16,-5.96,1.06,-16.37,3.53,1.32,13.89
22,-83,-478,-152,-488,3823,0.46,-1.66,-21.27,-1.52,-4.88,38.23,-5.97,1.05,-16.28,3.37,1.44,13.79
1,4,-497,-211,-528,3813,0.42,-1.47,-22.17,-2.11,-5.28,38.13,-5.99,1.05,-16.19,3.82,-0.38,14.24
7,13,-493,-128,-493,3985,0.42,-1.24,-22.96,-1.28,-4.93,39.85,-6.00,1.05,-16.10,3.70,-0.62,12.88
17,-24,-477,-142,-354,3936,0.48,-1.26,-23.58,-1.42,-3.54,39.36,-5.99,1.05,-16.01,3.48,0.14,10.74
15,-33,-497,-110,-291,3855,0.53,-1.34,-24.25,-1.10,-2.91,38.55,-5.97,1.04,-15.91,3.49,0.35,11.57
-6,74,-568,-150,-330,3706,0.44,-0.75,-25.29,-1.50,-3.30,37.06,-5.96,1.04,-15.81,3.94,-1.99,16.25
-33,95,-596,-49,-347,3791,0.19,-0.10,-26.40,-0.49,-3.47,37.91,-5.95,1.02,-15.71,4.54,-2.58,17.21
19,-10,-627,263,-708,3849,0.29,-0.15,-27.58,2.63,-7.08,38.49,-5.96,1.00,-15.60,3.47,-0.41,18.32
10,10,-621,271,-697,3595,0.32,-0.07,-28.61,2.71,-6.97,35.95,-5.97,0.97,-15.49,3.65,-0.82,16.49
7,0,-505,238,-633,3748,0.33,-0.07,-28.83,2.38,-6.33,37.48,-5.98,0.94,-15.37,3.72,-0.60,6.37
9,19,-488,315,-657,3729,0.35,0.06,-28.92,3.15,-6.57,37.29,-6.00,0.92,-15.26,3.68,-1.01,4.81
2,0,-427,178,-476,3771,0.33,0.05,-28.64,1.78,-4.76,37.71,-6.00,0.89,-15.14,3.83,-0.60,0.01
3,-14,-417,114,-464,3985,0.31,-0.04,-28.32,1.14,-4.64,39.85,-6.01,0.86,-15.03,3.82,-0.27,-0.43
-11,-20,-360,7,-468,3981,0.22,-0.16,-27.68,0.07,-4.68,39.81,-6.02,0.83,-14.92,4.14,-0.10,-4.45
-4,-30,-337,-5,-496,3804,0.17,-0.33,-26.97,-0.05,-4.96,38.04,-6.04,0.81,-14.81,4.02,0.16,-5.49
8,-14,-215,40,-599,3769,0.20,-0.38,-25.58,0.40,-5.99,37.69,-6.05,0.79,-14.71,3.78,-0.13,-14.06
3,-11,-199,120,-630,3852,0.20,-0.41,-24.24,1.20,-6.30,38.52,-6.07,0.77,-14.61,3.89,-0.17,-13.70
0,-9,-165,118,-460,3943,0.18,-0.42,-22.82,1.18,-4.60,39.43,-6.07,0.74,-14.52,3.96,-0.19,-14.77
5,-5,-158,83,-506,3865,0.19,-0.41,-21.50,0.83,-5.06,38.65,-6.08,0.71,-14.44,3.86,-0.26,-13.68
12,-8,-190,-92,-319,3836,0.25,-0.42,-20.51,-0.92,-3.19,38.36,-6.07,0.71,-14.36,3.69,-0.19,-9.70
0,8,-195,-198,-328,3999,0.22,-0.33,-19.65,-1.98,-3.28,39.99,-6.06,0.72,-14.28,3.94,-0.55,-8.18
19,13,-294,108,-244,3860,0.32,-0.22,-19.48,1.08,-2.44,38.60,-6.04,0.69,-14.20,3.52,-0.66,0.42
15,14,-340,-44,-241,3960,0.38,-0.11,-19.60,-0.44,-2.41,39.60,-6.02,0.68,-14.12,3.57,-0.71,4.16
15,4,-381,-283,-460,3982,0.43,-0.07,-19.97,-2.83,-4.60,39.82,-6.03,0.69,-14.04,3.56,-0.52,7.16
-3,1,-376,-247,-391,3727,0.37,-0.06,-20.27,-2.47,-3.91,37.27,-6.03,0.70,-13.96,3.94,-0.47,6.36
18,-23,-408,-68,-419,4077,0.44,-0.19,-20.73,-0.68,-4.19,40.77,-6.02,0.71,-13.88,3.48,0.05,8.48
8,-30,-433,-90,-391,3837,0.45,-0.36,-21.30,-0.90,-3.91,38.37,-6.01,0.72,-13.80,3.68,0.23,9.86
11,3,-415,46,-582,3833,0.47,-0.30,-21.70,0.46,-5.82,38.33,-6.02,0.70,-13.71,3.62,-0.44,7.82
6,4,-411,39,-416,3858,0.46,-0.25,-22.04,0.39,-4.16,38.58,-6.03,0.67,-13.62,3.73,-0.46,7.05
11,-1,-469,-63,-386,3824,0.48,-0.23,-22.69,-0.63,-3.86,38.24,-6.01,0.67,-13.53,3.61,-0.36,11.12
6,-6,-493,-122,-318,3865,0.47,-0.24,-23.43,-1.22,-3.18,38.65,-6.00,0.67,-13.44,3.71,-0.26,12.21
2,-26,-593,-4,-336,3881,0.43,-0.38,-24.70,-0.04,-3.36,38.81,-5.98,0.65,-13.34,3.79,0.20,19.05
5,-14,-634,-35,-364,3850,0.42,-0.43,-26.10,-0.35,-3.64,38.50,-5.96,0.64,-13.24,3.72,-0.02,20.00
19,-37,-708,-66,-262,3939,0.49,-0.61,-27.81,-0.66,-2.62,39.39,-5.94,0.62,-13.13,3.40,0.51,20.00
-1,-16,-756,-22,-263,3775,0.44,-0.65,-29.64,-0.22,-2.63,37.75,-5.93,0.61,-13.01,3.81,0.10,20.00
13,-25,-824,97,-433,3968,0.47,-0.73,-31.70,0.97,-4.33,39.68,-5.93,0.57,-12.88,3.52,0.33,20.00
19,-27,-830,74,-468,3900,0.54,-0.82,-33.60,0.74,-4.68,39.00,-5.94,0.54,-12.75,3.38,0.42,20.00
15,-27,-820,29,-577,3936,0.58,-0.91,-35.24,0.29,-5.77,39.36,-5.95,0.51,-12.61,3.46,0.46,20.00
16,-30,-800,70,-436,3895,0.62,-1.00,-36.59,0.70,-4.36,38.95,-5.95,0.48,-12.47,3.44,0.57,20.00
23,-12,-799,128,-522,3872,0.70,-0.97,-37.81,1.28,-5.22,38.72,-5.96,0.44,-12.32,3.28,0.22,19.71
12,-10,-793,105,-474,3886,0.70,-0.94,-38.87,1.05,-4.74,38.86,-5.97,0.41,-12.16,3.51,0.19,17.85
12,-14,-856,-60,-468,3827,0.70,-0.93,-40.20,-0.60,-4.68,38.27,-5.99,0.39,-12.00,3.51,0.28,20.00
26,-15,-861,-15,-392,3889,0.79,-0.93,-41.43,-0.15,-3.92,38.89,-5.97,0.36,-11.84,3.19,0.32,20.00
39,-5,-940,-36,-372,3932,0.95,-0.86,-43.02,-0.36,-3.72,39.32,-5.95,0.35,-11.67,2.87,0.11,20.00
15,-37,-945,-19,-435,3927,0.95,-1.00,-44.49,-0.19,-4.35,39.27,-5.96,0.32,-11.49,3.37,0.81,20.00
24,-25,-982,17,-461,3958,1.00,-1.06,-46.03,0.17,-4.61,39.58,-5.97,0.29,-11.31,3.18,0.61,20.00
37,-36,-976,-73,-481,3950,1.13,-1.17,-47.38,-0.73,-4.81,39.50,-5.99,0.27,-11.12,2.89,0.87,20.00
21,-18,-1001,14,-520,3876,1.14,-1.16,-48.75,0.14,-5.20,38.76,-6.00,0.24,-10.93,3.22,0.52,20.00
9,-21,-990,-54,-522,3846,1.08,-1.17,-49.91,-0.54,-5.22,38.46,-6.01,0.22,-10.73,3.49,0.60,20.00
37,-13,-989,-92,-611,3912,1.20,-1.14,-50.95,-0.92,-6.11,39.12,-6.03,0.20,-10.52,2.90,0.44,18.94
13,-21,-977,-107,-510,3896,1.16,-1.15,-51.82,-1.07,-5.10,38.96,-6.04,0.19,-10.32,3.40,0.62,16.82
-24,-65,-915,-37,-470,3650,0.90,-1.43,-52.22,-0.37,-4.70,36.50,-6.05,0.17,-10.11,4.24,1.60,11.04
33,-2,-956,42,-693,3748,1.01,-1.30,-52.83,0.42,-6.93,37.48,-6.06,0.14,-9.90,3.06,0.31,13.73
23,-2,-935,-62,-432,4016,1.05,-1.18,-53.25,-0.62,-4.32,40.16,-6.06,0.13,-9.69,3.25,0.28,11.41
30,-45,-929,80,-843,3854,1.13,-1.34,-53.59,0.80,-8.43,38.54,-6.08,0.10,-9.48,3.09,1.22,10.46
25,21,-974,104,-539,3847,1.17,-1.08,-54.17,1.04,-5.39,38.47,-6.09,0.06,-9.26,3.19,-0.17,13.52
-35,3,-974,53,-557,3728,0.84,-0.95,-54.70,0.53,-5.57,37.28,-6.10,0.02,-9.05,4.51,0.18,12.84
35,-27,-948,89,-357,3948,0.97,-1.02,-55.01,0.89,-3.57,39.48,-6.09,-0.02,-8.83,3.04,0.84,10.23
27,-1,-910,143,-402,3752,1.03,-0.92,-55.06,1.43,-4.02,37.52,-6.08,-0.06,-8.61,3.18,0.32,6.94
5,-30,-876,-10,-464,3743,0.96,-1.02,-54.90,-0.10,-4.64,37.43,-6.10,-0.09,-8.39,3.66,0.94,4.26
23,-11,-870,31,-420,3868,1.00,-0.98,-54.71,0.31,-4.20,38.68,-6.10,-0.13,-8.17,3.28,0.58,3.98
40,-8,-820,31,-606,4034,1.15,-0.93,-54.24,0.31,-6.06,40.34,-6.11,-0.16,-7.96,2.91,0.52,0.34
31,-59,-815,88,-583,4049,1.22,-1.20,-53.79,0.88,-5.83,40.49,-6.12,-0.20,-7.75,3.07,1.66,0.49
10,-5,-777,30,-645,3717,1.16,-1.11,-53.15,0.30,-6.45,37.17,-6.13,-0.23,-7.53,3.53,0.55,-1.92
21,-3,-788,19,-335,3955,1.17,-1.02,-52.64,0.19,-3.35,39.55,-6.11,-0.25,-7.33,3.28,0.51,-0.35
27,-15,-840,124,-540,3852,1.22,-1.01,-52.50,1.24,-5.40,38.52,-6.12,-0.29,-7.12,3.15,0.77,4.23
35,-30,-831,80,-397,3772,1.31,-1.09,-52.32,0.80,-3.97,37.72,-6.11,-0.34,-6.91,2.96,1.13,3.70
2,-44,-869,109,-458,3903,1.19,-1.25,-52.39,1.09,-4.58,39.03,-6.11,-0.38,-6.70,3.67,1.49,6.82
17,-36,-884,180,-502,3788,1.18,-1.34,-52.54,1.80,-5.02,37.88,-6.11,-0.42,-6.49,3.37,1.38,7.89
24,9,-909,39,-599,3895,1.21,-1.15,-52.83,0.39,-5.99,38.95,-6.12,-0.45,-6.28,3.23,0.43,9.63
44,-14,-951,160,-775,3868,1.35,-1.12,-53.35,1.60,-7.75,38.68,-6.13,-0.48,-6.07,2.79,0.91,12.52
27,-36,-876,-135,-410,4117,1.38,-1.23,-53.36,-1.35,-4.10,41.17,-6.12,-0.49,-5.86,3.12,1.39,6.15
2,-55,-843,-76,-367,3905,1.26,-1.44,-53.17,-0.76,-3.67,39.05,-6.11,-0.51,-5.65,3.65,1.85,3.60
22,4,-954,26,-564,3890,1.27,-1.27,-53.67,0.26,-5.64,38.90,-6.12,-0.53,-5.44,3.25,0.62,12.35
27,-4,-936,-28,-403,3963,1.30,-1.17,-54.01,-0.28,-4.03,39.63,-6.11,-0.54,-5.22,3.13,0.76,10.38
34,-63,-988,49,-303,3826,1.38,-1.44,-54.64,0.49,-3.03,38.26,-6.08,-0.57,-5.01,2.95,2.05,13.98
19,-34,-994,72,-544,3732,1.36,-1.50,-55.24,0.72,-5.44,37.32,-6.09,-0.61,-4.79,3.26,1.50,13.71
25,-22,-1032,-61,-443,3951,1.38,-1.49,-56.01,-0.61,-4.43,39.51,-6.09,-0.62,-4.56,3.13,1.26,15.94
16,-48,-1021,-10,-348,4020,1.34,-1.63,-56.64,-0.10,-3.48,40.20,-6.06,-0.64,-4.34,3.31,1.84,14.20
37,-58,-1025,74,-496,3873,1.43,-1.82,-57.23,0.74,-4.96,38.73,-6.07,-0.68,-4.11,2.87,2.12,13.78
39,-67,-1031,82,-705,3742,1.52,-2.05,-57.79,0.82,-7.05,37.42,-6.08,-0.71,-3.88,2.81,2.39,13.56
28,-42,-958,-5,-403,3982,1.54,-2.10,-57.86,-0.05,-4.03,39.82,-6.07,-0.73,-3.66,3.01,1.91,7.28
17,-62,-952,-10,-581,3966,1.49,-2.27,-57.88,-0.10,-5.81,39.66,-6.08,-0.76,-3.43,3.26,2.38,6.74
23,-50,-1000,-19,-410,3666,1.48,-2.35,-58.19,-0.19,-4.10,36.66,-6.07,-0.77,-3.20,3.14,2.17,10.40
10,-35,-980,-57,-552,3943,1.39,-2.32,-58.35,-0.57,-5.52,39.43,-6.08,-0.79,-2.96,3.43,1.87,8.49
27,2,-1080,56,-463,3744,1.42,-2.08,-59.10,0.56,-4.63,37.44,-6.09,-0.83,-2.73,3.08,1.07,16.00
43,-9,-1109,60,-429,4004,1.54,-1.93,-59.96,0.60,-4.29,40.04,-6.09,-0.87,-2.49,2.72,1.28,17.35
16,-57,-1165,41,-364,3886,1.48,-2.08,-61.07,0.41,-3.64,38.86,-6.06,-0.90,-2.25,3.27,2.32,20.00
56,-48,-1175,83,-286,3916,1.68,-2.17,-62.13,0.83,-2.86,39.16,-6.03,-0.94,-2.00,2.39,2.19,20.00
25,-50,-1246,0,-362,3872,1.66,-2.25,-63.52,0.00,-3.62,38.72,-6.01,-0.96,-1.75,3.01,2.26,20.00
39,-38,-1262,-71,-371,3825,1.73,-2.26,-64.86,-0.71,-3.71,38.25,-6.00,-0.98,-1.50,2.69,2.03,20.00
-2,-20,-1286,-10,-212,3807,1.55,-2.16,-66.22,-0.10,-2.12,38.07,-5.97,-1.01,-1.23,3.56,1.66,20.00
49,-29,-1315,88,-485,3961,1.69,-2.12,-67.62,0.88,-4.85,39.61,-5.98,-1.05,-0.96,2.49,1.86,20.00
19,-29,-1332,111,-440,3749,1.64,-2.08,-68.98,1.11,-4.40,37.49,-5.98,-1.10,-0.69,3.11,1.88,20.00
31,16,-1387,-8,-581,3885,1.66,-1.78,-70.55,-0.08,-5.81,38.85,-5.98,-1.13,-0.41,2.86,0.90,20.00
10,2,-1493,18,-316,3880,1.56,-1.59,-72.60,0.18,-3.16,38.80,-5.95,-1.15,-0.12,3.30,1.15,20.00
27,-13,-1504,48,-434,3855,1.57,-1.51,-74.51,0.48,-4.34,38.55,-5.96,-1.18,0.17,2.95,1.45,20.00
22,-15,-1539,15,-517,3903,1.54,-1.45,-76.45,0.15,-5.17,39.03,-5.96,-1.21,0.48,3.06,1.50,20.00
4,-34,-1561,-74,-674,3877,1.41,-1.51,-78.33,-0.74,-6.74,38.77,-5.96,-1.23,0.79,3.47,1.92,20.00
50,-21,-1530,-20,-330,4009,1.58,-1.49,-79.83,-0.20,-3.30,40.09,-5.94,-1.26,1.10,2.47,1.66,20.00
66,-42,-1508,-70,-448,3938,1.82,-1.60,-81.04,-0.70,-4.48,39.38,-5.93,-1.28,1.43,2.07,2.13,20.00
27,-96,-1383,-95,-418,3922,1.81,-2.02,-81.38,-0.95,-4.18,39.22,-5.91,-1.30,1.75,2.86,3.36,13.05
44,-100,-1367,-84,-624,3834,1.89,-2.43,-81.58,-0.84,-6.24,38.34,-5.91,-1.34,2.07,2.49,3.58,11.43
0,-11,-1375,24,-402,3653,1.70,-2.25,-81.81,0.24,-4.02,36.53,-5.91,-1.36,2.40,3.43,1.74,11.80
8,46,-1322,-20,-502,3870,1.58,-1.75,-81.69,-0.20,-5.02,38.70,-5.90,-1.39,2.72,3.30,0.46,7.45
35,-34,-1264,15,-410,3950,1.64,-1.78,-81.23,0.15,-4.10,39.50,-5.89,-1.41,3.04,2.73,2.11,3.11
71,-59,-1242,-21,-426,4044,1.91,-1.96,-80.68,-0.21,-4.26,40.44,-5.88,-1.43,3.36,1.91,2.68,1.94
36,-69,-1271,74,-511,3626,1.94,-2.19,-80.37,0.74,-5.11,36.26,-5.88,-1.47,3.68,2.62,2.97,4.79
45,-41,-1245,153,-297,3947,2.02,-2.22,-79.93,1.53,-2.97,39.47,-5.84,-1.52,4.00,2.39,2.44,3.14
6,-70,-1284,39,-585,3908,1.85,-2.42,-79.77,0.39,-5.85,39.08,-5.85,-1.56,4.32,3.23,3.11,6.64
32,-29,-1271,109,-336,3886,1.86,-2.36,-79.54,1.09,-3.36,38.86,-5.81,-1.60,4.63,2.68,2.29,5.82
34,-59,-1302,-120,-557,3879,1.88,-2.48,-79.53,-1.20,-5.57,38.79,-5.81,-1.63,4.95,2.63,2.95,8.45
26,-39,-1306,32,-532,3749,1.85,-2.47,-79.54,0.32,-5.32,37.49,-5.81,-1.66,5.26,2.80,2.56,8.76
4,-13,-1251,-68,-394,3949,1.69,-2.30,-79.22,-0.68,-3.94,39.49,-5.79,-1.69,5.58,3.28,2.00,4.51
45,-32,-1212,7,-461,3960,1.80,-2.27,-78.69,0.07,-4.61,39.60,-5.78,-1.71,5.89,2.41,2.40,1.87
50,-57,-1120,-30,-492,3920,1.92,-2.39,-77.65,-0.30,-4.92,39.20,-5.77,-1.74,6.20,2.27,2.96,-4.61
57,-59,-1102,-73,-562,3843,2.08,-2.51,-76.61,-0.73,-5.62,38.43,-5.77,-1.76,6.50,2.08,3.05,-4.81
13,-54,-1034,-35,-490,4061,1.95,-2.59,-75.26,-0.35,-4.90,40.61,-5.76,-1.79,6.80,3.01,2.98,-8.85
46,-63,-995,-16,-297,3735,2.04,-2.71,-73.80,-0.16,-2.97,37.35,-5.73,-1.81,7.09,2.29,3.22,-10.30
38,-74,-972,109,-399,3782,2.06,-2.89,-72.35,1.09,-3.99,37.82,-5.73,-1.84,7.38,2.45,3.51,-10.40
28,-45,-922,-28,-401,3986,2.03,-2.88,-70.74,-0.28,-4.01,39.86,-5.71,-1.86,7.66,2.65,2.93,-12.58
23,-36,-873,2,-418,3889,1.97,-2.81,-68.99,0.02,-4.18,38.89,-5.70,-1.88,7.93,2.76,2.74,-14.51
7,-6,-829,-67,-467,3959,1.81,-2.57,-67.15,-0.67,-4.67,39.59,-5.69,-1.90,8.20,3.12,2.08,-15.89
26,4,-671,-194,-616,3805,1.79,-2.29,-64.53,-1.94,-6.16,38.05,-5.69,-1.92,8.45,2.74,1.81,-20.00
41,18,-673,20,-357,3876,1.86,-1.95,-62.18,0.20,-3.57,38.76,-5.67,-1.94,8.70,2.40,1.44,-20.00
21,31,-598,-117,-348,3881,1.80,-1.56,-59.61,-1.17,-3.48,38.81,-5.65,-1.95,8.94,2.81,1.08,-20.00
8,42,-583,-23,-380,3931,1.67,-1.15,-57.20,-0.23,-3.80,39.31,-5.63,-1.96,9.17,3.10,0.75,-20.00
8,-5,-498,-14,-403,3930,1.55,-1.07,-54.52,-0.14,-4.03,39.30,-5.62,-1.97,9.38,3.12,1.69,-20.00
28,-12,-485,-72,-461,3862,1.57,-1.03,-52.03,-0.72,-4.61,38.62,-5.61,-1.97,9.59,2.71,1.83,-20.00
-7,20,-411,-24,-384,3908,1.37,-0.81,-49.33,-0.24,-3.84,39.08,-5.60,-1.98,9.79,3.47,1.12,-20.00
-6,33,-397,-93,-446,3786,1.20,-0.53,-46.82,-0.93,-4.46,37.86,-5.60,-1.98,9.97,3.49,0.78,-20.00
21,-23,-327,-109,-422,3986,1.20,-0.61,-44.13,-1.09,-4.22,39.86,-5.59,-1.98,10.15,2.93,1.94,-20.00
19,-46,-324,-127,-442,3826,1.20,-0.83,-41.70,-1.27,-4.42,38.26,-5.58,-1.98,10.31,2.97,2.47,-20.00
-10,3,-324,-48,-433,3890,1.02,-0.73,-39.50,-0.48,-4.33,38.90,-5.58,-1.98,10.47,3.61,1.45,-20.00
-5,9,-335,-38,-476,3981,0.89,-0.60,-37.60,-0.38,-4.76,39.81,-5.58,-1.99,10.62,3.54,1.29,-20.00
16,-61,-349,-102,-408,3844,0.90,-0.91,-35.97,-1.02,-4.08,38.44,-5.57,-1.98,10.76,3.11,2.80,-16.75
21,-39,-366,-33,-398,3830,0.93,-1.06,-34.60,-0.33,-3.98,38.30,-5.57,-1.98,10.90,2.99,2.39,-13.57
18,0,-367,24,-461,3920,0.95,-0.96,-33.38,0.24,-4.61,39.20,-5.57,-1.99,11.03,3.05,1.57,-11.93
2,-16,-364,-38,-376,3919,0.87,-0.96,-32.26,-0.38,-3.76,39.19,-5.56,-1.98,11.16,3.39,1.90,-10.76
-2,0,-398,17,-421,3802,0.77,-0.86,-31.46,0.17,-4.21,38.02,-5.56,-1.98,11.28,3.50,1.54,-6.86
0,21,-411,85,-435,3822,0.69,-0.65,-30.82,0.85,-4.35,38.22,-5.57,-1.99,11.41,3.49,1.06,-4.94
23,-10,-440,-100,-581,4003,0.76,-0.64,-30.43,-1.00,-5.81,40.03,-5.57,-1.99,11.53,3.00,1.69,-1.98
16,-26,-448,-34,-504,3876,0.78,-0.74,-30.12,-0.34,-5.04,38.76,-5.57,-1.99,11.65,3.14,2.04,-0.91
17,-12,-490,-47,-544,3804,0.81,-0.74,-30.09,-0.47,-5.44,38.04,-5.58,-1.99,11.76,3.12,1.76,2.67
8,-14,-481,-61,-488,3916,0.78,-0.75,-30.02,-0.61,-4.88,39.16,-5.58,-1.99,11.88,3.31,1.80,2.00
10,4,-481,5,-383,3910,0.76,-0.65,-29.95,0.05,-3.83,39.10,-5.57,-1.98,12.00,3.27,1.40,2.09
-2,-10,-481,22,-323,3929,0.67,-0.65,-29.89,0.22,-3.23,39.29,-5.56,-1.98,12.12,3.53,1.69,2.16
-7,-23,-452,7,-332,3918,0.56,-0.72,-29.66,0.07,-3.32,39.18,-5.55,-1.98,12.24,3.65,1.97,-0.00
-2,-21,-467,-72,-368,3919,0.49,-0.78,-29.54,-0.72,-3.68,39.19,-5.54,-1.97,12.36,3.56,1.94,1.41
9,-45,-498,-27,-453,3786,0.50,-0.97,-29.62,-0.27,-4.53,37.86,-5.54,-1.97,12.47,3.34,2.48,3.93
33,-37,-526,-76,-489,3867,0.65,-1.10,-29.87,-0.76,-4.89,38.67,-5.54,-1.97,12.59,2.81,2.35,5.98
26,-38,-557,0,-385,3992,0.74,-1.22,-30.28,0.00,-3.85,39.92,-5.54,-1.97,12.71,2.92,2.41,8.08
25,-55,-557,15,-401,3808,0.82,-1.44,-30.65,0.15,-4.01,38.08,-5.53,-1.97,12.83,2.92,2.81,7.61
34,-64,-556,-52,-459,3829,0.95,-1.68,-30.98,-0.52,-4.59,38.29,-5.53,-1.97,12.96,2.70,3.06,7.10
1,-16,-605,-128,-533,3695,0.86,-1.61,-31.57,-1.28,-5.33,36.95,-5.54,-1.98,13.08,3.40,2.07,10.49
10,11,-662,-177,-601,3983,0.83,-1.38,-32.45,-1.77,-6.01,39.83,-5.54,-1.98,13.21,3.22,1.46,14.19
36,-11,-700,-20,-490,4082,0.97,-1.31,-33.48,-0.20,-4.90,40.82,-5.54,-1.98,13.34,2.66,1.89,16.09
61,-48,-741,-109,-429,3765,1.25,-1.47,-34.65,-1.09,-4.29,37.65,-5.53,-1.98,13.48,2.07,2.69,18.06
29,-46,-770,-8,-471,3752,1.30,-1.61,-35.88,-0.08,-4.71,37.52,-5.54,-1.99,13.62,2.71,2.69,18.94
18,42,-818,62,-437,4013,1.28,-1.19,-37.28,0.62,-4.37,40.13,-5.53,-1.99,13.77,2.94,0.79,20.00
19,2,-832,6,-575,4073,1.27,-1.06,-38.63,0.06,-5.75,40.73,-5.54,-2.00,13.92,2.92,1.57,20.00
42,-74,-880,28,-500,3738,1.40,-1.40,-40.13,0.28,-5.00,37.38,-5.54,-2.01,14.08,2.42,3.21,20.00
20,-49,-890,-34,-479,3851,1.38,-1.56,-41.55,-0.34,-4.79,38.51,-5.54,-2.02,14.25,2.87,2.75,20.00
37,22,-841,13,-224,3977,1.47,-1.27,-42.53,0.13,-2.24,39.77,-5.51,-2.03,14.42,2.49,1.24,16.43
20,-13,-834,-131,-415,3932,1.44,-1.22,-43.36,-1.31,-4.15,39.32,-5.50,-2.03,14.59,2.83,1.94,14.77
-7,-13,-824,-35,-422,3830,1.25,-1.18,-44.05,-0.35,-4.22,38.30,-5.50,-2.03,14.76,3.43,1.93,13.03
22,16,-817,68,-277,3809,1.26,-0.97,-44.63,0.68,-2.77,38.09,-5.47,-2.04,14.94,2.82,1.29,11.69
11,47,-750,7,-346,3915,1.20,-0.58,-44.74,0.07,-3.46,39.15,-5.46,-2.05,15.12,3.05,0.55,5.87
25,42,-735,79,-266,3901,1.24,-0.27,-44.75,0.79,-2.66,39.01,-5.43,-2.05,15.30,2.74,0.58,4.58
27,27,-699,78,-367,3843,1.28,-0.08,-44.54,0.78,-3.67,38.43,-5.42,-2.05,15.48,2.68,0.83,1.80
20,25,-701,55,-419,3888,1.27,0.08,-44.36,0.55,-4.19,38.88,-5.42,-2.05,15.65,2.82,0.82,2.19
22,12,-632,23,-463,3903,1.28,0.15,-43.78,0.23,-4.63,39.03,-5.42,-2.06,15.83,2.78,1.07,-2.92
10,-5,-621,89,-421,3936,1.21,0.10,-43.19,0.89,-4.21,39.36,-5.42,-2.06,16.00,3.04,1.43,-3.10
2,-11,-616,137,-415,3869,1.10,0.03,-42.63,1.37,-4.15,38.69,-5.43,-2.07,16.17,3.24,1.58,-2.81
17,-18,-581,85,-390,3950,1.10,-0.09,-41.91,0.85,-3.90,39.50,-5.42,-2.07,16.33,2.93,1.76,-4.87
9,-52,-540,80,-415,3880,1.04,-0.40,-41.01,0.80,-4.15,38.80,-5.42,-2.07,16.50,3.11,2.53,-7.20
26,-32,-521,-11,-387,3740,1.10,-0.55,-40.09,-0.11,-3.87,37.40,-5.42,-2.07,16.66,2.75,2.17,-7.63
10,-21,-485,-9,-485,4048,1.05,-0.62,-39.04,-0.09,-4.85,40.48,-5.42,-2.07,16.81,3.09,1.97,-9.34
0,-38,-474,-41,-344,3970,0.94,-0.79,-38.03,-0.41,-3.44,39.70,-5.40,-2.07,16.96,3.31,2.36,-8.98
29,-30,-445,-68,-453,3856,1.03,-0.90,-36.94,-0.68,-4.53,38.56,-5.40,-2.07,17.11,2.70,2.22,-10.05
10,-19,-436,43,-474,3979,0.98,-0.92,-35.90,0.43,-4.74,39.79,-5.40,-2.08,17.25,3.10,2.01,-9.50
44,1,-447,-73,-477,3710,1.15,-0.82,-35.04,-0.73,-4.77,37.10,-5.40,-2.08,17.39,2.36,1.58,-7.46
32,-15,-461,-76,-512,4118,1.23,-0.83,-34.35,-0.76,-5.12,41.18,-5.40,-2.08,17.53,2.58,1.91,-5.40
-24,-21,-485,70,-430,3813,0.96,-0.88,-33.87,0.70,-4.30,38.13,-5.41,-2.08,17.66,3.79,2.04,-2.76
37,-16,-525,-63,-654,3959,1.09,-0.89,-33.69,-0.63,-6.54,39.59,-5.41,-2.09,17.79,2.52,1.95,0.86
-27,4,-584,35,-571,3732,0.82,-0.78,-33.88,0.35,-5.71,37.32,-5.42,-2.10,17.93,3.90,1.51,5.61
-18,27,-574,143,-476,4010,0.63,-0.53,-33.99,1.43,-4.76,40.10,-5.43,-2.11,18.06,3.78,0.99,4.61
20,-31,-611,-120,-469,4022,0.69,-0.67,-34.32,-1.20,-4.69,40.22,-5.43,-2.11,18.20,2.99,2.20,7.32
37,-38,-617,-43,-495,3869,0.84,-0.83,-34.65,-0.43,-4.95,38.69,-5.43,-2.11,18.34,2.60,2.39,7.41
6,-18,-602,-174,-395,3793,0.80,-0.86,-34.86,-1.74,-3.95,37.93,-5.42,-2.11,18.47,3.24,1.99,5.87
-3,13,-623,-88,-371,3810,0.70,-0.69,-35.17,-0.88,-3.71,38.10,-5.42,-2.11,18.61,3.45,1.32,7.24
23,-7,-628,-80,-415,3995,0.77,-0.67,-35.49,-0.80,-4.15,39.95,-5.41,-2.10,18.76,2.89,1.71,7.26
37,-33,-657,-190,-481,4017,0.92,-0.80,-35.95,-1.90,-4.81,40.17,-5.41,-2.10,18.90,2.57,2.28,9.12
10,-47,-733,-77,-485,3821,0.89,-1.01,-36.82,-0.77,-4.85,38.21,-5.41,-2.11,19.04,3.12,2.62,14.44
29,-32,-768,-123,-448,3909,0.97,-1.10,-37.83,-1.23,-4.48,39.09,-5.40,-2.11,19.19,2.71,2.34,16.12
-1,-37,-818,-62,-358,3929,0.87,-1.22,-39.03,-0.62,-3.58,39.29,-5.39,-2.11,19.35,3.34,2.48,18.80
39,-17,-812,-150,-372,3914,1.02,-1.20,-40.08,-1.50,-3.72,39.14,-5.38,-2.11,19.51,2.48,2.06,16.95
-1,-6,-816,-60,-469,3844,0.91,-1.12,-41.05,-0.60,-4.69,38.44,-5.38,-2.11,19.67,3.32,1.82,16.04
17,1,-815,-56,-452,3917,0.93,-1.00,-41.92,-0.56,-4.52,39.17,-5.38,-2.12,19.84,2.95,1.65,14.84
33,-18,-771,-66,-316,3912,1.03,-1.01,-42.43,-0.66,-3.16,39.12,-5.37,-2.12,20.01,2.59,2.04,10.46
8,-19,-736,-1,-212,3822,0.98,-1.02,-42.68,-0.01,-2.12,38.22,-5.34,-2.12,20.18,3.10,2.07,7.17
24,18,-672,57,-293,3810,1.03,-0.81,-42.51,0.57,-2.93,38.10,-5.32,-2.13,20.35,2.74,1.26,1.96
26,33,-650,30,-312,3855,1.08,-0.53,-42.22,0.30,-3.12,38.55,-5.30,-2.13,20.51,2.68,0.88,0.46
-8,23,-646,-207,-479,3965,0.93,-0.34,-41.94,-2.07,-4.79,39.65,-5.30,-2.13,20.68,3.41,1.03,0.47
31,32,-620,149,-420,3839,1.02,-0.11,-41.53,1.49,-4.20,38.39,-5.31,-2.15,20.85,2.59,0.80,-1.21
-28,19,-609,-65,-361,3837,0.75,0.02,-41.09,-0.65,-3.61,38.37,-5.30,-2.14,21.01,3.86,1.02,-1.58
18,41,-631,42,-347,3809,0.79,0.27,-40.83,0.42,-3.47,38.09,-5.29,-2.14,21.17,2.91,0.51,0.61
24,4,-633,-114,-510,3942,0.85,0.27,-40.61,-1.14,-5.10,39.42,-5.29,-2.14,21.33,2.77,1.26,1.05
2,-9,-656,112,-407,3929,0.78,0.18,-40.55,1.12,-4.07,39.29,-5.29,-2.14,21.50,3.24,1.55,3.07
12,-23,-654,9,-329,3923,0.78,0.03,-40.48,0.09,-3.29,39.23,-5.28,-2.14,21.66,3.03,1.87,2.98
20,-32,-637,73,-250,3963,0.82,-0.17,-40.32,0.73,-2.50,39.63,-5.25,-2.14,21.82,2.84,2.11,1.75
12,-22,-553,71,-421,3778,0.81,-0.29,-39.66,0.71,-4.21,37.78,-5.26,-2.15,21.98,3.01,1.94,-4.53
0,-10,-530,103,-400,3822,0.73,-0.32,-38.93,1.03,-4.00,38.22,-5.26,-2.15,22.13,3.27,1.71,-5.55
5,5,-453,2,-450,3815,0.69,-0.26,-37.80,0.02,-4.50,38.15,-5.27,-2.15,22.28,3.19,1.39,-10.63
11,-19,-477,-55,-529,3966,0.69,-0.35,-36.93,-0.55,-5.29,39.66,-5.27,-2.15,22.43,3.07,1.90,-7.49
19,-41,-457,-47,-448,3811,0.73,-0.56,-36.02,-0.47,-4.48,38.11,-5.27,-2.15,22.57,2.89,2.41,-8.03
5,-31,-458,-52,-448,3932,0.69,-0.70,-35.22,-0.52,-4.48,39.32,-5.27,-2.15,22.71,3.19,2.24,-6.92
9,-30,-480,-204,-412,3882,0.68,-0.81,-34.62,-2.04,-4.12,38.82,-5.26,-2.14,22.85,3.11,2.25,-4.30
20,-27,-494,-112,-444,3993,0.73,-0.89,-34.17,-1.12,-4.44,39.93,-5.26,-2.14,22.98,2.87,2.21,-2.54
13,-10,-521,-56,-500,3856,0.74,-0.87,-33.93,-0.56,-5.00,38.56,-5.26,-2.14,23.12,3.01,1.85,0.05
5,-5,-535,-94,-553,3866,0.69,-0.81,-33.80,-0.94,-5.53,38.66,-5.27,-2.15,23.25,3.18,1.74,1.40
13,-6,-609,-78,-519,3927,0.70,-0.77,-34.14,-0.78,-5.19,39.27,-5.27,-2.15,23.39,3.02,1.75,7.23
39,-3,-633,-69,-549,3957,0.87,-0.71,-34.59,-0.69,-5.49,39.57,-5.27,-2.15,23.52,2.45,1.67,8.69
26,-15,-690,-140,-595,3827,0.94,-0.73,-35.34,-1.40,-5.95,38.27,-5.27,-2.15,23.67,2.70,1.92,12.56
17,3,-713,8,-370,3868,0.95,-0.64,-36.15,0.08,-3.70,38.68,-5.27,-2.15,23.81,2.87,1.53,13.46
8,31,-714,-83,-462,3941,0.91,-0.38,-36.89,-0.83,-4.62,39.41,-5.27,-2.15,23.96,3.07,0.89,12.59
-13,24,-711,-6,-362,3996,0.74,-0.20,-37.54,-0.06,-3.62,39.96,-5.26,-2.14,24.11,3.53,0.98,11.50
21,-69,-748,-131,-628,3852,0.79,-0.60,-38.35,-1.31,-6.28,38.52,-5.26,-2.15,24.26,2.83,2.98,13.60
24,-69,-757,6,-491,3824,0.86,-0.96,-39.13,0.06,-4.91,38.24,-5.26,-2.15,24.41,2.75,3.08,13.36
-16,8,-800,29,-567,3801,0.67,-0.82,-40.10,0.29,-5.67,38.01,-5.27,-2.16,24.57,3.62,1.49,15.76
18,21,-824,-15,-599,3987,0.72,-0.61,-41.12,-0.15,-5.99,39.87,-5.28,-2.17,24.73,2.92,1.17,16.49
44,-57,-859,-72,-428,3920,0.91,-0.89,-42.24,-0.72,-4.28,39.20,-5.27,-2.17,24.90,2.34,2.83,18.00
25,-53,-858,-11,-425,3869,0.97,-1.13,-43.25,-0.11,-4.25,38.69,-5.27,-2.17,25.07,2.70,2.82,16.62
0,13,-875,30,-427,3689,0.88,-0.94,-44.27,0.30,-4.27,36.89,-5.27,-2.18,25.25,3.24,1.43,16.76
-23,23,-860,-40,-449,3968,0.65,-0.70,-45.08,-0.40,-4.49,39.68,-5.27,-2.18,25.43,3.77,1.16,14.44
62,-44,-900,13,-372,3974,0.96,-0.90,-46.07,0.13,-3.72,39.74,-5.26,-2.18,25.61,1.95,2.58,16.57
48,-55,-914,-62,-409,4092,1.16,-1.15,-47.03,-0.62,-4.09,40.92,-5.25,-2.19,25.80,2.17,2.87,16.51
53,-27,-926,-31,-494,3774,1.37,-1.20,-47.98,-0.31,-4.94,37.74,-5.25,-2.19,25.99,2.01,2.32,16.31
-35,-29,-951,-130,-512,3710,1.02,-1.25,-48.98,-1.30,-5.12,37.10,-5.25,-2.20,26.18,3.90,2.38,17.14
8,36,-992,-94,-470,4089,0.96,-0.91,-50.14,-0.94,-4.70,40.89,-5.24,-2.21,26.38,3.03,0.97,19.13
45,31,-1023,-171,-420,3937,1.14,-0.63,-51.36,-1.71,-4.20,39.37,-5.23,-2.21,26.59,2.23,1.00,20.00
12,-16,-1051,20,-503,3864,1.10,-0.66,-52.64,0.20,-5.03,38.64,-5.23,-2.22,26.80,2.91,1.97,20.00
37,1,-1057,-97,-502,3828,1.22,-0.59,-53.82,-0.97,-5.02,38.28,-5.23,-2.23,27.01,2.37,1.61,19.91
32,14,-1089,-90,-484,3965,1.29,-0.45,-55.08,-0.90,-4.84,39.65,-5.22,-2.23,27.23,2.45,1.31,20.00
28,-30,-1120,-78,-533,3931,1.33,-0.58,-56.41,-0.78,-5.33,39.31,-5.22,-2.24,27.45,2.51,2.25,20.00
20,-40,-1141,-73,-585,3865,1.32,-0.77,-57.73,-0.73,-5.85,38.65,-5.22,-2.25,27.68,2.68,2.51,20.00
3,-46,-1158,-137,-421,3921,1.21,-0.97,-59.02,-1.37,-4.21,39.21,-5.21,-2.26,27.92,3.05,2.69,20.00
46,-8,-1149,-4,-307,3921,1.37,-0.93,-60.12,-0.04,-3.07,39.21,-5.19,-2.27,28.16,2.12,1.91,19.61
-3,-29,-1131,16,-287,3948,1.21,-1.01,-61.01,0.16,-2.87,39.48,-5.17,-2.28,28.40,3.14,2.37,16.94
21,-24,-1029,-11,-142,3815,1.22,-1.05,-61.19,-0.11,-1.42,38.15,-5.14,-2.29,28.64,2.63,2.29,8.07
26,-12,-1022,13,-110,3904,1.26,-1.02,-61.30,0.13,-1.10,39.04,-5.11,-2.31,28.89,2.50,2.05,7.32
4,43,-939,-32,-370,3827,1.15,-0.66,-60.90,-0.32,-3.70,38.27,-5.09,-2.31,29.13,2.97,0.83,0.80
9,46,-962,-22,-337,3986,1.09,-0.31,-60.68,-0.22,-3.37,39.86,-5.08,-2.32,29.37,2.87,0.68,3.02
21,13,-958,-94,-371,3841,1.11,-0.20,-60.45,-0.94,-3.71,38.41,-5.07,-2.32,29.61,2.61,1.32,2.96
16,2,-997,-156,-430,3848,1.10,-0.17,-60.49,-1.56,-4.30,38.48,-5.06,-2.33,29.86,2.71,1.54,6.21
18,31,-1068,-5,-532,3920,1.10,0.04,-60.96,-0.05,-5.32,39.20,-5.06,-2.33,30.10,2.67,0.90,11.62
30,24,-1077,-115,-467,3930,1.17,0.18,-61.43,-1.15,-4.67,39.30,-5.05,-2.34,30.34,2.40,1.01,11.77
30,6,-1123,-149,-497,3971,1.24,0.20,-62.14,-1.49,-4.97,39.71,-5.04,-2.34,30.59,2.38,1.37,14.76
21,-4,-1116,-84,-440,3868,1.24,0.15,-62.73,-0.84,-4.40,38.68,-5.03,-2.35,30.84,2.56,1.59,13.40
18,-19,-1059,9,-176,3826,1.23,0.02,-62.92,0.09,-1.76,38.26,-5.01,-2.36,31.09,2.60,1.94,8.32
27,-1,-1068,83,-171,3721,1.27,0.01,-63.14,0.83,-1.71,37.21,-4.97,-2.37,31.34,2.39,1.58,8.79
16,2,-970,-109,30,3788,1.24,0.03,-62.74,-1.09,0.30,37.88,-4.94,-2.38,31.60,2.60,1.52,0.99
27,-5,-947,18,2,3927,1.28,-0.01,-62.25,0.18,0.02,39.27,-4.91,-2.40,31.84,2.34,1.69,-0.33
9,-2,-803,18,61,3823,1.21,-0.02,-60.92,0.18,0.61,38.23,-4.88,-2.41,32.09,2.71,1.64,-10.84
33,-15,-781,-68,-79,3922,1.29,-0.11,-59.59,-0.68,-0.79,39.22,-4.85,-2.42,32.33,2.18,1.93,-11.01
12,-24,-776,-247,-506,3952,1.23,-0.24,-58.37,-2.47,-5.06,39.52,-4.84,-2.42,32.56,2.62,2.15,-9.88
8,-14,-796,-84,-518,3782,1.16,-0.31,-57.39,-0.84,-5.18,37.82,-4.84,-2.43,32.79,2.72,1.97,-6.93
14,-2,-777,100,-347,3768,1.13,-0.29,-56.39,1.00,-3.47,37.68,-4.83,-2.43,33.01,2.60,1.72,-7.27
19,-3,-756,38,-372,3914,1.13,-0.28,-55.36,0.38,-3.72,39.14,-4.82,-2.44,33.23,2.49,1.74,-7.75
14,-10,-665,-8,-382,3935,1.10,-0.31,-53.88,-0.08,-3.82,39.35,-4.82,-2.44,33.45,2.59,1.90,-13.57
-21,-58,-654,10,-259,3781,0.86,-0.63,-52.48,0.10,-2.59,37.81,-4.80,-2.44,33.66,3.36,2.96,-12.72
24,-13,-569,27,-308,3772,0.92,-0.65,-50.70,0.27,-3.08,37.72,-4.78,-2.44,33.86,2.42,2.05,-17.65
12,-3,-563,10,-456,3889,0.91,-0.60,-49.07,0.10,-4.56,38.89,-4.78,-2.45,34.05,2.67,1.84,-16.08
-10,-17,-563,-59,-373,3932,0.75,-0.65,-47.60,-0.59,-3.73,39.32,-4.78,-2.45,34.24,3.15,2.14,-14.20
16,-18,-574,-66,-384,3833,0.78,-0.69,-46.34,-0.66,-3.84,38.33,-4.77,-2.45,34.43,2.61,2.17,-11.66
15,-10,-558,-53,-473,3882,0.79,-0.68,-45.11,-0.53,-4.73,38.82,-4.77,-2.45,34.61,2.63,2.01,-11.45
9,-11,-555,-102,-386,3903,0.77,-0.68,-43.98,-1.02,-3.86,39.03,-4.76,-2.45,34.78,2.75,2.03,-10.27
10,-9,-534,0,-261,3972,0.75,-0.67,-42.84,0.00,-2.61,39.72,-4.75,-2.45,34.95,2.72,1.98,-10.60
5,-10,-523,39,-262,3755,0.71,-0.66,-41.75,0.39,-2.62,37.55,-4.73,-2.45,35.12,2.83,2.00,-10.13
24,-9,-487,25,-334,3806,0.78,-0.65,-40.54,0.25,-3.34,38.06,-4.72,-2.45,35.28,2.41,1.98,-11.65
12,-4,-479,10,-411,3974,0.78,-0.61,-39.41,0.10,-4.11,39.74,-4.72,-2.45,35.44,2.66,1.86,-10.88
9,-15,-492,-44,-401,4018,0.75,-0.64,-38.47,-0.44,-4.01,40.18,-4.72,-2.44,35.59,2.72,2.09,-8.58
13,-23,-493,-105,-354,3868,0.76,-0.72,-37.63,-1.05,-3.54,38.68,-4.71,-2.44,35.74,2.64,2.27,-7.43
19,-9,-480,-50,-384,3883,0.80,-0.70,-36.80,-0.50,-3.84,38.83,-4.70,-2.44,35.89,2.50,1.98,-7.47
-10,-17,-493,-128,-442,3883,0.66,-0.73,-36.12,-1.28,-4.42,38.83,-4.70,-2.44,36.03,3.13,2.15,-5.51
11,-14,-538,-131,-417,3854,0.66,-0.75,-35.79,-1.31,-4.17,38.54,-4.70,-2.43,36.17,2.70,2.09,-1.28
19,-9,-546,-99,-362,3967,0.71,-0.73,-35.54,-0.99,-3.62,39.67,-4.69,-2.43,36.31,2.52,1.98,-0.29
13,-13,-575,-67,-417,3968,0.72,-0.73,-35.50,-0.67,-4.17,39.68,-4.69,-2.43,36.46,2.64,2.07,2.22
2,-7,-580,-79,-397,3963,0.66,-0.70,-35.49,-0.79,-3.97,39.63,-4.69,-2.42,36.60,2.87,1.93,2.66
-8,-20,-577,-81,-413,3913,0.54,-0.75,-35.46,-0.81,-4.13,39.13,-4.69,-2.42,36.74,3.11,2.21,2.44
10,-11,-577,-64,-366,3934,0.55,-0.75,-35.43,-0.64,-3.66,39.34,-4.68,-2.42,36.88,2.74,2.02,2.47
5,-11,-581,-16,-464,3857,0.53,-0.74,-35.43,-0.16,-4.64,38.57,-4.68,-2.42,37.02,2.85,2.02,2.80
21,-10,-587,-34,-486,3932,0.60,-0.73,-35.47,-0.34,-4.86,39.32,-4.69,-2.42,37.16,2.50,2.00,3.26
20,1,-605,17,-375,3844,0.66,-0.65,-35.61,0.17,-3.75,38.44,-4.69,-2.42,37.30,2.51,1.75,4.59
31,11,-600,-77,-453,3980,0.79,-0.52,-35.71,-0.77,-4.53,39.80,-4.69,-2.41,37.44,2.25,1.51,4.04
0,-13,-622,-133,-449,3868,0.71,-0.54,-35.93,-1.33,-4.49,38.68,-4.68,-2.41,37.59,2.90,2.00,5.61
79,19,-629,77,-492,4022,1.12,-0.37,-36.18,0.77,-4.92,40.22,-4.69,-2.41,37.73,1.18,1.31,5.89
-9,-9,-708,-73,-549,3876,0.95,-0.39,-36.88,-0.73,-5.49,38.76,-4.69,-2.41,37.88,3.02,1.88,11.68
-1,-20,-727,-80,-527,4012,0.85,-0.47,-37.63,-0.80,-5.27,40.12,-4.69,-2.41,38.03,2.89,2.13,12.33
-4,-23,-776,38,-519,3828,0.74,-0.57,-38.60,0.38,-5.19,38.28,-4.70,-2.42,38.18,2.98,2.22,15.24
1,-25,-787,70,-450,3962,0.67,-0.66,-39.54,0.70,-4.50,39.62,-4.70,-2.42,38.34,2.90,2.29,14.96
11,-18,-743,46,-536,3904,0.67,-0.71,-40.12,0.46,-5.36,39.04,-4.71,-2.43,38.50,2.70,2.16,10.49
17,-13,-726,27,-543,3930,0.71,-0.71,-40.53,0.27,-5.43,39.30,-4.72,-2.44,38.66,2.57,2.07,8.51
-1,-31,-656,-70,-535,3905,0.63,-0.83,-40.48,-0.70,-5.35,39.05,-4.72,-2.44,38.82,2.96,2.47,2.64
8,-11,-626,-23,-501,3862,0.62,-0.82,-40.25,-0.23,-5.01,38.62,-4.72,-2.44,38.98,2.79,2.06,0.39
-3,-33,-599,-60,-422,3827,0.54,-0.94,-39.88,-0.60,-4.22,38.27,-4.72,-2.44,39.14,3.03,2.54,-1.43
-7,-45,-587,-86,-406,3873,0.44,-1.12,-39.47,-0.86,-4.06,38.73,-4.72,-2.44,39.29,3.14,2.83,-1.93
1,-48,-493,-153,-377,3911,0.40,-1.30,-38.53,-1.53,-3.77,39.11,-4.71,-2.44,39.45,2.98,2.94,-8.70
3,-69,-476,-92,-366,3851,0.38,-1.59,-37.58,-0.92,-3.66,38.51,-4.71,-2.44,39.59,2.94,3.45,-8.93
28,-60,-458,96,-444,3933,0.51,-1.80,-36.62,0.96,-4.44,39.33,-4.72,-2.45,39.74,2.40,3.33,-9.22
16,-58,-449,72,-508,3872,0.56,-1.97,-35.70,0.72,-5.08,38.72,-4.73,-2.47,39.88,2.64,3.34,-8.81
1,-38,-391,-46,-359,3775,0.51,-2.00,-34.51,-0.46,-3.59,37.75,-4.72,-2.47,40.02,2.96,2.95,-12.21
18,-8,-399,32,-257,3745,0.57,-1.85,-33.49,0.32,-2.57,37.45,-4.71,-2.47,40.15,2.59,2.30,-10.24
38,241,-504,24,-96,3540,0.74,-0.20,-33.22,0.24,-0.96,35.40,-4.68,-2.47,40.28,2.12,-3.22,-0.99
3,16,-511,31,-418,4575,0.69,-0.08,-33.01,0.31,-4.18,45.75,-4.68,-2.46,40.42,2.84,1.32,-0.14
15,-18,-442,98,-479,3962,0.71,-0.18,-32.41,0.98,-4.79,39.62,-4.69,-2.47,40.54,2.59,2.04,-5.22
12,6,-408,100,-481,3657,0.71,-0.13,-31.66,1.00,-4.81,36.57,-4.70,-2.47,40.67,2.66,1.54,-7.14
-5,-8,-262,-9,-609,3815,0.61,-0.16,-30.09,-0.09,-6.09,38.15,-4.70,-2.47,40.79,3.04,1.84,-17.51
-1,-12,-225,-70,-501,3937,0.54,-0.22,-28.45,-0.70,-5.01,39.37,-4.71,-2.47,40.90,2.98,1.93,-18.55
-6,-21,-174,-72,-355,3899,0.45,-0.33,-26.67,-0.72,-3.55,38.99,-4.70,-2.46,41.01,3.10,2.14,-20.00
6,-15,-173,-108,-267,3833,0.44,-0.39,-25.06,-1.08,-2.67,38.33,-4.70,-2.45,41.11,2.86,2.03,-18.62
0,-11,-191,-103,-264,3918,0.40,-0.41,-23.72,-1.03,-2.64,39.18,-4.69,-2.44,41.20,2.98,1.95,-15.39
9,-4,-176,-101,-243,3900,0.41,-0.40,-22.42,-1.01,-2.43,39.00,-4.68,-2.43,41.29,2.79,1.80,-15.00
-1,-7,-165,76,-465,3928,0.37,-0.40,-21.18,0.76,-4.65,39.28,-4.69,-2.43,41.38,3.01,1.86,-14.35
3,-5,-152,-39,-320,3839,0.35,-0.39,-19.99,-0.39,-3.20,38.39,-4.68,-2.42,41.46,2.93,1.81,-13.93
-4,-7,-171,-11,-329,3851,0.29,-0.39,-19.04,-0.11,-3.29,38.51,-4.68,-2.41,41.53,3.09,1.84,-11.10
1,2,-191,-68,-309,3883,0.27,-0.34,-18.30,-0.68,-3.09,38.83,-4.67,-2.40,41.60,2.99,1.64,-8.47
13,6,-187,-62,-324,3871,0.32,-0.27,-17.61,-0.62,-3.24,38.71,-4.67,-2.39,41.67,2.73,1.53,-7.93
10,0,-169,-19,-390,3931,0.35,-0.24,-16.88,-0.19,-3.90,39.31,-4.67,-2.38,41.74,2.79,1.64,-8.52
2,2,-211,-121,-329,3886,0.33,-0.21,-16.48,-1.21,-3.29,38.86,-4.67,-2.37,41.81,2.95,1.58,-4.45
15,6,-222,-24,-279,3875,0.38,-0.15,-16.18,-0.24,-2.79,38.75,-4.66,-2.36,41.87,2.67,1.47,-3.15
9,1,-201,-52,-430,3918,0.40,-0.13,-15.79,-0.52,-4.30,39.18,-4.67,-2.34,41.93,2.79,1.56,-4.43
7,5,-194,-107,-421,3831,0.40,-0.09,-15.40,-1.07,-4.21,38.31,-4.67,-2.33,42.00,2.83,1.46,-4.51
-1,-2,-145,1,-401,3859,0.36,-0.09,-14.74,0.01,-4.01,38.59,-4.67,-2.32,42.05,3.01,1.60,-7.83
2,4,-137,-111,-235,3911,0.33,-0.06,-14.10,-1.11,-2.35,39.11,-4.66,-2.31,42.11,2.95,1.46,-7.69
1,-6,-137,-86,-315,3927,0.31,-0.09,-13.53,-0.86,-3.15,39.27,-4.66,-2.30,42.16,2.97,1.66,-6.96
4,-8,-132,-105,-312,3914,0.30,-0.13,-12.98,-1.05,-3.12,39.14,-4.66,-2.28,42.22,2.91,1.70,-6.68
3,-1,-94,-109,-423,3888,0.29,-0.12,-12.26,-1.09,-4.23,38.88,-4.66,-2.27,42.26,2.94,1.55,-8.98
2,4,-85,-90,-389,3897,0.27,-0.08,-11.55,-0.90,-3.89,38.97,-4.66,-2.26,42.31,2.96,1.43,-8.84
2,10,-48,-105,-373,3904,0.26,-0.01,-10.69,-1.05,-3.73,39.04,-4.66,-2.24,42.35,2.97,1.28,-10.87
1,8,-34,-103,-362,3901,0.24,0.04,-9.83,-1.03,-3.62,39.01,-4.66,-2.23,42.39,2.99,1.30,-10.96
-4,4,-60,-145,-316,3901,0.19,0.06,-9.21,-1.45,-3.16,39.01,-4.66,-2.21,42.43,3.11,1.36,-7.97
11,2,-98,-175,-337,3800,0.24,0.06,-8.89,-1.75,-3.37,38.00,-4.66,-2.20,42.46,2.79,1.39,-4.34
17,2,-249,32,-274,3913,0.32,0.07,-9.52,0.32,-2.74,39.13,-4.65,-2.18,42.50,2.64,1.38,7.65
16,-3,-275,96,-294,3831,0.38,0.04,-10.24,0.96,-2.94,38.31,-4.64,-2.17,42.54,2.63,1.48,8.92
-7,-9,-241,-86,-374,3925,0.30,-0.02,-10.69,-0.86,-3.74,39.25,-4.64,-2.15,42.59,3.12,1.61,5.47
-4,7,-221,-260,-209,4109,0.25,0.03,-10.97,-2.60,-2.09,41.09,-4.64,-2.14,42.63,3.07,1.26,3.42
-7,-15,-280,143,-334,4070,0.18,-0.07,-11.58,1.43,-3.34,40.70,-4.64,-2.13,42.68,3.16,1.73,7.63
5,-23,-311,211,-342,3804,0.19,-0.20,-12.32,2.11,-3.42,38.04,-4.65,-2.15,42.72,2.91,1.94,9.31
-1,-24,-449,-6,-224,3851,0.17,-0.33,-13.82,-0.06,-2.24,38.51,-4.63,-2.14,42.78,3.03,1.99,19.08
12,-12,-492,-99,-234,3699,0.22,-0.37,-15.44,-0.99,-2.34,36.99,-4.63,-2.13,42.84,2.75,1.75,20.00
-5,-20,-557,46,-274,3812,0.17,-0.45,-17.30,0.46,-2.74,38.12,-4.62,-2.12,42.91,3.10,1.93,20.00
27,4,-570,-15,-239,4004,0.32,-0.38,-19.04,-0.15,-2.39,40.04,-4.60,-2.11,42.99,2.40,1.41,20.00
27,7,-634,-89,-366,3782,0.45,-0.30,-21.01,-0.89,-3.66,37.82,-4.60,-2.10,43.07,2.37,1.32,20.00
19,8,-647,28,-380,4175,0.52,-0.22,-22.85,0.28,-3.80,41.75,-4.60,-2.09,43.16,2.51,1.28,20.00
13,-12,-661,-116,-360,3948,0.55,-0.27,-24.60,-1.16,-3.60,39.48,-4.60,-2.08,43.26,2.62,1.69,20.00
4,-15,-660,-60,-399,3750,0.52,-0.34,-26.17,-0.60,-3.99,37.50,-4.60,-2.07,43.36,2.82,1.76,20.00
-9,-16,-633,-406,-248,3931,0.41,-0.40,-27.41,-4.06,-2.48,39.31,-4.60,-2.06,43.47,3.10,1.80,17.27
5,-53,-609,-417,-186,3943,0.40,-0.68,-28.38,-4.17,-1.86,39.43,-4.59,-2.06,43.59,2.82,2.62,13.99
9,-38,-592,88,-327,4030,0.42,-0.85,-29.16,0.88,-3.27,40.30,-4.58,-2.05,43.70,2.73,2.36,11.56
4,-26,-603,119,-340,3783,0.40,-0.92,-29.92,1.19,-3.40,37.83,-4.59,-2.06,43.82,2.84,2.14,11.51
0,-6,-690,-6,-168,3739,0.36,-0.87,-31.14,-0.06,-1.68,37.39,-4.57,-2.06,43.94,2.92,1.72,17.32
4,-4,-720,58,-199,3907,0.35,-0.80,-32.42,0.58,-1.99,39.07,-4.55,-2.06,44.07,2.83,1.66,18.22
49,20,-827,-60,-209,3888,0.61,-0.60,-34.22,-0.60,-2.09,38.88,-4.54,-2.06,44.21,1.83,1.12,20.00
21,-9,-890,-81,-224,4058,0.68,-0.60,-36.23,-0.81,-2.24,40.58,-4.52,-2.06,44.36,2.37,1.70,20.00
23,-4,-979,61,-273,3930,0.75,-0.56,-38.57,0.61,-2.73,39.30,-4.51,-2.05,44.51,2.30,1.59,20.00
21,-8,-1015,8,-291,3934,0.80,-0.55,-40.91,0.08,-2.91,39.34,-4.49,-2.05,44.67,2.32,1.67,20.00
34,-1,-1084,13,-336,4006,0.93,-0.50,-43.43,0.13,-3.36,40.06,-4.49,-2.05,44.85,2.02,1.51,20.00
35,-8,-1097,32,-161,3875,1.05,-0.50,-45.78,0.32,-1.61,38.75,-4.46,-2.05,45.03,1.95,1.65,20.00
9,-15,-1127,-66,-219,3750,1.00,-0.54,-48.08,-0.66,-2.19,37.50,-4.44,-2.05,45.22,2.48,1.81,20.00
6,-29,-1127,-180,-172,3904,0.94,-0.67,-50.14,-1.80,-1.72,39.04,-4.43,-2.05,45.42,2.54,2.13,20.00
13,-16,-1142,-111,-142,3951,0.92,-0.70,-52.09,-1.11,-1.42,39.51,-4.41,-2.06,45.63,2.39,1.87,20.00
3,-53,-1136,8,-266,4199,0.85,-0.95,-53.81,0.08,-2.66,41.99,-4.39,-2.06,45.84,2.60,2.70,20.00
0,-29,-1185,-51,-222,4015,0.76,-1.03,-55.66,-0.51,-2.22,40.15,-4.37,-2.07,46.07,2.68,2.23,20.00
22,-16,-1187,-188,-244,3805,0.82,-1.03,-57.34,-1.88,-2.44,38.05,-4.36,-2.07,46.29,2.20,1.97,20.00
40,-17,-1201,-212,-350,3919,0.98,-1.03,-58.93,-2.12,-3.50,39.19,-4.35,-2.07,46.53,1.79,1.99,20.00
48,-18,-1205,-135,-466,3861,1.18,-1.04,-60.39,-1.35,-4.66,38.61,-4.34,-2.08,46.77,1.57,2.02,20.00
21,-41,-1173,-20,-493,3859,1.19,-1.18,-61.50,-0.20,-4.93,38.59,-4.34,-2.09,47.01,2.12,2.54,19.31
33,0,-1149,-127,-444,3854,1.27,-1.06,-62.36,-1.27,-4.44,38.54,-4.34,-2.10,47.26,1.85,1.68,16.17
25,-26,-1004,-44,-512,3983,1.30,-1.12,-62.25,-0.44,-5.12,39.83,-4.34,-2.11,47.51,2.00,2.23,4.02
33,-4,-970,77,-519,3869,1.37,-1.03,-61.94,0.77,-5.19,38.69,-4.34,-2.13,47.76,1.82,1.77,1.53
2,-26,-857,58,-498,3903,1.24,-1.08,-60.98,0.58,-4.98,39.03,-4.34,-2.14,48.00,2.49,2.24,-6.81
20,-11,-833,11,-488,3847,1.24,-1.04,-59.96,0.11,-4.88,38.47,-4.34,-2.15,48.24,2.12,1.93,-7.55
5,-25,-739,-30,-554,3738,1.15,-1.09,-58.47,-0.30,-5.54,37.38,-4.35,-2.17,48.47,2.45,2.24,-13.62
-8,-31,-706,-54,-590,3914,0.98,-1.17,-56.93,-0.54,-5.90,39.14,-4.35,-2.18,48.70,2.76,2.39,-14.45
4,-6,-555,46,-706,4144,0.91,-1.09,-54.62,0.46,-7.06,41.44,-4.35,-2.19,48.91,2.54,1.87,-20.00
29,4,-495,-6,-701,3781,1.00,-0.96,-52.18,-0.06,-7.01,37.81,-4.36,-2.21,49.12,2.02,1.64,-20.00
20,8,-340,36,-578,3883,1.02,-0.81,-49.04,0.36,-5.78,38.83,-4.36,-2.22,49.31,2.20,1.52,-20.00
1,5,-308,25,-600,3871,0.92,-0.70,-46.01,0.25,-6.00,38.71,-4.37,-2.23,49.50,2.61,1.56,-20.00
0,-4,-203,-82,-497,3934,0.83,-0.66,-42.65,-0.82,-4.97,39.34,-4.37,-2.23,49.67,2.66,1.73,-20.00
0,-5,-187,-112,-454,3843,0.75,-0.62,-39.52,-1.12,-4.54,38.43,-4.37,-2.23,49.82,2.68,1.74,-20.00
0,3,-166,-51,-365,3855,0.67,-0.54,-36.58,-0.51,-3.65,38.55,-4.37,-2.22,49.97,2.70,1.55,-20.00
1,7,-174,-65,-391,3912,0.61,-0.44,-33.99,-0.65,-3.91,39.12,-4.37,-2.22,50.11,2.70,1.44,-20.00
-4,-5,-159,-2,-332,3918,0.53,-0.43,-31.56,-0.02,-3.32,39.18,-4.37,-2.21,50.23,2.82,1.68,-20.00
-5,-5,-165,-6,-304,3880,0.44,-0.42,-29.41,-0.06,-3.04,38.80,-4.36,-2.21,50.35,2.86,1.67,-20.00
7,1,-205,13,-301,3918,0.44,-0.37,-27.72,0.13,-3.01,39.18,-4.36,-2.20,50.46,2.61,1.53,-19.60
0,-12,-211,41,-311,3906,0.40,-0.41,-26.23,0.41,-3.11,39.06,-4.35,-2.19,50.56,2.76,1.80,-17.19
0,-16,-214,-53,-392,3901,0.36,-0.46,-24.92,-0.53,-3.92,39.01,-4.35,-2.18,50.66,2.78,1.89,-15.25
5,-10,-218,-33,-326,3879,0.35,-0.48,-23.75,-0.33,-3.26,38.79,-4.35,-2.17,50.76,2.68,1.77,-13.43
4,-4,-233,-12,-331,3923,0.34,-0.45,-22.80,-0.12,-3.31,39.23,-4.35,-2.16,50.85,2.70,1.63,-10.94
6,-12,-242,3,-283,3903,0.34,-0.48,-22.00,0.03,-2.83,39.03,-4.35,-2.15,50.94,2.65,1.80,-9.16
-3,-14,-214,-84,-469,3847,0.29,-0.52,-21.10,-0.84,-4.69,38.47,-4.35,-2.15,51.02,2.85,1.84,-10.39
1,2,-205,-112,-412,3842,0.27,-0.45,-20.24,-1.12,-4.12,38.42,-4.36,-2.14,51.10,2.78,1.50,-10.05
4,4,-156,-72,-394,3931,0.27,-0.38,-19.17,-0.72,-3.94,39.31,-4.36,-2.13,51.18,2.72,1.43,-12.83
-3,-7,-136,-86,-392,3852,0.22,-0.39,-18.08,-0.86,-3.92,38.52,-4.36,-2.12,51.25,2.88,1.65,-13.14
3,4,-107,-56,-383,3862,0.22,-0.33,-16.93,-0.56,-3.83,38.62,-4.37,-2.11,51.31,2.76,1.40,-14.12
2,3,-106,-41,-347,3950,0.21,-0.27,-15.88,-0.41,-3.47,39.50,-4.37,-2.10,51.38,2.79,1.40,-12.87
-2,9,-138,-91,-361,3845,0.17,-0.19,-15.13,-0.91,-3.61,38.45,-4.37,-2.09,51.44,2.88,1.25,-9.21
4,11,-154,-108,-337,3947,0.18,-0.11,-14.56,-1.08,-3.37,39.47,-4.37,-2.07,51.50,2.75,1.17,-7.12
6,7,-210,-78,-332,3937,0.20,-0.05,-14.39,-0.78,-3.32,39.37,-4.37,-2.06,51.55,2.71,1.23,-2.15
4,1,-228,-81,-301,3865,0.20,-0.04,-14.34,-0.81,-3.01,38.65,-4.37,-2.04,51.61,2.75,1.34,-0.57
10,-5,-300,-95,-318,3856,0.24,-0.07,-14.73,-0.95,-3.18,38.56,-4.37,-2.03,51.67,2.61,1.46,5.02
9,-7,-324,-94,-300,3865,0.28,-0.10,-15.24,-0.94,-3.00,38.65,-4.36,-2.02,51.73,2.62,1.50,6.41
-9,-10,-290,11,-509,3946,0.19,-0.15,-15.48,0.11,-5.09,39.46,-4.38,-2.01,51.79,3.02,1.57,3.22
0,-8,-293,17,-376,3877,0.17,-0.19,-15.72,0.17,-3.76,38.77,-4.38,-2.00,51.85,2.85,1.54,3.16
1,-20,-209,-6,-419,3901,0.16,-0.29,-15.42,-0.06,-4.19,39.01,-4.39,-2.00,51.91,2.83,1.80,-3.58
0,-18,-184,-25,-411,3867,0.15,-0.37,-15.00,-0.25,-4.11,38.67,-4.40,-1.99,51.97,2.86,1.78,-5.16
0,-19,-85,14,-420,3872,0.13,-0.45,-14.02,0.14,-4.20,38.72,-4.41,-1.98,52.03,2.87,1.82,-12.29
-2,-16,-53,-8,-444,3914,0.11,-0.50,-12.94,-0.08,-4.44,39.14,-4.42,-1.97,52.08,2.93,1.76,-13.63
-1,-6,-6,-34,-360,3897,0.09,-0.49,-11.69,-0.34,-3.60,38.97,-4.42,-1.96,52.13,2.92,1.55,-16.00
-1,-2,-1,-50,-359,3906,0.07,-0.45,-10.52,-0.50,-3.59,39.06,-4.43,-1.95,52.17,2.92,1.45,-14.94
-1,5,4,-24,-389,3876,0.06,-0.38,-9.45,-0.24,-3.89,38.76,-4.44,-1.94,52.21,2.93,1.28,-13.99
0,3,-2,-34,-359,3882,0.05,-0.32,-8.51,-0.34,-3.59,38.82,-4.44,-1.92,52.24,2.92,1.30,-12.29
-3,-5,-6,-7,-347,3881,0.03,-0.32,-7.70,-0.07,-3.47,38.81,-4.45,-1.91,52.27,2.99,1.45,-10.91
-2,-4,-8,-17,-356,3885,0.02,-0.31,-6.98,-0.17,-3.56,38.85,-4.45,-1.90,52.30,2.97,1.42,-9.82
0,-5,-8,22,-325,3847,0.01,-0.31,-6.33,0.22,-3.25,38.47,-4.45,-1.88,52.32,2.94,1.43,-8.99
1,-4,-11,25,-330,3907,0.02,-0.30,-5.76,0.25,-3.30,39.07,-4.46,-1.87,52.34,2.92,1.40,-8.01
2,-3,-64,20,-264,3974,0.03,-0.29,-5.58,0.20,-2.64,39.74,-4.45,-1.85,52.37,2.89,1.36,-3.28
2,-2,-74,12,-261,3891,0.04,-0.28,-5.47,0.12,-2.61,38.91,-4.44,-1.84,52.39,2.88,1.33,-2.30
4,3,-84,-60,-412,3887,0.06,-0.23,-5.44,-0.60,-4.12,38.87,-4.45,-1.83,52.41,2.84,1.21,-1.41
4,-1,-78,-55,-408,3862,0.08,-0.21,-5.37,-0.55,-4.08,38.62,-4.46,-1.81,52.43,2.84,1.27,-1.83
1,-11,-58,-33,-376,3878,0.08,-0.26,-5.19,-0.33,-3.76,38.78,-4.47,-1.80,52.45,2.91,1.48,-3.29
1,-9,-55,-32,-362,3866,0.07,-0.29,-5.00,-0.32,-3.62,38.66,-4.47,-1.78,52.47,2.91,1.44,-3.31
-1,-5,-49,11,-341,3877,0.06,-0.29,-4.80,0.11,-3.41,38.77,-4.48,-1.77,52.49,2.96,1.35,-3.56
8,0,-53,-25,-344,3891,0.10,-0.26,-4.64,-0.25,-3.44,38.91,-4.48,-1.75,52.51,2.77,1.23,-3.02
-5,-7,-33,-24,-357,3894,0.06,-0.28,-4.38,-0.24,-3.57,38.94,-4.49,-1.74,52.53,3.05,1.37,-4.38
-5,-9,-38,-4,-329,3901,0.03,-0.30,-4.17,-0.04,-3.29,39.01,-4.49,-1.72,52.54,3.06,1.40,-3.70
-7,-9,-66,39,-276,3911,-0.02,-0.33,-4.16,0.39,-2.76,39.11,-4.48,-1.71,52.56,3.11,1.40,-1.31
-3,-5,-80,40,-260,3889,-0.04,-0.33,-4.23,0.40,-2.60,38.89,-4.47,-1.70,52.58,3.02,1.31,-0.21
2,9,-137,0,-243,3957,-0.02,-0.24,-4.64,0.00,-2.43,39.57,-4.46,-1.68,52.59,2.91,0.99,4.09
-20,-13,-140,-52,-130,3809,-0.14,-0.29,-5.03,-0.52,-1.30,38.09,-4.45,-1.67,52.62,3.38,1.45,3.84
8,-4,-192,10,-178,3868,-0.08,-0.29,-5.70,0.10,-1.78,38.68,-4.44,-1.66,52.64,2.79,1.26,7.40
5,2,-220,-48,-233,3976,-0.04,-0.25,-6.47,-0.48,-2.33,39.76,-4.43,-1.65,52.66,2.83,1.12,8.78
2,-2,-261,-25,-229,3931,-0.02,-0.24,-7.42,-0.25,-2.29,39.31,-4.42,-1.64,52.69,2.88,1.19,11.04
5,12,-278,8,-168,3856,0.01,-0.14,-8.37,0.08,-1.68,38.56,-4.40,-1.63,52.73,2.80,0.87,11.26
8,8,-333,5,-171,3918,0.06,-0.08,-9.57,0.05,-1.71,39.18,-4.39,-1.62,52.77,2.72,0.93,14.40
9,3,-349,2,-189,3905,0.11,-0.05,-10.74,0.02,-1.89,39.05,-4.37,-1.61,52.81,2.67,1.02,14.25
7,3,-398,30,-225,3967,0.14,-0.03,-12.09,0.30,-2.25,39.67,-4.36,-1.60,52.86,2.70,1.00,16.67
15,-2,-414,-19,-206,3919,0.22,-0.04,-13.41,-0.19,-2.06,39.19,-4.34,-1.59,52.91,2.50,1.10,16.34
-10,-18,-475,-22,-269,3965,0.13,-0.14,-14.97,-0.22,-2.69,39.65,-4.34,-1.58,52.97,3.03,1.45,19.51
9,-16,-490,46,-326,3997,0.18,-0.23,-16.46,0.46,-3.26,39.97,-4.34,-1.57,53.04,2.63,1.42,18.88
2,-16,-433,-136,-362,3869,0.17,-0.30,-17.45,-1.36,-3.62,38.69,-4.34,-1.56,53.11,2.78,1.43,12.77
-1,-1,-435,-177,-387,3849,0.15,-0.28,-18.36,-1.77,-3.87,38.49,-4.35,-1.54,53.18,2.85,1.12,11.78
13,8,-448,110,-486,3925,0.21,-0.20,-19.26,1.10,-4.86,39.25,-4.36,-1.55,53.26,2.56,0.92,11.73
11,21,-409,-170,-460,3810,0.26,-0.05,-19.83,-1.70,-4.60,38.10,-4.37,-1.54,53.33,2.59,0.61,7.69
4,-9,-376,-65,-545,3913,0.26,-0.10,-20.14,-0.65,-5.45,39.13,-4.38,-1.54,53.41,2.74,1.23,4.50
6,-31,-373,-34,-536,3890,0.27,-0.28,-20.40,-0.34,-5.36,38.90,-4.39,-1.54,53.50,2.71,1.72,3.91
-2,-59,-314,-30,-608,3842,0.23,-0.61,-20.28,-0.30,-6.08,38.42,-4.41,-1.54,53.58,2.89,2.38,-0.93
-2,-63,-295,-55,-596,3861,0.19,-0.94,-20.05,-0.55,-5.96,38.61,-4.42,-1.54,53.65,2.91,2.55,-2.25
-2,-29,-237,-136,-472,3883,0.16,-1.02,-19.49,-1.36,-4.72,38.83,-4.43,-1.53,53.73,2.92,1.88,-6.46
-7,-24,-208,-135,-394,3945,0.10,-1.06,-18.81,-1.35,-3.94,39.45,-4.43,-1.53,53.81,3.04,1.79,-8.05
4,-17,-160,-5,-206,3861,0.12,-1.06,-17.90,-0.05,-2.06,38.61,-4.42,-1.52,53.88,2.80,1.64,-10.96
-7,-16,-159,9,-109,3881,0.06,-1.05,-17.08,0.09,-1.09,38.81,-4.40,-1.52,53.95,3.03,1.62,-9.99
0,2,-219,43,-12,3908,0.06,-0.93,-16.71,0.43,-0.12,39.08,-4.38,-1.53,54.01,2.88,1.22,-4.44
9,-4,-249,136,-36,3849,0.11,-0.87,-16.56,1.36,-0.36,38.49,-4.36,-1.54,54.08,2.67,1.33,-1.70
