gyroADC_X,gyroADC_Y,gyroADC_Z,accADC_X,accADC_Y,accADC_Z,GyroX,GyroY,GyroZ,AccX,AccY,AccZ,roll_IMU,pitch_IMU,yaw_IMU,roll_PID,pitch_PID,yaw_PID
3,5,-29,-4,-243,3930,0.01,0.13,-4.90,-0.04,-2.43,39.30,-4.08,-0.81,73.35,2.62,0.40,-5.42
0,6,-85,-50,-331,3901,0.01,0.16,-4.93,-0.50,-3.31,39.01,-4.08,-0.79,73.37,2.69,0.36,-4.94
-5,2,-60,-65,-418,3902,-0.02,0.15,-4.80,-0.65,-4.18,39.02,-4.10,-0.78,73.39,2.81,0.43,-5.18
-6,3,-52,-82,-442,3927,-0.05,0.16,-4.64,-0.82,-4.42,39.27,-4.11,-0.77,73.41,2.85,0.41,-5.28
-11,-8,-15,-41,-465,3919,-0.11,0.09,-4.27,-0.41,-4.65,39.19,-4.13,-0.76,73.43,2.98,0.64,-5.67
-9,-11,-7,-99,-454,3938,-0.16,0.02,-3.88,-0.99,-4.54,39.38,-4.14,-0.75,73.44,2.96,0.72,-5.81
2,-5,-15,-73,-327,3911,-0.13,-0.02,-3.59,-0.73,-3.27,39.11,-4.15,-0.74,73.45,2.73,0.59,-5.80
2,-4,-12,-54,-328,3926,-0.11,-0.04,-3.30,-0.54,-3.28,39.26,-4.16,-0.72,73.47,2.73,0.57,-5.88
0,-2,-9,-31,-336,3923,-0.09,-0.05,-3.03,-0.31,-3.36,39.23,-4.17,-0.71,73.48,2.77,0.52,-5.96
-3,-3,-6,-34,-332,3932,-0.10,-0.06,-2.76,-0.34,-3.32,39.32,-4.17,-0.69,73.49,2.84,0.53,-6.04
-5,-4,-4,-12,-326,3931,-0.12,-0.08,-2.51,-0.12,-3.26,39.31,-4.18,-0.68,73.50,2.90,0.55,-6.10
-8,-6,-3,-7,-325,3927,-0.16,-0.11,-2.28,-0.07,-3.25,39.27,-4.20,-0.66,73.51,2.98,0.59,-6.16
-5,-8,0,-31,-341,3930,-0.17,-0.15,-2.05,-0.31,-3.41,39.30,-4.21,-0.65,73.52,2.93,0.63,-6.23
-4,-9,0,-61,-347,3927,-0.18,-0.19,-1.84,-0.61,-3.47,39.27,-4.22,-0.63,73.52,2.91,0.65,-6.26
-3,-6,-2,-34,-323,3918,-0.18,-0.20,-1.67,-0.34,-3.23,39.18,-4.22,-0.62,73.53,2.90,0.59,-6.28
-1,-7,-2,-44,-339,3920,-0.17,-0.23,-1.52,-0.44,-3.39,39.20,-4.23,-0.60,73.54,2.86,0.60,-6.31
-1,-8,-15,-26,-294,3931,-0.16,-0.25,-1.46,-0.26,-2.94,39.31,-4.24,-0.59,73.54,2.86,0.62,-6.21
0,-7,-19,-31,-298,3922,-0.14,-0.27,-1.43,-0.31,-2.98,39.22,-4.24,-0.57,73.55,2.84,0.59,-6.19
-2,-8,-27,-15,-319,3945,-0.14,-0.29,-1.45,-0.15,-3.19,39.45,-4.25,-0.56,73.55,2.88,0.61,-6.11
-1,-7,-27,-28,-336,3951,-0.13,-0.31,-1.47,-0.28,-3.36,39.51,-4.26,-0.54,73.56,2.87,0.58,-6.11
-1,-9,-25,-22,-325,3927,-0.13,-0.33,-1.47,-0.22,-3.25,39.27,-4.27,-0.53,73.57,2.87,0.62,-6.13
-4,-6,-26,25,-285,3932,-0.14,-0.33,-1.49,0.25,-2.85,39.32,-4.26,-0.52,73.57,2.93,0.55,-6.12
-6,2,-27,-21,-290,3886,-0.16,-0.29,-1.50,-0.21,-2.90,38.86,-4.26,-0.50,73.58,2.97,0.37,-6.11
-5,-1,-18,-1,-237,3925,-0.17,-0.27,-1.46,-0.01,-2.37,39.25,-4.24,-0.49,73.58,2.95,0.42,-6.19
-1,2,-7,-7,-279,3926,-0.16,-0.23,-1.36,-0.07,-2.79,39.26,-4.24,-0.47,73.59,2.86,0.33,-6.30
0,2,-4,-10,-291,3928,-0.15,-0.19,-1.25,-0.10,-2.91,39.28,-4.24,-0.46,73.59,2.84,0.31,-6.35
4,1,-7,-6,-311,3914,-0.11,-0.17,-1.16,-0.06,-3.11,39.14,-4.25,-0.44,73.60,2.75,0.32,-6.34
4,-1,-9,-12,-316,3916,-0.07,-0.16,-1.10,-0.12,-3.16,39.16,-4.26,-0.43,73.60,2.75,0.34,-6.34
2,-1,-8,-18,-316,3924,-0.05,-0.15,-1.04,-0.18,-3.16,39.24,-4.26,-0.41,73.61,2.79,0.33,-6.36
1,-1,-7,-10,-313,3918,-0.04,-0.14,-0.98,-0.10,-3.13,39.18,-4.27,-0.40,73.61,2.81,0.32,-6.38
-1,2,-8,-9,-318,3926,-0.04,-0.11,-0.93,-0.09,-3.18,39.26,-4.28,-0.38,73.61,2.86,0.24,-6.38
-1,2,-6,-13,-323,3909,-0.05,-0.09,-0.87,-0.13,-3.23,39.09,-4.30,-0.37,73.62,2.87,0.23,-6.41
-4,0,-4,-13,-319,3925,-0.07,-0.08,-0.81,-0.13,-3.19,39.25,-4.31,-0.35,73.62,2.94,0.25,-6.44
-3,0,-3,-10,-300,3906,-0.08,-0.07,-0.75,-0.10,-3.00,39.06,-4.31,-0.34,73.62,2.93,0.24,-6.46
0,-1,-6,-18,-309,3938,-0.07,-0.07,-0.71,-0.18,-3.09,39.38,-4.31,-0.32,73.63,2.87,0.25,-6.44
0,-2,-7,-41,-292,3906,-0.06,-0.08,-0.68,-0.41,-2.92,39.06,-4.31,-0.30,73.63,2.86,0.26,-6.44
9,3,-36,-171,-345,3895,-0.00,-0.05,-0.83,-1.71,-3.45,38.95,-4.32,-0.28,73.63,2.67,0.14,-6.16
-7,5,-63,-103,-342,3914,-0.04,-0.01,-1.13,-1.03,-3.42,39.14,-4.33,-0.27,73.64,3.01,0.08,-5.88
8,0,-50,27,-435,3900,0.01,-0.01,-1.33,0.27,-4.35,39.00,-4.34,-0.27,73.64,2.70,0.18,-5.95
2,-6,-41,-7,-398,3916,0.02,-0.05,-1.44,-0.07,-3.98,39.16,-4.36,-0.26,73.65,2.83,0.31,-6.01
-3,-7,-39,3,-347,3938,0.00,-0.09,-1.54,0.03,-3.47,39.38,-4.38,-0.26,73.65,2.95,0.34,-6.00
2,-9,-37,-57,-350,3926,0.01,-0.13,-1.61,-0.57,-3.50,39.26,-4.39,-0.24,73.66,2.85,0.38,-6.01
1,7,-48,16,-307,3976,0.02,-0.08,-1.74,0.16,-3.07,39.76,-4.40,-0.24,73.67,2.88,0.03,-5.89
6,9,-27,-19,-395,3914,0.05,-0.01,-1.73,-0.19,-3.95,39.14,-4.42,-0.23,73.67,2.78,-0.03,-6.07
11,10,-5,-70,-399,3967,0.11,0.05,-1.59,-0.70,-3.99,39.67,-4.43,-0.22,73.68,2.67,-0.07,-6.29
8,5,7,-73,-423,3924,0.15,0.07,-1.39,-0.73,-4.23,39.24,-4.45,-0.21,73.68,2.73,0.02,-6.43
-3,11,9,23,-240,3911,0.12,0.13,-1.19,0.23,-2.40,39.11,-4.43,-0.21,73.69,2.95,-0.12,-6.48
1,9,16,44,-216,3942,0.11,0.18,-0.98,0.44,-2.16,39.42,-4.41,-0.22,73.69,2.86,-0.09,-6.58
5,3,-7,-11,-305,3925,0.13,0.18,-0.92,-0.11,-3.05,39.25,-4.41,-0.20,73.70,2.77,0.02,-6.40
3,2,-8,-31,-352,3919,0.14,0.17,-0.88,-0.31,-3.52,39.19,-4.43,-0.18,73.70,2.82,0.03,-6.40
-3,-6,-18,36,-275,3897,0.10,0.12,-0.90,0.36,-2.75,38.97,-4.41,-0.20,73.70,2.94,0.22,-6.31
-4,-8,-23,19,-283,3894,0.07,0.06,-0.95,0.19,-2.83,38.94,-4.39,-0.20,73.71,2.96,0.28,-6.26
0,-6,-9,-19,-353,3928,0.06,0.01,-0.91,-0.19,-3.53,39.28,-4.41,-0.19,73.71,2.89,0.24,-6.38
-2,-3,0,-32,-370,3919,0.04,-0.01,-0.82,-0.32,-3.70,39.19,-4.42,-0.18,73.72,2.95,0.18,-6.48
-1,2,3,111,-178,3901,0.03,0.01,-0.72,1.11,-1.78,39.01,-4.41,-0.19,73.72,2.92,0.09,-6.52
0,2,5,117,-194,3910,0.03,0.02,-0.62,1.17,-1.94,39.10,-4.40,-0.21,73.72,2.89,0.09,-6.56
0,0,1,8,-281,3927,0.03,0.02,-0.55,0.08,-2.81,39.27,-4.38,-0.20,73.72,2.88,0.13,-6.54
1,-1,2,-7,-294,3921,0.03,0.01,-0.48,-0.07,-2.94,39.21,-4.37,-0.18,73.73,2.86,0.14,-6.56
1,-1,2,-20,-303,3919,0.03,0.00,-0.42,-0.20,-3.03,39.19,-4.38,-0.17,73.73,2.86,0.13,-6.57
1,-1,1,-15,-310,3917,0.04,-0.00,-0.37,-0.15,-3.10,39.17,-4.38,-0.15,73.73,2.86,0.12,-6.57
3,-2,-1,-24,-305,3926,0.05,-0.02,-0.34,-0.24,-3.05,39.26,-4.38,-0.13,73.73,2.82,0.13,-6.56
3,0,-2,-19,-309,3929,0.06,-0.01,-0.32,-0.19,-3.09,39.29,-4.39,-0.11,73.73,2.82,0.08,-6.56
-2,-5,0,-16,-316,3913,0.05,-0.04,-0.29,-0.16,-3.16,39.13,-4.40,-0.10,73.73,2.93,0.18,-6.58
-9,0,0,14,-296,3954,-0.01,-0.04,-0.26,0.14,-2.96,39.54,-4.38,-0.11,73.73,3.08,0.08,-6.59
-6,-6,32,7,-324,3916,-0.05,-0.07,-0.04,0.07,-3.24,39.16,-4.40,-0.11,73.73,3.04,0.21,-6.90
-8,-9,37,-77,-359,3913,-0.09,-0.12,0.19,-0.77,-3.59,39.13,-4.41,-0.10,73.73,3.10,0.28,-6.99
-11,-14,69,10,-311,4002,-0.15,-0.19,0.59,0.10,-3.11,40.02,-4.42,-0.11,73.73,3.18,0.41,-7.33
-3,-4,51,-61,-345,3907,-0.15,-0.20,0.84,-0.61,-3.45,39.07,-4.43,-0.10,73.73,3.03,0.20,-7.23
-2,2,35,-42,-303,3905,-0.15,-0.17,0.97,-0.42,-3.03,39.05,-4.44,-0.08,73.72,3.01,0.06,-7.12
-3,0,36,-30,-324,3914,-0.15,-0.15,1.10,-0.30,-3.24,39.14,-4.44,-0.06,73.72,3.04,0.08,-7.15
-3,2,11,-10,-344,3910,-0.16,-0.12,1.05,-0.10,-3.44,39.10,-4.46,-0.06,73.71,3.05,0.03,-6.93
-3,1,5,1,-328,3934,-0.16,-0.10,0.98,0.01,-3.28,39.34,-4.48,-0.05,73.71,3.06,0.04,-6.86
-2,-3,-1,-9,-310,3908,-0.16,-0.11,0.87,-0.09,-3.10,39.08,-4.49,-0.04,73.71,3.04,0.12,-6.79
-3,-2,-2,-4,-315,3909,-0.16,-0.11,0.78,-0.04,-3.15,39.09,-4.50,-0.03,73.70,3.08,0.09,-6.76
-1,1,-4,-8,-311,3915,-0.15,-0.10,0.67,-0.08,-3.11,39.15,-4.51,-0.01,73.70,3.04,0.01,-6.73
0,2,-4,-16,-315,3914,-0.13,-0.07,0.58,-0.16,-3.15,39.14,-4.51,0.01,73.70,3.02,-0.03,-6.71
0,1,-3,-23,-331,3898,-0.12,-0.06,0.51,-0.23,-3.31,38.98,-4.53,0.02,73.70,3.02,-0.02,-6.70
3,0,-1,-47,-350,3970,-0.09,-0.05,0.45,-0.47,-3.50,39.70,-4.54,0.04,73.69,2.96,-0.01,-6.71
-2,-4,-3,11,-287,3918,-0.09,-0.07,0.39,0.11,-2.87,39.18,-4.52,0.03,73.69,3.05,0.08,-6.68
1,-3,-6,-1,-276,3915,-0.08,-0.08,0.31,-0.01,-2.76,39.15,-4.51,0.03,73.69,2.98,0.07,-6.64
2,1,-7,-18,-310,3920,-0.06,-0.07,0.24,-0.18,-3.10,39.20,-4.51,0.04,73.69,2.95,-0.03,-6.62
2,2,-7,-20,-321,3920,-0.04,-0.05,0.17,-0.20,-3.21,39.20,-4.52,0.06,73.69,2.95,-0.07,-6.61
0,4,-6,-8,-316,3920,-0.04,-0.02,0.12,-0.08,-3.16,39.20,-4.53,0.07,73.69,3.00,-0.12,-6.60
1,5,-6,-8,-310,3920,-0.03,0.01,0.07,-0.08,-3.10,39.20,-4.53,0.09,73.69,2.98,-0.16,-6.59
3,6,-5,-7,-312,3917,-0.01,0.05,0.03,-0.07,-3.12,39.17,-4.54,0.10,73.69,2.94,-0.20,-6.60
3,5,-4,-13,-329,3920,0.01,0.07,0.00,-0.13,-3.29,39.20,-4.56,0.10,73.69,2.95,-0.19,-6.60
1,3,-3,-17,-312,3918,0.02,0.08,-0.02,-0.17,-3.12,39.18,-4.56,0.12,73.69,2.98,-0.16,-6.60
2,4,-3,-6,-316,3920,0.03,0.10,-0.03,-0.06,-3.16,39.20,-4.58,0.11,73.69,2.97,-0.18,-6.60
-2,5,7,4,-337,3936,0.01,0.12,0.01,0.04,-3.37,39.36,-4.59,0.10,73.69,3.07,-0.20,-6.69
-4,5,11,14,-343,3886,-0.01,0.14,0.08,0.14,-3.43,38.86,-4.61,0.09,73.69,3.13,-0.20,-6.74
-7,1,25,-16,-299,3934,-0.05,0.13,0.22,-0.16,-2.99,39.34,-4.59,0.10,73.69,3.19,-0.12,-6.89
-7,0,25,-19,-296,3936,-0.09,0.12,0.35,-0.19,-2.96,39.36,-4.58,0.11,73.69,3.19,-0.11,-6.91
-13,-9,143,93,-357,3953,-0.16,0.05,1.19,0.93,-3.57,39.53,-4.58,0.10,73.68,3.33,0.11,-8.07
-9,-9,163,53,-401,3882,-0.20,-0.01,2.07,0.53,-4.01,38.82,-4.60,0.09,73.67,3.27,0.13,-8.41
12,-8,163,-133,-317,3925,-0.11,-0.06,2.85,-1.33,-3.17,39.25,-4.60,0.11,73.66,2.82,0.11,-8.56
1,13,191,12,-306,3991,-0.09,0.03,3.73,0.12,-3.06,39.91,-4.59,0.09,73.65,3.03,-0.33,-8.96
3,6,146,-85,-202,3945,-0.06,0.06,4.25,-0.85,-2.02,39.45,-4.57,0.10,73.63,2.97,-0.21,-8.68
6,13,117,-60,-253,3929,-0.02,0.14,4.54,-0.60,-2.53,39.29,-4.56,0.12,73.61,2.89,-0.38,-8.48
-4,-14,143,-64,-294,3895,-0.04,0.04,4.96,-0.64,-2.94,38.95,-4.56,0.14,73.59,3.10,0.18,-8.78
-13,-10,142,-68,-426,3936,-0.12,-0.03,5.33,-0.68,-4.26,39.36,-4.57,0.15,73.57,3.31,0.11,-8.84
-6,-10,164,-36,-275,3924,-0.14,-0.09,5.80,-0.36,-2.75,39.24,-4.56,0.16,73.55,3.17,0.12,-9.12
-7,-10,200,-15,-312,3869,-0.17,-0.14,6.44,-0.15,-3.12,38.69,-4.57,0.17,73.52,3.20,0.13,-9.54
-17,-30,276,60,-462,3960,-0.26,-0.31,7.48,0.60,-4.62,39.60,-4.59,0.17,73.49,3.44,0.58,-10.38
-18,-2,260,103,-443,4051,-0.34,-0.29,8.31,1.03,-4.43,40.51,-4.60,0.16,73.46,3.50,0.02,-10.40
-1,-4,260,70,-270,3871,-0.31,-0.28,9.07,0.70,-2.70,38.71,-4.59,0.14,73.42,3.14,0.07,-10.54
-2,-4,256,20,-326,3928,-0.29,-0.28,9.72,0.20,-3.26,39.28,-4.60,0.13,73.38,3.16,0.07,-10.63
-6,3,271,65,-420,3906,-0.30,-0.23,10.40,0.65,-4.20,39.06,-4.62,0.12,73.34,3.25,-0.08,-10.89
-11,-1,303,55,-344,3861,-0.34,-0.22,11.21,0.55,-3.44,38.61,-4.63,0.11,73.30,3.37,0.01,-11.31
2,-2,376,51,-414,4006,-0.29,-0.21,12.38,0.51,-4.14,40.06,-4.64,0.10,73.25,3.10,0.03,-12.14
-13,-3,395,53,-466,3872,-0.34,-0.21,13.56,0.53,-4.66,38.72,-4.66,0.10,73.19,3.43,0.05,-12.52
-5,-1,464,41,-447,3940,-0.34,-0.19,15.03,0.41,-4.47,39.40,-4.68,0.09,73.13,3.28,0.01,-13.39
0,0,483,59,-454,3948,-0.30,-0.17,16.47,0.59,-4.54,39.48,-4.70,0.09,73.07,3.18,-0.01,-13.82
1,15,583,82,-415,3978,-0.27,-0.06,18.38,0.82,-4.15,39.78,-4.71,0.08,73.00,3.16,-0.34,-15.02
-12,-15,594,91,-383,3917,-0.31,-0.15,20.17,0.91,-3.83,39.17,-4.72,0.07,72.92,3.45,0.30,-15.45
-15,-8,578,-201,-195,3872,-0.37,-0.18,21.68,-2.01,-1.95,38.72,-4.71,0.09,72.83,3.52,0.15,-15.59
-12,-24,552,-181,-294,3932,-0.41,-0.31,22.88,-1.81,-2.94,39.32,-4.71,0.12,72.74,3.47,0.49,-15.59
-41,-31,407,-178,-280,3930,-0.62,-0.47,23.07,-1.78,-2.80,39.30,-4.71,0.14,72.65,4.11,0.66,-14.40
-19,-26,353,-173,-305,3940,-0.67,-0.58,22.92,-1.73,-3.05,39.40,-4.71,0.17,72.55,3.68,0.58,-13.90
2,6,331,-79,-406,3867,-0.59,-0.49,22.64,-0.79,-4.06,38.67,-4.73,0.18,72.46,3.24,-0.11,-13.65
-11,4,331,-95,-454,3832,-0.60,-0.41,22.40,-0.95,-4.54,38.32,-4.74,0.20,72.37,3.52,-0.10,-13.60
-6,3,328,-127,-356,3926,-0.58,-0.35,22.16,-1.27,-3.56,39.26,-4.75,0.22,72.29,3.42,-0.11,-13.52
1,4,333,-81,-462,3890,-0.51,-0.29,21.98,-0.81,-4.62,38.90,-4.77,0.24,72.20,3.27,-0.16,-13.52
-6,6,338,-65,-259,3922,-0.50,-0.23,21.84,-0.65,-2.59,39.22,-4.76,0.25,72.11,3.40,-0.23,-13.53
9,9,320,-126,-249,3946,-0.39,-0.15,21.61,-1.26,-2.49,39.46,-4.75,0.27,72.02,3.06,-0.32,-13.32
-28,-2,245,-30,-126,3787,-0.53,-0.15,20.94,-0.30,-1.26,37.87,-4.73,0.28,71.94,3.83,-0.10,-12.55
-27,-15,228,39,-55,3950,-0.64,-0.22,20.24,0.39,-0.55,39.50,-4.71,0.28,71.86,3.83,0.18,-12.27
-11,-6,109,41,-130,3913,-0.64,-0.24,18.88,0.41,-1.30,39.13,-4.70,0.28,71.78,3.50,0.00,-10.99
-12,-14,76,59,-142,3943,-0.65,-0.30,17.45,0.59,-1.42,39.43,-4.68,0.28,71.71,3.51,0.18,-10.43
-25,-14,82,-29,-351,3911,-0.74,-0.36,16.21,-0.29,-3.51,39.11,-4.70,0.29,71.65,3.81,0.19,-10.24
-21,-13,100,-40,-360,3934,-0.79,-0.40,15.20,-0.40,-3.60,39.34,-4.72,0.30,71.59,3.76,0.17,-10.19
-15,-11,199,-14,-383,3898,-0.80,-0.43,14.89,-0.14,-3.83,38.98,-4.74,0.30,71.53,3.66,0.14,-10.97
-9,-7,239,31,-382,3912,-0.78,-0.43,14.86,0.31,-3.82,39.12,-4.76,0.29,71.47,3.54,0.06,-11.30
-25,-18,268,-19,-333,3914,-0.85,-0.49,15.01,-0.19,-3.33,39.14,-4.78,0.29,71.41,3.90,0.31,-11.57
-30,-23,234,11,-334,3975,-0.95,-0.58,14.94,0.11,-3.34,39.75,-4.79,0.28,71.35,4.03,0.44,-11.26
-13,-11,139,14,-247,3951,-0.94,-0.59,14.29,0.14,-2.47,39.51,-4.77,0.27,71.29,3.67,0.20,-10.33
-12,-6,123,45,-285,3887,-0.91,-0.57,13.61,0.45,-2.85,38.87,-4.77,0.26,71.24,3.64,0.11,-10.06
-9,-4,142,83,-343,4008,-0.88,-0.54,13.12,0.83,-3.43,40.08,-4.77,0.24,71.19,3.57,0.07,-10.12
-11,-8,151,31,-360,3913,-0.86,-0.53,12.73,0.31,-3.60,39.13,-4.78,0.23,71.14,3.62,0.15,-10.11
-8,7,204,46,-377,3887,-0.82,-0.44,12.70,0.46,-3.77,38.87,-4.80,0.22,71.09,3.55,-0.17,-10.55
-3,2,227,74,-445,3961,-0.76,-0.38,12.81,0.74,-4.45,39.61,-4.82,0.21,71.03,3.45,-0.08,-10.76
-3,6,314,108,-426,3897,-0.70,-0.31,13.45,1.08,-4.26,38.97,-4.83,0.20,70.98,3.44,-0.17,-11.62
-26,2,348,137,-447,3850,-0.79,-0.26,14.23,1.37,-4.47,38.50,-4.85,0.19,70.92,3.94,-0.09,-12.05
-20,-2,413,92,-408,3925,-0.83,-0.25,15.32,0.92,-4.08,39.25,-4.86,0.18,70.86,3.84,-0.01,-12.80
-7,-5,429,92,-342,3963,-0.79,-0.25,16.41,0.92,-3.42,39.63,-4.86,0.17,70.80,3.57,0.06,-13.14
10,26,471,154,-383,3956,-0.65,-0.07,17.64,1.54,-3.83,39.56,-4.87,0.15,70.73,3.19,-0.61,-13.73
17,36,505,180,-420,3878,-0.48,0.16,18.96,1.80,-4.20,38.78,-4.88,0.14,70.65,3.01,-0.87,-14.26
45,71,574,-31,-278,3881,-0.16,0.57,20.56,-0.31,-2.78,38.81,-4.86,0.16,70.57,2.34,-1.71,-15.14
70,78,550,-90,-174,3962,0.28,0.99,21.86,-0.90,-1.74,39.62,-4.85,0.18,70.48,1.70,-1.97,-15.18
80,92,530,-174,-134,3952,0.74,1.45,22.91,-1.74,-1.34,39.52,-4.83,0.20,70.39,1.36,-2.40,-15.20
28,46,502,-161,-186,3836,0.84,1.59,23.68,-1.61,-1.86,38.36,-4.81,0.23,70.30,2.38,-1.52,-15.11
-3,15,476,-55,-288,3932,0.74,1.52,24.21,-0.55,-2.88,39.32,-4.79,0.26,70.20,3.02,-0.89,-14.98
4,9,470,8,-264,3959,0.69,1.42,24.66,0.08,-2.64,39.59,-4.77,0.27,70.10,2.88,-0.75,-15.00
-4,9,445,73,-233,3875,0.59,1.34,24.91,0.73,-2.33,38.75,-4.76,0.27,70.01,3.06,-0.72,-14.83
-3,0,461,27,-259,3893,0.52,1.20,25.23,0.27,-2.59,38.93,-4.74,0.27,69.90,3.05,-0.51,-15.02
-1,13,465,-60,-336,3870,0.46,1.16,25.54,-0.60,-3.36,38.70,-4.74,0.30,69.80,3.03,-0.78,-15.10
-17,-1,467,-84,-331,3884,0.31,1.04,25.84,-0.84,-3.31,38.84,-4.75,0.33,69.70,3.39,-0.48,-15.17
-11,28,518,-112,-451,3873,0.21,1.11,26.41,-1.12,-4.51,38.73,-4.76,0.35,69.60,3.31,-1.10,-15.70
-2,20,501,-137,-333,3923,0.18,1.12,26.83,-1.37,-3.33,39.23,-4.76,0.39,69.49,3.13,-0.97,-15.63
-2,5,455,-151,-347,4006,0.15,1.04,26.92,-1.51,-3.47,40.06,-4.76,0.42,69.38,3.14,-0.66,-15.24
-12,2,423,-114,-326,3896,0.06,0.95,26.81,-1.14,-3.26,38.96,-4.76,0.45,69.28,3.37,-0.59,-14.94
-8,1,316,-101,-273,3886,0.01,0.86,26.06,-1.01,-2.73,38.86,-4.75,0.48,69.17,3.29,-0.57,-13.88
-9,-5,295,-58,-274,3924,-0.05,0.74,25.25,-0.58,-2.74,39.24,-4.73,0.49,69.07,3.32,-0.43,-13.54
-11,-8,235,-2,-322,3964,-0.11,0.62,24.16,-0.02,-3.22,39.64,-4.73,0.49,68.98,3.37,-0.33,-12.82
-14,-14,225,2,-334,3908,-0.19,0.47,23.12,0.02,-3.34,39.08,-4.73,0.48,68.88,3.46,-0.16,-12.52
-4,-7,244,69,-376,3901,-0.19,0.38,22.29,0.69,-3.76,39.01,-4.74,0.47,68.80,3.26,-0.27,-12.52
-17,-5,261,81,-382,3909,-0.28,0.31,21.65,0.81,-3.82,39.09,-4.75,0.46,68.71,3.56,-0.29,-12.53
-17,-12,339,52,-371,3953,-0.35,0.21,21.56,0.52,-3.71,39.53,-4.76,0.46,68.62,3.58,-0.11,-13.17
-36,-15,367,25,-327,3934,-0.54,0.10,21.64,0.25,-3.27,39.34,-4.76,0.44,68.54,4.02,-0.01,-13.41
-41,-26,499,90,-470,4038,-0.73,-0.07,22.52,0.90,-4.70,40.38,-4.78,0.44,68.45,4.19,0.26,-14.69
-51,-36,519,-70,-346,3900,-0.97,-0.28,23.43,-0.70,-3.46,39.00,-4.79,0.46,68.35,4.46,0.50,-15.03
-67,-54,576,-70,-367,3940,-1.28,-0.59,24.60,-0.70,-3.67,39.40,-4.80,0.48,68.26,4.88,0.94,-15.73
-47,-37,590,14,-326,3956,-1.44,-0.75,25.74,0.14,-3.26,39.56,-4.81,0.47,68.15,4.52,0.65,-16.05
-21,-7,609,-122,-317,3831,-1.43,-0.72,26.88,-1.22,-3.17,38.31,-4.81,0.49,68.05,3.99,0.01,-16.42
-16,-3,615,-136,-313,3973,-1.38,-0.67,27.95,-1.36,-3.13,39.73,-4.81,0.52,67.93,3.88,-0.10,-16.67
-16,5,647,-69,-177,3937,-1.34,-0.57,29.10,-0.69,-1.77,39.37,-4.80,0.53,67.82,3.86,-0.30,-17.15
-22,-7,646,-90,-222,3858,-1.34,-0.56,30.13,-0.90,-2.22,38.58,-4.79,0.55,67.70,3.97,-0.07,-17.32
-2,6,570,-88,-371,3990,-1.22,-0.46,30.59,-0.88,-3.71,39.90,-4.80,0.57,67.57,3.54,-0.37,-16.76
-7,3,569,-83,-422,3945,-1.14,-0.40,31.00,-0.83,-4.22,39.45,-4.82,0.59,67.45,3.63,-0.34,-16.82
-9,-4,672,-40,-457,3931,-1.08,-0.38,32.00,-0.40,-4.57,39.31,-4.84,0.59,67.32,3.67,-0.21,-17.87
-20,-5,681,-46,-437,3929,-1.09,-0.38,32.96,-0.46,-4.37,39.29,-4.86,0.61,67.19,3.91,-0.20,-18.12
-20,-2,729,-83,-287,3888,-1.11,-0.35,34.11,-0.83,-2.87,38.88,-4.85,0.63,67.06,3.91,-0.28,-18.73
-14,21,716,-134,-215,4017,-1.08,-0.19,35.07,-1.34,-2.15,40.17,-4.84,0.65,66.92,3.77,-0.80,-18.79
-11,23,598,102,-218,3913,-1.04,-0.03,35.21,1.02,-2.18,39.13,-4.83,0.65,66.78,3.70,-0.89,-17.80
-6,12,572,116,-216,3962,-0.97,0.05,35.18,1.16,-2.16,39.62,-4.82,0.64,66.64,3.57,-0.68,-17.57
-14,-4,506,38,-299,3901,-0.96,0.02,34.74,0.38,-2.99,39.01,-4.82,0.64,66.50,3.73,-0.35,-16.91
-12,4,497,-17,-334,3945,-0.94,0.04,34.30,-0.17,-3.34,39.45,-4.82,0.63,66.36,3.68,-0.51,-16.74
-21,-3,466,-103,-270,3951,-0.97,0.02,33.71,-1.03,-2.70,39.51,-4.81,0.66,66.23,3.87,-0.38,-16.35
-20,-2,486,-110,-236,3837,-1.00,0.00,33.31,-1.10,-2.36,38.37,-4.80,0.68,66.09,3.85,-0.41,-16.43
-8,22,493,-133,-377,3889,-0.95,0.14,32.98,-1.33,-3.77,38.89,-4.81,0.71,65.96,3.60,-0.95,-16.42
-3,6,494,-187,-286,3961,-0.87,0.16,32.70,-1.87,-2.86,39.61,-4.81,0.73,65.83,3.47,-0.65,-16.36
-9,3,477,-128,-430,3929,-0.84,0.16,32.34,-1.28,-4.30,39.29,-4.82,0.76,65.70,3.59,-0.61,-16.13
-7,7,456,-99,-388,3918,-0.80,0.19,31.89,-0.99,-3.88,39.18,-4.84,0.78,65.58,3.55,-0.71,-15.86
-5,3,411,-20,-350,3940,-0.75,0.19,31.20,-0.20,-3.50,39.40,-4.85,0.78,65.45,3.50,-0.62,-15.34
-8,13,409,-7,-345,3865,-0.72,0.25,30.58,-0.07,-3.45,38.65,-4.85,0.77,65.33,3.56,-0.84,-15.19
0,18,454,8,-333,3981,-0.65,0.33,30.29,0.08,-3.33,39.81,-4.85,0.76,65.21,3.38,-0.96,-15.50
-14,19,453,-40,-336,3907,-0.67,0.42,30.02,-0.40,-3.36,39.07,-4.86,0.76,65.09,3.68,-1.00,-15.43
14,18,502,-20,-372,3876,-0.52,0.48,30.08,-0.20,-3.72,38.76,-4.88,0.76,64.97,3.07,-1.00,-15.85
8,22,534,20,-446,3972,-0.42,0.57,30.33,0.20,-4.46,39.72,-4.89,0.76,64.85,3.18,-1.11,-16.16
-2,30,613,-18,-370,3973,-0.39,0.70,31.04,-0.18,-3.70,39.73,-4.90,0.76,64.73,3.38,-1.30,-16.95
1,25,627,-59,-243,3987,-0.34,0.78,31.76,-0.59,-2.43,39.87,-4.88,0.78,64.60,3.30,-1.23,-17.20
1,11,661,43,-358,3978,-0.30,0.77,32.62,0.43,-3.58,39.78,-4.89,0.77,64.47,3.29,-0.94,-17.64
-7,4,664,72,-341,3930,-0.31,0.72,33.41,0.72,-3.41,39.30,-4.89,0.77,64.34,3.45,-0.78,-17.80
-20,7,717,24,-361,4003,-0.41,0.69,34.44,0.24,-3.61,40.03,-4.89,0.76,64.20,3.75,-0.83,-18.43
-22,-2,752,-11,-294,3846,-0.50,0.61,35.58,-0.11,-2.94,38.46,-4.88,0.76,64.06,3.80,-0.63,-18.94
-3,15,817,-97,-304,3958,-0.47,0.64,37.01,-0.97,-3.04,39.58,-4.87,0.79,63.91,3.40,-1.00,-19.75
-18,4,796,-16,-273,3909,-0.53,0.60,38.16,-0.16,-2.73,39.09,-4.85,0.80,63.76,3.71,-0.77,-19.78
-7,10,713,-113,-226,3909,-0.52,0.60,38.70,-1.13,-2.26,39.09,-4.84,0.82,63.60,3.48,-0.91,-19.16
-18,3,726,-91,-231,3880,-0.58,0.56,39.25,-0.91,-2.31,38.80,-4.82,0.85,63.45,3.70,-0.77,-19.36
-15,-5,710,44,-312,3960,-0.61,0.47,39.66,0.44,-3.12,39.60,-4.82,0.84,63.29,3.65,-0.58,-19.29
4,-2,689,-11,-393,3896,-0.53,0.41,39.90,-0.11,-3.93,38.96,-4.83,0.85,63.13,3.25,-0.63,-19.14
-11,-5,654,18,-431,3958,-0.54,0.34,39.90,0.18,-4.31,39.58,-4.84,0.85,62.97,3.57,-0.55,-18.83
-6,5,622,34,-409,3956,-0.52,0.34,39.70,0.34,-4.09,39.56,-4.86,0.85,62.81,3.47,-0.76,-18.51
-9,10,590,26,-285,3847,-0.53,0.36,39.33,0.26,-2.85,38.47,-4.85,0.85,62.66,3.53,-0.86,-18.15
-18,5,598,48,-247,3890,-0.58,0.36,39.04,0.48,-2.47,38.90,-4.84,0.85,62.50,3.72,-0.76,-18.15
-18,3,643,27,-335,3886,-0.63,0.34,39.06,0.27,-3.35,38.86,-4.84,0.85,62.35,3.73,-0.71,-18.52
-18,4,641,20,-310,3968,-0.68,0.33,39.07,0.20,-3.10,39.68,-4.83,0.84,62.19,3.74,-0.73,-18.49
-7,21,588,-111,-315,3917,-0.66,0.43,38.75,-1.11,-3.15,39.17,-4.83,0.88,62.04,3.51,-1.12,-17.97
-3,11,588,-1,-290,3876,-0.61,0.45,38.46,-0.01,-2.90,38.76,-4.82,0.87,61.88,3.41,-0.92,-17.90
-15,5,535,-67,-523,4012,-0.64,0.44,37.88,-0.67,-5.23,40.12,-4.84,0.89,61.73,3.67,-0.81,-17.33
-17,14,480,-110,-474,3890,-0.68,0.48,37.02,-1.10,-4.74,38.90,-4.85,0.91,61.59,3.73,-1.02,-16.68
-12,3,362,-70,-307,3891,-0.68,0.45,35.52,-0.70,-3.07,38.91,-4.84,0.93,61.44,3.62,-0.80,-15.39
-13,4,349,-83,-277,3877,-0.69,0.43,34.10,-0.83,-2.77,38.77,-4.82,0.95,61.31,3.64,-0.82,-14.99
-4,13,304,-157,-402,4005,-0.65,0.46,32.54,-1.57,-4.02,40.05,-4.83,0.98,61.18,3.45,-1.04,-14.30
4,10,289,-72,-424,3936,-0.56,0.48,31.05,-0.72,-4.24,39.36,-4.85,0.99,61.05,3.27,-0.99,-13.88
-8,4,389,-75,-374,3891,-0.55,0.46,30.32,-0.75,-3.74,38.91,-4.87,1.01,60.93,3.53,-0.87,-14.57
-16,-4,424,-48,-380,3878,-0.60,0.39,29.87,-0.48,-3.80,38.78,-4.89,1.01,60.82,3.71,-0.69,-14.78
-18,11,498,-24,-500,3931,-0.65,0.41,29.93,-0.24,-5.00,39.31,-4.90,1.02,60.70,3.78,-1.01,-15.40
-7,14,522,-68,-386,3957,-0.62,0.46,30.12,-0.68,-3.86,39.57,-4.92,1.03,60.58,3.56,-1.09,-15.63
-12,18,544,-91,-394,3880,-0.63,0.52,30.42,-0.91,-3.94,38.80,-4.94,1.05,60.46,3.68,-1.20,-15.86
-7,17,523,-124,-344,3936,-0.61,0.57,30.57,-1.24,-3.44,39.36,-4.94,1.08,60.33,3.57,-1.21,-15.70
-2,19,500,-121,-229,3906,-0.56,0.63,30.56,-1.21,-2.29,39.06,-4.92,1.10,60.21,3.44,-1.28,-15.50
3,13,507,-57,-245,3873,-0.49,0.65,30.60,-0.57,-2.45,38.73,-4.91,1.11,60.09,3.31,-1.17,-15.55
-5,8,514,-6,-308,3936,-0.47,0.63,30.68,-0.06,-3.08,39.36,-4.90,1.10,59.97,3.46,-1.06,-15.61
1,15,500,5,-345,3991,-0.42,0.66,30.66,0.05,-3.45,39.91,-4.90,1.10,59.85,3.33,-1.21,-15.48
-20,3,468,8,-365,3895,-0.50,0.61,30.45,0.08,-3.65,38.95,-4.90,1.09,59.73,3.78,-0.95,-15.16
-9,-2,468,64,-382,3920,-0.50,0.54,30.26,0.64,-3.82,39.20,-4.91,1.09,59.61,3.56,-0.83,-15.11
-8,4,426,37,-294,3942,-0.50,0.51,29.83,0.37,-2.94,39.42,-4.90,1.09,59.49,3.54,-0.94,-14.66
-16,-5,430,139,-230,3850,-0.55,0.43,29.47,1.39,-2.30,38.50,-4.90,1.08,59.37,3.71,-0.73,-14.62
-3,-1,426,107,-242,3866,-0.51,0.38,29.12,1.07,-2.42,38.66,-4.89,1.08,59.25,3.43,-0.79,-14.51
-14,3,419,30,-270,3969,-0.55,0.36,28.77,0.30,-2.70,39.69,-4.88,1.07,59.14,3.65,-0.87,-14.37
-3,6,397,-58,-310,3982,-0.51,0.36,28.31,-0.58,-3.10,39.82,-4.86,1.07,59.03,3.41,-0.93,-14.09
-3,4,395,-60,-343,3805,-0.48,0.35,27.89,-0.60,-3.43,38.05,-4.88,1.07,58.91,3.41,-0.89,-13.98
-4,8,394,12,-536,4028,-0.45,0.36,27.50,0.12,-5.36,40.28,-4.89,1.08,58.81,3.43,-0.97,-13.89
5,28,378,-26,-516,3910,-0.38,0.50,27.06,-0.26,-5.16,39.10,-4.91,1.08,58.70,3.24,-1.42,-13.66
-8,5,393,-193,-573,3879,-0.39,0.48,26.75,-1.93,-5.73,38.79,-4.93,1.10,58.59,3.52,-0.96,-13.72
-18,-3,399,-225,-555,3926,-0.46,0.41,26.51,-2.25,-5.55,39.26,-4.94,1.12,58.49,3.75,-0.79,-13.71
-11,7,418,-110,-403,3943,-0.48,0.41,26.41,-1.10,-4.03,39.43,-4.96,1.14,58.38,3.63,-1.01,-13.84
-14,5,410,-163,-313,3966,-0.52,0.40,26.27,-1.63,-3.13,39.66,-4.95,1.17,58.28,3.69,-0.98,-13.74
-3,30,436,-1,-182,3863,-0.49,0.55,26.30,-0.01,-1.82,38.63,-4.93,1.17,58.17,3.45,-1.53,-13.96
-5,14,444,56,-171,3918,-0.47,0.58,26.38,0.56,-1.71,39.18,-4.92,1.17,58.07,3.48,-1.22,-14.03
0,7,434,29,-53,3979,-0.42,0.56,26.39,0.29,-0.53,39.79,-4.90,1.18,57.96,3.35,-1.07,-13.94
5,18,402,4,-99,3942,-0.35,0.61,26.20,0.04,-0.99,39.42,-4.88,1.18,57.86,3.22,-1.32,-13.62
-4,4,271,-123,-173,3956,-0.34,0.58,25.24,-1.23,-1.73,39.56,-4.87,1.20,57.76,3.38,-1.03,-12.32
2,3,257,-2,-191,3862,-0.29,0.54,24.28,-0.02,-1.91,38.62,-4.85,1.20,57.66,3.24,-1.00,-12.01
-5,-4,203,24,-249,3963,-0.29,0.46,23.09,0.24,-2.49,39.63,-4.84,1.20,57.57,3.37,-0.83,-11.31
-7,-2,194,-33,-272,3928,-0.31,0.40,21.96,-0.33,-2.72,39.28,-4.82,1.19,57.48,3.41,-0.86,-11.01
-6,-3,211,-17,-294,3916,-0.31,0.34,21.05,-0.17,-2.94,39.16,-4.81,1.19,57.40,3.38,-0.82,-10.98
-5,11,258,-34,-258,3985,-0.31,0.38,20.52,-0.34,-2.58,39.85,-4.80,1.19,57.31,3.35,-1.11,-11.27
-2,22,466,93,-224,3827,-0.29,0.47,21.31,0.93,-2.24,38.27,-4.79,1.18,57.23,3.28,-1.35,-13.17
2,10,513,-17,-337,3832,-0.25,0.49,22.31,-0.17,-3.37,38.32,-4.79,1.17,57.14,3.19,-1.11,-13.75
0,27,625,-21,-469,3878,-0.23,0.60,23.89,-0.21,-4.69,38.78,-4.81,1.17,57.04,3.23,-1.49,-15.00
-17,17,645,-12,-544,3935,-0.31,0.65,25.44,-0.12,-5.44,39.35,-4.82,1.18,56.94,3.61,-1.30,-15.45
-23,15,671,1,-558,3892,-0.42,0.67,26.99,0.01,-5.58,38.92,-4.84,1.18,56.84,3.78,-1.27,-15.96
17,20,661,-90,-615,3875,-0.27,0.73,28.32,-0.90,-6.15,38.75,-4.86,1.20,56.72,2.93,-1.40,-16.12
-11,3,618,-8,-541,3989,-0.31,0.67,29.26,-0.08,-5.41,39.89,-4.87,1.20,56.61,3.52,-1.04,-15.92
8,11,598,-25,-453,3915,-0.23,0.67,29.98,-0.25,-4.53,39.15,-4.89,1.21,56.49,3.13,-1.20,-15.88
-3,-4,519,42,-496,3867,-0.23,0.58,30.15,0.42,-4.96,38.67,-4.90,1.21,56.37,3.36,-0.88,-15.23
8,-5,470,25,-554,3958,-0.16,0.49,30.00,0.25,-5.54,39.58,-4.92,1.21,56.25,3.12,-0.83,-14.78
-3,-8,362,-78,-405,3976,-0.16,0.39,29.21,-0.78,-4.05,39.76,-4.93,1.22,56.14,3.36,-0.75,-13.70
-14,-15,336,-24,-349,3927,-0.23,0.26,28.34,-0.24,-3.49,39.27,-4.93,1.22,56.02,3.60,-0.57,-13.30
-6,-3,264,-4,-262,3868,-0.24,0.22,27.11,-0.04,-2.62,38.68,-4.92,1.21,55.91,3.43,-0.80,-12.45
-3,-3,252,-29,-270,3959,-0.24,0.18,25.94,-0.29,-2.70,39.59,-4.90,1.21,55.81,3.36,-0.79,-12.12
3,5,191,-89,-202,3928,-0.19,0.19,24.51,-0.89,-2.02,39.28,-4.88,1.22,55.71,3.22,-0.96,-11.32
-5,0,182,-86,-250,3874,-0.20,0.17,23.17,-0.86,-2.50,38.74,-4.86,1.23,55.62,3.37,-0.86,-10.98
-14,-2,209,-83,-322,3974,-0.27,0.14,22.13,-0.83,-3.22,39.74,-4.85,1.24,55.53,3.56,-0.81,-11.00
2,-1,217,-44,-399,3989,-0.23,0.12,21.24,-0.44,-3.99,39.89,-4.86,1.23,55.45,3.23,-0.83,-10.89
5,6,221,-119,-469,4016,-0.18,0.15,20.46,-1.19,-4.69,40.16,-4.88,1.24,55.37,3.17,-0.98,-10.77
6,-5,237,-85,-453,3781,-0.12,0.10,19.86,-0.85,-4.53,37.81,-4.89,1.25,55.29,3.14,-0.75,-10.78
-10,-4,261,-7,-436,3900,-0.17,0.07,19.47,-0.07,-4.36,39.00,-4.91,1.25,55.21,3.49,-0.76,-10.90
-6,-1,273,-25,-375,3928,-0.19,0.05,19.19,-0.25,-3.75,39.28,-4.92,1.24,55.13,3.42,-0.81,-10.94
-12,-2,274,-64,-433,3933,-0.24,0.04,18.94,-0.64,-4.33,39.33,-4.93,1.24,55.06,3.57,-0.79,-10.90
-4,-2,268,-89,-380,3899,-0.24,0.02,18.68,-0.89,-3.80,38.99,-4.95,1.25,54.98,3.42,-0.79,-10.79
-9,-4,236,-100,-291,3885,-0.28,-0.01,18.25,-1.00,-2.91,38.85,-4.93,1.26,54.91,3.51,-0.75,-10.43
-8,-5,228,-136,-288,3956,-0.30,-0.04,17.82,-1.36,-2.88,39.56,-4.92,1.28,54.84,3.49,-0.73,-10.27
-10,3,238,-35,-206,3880,-0.33,-0.01,17.49,-0.35,-2.06,38.80,-4.90,1.28,54.77,3.53,-0.90,-10.29
-6,-3,247,-11,-227,3918,-0.33,-0.03,17.25,-0.11,-2.27,39.18,-4.89,1.27,54.70,3.44,-0.77,-10.31
-1,10,230,9,-228,3989,-0.30,0.03,16.92,0.09,-2.28,39.89,-4.87,1.27,54.63,3.32,-1.05,-10.10
3,0,224,-84,-279,3827,-0.26,0.03,16.60,-0.84,-2.79,38.27,-4.85,1.27,54.57,3.21,-0.85,-9.98
1,2,157,-76,-147,3923,-0.22,0.04,15.90,-0.76,-1.47,39.23,-4.83,1.28,54.50,3.23,-0.90,-9.27
-1,2,130,-82,-233,3982,-0.21,0.05,15.10,-0.82,-2.33,39.82,-4.82,1.28,54.44,3.26,-0.90,-8.89
-10,-9,192,-146,-399,3897,-0.25,-0.01,14.76,-1.46,-3.99,38.97,-4.83,1.30,54.38,3.46,-0.67,-9.34
0,0,213,-115,-417,3891,-0.22,-0.01,14.58,-1.15,-4.17,38.91,-4.85,1.31,54.33,3.26,-0.86,-9.48
-4,2,302,16,-482,3843,-0.23,0.00,14.97,0.16,-4.82,38.43,-4.86,1.30,54.27,3.35,-0.90,-10.30
-5,0,359,4,-452,3940,-0.23,0.00,15.66,0.04,-4.52,39.40,-4.88,1.30,54.20,3.38,-0.86,-10.91
-4,10,586,-68,-441,3865,-0.23,0.06,17.67,-0.68,-4.41,38.65,-4.89,1.30,54.13,3.37,-1.08,-13.21
2,16,648,-176,-477,3924,-0.20,0.15,19.86,-1.76,-4.77,39.24,-4.91,1.32,54.06,3.25,-1.24,-14.15
-6,22,849,-131,-648,3984,-0.22,0.27,23.05,-1.31,-6.48,39.84,-4.92,1.33,53.96,3.43,-1.40,-16.45
-6,19,901,-168,-593,3875,-0.23,0.36,26.24,-1.68,-5.93,38.75,-4.94,1.34,53.86,3.45,-1.37,-17.50
-4,28,905,-123,-431,3847,-0.23,0.50,29.14,-1.23,-4.31,38.47,-4.96,1.36,53.74,3.42,-1.60,-18.07
21,38,898,-59,-365,3802,-0.08,0.68,31.70,-0.59,-3.65,38.02,-4.97,1.36,53.62,2.87,-1.86,-18.49
2,26,778,181,-285,3930,-0.06,0.77,33.28,1.81,-2.85,39.30,-4.96,1.36,53.49,3.25,-1.64,-17.76
-18,6,735,207,-286,3953,-0.16,0.73,34.43,2.07,-2.86,39.53,-4.95,1.36,53.35,3.68,-1.22,-17.61
-11,4,615,81,-130,3872,-0.21,0.68,34.74,0.81,-1.30,38.72,-4.94,1.36,53.21,3.54,-1.16,-16.64
-1,10,578,69,-145,3905,-0.20,0.67,34.79,0.69,-1.45,39.05,-4.92,1.36,53.07,3.32,-1.29,-16.32
-1,3,477,35,-213,3947,-0.19,0.62,34.22,0.35,-2.13,39.47,-4.91,1.36,52.94,3.31,-1.13,-15.35
-17,-4,463,73,-251,3921,-0.27,0.54,33.62,0.73,-2.51,39.21,-4.90,1.36,52.80,3.65,-0.96,-15.10
-10,-7,392,-36,-226,3906,-0.30,0.44,32.65,-0.36,-2.26,39.06,-4.88,1.37,52.67,3.51,-0.88,-14.30
-12,0,348,-86,-259,3921,-0.35,0.40,31.51,-0.86,-2.59,39.21,-4.86,1.38,52.54,3.54,-1.02,-13.70
-4,-2,271,-107,-244,3865,-0.34,0.35,30.01,-1.07,-2.44,38.65,-4.84,1.39,52.42,3.37,-0.97,-12.75
-5,-3,250,-109,-279,3938,-0.33,0.29,28.54,-1.09,-2.79,39.38,-4.82,1.41,52.31,3.37,-0.95,-12.28
-6,2,176,-156,-242,3901,-0.34,0.28,26.76,-1.56,-2.42,39.01,-4.80,1.43,52.20,3.38,-1.06,-11.30
-7,8,151,-170,-279,3947,-0.35,0.30,25.00,-1.70,-2.79,39.47,-4.79,1.45,52.10,3.40,-1.20,-10.75
2,5,63,-83,-188,3916,-0.30,0.30,22.89,-0.83,-1.88,39.16,-4.77,1.46,52.01,3.19,-1.14,-9.59
5,6,37,-64,-173,3947,-0.24,0.30,20.82,-0.64,-1.73,39.47,-4.75,1.46,51.93,3.10,-1.17,-8.97
-2,1,11,-53,-285,3930,-0.23,0.28,18.81,-0.53,-2.85,39.30,-4.74,1.46,51.85,3.23,-1.06,-8.35
2,2,9,-52,-327,3935,-0.19,0.26,16.98,-0.52,-3.27,39.35,-4.74,1.44,51.79,3.14,-1.07,-7.98
-1,5,13,-55,-351,3936,-0.18,0.27,15.36,-0.55,-3.51,39.36,-4.75,1.43,51.73,3.20,-1.12,-7.70
-4,2,21,-45,-371,3936,-0.19,0.25,13.95,-0.45,-3.71,39.36,-4.76,1.42,51.67,3.27,-1.05,-7.50
-8,1,26,-48,-357,3913,-0.22,0.23,12.72,-0.48,-3.57,39.13,-4.77,1.41,51.62,3.37,-1.02,-7.30
-8,2,26,-42,-352,3918,-0.24,0.22,11.60,-0.42,-3.52,39.18,-4.77,1.40,51.57,3.38,-1.03,-7.08
17,4,116,-8,-323,3878,-0.12,0.23,11.15,-0.08,-3.23,38.78,-4.77,1.39,51.53,2.84,-1.06,-7.75
4,0,146,16,-357,3922,-0.08,0.20,10.93,0.16,-3.57,39.22,-4.78,1.38,51.49,3.09,-0.96,-7.96
2,10,120,-101,-353,3952,-0.06,0.24,10.57,-1.01,-3.53,39.52,-4.79,1.38,51.44,3.14,-1.18,-7.67
0,8,98,-89,-333,3933,-0.05,0.27,10.11,-0.89,-3.33,39.33,-4.80,1.37,51.40,3.18,-1.14,-7.39
-4,-1,70,-27,-331,3917,-0.07,0.23,9.52,-0.27,-3.31,39.17,-4.80,1.36,51.37,3.27,-0.94,-7.04
-1,0,73,-20,-336,3917,-0.07,0.21,9.02,-0.20,-3.36,39.17,-4.80,1.34,51.33,3.21,-0.94,-6.96
1,6,131,-49,-330,3898,-0.06,0.23,8.91,-0.49,-3.30,38.98,-4.80,1.33,51.29,3.17,-1.06,-7.43
-1,4,219,53,-390,3861,-0.06,0.23,9.36,0.53,-3.90,38.61,-4.81,1.32,51.26,3.21,-1.01,-8.26
0,2,300,-48,-357,3874,-0.05,0.22,10.25,-0.48,-3.57,38.74,-4.82,1.31,51.22,3.20,-0.96,-9.11
-13,1,315,-19,-401,3917,-0.13,0.20,11.15,-0.19,-4.01,39.17,-4.83,1.30,51.17,3.49,-0.93,-9.41
-5,12,377,-33,-469,3917,-0.14,0.26,12.33,-0.33,-4.69,39.17,-4.85,1.30,51.12,3.34,-1.17,-10.15
-3,7,402,39,-515,3924,-0.15,0.27,13.55,0.39,-5.15,39.24,-4.86,1.29,51.07,3.31,-1.07,-10.59
-7,8,449,-113,-422,3953,-0.18,0.29,14.94,-1.13,-4.22,39.53,-4.88,1.30,51.01,3.41,-1.10,-11.25
3,12,446,-92,-382,3872,-0.14,0.34,16.16,-0.92,-3.82,38.72,-4.90,1.31,50.95,3.21,-1.20,-11.45
-2,6,479,-67,-328,3834,-0.14,0.34,17.47,-0.67,-3.28,38.34,-4.90,1.30,50.88,3.31,-1.07,-11.98
-12,2,477,23,-399,3981,-0.20,0.32,18.63,0.23,-3.99,39.81,-4.90,1.29,50.80,3.53,-0.98,-12.17
-12,15,496,-140,-377,3896,-0.25,0.38,19.79,-1.40,-3.77,38.96,-4.91,1.31,50.73,3.56,-1.28,-12.55
-12,10,502,-122,-377,3880,-0.30,0.40,20.88,-1.22,-3.77,38.80,-4.93,1.33,50.64,3.58,-1.19,-12.80
-14,0,456,98,-392,3902,-0.35,0.36,21.57,0.98,-3.92,39.02,-4.93,1.32,50.56,3.64,-0.97,-12.54
-18,-4,457,96,-414,3838,-0.43,0.30,22.20,0.96,-4.14,38.38,-4.94,1.32,50.47,3.74,-0.87,-12.66
-3,1,445,25,-408,3894,-0.40,0.28,22.70,0.25,-4.08,38.94,-4.95,1.31,50.38,3.44,-0.96,-12.64
-4,-4,449,105,-457,3927,-0.39,0.22,23.17,1.05,-4.57,39.27,-4.96,1.30,50.29,3.46,-0.84,-12.76
-12,-14,471,75,-430,3931,-0.42,0.12,23.72,0.75,-4.30,39.31,-4.97,1.30,50.19,3.64,-0.60,-13.04
-5,-11,479,55,-471,3893,-0.41,0.04,24.27,0.55,-4.71,38.93,-4.98,1.29,50.10,3.50,-0.64,-13.21
-3,5,516,-33,-383,3857,-0.39,0.06,24.99,-0.33,-3.83,38.57,-4.99,1.29,50.00,3.46,-0.97,-13.65
-19,-2,541,-89,-373,3848,-0.47,0.05,25.79,-0.89,-3.73,38.48,-5.01,1.30,49.89,3.82,-0.83,-14.00
-2,16,596,-154,-251,3898,-0.43,0.14,26.85,-1.54,-2.51,38.98,-4.99,1.32,49.79,3.45,-1.23,-14.66
-4,16,578,-216,-243,3867,-0.41,0.22,27.69,-2.16,-2.43,38.67,-4.98,1.34,49.68,3.48,-1.27,-14.66
4,10,446,-79,-276,3945,-0.35,0.26,27.64,-0.79,-2.76,39.45,-4.96,1.35,49.57,3.29,-1.16,-13.52
-19,5,410,-23,-294,3977,-0.43,0.27,27.38,-0.23,-2.94,39.77,-4.95,1.34,49.46,3.77,-1.06,-13.16
-14,-5,271,12,-220,3981,-0.47,0.21,26.29,0.12,-2.20,39.81,-4.93,1.34,49.35,3.67,-0.84,-11.76
-6,2,255,64,-263,3904,-0.46,0.20,25.22,0.64,-2.63,39.04,-4.93,1.34,49.25,3.50,-0.98,-11.41
-3,3,261,-98,-238,3912,-0.43,0.20,24.29,-0.98,-2.38,39.12,-4.91,1.35,49.15,3.42,-1.00,-11.28
-3,7,265,-109,-268,3906,-0.41,0.22,23.48,-1.09,-2.68,39.06,-4.89,1.36,49.06,3.40,-1.10,-11.15
-1,9,287,-41,-328,3917,-0.37,0.25,22.88,-0.41,-3.28,39.17,-4.89,1.35,48.97,3.35,-1.14,-11.21
-6,5,314,-30,-356,3876,-0.37,0.26,22.51,-0.30,-3.56,38.76,-4.89,1.34,48.88,3.45,-1.06,-11.36
-7,14,397,-108,-370,3841,-0.38,0.32,22.68,-1.08,-3.70,38.41,-4.91,1.36,48.79,3.49,-1.27,-12.09
-10,6,443,-128,-368,3928,-0.40,0.32,23.11,-1.28,-3.68,39.28,-4.92,1.38,48.70,3.56,-1.12,-12.55
1,18,443,-178,-376,3948,-0.35,0.40,23.50,-1.78,-3.76,39.48,-4.93,1.41,48.60,3.33,-1.40,-12.62
-7,2,437,-138,-384,3932,-0.36,0.37,23.82,-1.38,-3.84,39.32,-4.94,1.43,48.51,3.50,-1.09,-12.62
-16,-1,450,-81,-409,3903,-0.42,0.33,24.18,-0.81,-4.09,39.03,-4.96,1.43,48.41,3.71,-1.02,-12.79
0,13,445,-87,-372,3872,-0.38,0.38,24.48,-0.87,-3.72,38.72,-4.97,1.44,48.32,3.39,-1.32,-12.80
-2,13,408,-43,-303,3921,-0.36,0.42,24.52,-0.43,-3.03,39.21,-4.96,1.43,48.22,3.41,-1.33,-12.48
0,10,397,-18,-294,3928,-0.32,0.44,24.49,-0.18,-2.94,39.28,-4.95,1.43,48.12,3.36,-1.27,-12.37
-5,10,416,74,-332,3924,-0.32,0.45,24.58,0.74,-3.32,39.24,-4.95,1.42,48.02,3.46,-1.26,-12.54
-7,7,437,43,-340,3875,-0.33,0.45,24.79,0.43,-3.40,38.75,-4.95,1.41,47.92,3.50,-1.20,-12.75
-16,11,524,-25,-326,3896,-0.39,0.47,25.50,-0.25,-3.26,38.96,-4.95,1.41,47.82,3.70,-1.28,-13.62
9,15,570,-70,-281,3970,-0.30,0.52,26.43,-0.70,-2.81,39.70,-4.93,1.41,47.72,3.15,-1.38,-14.17
1,17,588,-27,-334,3798,-0.26,0.57,27.37,-0.27,-3.34,37.98,-4.93,1.40,47.61,3.30,-1.43,-14.50
-13,9,579,29,-455,3858,-0.32,0.57,28.17,0.29,-4.55,38.58,-4.94,1.40,47.50,3.61,-1.26,-14.56
-4,10,540,-48,-462,3865,-0.31,0.57,28.65,-0.48,-4.62,38.65,-4.95,1.41,47.38,3.44,-1.29,-14.31
-6,11,528,-52,-427,3960,-0.31,0.58,29.00,-0.52,-4.27,39.60,-4.97,1.41,47.27,3.49,-1.31,-14.27
-17,0,492,-87,-328,3905,-0.39,0.52,29.10,-0.87,-3.28,39.05,-4.95,1.41,47.15,3.72,-1.07,-13.97
-14,17,491,-119,-320,3852,-0.43,0.57,29.19,-1.19,-3.20,38.52,-4.94,1.44,47.04,3.67,-1.45,-13.97
-2,7,454,105,-416,3941,-0.40,0.56,29.04,1.05,-4.16,39.41,-4.95,1.43,46.92,3.42,-1.24,-13.62
-19,-7,461,202,-453,3922,-0.48,0.46,28.95,2.02,-4.53,39.22,-4.95,1.43,46.81,3.79,-0.93,-13.65
-16,3,481,-27,-321,3922,-0.53,0.43,28.99,-0.27,-3.21,39.22,-4.95,1.42,46.69,3.73,-1.12,-13.82
-13,4,506,-142,-271,3945,-0.55,0.41,29.17,-1.42,-2.71,39.45,-4.93,1.44,46.57,3.67,-1.15,-14.05
1,6,532,-111,-355,3913,-0.49,0.41,29.50,-1.11,-3.55,39.13,-4.95,1.47,46.46,3.38,-1.20,-14.33
-17,10,514,-85,-320,3934,-0.55,0.43,29.69,-0.85,-3.20,39.34,-4.93,1.47,46.34,3.75,-1.29,-14.20
2,14,495,-3,-288,3913,-0.48,0.47,29.74,-0.03,-2.88,39.13,-4.92,1.46,46.22,3.34,-1.38,-14.04
-5,10,514,0,-392,3902,-0.46,0.49,29.90,0.00,-3.92,39.02,-4.93,1.46,46.10,3.48,-1.30,-14.22
-20,14,572,-61,-513,3922,-0.54,0.52,30.40,-0.61,-5.13,39.22,-4.95,1.47,45.98,3.82,-1.40,-14.79
9,14,586,-28,-451,3943,-0.43,0.56,30.93,-0.28,-4.51,39.43,-4.96,1.47,45.86,3.21,-1.41,-15.00
-9,6,642,-37,-412,3995,-0.44,0.54,31.76,-0.37,-4.12,39.95,-4.97,1.47,45.73,3.58,-1.24,-15.62
-22,-11,658,5,-447,3903,-0.53,0.42,32.59,0.05,-4.47,39.03,-4.98,1.47,45.60,3.88,-0.86,-15.91
-27,9,641,-22,-480,3894,-0.64,0.43,33.25,-0.22,-4.80,38.94,-5.00,1.48,45.47,4.02,-1.27,-15.88
-23,-4,612,-91,-483,3890,-0.72,0.36,33.65,-0.91,-4.83,38.90,-5.02,1.49,45.34,3.97,-1.00,-15.70
-9,-7,506,-107,-248,3899,-0.70,0.28,33.38,-1.07,-2.48,38.99,-5.00,1.50,45.20,3.67,-0.93,-14.73
1,1,482,-122,-269,3884,-0.63,0.26,32.98,-1.22,-2.69,38.84,-4.98,1.52,45.07,3.44,-1.09,-14.44
-8,4,383,-114,-338,3944,-0.61,0.26,32.02,-1.14,-3.38,39.44,-4.97,1.55,44.94,3.61,-1.17,-13.41
-3,2,341,-66,-327,3946,-0.57,0.25,30.89,-0.66,-3.27,39.46,-4.96,1.54,44.82,3.49,-1.12,-12.83
-11,-4,248,5,-331,4037,-0.58,0.20,29.32,0.05,-3.31,40.37,-4.96,1.53,44.70,3.65,-0.98,-11.73
-9,0,234,33,-380,3886,-0.58,0.18,27.81,0.33,-3.80,38.86,-4.96,1.53,44.59,3.61,-1.06,-11.31
-2,-1,240,17,-445,3911,-0.53,0.15,26.50,0.17,-4.45,39.11,-4.97,1.52,44.49,3.47,-1.03,-11.10
-7,2,263,12,-428,3920,-0.52,0.15,25.45,0.12,-4.28,39.20,-4.98,1.52,44.39,3.57,-1.08,-11.09
-13,11,288,-48,-411,3888,-0.55,0.20,24.66,-0.48,-4.11,38.88,-5.00,1.52,44.29,3.71,-1.28,-11.14
-5,9,301,-45,-509,3972,-0.52,0.24,24.03,-0.45,-5.09,39.72,-5.01,1.52,44.19,3.55,-1.25,-11.12
-14,6,305,-148,-596,3891,-0.56,0.25,23.49,-1.48,-5.96,38.91,-5.03,1.53,44.10,3.76,-1.20,-11.04
-1,13,280,-215,-583,3934,-0.51,0.30,22.85,-2.15,-5.83,39.34,-5.05,1.55,44.01,3.49,-1.37,-10.70
0,6,249,-182,-469,3859,-0.46,0.31,22.08,-1.82,-4.69,38.59,-5.06,1.57,43.92,3.47,-1.24,-10.28
-17,-5,239,-152,-420,3885,-0.51,0.25,21.33,-1.52,-4.20,38.85,-5.08,1.58,43.84,3.84,-1.01,-10.05
6,10,247,-28,-386,3945,-0.43,0.28,20.71,-0.28,-3.86,39.45,-5.08,1.58,43.75,3.35,-1.32,-9.99
-2,2,261,-13,-366,3892,-0.40,0.27,20.23,-0.13,-3.66,38.92,-5.09,1.57,43.67,3.51,-1.15,-10.01
-1,10,302,-58,-404,3894,-0.36,0.30,20.05,-0.58,-4.04,38.94,-5.10,1.56,43.60,3.49,-1.32,-10.31
-11,10,311,-30,-362,3998,-0.39,0.33,19.94,-0.30,-3.62,39.98,-5.10,1.55,43.52,3.70,-1.32,-10.36
-7,13,310,-45,-318,3936,-0.40,0.38,19.84,-0.45,-3.18,39.36,-5.09,1.54,43.44,3.61,-1.39,-10.33
-4,21,306,-59,-295,3936,-0.38,0.47,19.72,-0.59,-2.95,39.36,-5.08,1.54,43.36,3.54,-1.57,-10.26
-9,12,214,-90,-235,3922,-0.40,0.50,19.05,-0.90,-2.35,39.22,-5.06,1.55,43.28,3.63,-1.40,-9.35
-1,15,202,-110,-287,3907,-0.36,0.54,18.38,-1.10,-2.87,39.07,-5.04,1.56,43.21,3.45,-1.48,-9.11
2,31,231,-106,-214,3873,-0.32,0.67,17.95,-1.06,-2.14,38.73,-5.02,1.57,43.14,3.36,-1.85,-9.27
-17,21,262,-105,-241,3906,-0.39,0.73,17.75,-1.05,-2.41,39.06,-5.00,1.58,43.07,3.75,-1.67,-9.49
0,15,329,7,-464,3927,-0.35,0.75,17.99,0.07,-4.64,39.27,-5.02,1.57,42.99,3.41,-1.55,-10.09
-17,4,365,-75,-499,3962,-0.42,0.70,18.41,-0.75,-4.99,39.62,-5.03,1.58,42.92,3.78,-1.31,-10.47
-5,4,418,-114,-525,3954,-0.41,0.66,19.12,-1.14,-5.25,39.54,-5.05,1.59,42.85,3.55,-1.31,-11.05
-16,9,415,-19,-450,3938,-0.46,0.64,19.74,-0.19,-4.50,39.38,-5.06,1.58,42.77,3.79,-1.40,-11.14
-4,11,355,-37,-406,3901,-0.44,0.65,19.93,-0.37,-4.06,39.01,-5.08,1.58,42.69,3.55,-1.44,-10.66
-12,3,374,-110,-476,3890,-0.47,0.60,20.22,-1.10,-4.76,38.90,-5.09,1.59,42.61,3.73,-1.27,-10.87
-1,10,434,51,-297,3947,-0.43,0.60,20.85,0.51,-2.97,39.47,-5.09,1.58,42.53,3.49,-1.41,-11.49
-2,8,450,120,-291,3966,-0.40,0.59,21.51,1.20,-2.91,39.66,-5.08,1.57,42.44,3.50,-1.36,-11.74
-6,16,502,-55,-357,3887,-0.40,0.63,22.42,-0.55,-3.57,38.87,-5.08,1.57,42.35,3.59,-1.53,-12.35
-9,2,520,-68,-343,3966,-0.41,0.58,23.35,-0.68,-3.43,39.66,-5.08,1.56,42.26,3.65,-1.23,-12.67
-8,13,605,-90,-327,3891,-0.42,0.60,24.70,-0.90,-3.27,38.91,-5.06,1.56,42.16,3.62,-1.46,-13.64
1,9,628,-82,-333,3963,-0.37,0.59,26.06,-0.82,-3.33,39.63,-5.05,1.56,42.06,3.42,-1.37,-14.09
3,23,670,-108,-292,3931,-0.32,0.68,27.54,-1.08,-2.92,39.31,-5.03,1.57,41.95,3.35,-1.69,-14.72
-3,18,660,-118,-340,3904,-0.30,0.72,28.82,-1.18,-3.40,39.04,-5.02,1.60,41.83,3.46,-1.62,-14.86
16,21,613,-17,-217,3893,-0.17,0.77,29.67,-0.17,-2.17,38.93,-5.01,1.60,41.71,3.03,-1.69,-14.62
-3,12,564,60,-266,3939,-0.18,0.77,30.15,0.60,-2.66,39.39,-5.00,1.60,41.59,3.41,-1.51,-14.28
-9,7,509,-17,-205,3933,-0.21,0.74,30.24,-0.17,-2.05,39.33,-4.98,1.60,41.47,3.53,-1.40,-13.82
-5,-4,506,-17,-282,3900,-0.22,0.64,30.30,-0.17,-2.82,39.00,-4.97,1.60,41.35,3.44,-1.15,-13.80
-13,-11,534,-6,-360,3935,-0.28,0.51,30.53,-0.06,-3.60,39.35,-4.97,1.59,41.23,3.62,-0.97,-14.07
-11,-10,553,-19,-433,3907,-0.32,0.40,30.85,-0.19,-4.33,39.07,-4.98,1.59,41.11,3.60,-0.96,-14.28
-11,-9,558,-131,-472,3882,-0.35,0.30,31.17,-1.31,-4.72,38.82,-4.99,1.61,40.98,3.62,-0.96,-14.37
-18,2,547,-106,-477,3908,-0.43,0.28,31.39,-1.06,-4.77,39.08,-5.01,1.62,40.86,3.79,-1.19,-14.31
-7,-2,404,-103,-310,3898,-0.43,0.24,30.71,-1.03,-3.10,38.98,-4.99,1.63,40.74,3.55,-1.10,-12.96
-13,0,343,-176,-385,3885,-0.46,0.22,29.73,-1.76,-3.85,38.85,-5.00,1.65,40.62,3.69,-1.15,-12.24
8,0,52,-118,-297,3891,-0.37,0.20,27.08,-1.18,-2.97,38.91,-4.98,1.67,40.51,3.23,-1.15,-9.26
3,-1,42,-90,-303,3922,-0.31,0.17,24.63,-0.90,-3.03,39.22,-4.96,1.67,40.41,3.30,-1.13,-8.70
-8,-1,48,-46,-192,3924,-0.33,0.15,22.46,-0.46,-1.92,39.24,-4.95,1.67,40.32,3.52,-1.12,-8.33
-7,-3,69,-70,-205,3876,-0.34,0.11,20.63,-0.70,-2.05,38.76,-4.93,1.67,40.24,3.49,-1.07,-8.15
2,7,118,-39,-291,3906,-0.29,0.15,19.29,-0.39,-2.91,39.06,-4.92,1.66,40.16,3.28,-1.28,-8.30
2,5,123,-18,-367,3922,-0.25,0.16,18.11,-0.18,-3.67,39.22,-4.92,1.65,40.09,3.28,-1.23,-8.11
-4,3,118,-46,-394,3917,-0.25,0.16,17.02,-0.46,-3.94,39.17,-4.93,1.64,40.02,3.41,-1.19,-7.85
-2,1,126,-45,-376,3935,-0.24,0.15,16.09,-0.45,-3.76,39.35,-4.94,1.63,39.96,3.37,-1.14,-7.74
0,3,186,11,-299,3913,-0.22,0.16,15.61,0.11,-2.99,39.13,-4.93,1.62,39.90,3.31,-1.17,-8.15
-12,8,220,-109,-350,3883,-0.27,0.19,15.39,-1.09,-3.50,38.83,-4.95,1.62,39.83,3.58,-1.29,-8.39
0,5,220,-140,-416,3872,-0.24,0.20,15.19,-1.40,-4.16,38.72,-4.97,1.64,39.77,3.34,-1.24,-8.35
-2,3,177,-102,-483,3915,-0.23,0.20,14.76,-1.02,-4.83,39.15,-4.98,1.64,39.72,3.39,-1.20,-7.89
2,1,96,-24,-428,3915,-0.19,0.19,13.87,-0.24,-4.28,39.15,-5.00,1.63,39.66,3.31,-1.15,-7.03
2,3,96,6,-359,3912,-0.16,0.19,13.06,0.06,-3.59,39.12,-5.00,1.62,39.61,3.30,-1.18,-6.87
3,-5,137,-47,-340,3902,-0.13,0.14,12.59,-0.47,-3.40,39.02,-5.00,1.61,39.56,3.27,-1.00,-7.13
8,5,135,-94,-370,3925,-0.07,0.15,12.16,-0.94,-3.70,39.25,-5.01,1.60,39.51,3.16,-1.20,-7.02
-1,10,182,133,-219,3989,-0.07,0.20,12.05,1.33,-2.19,39.89,-5.00,1.59,39.46,3.34,-1.31,-7.40
3,16,252,160,-208,3918,-0.04,0.28,12.38,1.60,-2.08,39.18,-4.99,1.58,39.41,3.25,-1.44,-8.05
-14,3,463,30,-438,3922,-0.12,0.27,13.97,0.30,-4.38,39.22,-5.00,1.57,39.36,3.62,-1.17,-10.13
8,14,496,11,-361,3910,-0.06,0.33,15.60,0.11,-3.61,39.10,-5.00,1.56,39.30,3.16,-1.40,-10.72
5,13,501,-78,-502,3931,-0.02,0.37,17.09,-0.78,-5.02,39.31,-5.02,1.56,39.23,3.22,-1.40,-11.04
6,8,449,-149,-458,3921,0.01,0.38,18.12,-1.49,-4.58,39.21,-5.03,1.58,39.16,3.20,-1.31,-10.79
-19,-5,315,-31,-454,3905,-0.10,0.32,18.23,-0.31,-4.54,39.05,-5.05,1.58,39.09,3.75,-1.02,-9.67
-6,5,301,-115,-470,3905,-0.13,0.31,18.25,-1.15,-4.70,39.05,-5.06,1.58,39.01,3.50,-1.23,-9.55
-2,3,286,-23,-421,3909,-0.13,0.30,18.17,-0.23,-4.21,39.09,-5.08,1.58,38.94,3.43,-1.18,-9.40
-7,-2,309,99,-435,3951,-0.16,0.26,18.23,0.99,-4.35,39.51,-5.08,1.57,38.87,3.54,-1.06,-9.60
-9,-6,333,23,-401,3852,-0.20,0.20,18.44,0.23,-4.01,38.52,-5.09,1.56,38.80,3.59,-0.96,-9.84
-5,-1,332,-53,-440,3948,-0.21,0.17,18.62,-0.53,-4.40,39.48,-5.10,1.56,38.72,3.53,-1.05,-9.86
-4,-9,311,70,-371,3883,-0.21,0.10,18.66,0.70,-3.71,38.83,-5.10,1.55,38.65,3.51,-0.86,-9.68
-14,-3,322,12,-460,3858,-0.28,0.07,18.76,0.12,-4.60,38.58,-5.11,1.54,38.57,3.74,-0.97,-9.78
-3,2,360,-110,-514,3880,-0.27,0.08,19.08,-1.10,-5.14,38.80,-5.13,1.55,38.50,3.52,-1.08,-10.16
-1,2,364,-47,-551,3879,-0.25,0.08,19.39,-0.47,-5.51,38.79,-5.15,1.55,38.42,3.49,-1.08,-10.25
-10,5,362,-151,-462,3883,-0.28,0.10,19.66,-1.51,-4.62,38.83,-5.16,1.56,38.34,3.69,-1.16,-10.27
3,7,348,-177,-394,3955,-0.24,0.14,19.82,-1.77,-3.94,39.55,-5.17,1.59,38.26,3.42,-1.23,-10.18
5,2,264,-155,-348,3935,-0.18,0.13,19.44,-1.55,-3.48,39.35,-5.17,1.61,38.19,3.36,-1.14,-9.39
-6,-7,248,-156,-387,3912,-0.20,0.08,19.01,-1.56,-3.87,39.12,-5.18,1.63,38.11,3.59,-0.96,-9.16
-5,-9,220,-74,-353,3900,-0.21,0.02,18.45,-0.74,-3.53,39.00,-5.18,1.62,38.04,3.57,-0.89,-8.81
-5,-13,208,-107,-336,3982,-0.22,-0.07,17.88,-1.07,-3.36,39.82,-5.16,1.62,37.97,3.56,-0.79,-8.60
10,-107,130,-83,-426,4121,-0.14,-0.71,16.88,-0.83,-4.26,41.21,-5.17,1.62,37.90,3.25,1.30,-7.74
-3,-84,149,0,-424,3778,-0.14,-1.15,16.10,0.00,-4.24,37.78,-5.18,1.60,37.83,3.52,0.96,-7.74
-3,-26,191,-38,-317,3866,-0.15,-1.20,15.66,-0.38,-3.17,38.66,-5.17,1.59,37.77,3.51,-0.19,-8.01
1,-13,171,-136,-294,3909,-0.13,-1.16,15.14,-1.36,-2.94,39.09,-5.15,1.60,37.71,3.42,-0.47,-7.74
-6,-6,84,-150,-309,3901,-0.15,-1.08,14.13,-1.50,-3.09,39.01,-5.14,1.61,37.65,3.55,-0.65,-6.80
-6,-6,62,-156,-264,3886,-0.17,-1.01,13.10,-1.56,-2.64,38.86,-5.12,1.62,37.60,3.55,-0.67,-6.41
2,1,25,-81,-445,3936,-0.14,-0.90,11.94,-0.81,-4.45,39.36,-5.14,1.62,37.55,3.39,-0.84,-5.87
2,-7,49,-114,-532,3894,-0.12,-0.85,11.05,-1.14,-5.32,38.94,-5.16,1.62,37.51,3.39,-0.69,-5.90
0,-5,158,-13,-566,3932,-0.10,-0.80,10.91,-0.13,-5.66,39.32,-5.17,1.61,37.47,3.44,-0.74,-6.79
-7,1,195,-12,-610,3868,-0.14,-0.71,11.00,-0.12,-6.10,38.68,-5.19,1.60,37.42,3.60,-0.88,-7.12
-6,9,208,-91,-395,3875,-0.16,-0.59,11.17,-0.91,-3.95,38.75,-5.20,1.60,37.38,3.60,-1.08,-7.26
-5,9,201,-114,-345,3965,-0.17,-0.47,11.28,-1.14,-3.45,39.65,-5.19,1.60,37.33,3.57,-1.11,-7.22
-14,9,194,-57,-366,3926,-0.24,-0.37,11.34,-0.57,-3.66,39.26,-5.19,1.59,37.29,3.78,-1.13,-7.17
-4,9,201,-105,-446,3921,-0.24,-0.28,11.43,-1.05,-4.46,39.21,-5.21,1.59,37.24,3.58,-1.16,-7.24
0,-3,146,-42,-357,3974,-0.22,-0.27,11.18,-0.42,-3.57,39.74,-5.21,1.58,37.20,3.50,-0.91,-6.72
-5,-9,148,-25,-338,3893,-0.23,-0.30,10.96,-0.25,-3.38,38.93,-5.20,1.56,37.15,3.60,-0.77,-6.69
-3,-5,186,-106,-615,3918,-0.22,-0.30,11.00,-1.06,-6.15,39.18,-5.22,1.56,37.11,3.57,-0.85,-7.02
1,10,192,-96,-637,3883,-0.19,-0.21,11.07,-0.96,-6.37,38.83,-5.24,1.57,37.07,3.49,-1.18,-7.08
-2,38,236,-124,-441,3780,-0.19,0.05,11.40,-1.24,-4.41,37.80,-5.25,1.57,37.02,3.56,-1.82,-7.51
-10,33,247,-160,-398,3833,-0.23,0.24,11.77,-1.60,-3.98,38.33,-5.27,1.59,36.97,3.74,-1.79,-7.67
0,17,204,-130,-271,3749,-0.21,0.32,11.84,-1.30,-2.71,37.49,-5.25,1.60,36.93,3.52,-1.49,-7.31
2,18,215,-109,-297,3940,-0.17,0.40,11.97,-1.09,-2.97,39.40,-5.23,1.61,36.88,3.46,-1.54,-7.43
-4,12,203,17,-274,3994,-0.18,0.43,12.01,0.17,-2.74,39.94,-5.22,1.60,36.83,3.57,-1.42,-7.33
-7,13,202,5,-369,3821,-0.20,0.47,12.04,0.05,-3.69,38.21,-5.22,1.59,36.78,3.64,-1.44,-7.32
11,-18,168,-2,-195,4058,-0.12,0.31,11.86,-0.02,-1.95,40.58,-5.20,1.58,36.74,3.24,-0.77,-7.00
10,-39,130,32,-21,4089,-0.04,0.04,11.47,0.32,-0.21,40.89,-5.19,1.58,36.69,3.23,-0.26,-6.59
1,-27,125,10,-625,3870,-0.03,-0.13,11.08,0.10,-6.25,38.70,-5.20,1.58,36.65,3.42,-0.46,-6.48
0,-14,161,84,-699,3857,-0.03,-0.20,10.96,0.84,-6.99,38.57,-5.22,1.57,36.60,3.45,-0.70,-6.75
15,-24,167,49,-257,3913,0.06,-0.33,10.88,0.49,-2.57,39.13,-5.21,1.56,36.56,3.11,-0.45,-6.78
9,-27,176,-7,-378,3921,0.11,-0.46,10.87,-0.07,-3.78,39.21,-5.21,1.54,36.52,3.22,-0.35,-6.85
15,-51,218,2,-412,3959,0.19,-0.72,11.11,0.02,-4.12,39.59,-5.21,1.53,36.47,3.08,0.23,-7.25
19,-54,226,-60,-372,3920,0.29,-0.98,11.38,-0.60,-3.72,39.20,-5.22,1.51,36.43,2.98,0.37,-7.37
22,-66,217,-30,-375,3901,0.39,-1.28,11.56,-0.30,-3.75,39.01,-5.22,1.49,36.38,2.89,0.71,-7.32
26,-92,199,-24,-365,3988,0.51,-1.72,11.62,-0.24,-3.65,39.88,-5.22,1.47,36.33,2.77,1.37,-7.18
11,-93,150,15,-491,3756,0.53,-2.11,11.37,0.15,-4.91,37.56,-5.23,1.46,36.29,3.08,1.51,-6.71
-25,-61,136,71,-534,3630,0.32,-2.27,11.07,0.71,-5.34,36.30,-5.24,1.44,36.24,3.88,0.91,-6.53
-60,159,225,125,-439,3774,-0.07,-1.08,11.33,1.25,-4.39,37.74,-5.25,1.42,36.20,4.70,-3.88,-7.33
-59,176,239,95,-383,4029,-0.43,0.10,11.66,0.95,-3.83,40.29,-5.25,1.41,36.15,4.78,-4.54,-7.51
-25,57,288,71,-387,4036,-0.54,0.44,12.25,0.71,-3.87,40.36,-5.25,1.40,36.10,4.12,-2.20,-8.03
-17,63,310,-64,-387,3914,-0.59,0.78,12.91,-0.64,-3.87,39.14,-5.26,1.39,36.05,3.98,-2.41,-8.34
1,33,347,-54,-394,3982,-0.52,0.91,13.74,-0.54,-3.94,39.82,-5.27,1.38,36.00,3.60,-1.83,-8.81
1,31,365,-113,-326,4007,-0.46,1.00,14.59,-1.13,-3.26,40.07,-5.26,1.40,35.94,3.58,-1.83,-9.12
-24,12,409,-199,-363,4059,-0.56,0.98,15.63,-1.99,-3.63,40.59,-5.26,1.43,35.88,4.11,-1.45,-9.68
-10,24,415,-115,-479,3769,-0.57,1.03,16.60,-1.15,-4.79,37.69,-5.27,1.44,35.81,3.84,-1.72,-9.91
-20,3,425,-133,-325,4222,-0.63,0.94,17.53,-1.33,-3.25,42.22,-5.26,1.46,35.74,4.05,-1.28,-10.17
-21,5,407,-174,-329,3943,-0.70,0.88,18.26,-1.74,-3.29,39.43,-5.25,1.48,35.67,4.08,-1.32,-10.15
-8,3,336,-202,-388,3794,-0.68,0.81,18.48,-2.02,-3.88,37.94,-5.26,1.51,35.60,3.82,-1.28,-9.58
-7,12,315,-121,-369,3766,-0.65,0.80,18.56,-1.21,-3.69,37.66,-5.27,1.53,35.52,3.80,-1.47,-9.41
-9,10,292,-45,-506,3903,-0.64,0.78,18.48,-0.45,-5.06,39.03,-5.29,1.54,35.45,3.85,-1.43,-9.20
-9,15,267,80,-510,3867,-0.63,0.79,18.26,0.80,-5.10,38.67,-5.30,1.53,35.38,3.85,-1.53,-8.94
-11,2,250,-113,-383,3901,-0.64,0.73,17.96,-1.13,-3.83,39.01,-5.32,1.55,35.31,3.91,-1.26,-8.73
-6,6,251,-44,-336,3922,-0.61,0.69,17.70,-0.44,-3.36,39.22,-5.31,1.54,35.24,3.79,-1.33,-8.68
-1,1,260,-92,-226,3970,-0.55,0.63,17.51,-0.92,-2.26,39.70,-5.29,1.55,35.17,3.67,-1.21,-8.71
0,-2,197,-7,-189,3874,-0.50,0.55,16.96,-0.07,-1.89,38.74,-5.28,1.55,35.10,3.62,-1.13,-8.07
-7,13,264,63,-599,3887,-0.49,0.58,16.88,0.63,-5.99,38.87,-5.29,1.55,35.03,3.77,-1.44,-8.61
3,24,295,3,-654,3887,-0.42,0.67,16.99,0.03,-6.54,38.87,-5.31,1.55,34.96,3.56,-1.69,-8.89
-1,-10,245,-50,-26,4042,-0.39,0.54,16.78,-0.50,-0.26,40.42,-5.29,1.55,34.90,3.62,-0.97,-8.42
5,-4,193,-189,-102,3908,-0.32,0.46,16.28,-1.89,-1.02,39.08,-5.27,1.57,34.83,3.47,-1.08,-7.88
-8,2,276,37,-621,3963,-0.34,0.43,16.34,0.37,-6.21,39.63,-5.29,1.57,34.77,3.75,-1.19,-8.59
-9,13,340,-47,-650,3863,-0.36,0.46,16.78,-0.47,-6.50,38.63,-5.31,1.57,34.70,3.78,-1.43,-9.21
-7,8,395,10,-99,3859,-0.36,0.47,17.51,0.10,-0.99,38.59,-5.29,1.57,34.63,3.73,-1.33,-9.81
4,-2,313,-4,-70,3944,-0.30,0.41,17.67,-0.04,-0.70,39.44,-5.27,1.57,34.56,3.48,-1.11,-9.14
-1,3,265,113,-520,3793,-0.28,0.38,17.52,1.13,-5.20,37.93,-5.28,1.57,34.49,3.58,-1.20,-8.70
-8,1,315,97,-552,4013,-0.30,0.35,17.69,0.97,-5.52,40.13,-5.29,1.56,34.42,3.74,-1.15,-9.15
-10,29,465,-129,-274,3883,-0.33,0.49,18.76,-1.29,-2.74,38.83,-5.28,1.57,34.35,3.78,-1.76,-10.62
-17,4,454,-95,-155,4016,-0.40,0.47,19.65,-0.95,-1.55,40.16,-5.26,1.58,34.27,3.92,-1.25,-10.69
-1,-12,327,37,-402,3936,-0.37,0.35,19.68,0.37,-4.02,39.36,-5.26,1.57,34.19,3.59,-0.89,-9.61
2,-5,306,25,-550,3903,-0.32,0.28,19.58,0.25,-5.50,39.03,-5.28,1.57,34.11,3.53,-1.01,-9.40
-12,15,420,-119,-568,3950,-0.36,0.35,20.18,-1.19,-5.68,39.50,-5.29,1.58,34.03,3.84,-1.44,-10.48
-10,15,434,-69,-372,3848,-0.38,0.40,20.81,-0.69,-3.72,38.48,-5.30,1.57,33.95,3.81,-1.45,-10.71
-5,-12,292,-18,-442,3868,-0.38,0.29,20.51,-0.18,-4.42,38.68,-5.31,1.57,33.87,3.71,-0.87,-9.44
3,1,291,185,-545,3836,-0.32,0.27,20.24,1.85,-5.45,38.36,-5.32,1.56,33.79,3.54,-1.12,-9.37
-4,27,387,-29,-639,3928,-0.31,0.40,20.57,-0.29,-6.39,39.28,-5.34,1.57,33.71,3.69,-1.69,-10.24
-19,16,440,-127,-394,3894,-0.40,0.46,21.20,-1.27,-3.94,38.94,-5.35,1.59,33.62,4.03,-1.50,-10.81
-8,-3,343,-318,-332,3963,-0.41,0.40,21.17,-3.18,-3.32,39.63,-5.35,1.61,33.54,3.80,-1.11,-9.97
-14,1,327,-212,-436,3865,-0.45,0.36,21.05,-2.12,-4.36,38.65,-5.36,1.64,33.46,3.94,-1.20,-9.80
-5,4,333,-6,-421,3963,-0.44,0.35,20.98,-0.06,-4.21,39.63,-5.36,1.63,33.37,3.76,-1.25,-9.83
7,11,324,-12,-481,3852,-0.35,0.38,20.85,-0.12,-4.81,38.52,-5.38,1.63,33.29,3.50,-1.40,-9.73
-7,8,298,-111,-331,3851,-0.36,0.39,20.59,-1.11,-3.31,38.51,-5.36,1.64,33.21,3.78,-1.35,-9.45
-6,9,315,-153,-349,3939,-0.36,0.41,20.45,-1.53,-3.49,39.39,-5.35,1.66,33.13,3.75,-1.39,-9.56
-1,9,311,-40,-431,3990,-0.33,0.42,20.30,-0.40,-4.31,39.90,-5.36,1.66,33.04,3.65,-1.39,-9.49
-8,3,330,-96,-399,3948,-0.35,0.40,20.28,-0.96,-3.99,39.48,-5.37,1.66,32.96,3.80,-1.26,-9.64
-1,11,321,-15,-430,3920,-0.32,0.43,20.21,-0.15,-4.30,39.20,-5.38,1.65,32.88,3.66,-1.43,-9.54
-2,11,309,-77,-320,3939,-0.30,0.45,20.08,-0.77,-3.20,39.39,-5.37,1.65,32.80,3.66,-1.43,-9.41
-4,-3,314,-83,-278,3961,-0.29,0.39,19.99,-0.83,-2.78,39.61,-5.35,1.65,32.72,3.69,-1.14,-9.42
-13,3,321,-217,-371,3827,-0.34,0.37,19.94,-2.17,-3.71,38.27,-5.35,1.68,32.65,3.89,-1.27,-9.47
0,17,370,-27,-434,3986,-0.31,0.43,20.21,-0.27,-4.34,39.86,-5.36,1.67,32.57,3.62,-1.57,-9.93
-10,7,381,-37,-447,3944,-0.34,0.43,20.51,-0.37,-4.47,39.44,-5.37,1.67,32.48,3.84,-1.36,-10.07
2,4,362,18,-448,3829,-0.29,0.41,20.67,0.18,-4.48,38.29,-5.38,1.66,32.40,3.59,-1.29,-9.93
-3,10,368,-18,-435,3928,-0.28,0.43,20.85,-0.18,-4.35,39.28,-5.39,1.66,32.32,3.69,-1.42,-10.01
0,19,444,-260,-335,3909,-0.25,0.51,21.47,-2.60,-3.35,39.09,-5.38,1.69,32.23,3.62,-1.64,-10.77
-7,-1,425,-149,-294,4077,-0.27,0.45,21.92,-1.49,-2.94,40.77,-5.36,1.70,32.15,3.76,-1.23,-10.68
-8,4,412,-149,-532,4001,-0.29,0.43,22.24,-1.49,-5.32,40.01,-5.38,1.72,32.06,3.79,-1.33,-10.63
-11,14,447,-240,-466,3875,-0.33,0.47,22.74,-2.40,-4.66,38.75,-5.39,1.74,31.97,3.87,-1.56,-11.01
1,-3,312,-8,-200,3842,-0.29,0.41,22.37,-0.08,-2.00,38.42,-5.37,1.74,31.88,3.61,-1.20,-9.79
0,-15,292,-143,-342,4066,-0.26,0.27,21.91,-1.43,-3.42,40.66,-5.35,1.76,31.79,3.61,-0.93,-9.52
-23,22,549,-128,-432,4083,-0.38,0.38,23.07,-1.28,-4.32,40.83,-5.37,1.77,31.70,4.12,-1.72,-11.91
0,3,526,337,71,3865,-0.34,0.36,23.97,3.37,0.71,38.65,-5.36,1.76,31.60,3.63,-1.32,-11.88
-5,5,419,-184,-545,3897,-0.34,0.36,24.13,-1.84,-5.45,38.97,-5.37,1.78,31.51,3.74,-1.37,-11.00
-10,20,462,-185,-585,3827,-0.36,0.44,24.54,-1.85,-5.85,38.27,-5.39,1.80,31.41,3.86,-1.71,-11.43
-1,23,491,37,-197,3899,-0.33,0.54,25.08,0.37,-1.97,38.99,-5.37,1.80,31.31,3.66,-1.80,-11.77
3,17,476,-21,-304,3948,-0.28,0.59,25.47,-0.21,-3.04,39.48,-5.36,1.79,31.21,3.55,-1.69,-11.71
-16,7,497,148,-391,3837,-0.35,0.57,25.96,1.48,-3.91,38.37,-5.36,1.79,31.11,3.96,-1.48,-11.97
-16,-1,519,-45,-485,4096,-0.41,0.51,26.53,-0.45,-4.85,40.96,-5.37,1.79,31.00,3.99,-1.30,-12.26
-8,2,486,-56,-363,3919,-0.42,0.47,26.84,-0.56,-3.63,39.19,-5.37,1.78,30.89,3.82,-1.34,-12.03
-5,11,488,-61,-385,3917,-0.41,0.49,27.13,-0.61,-3.85,39.17,-5.37,1.77,30.79,3.76,-1.53,-12.09
-7,9,493,-110,-401,3912,-0.41,0.50,27.43,-1.10,-4.01,39.12,-5.39,1.78,30.68,3.81,-1.49,-12.18
-6,12,493,-94,-357,3937,-0.41,0.52,27.69,-0.94,-3.57,39.37,-5.38,1.78,30.57,3.78,-1.56,-12.22
-19,7,480,-44,-429,3940,-0.48,0.51,27.85,-0.44,-4.29,39.40,-5.39,1.77,30.46,4.07,-1.45,-12.13
0,15,466,-64,-353,3981,-0.43,0.55,27.91,-0.64,-3.53,39.81,-5.38,1.77,30.35,3.67,-1.62,-12.01
-9,19,445,-172,-501,3881,-0.44,0.61,27.83,-1.72,-5.01,38.81,-5.40,1.79,30.24,3.87,-1.73,-11.81
-10,11,469,-84,-511,3907,-0.46,0.62,27.91,-0.84,-5.11,39.07,-5.41,1.80,30.13,3.90,-1.58,-12.02
-8,4,477,84,-377,3938,-0.46,0.58,28.03,0.84,-3.77,39.38,-5.41,1.79,30.01,3.86,-1.42,-12.10
-9,4,472,68,-366,3932,-0.47,0.55,28.10,0.68,-3.66,39.32,-5.41,1.79,29.90,3.88,-1.41,-12.06
-12,-5,424,-8,-489,4038,-0.50,0.46,27.88,-0.08,-4.89,40.38,-5.42,1.79,29.79,3.96,-1.20,-11.60
-2,5,413,-82,-495,3974,-0.46,0.45,27.61,-0.82,-4.95,39.74,-5.44,1.79,29.68,3.75,-1.41,-11.45
-14,7,428,-97,-403,3987,-0.50,0.44,27.46,-0.97,-4.03,39.87,-5.45,1.79,29.57,4.02,-1.44,-11.54
-12,10,404,-46,-358,3847,-0.52,0.46,27.18,-0.46,-3.58,38.47,-5.44,1.78,29.47,3.98,-1.51,-11.27
-1,20,378,-185,-457,3797,-0.48,0.54,26.77,-1.85,-4.57,37.97,-5.46,1.81,29.36,3.75,-1.74,-10.96
-10,4,381,-65,-405,4008,-0.49,0.51,26.41,-0.65,-4.05,40.08,-5.46,1.80,29.26,3.94,-1.41,-10.91
-8,0,437,111,-324,3948,-0.49,0.46,26.44,1.11,-3.24,39.48,-5.46,1.79,29.15,3.90,-1.31,-11.38
-3,14,442,13,-256,3927,-0.46,0.50,26.49,0.13,-2.56,39.27,-5.44,1.79,29.04,3.78,-1.60,-11.42
-7,6,450,-126,-422,3880,-0.46,0.48,26.59,-1.26,-4.22,38.80,-5.46,1.81,28.94,3.87,-1.45,-11.50
1,13,441,-39,-368,3964,-0.40,0.51,26.62,-0.39,-3.68,39.64,-5.45,1.80,28.83,3.69,-1.59,-11.42
-9,5,385,-166,-583,3965,-0.42,0.49,26.31,-1.66,-5.83,39.65,-5.47,1.82,28.73,3.91,-1.43,-10.87
0,12,406,-121,-502,3985,-0.38,0.52,26.15,-1.21,-5.02,39.85,-5.49,1.83,28.63,3.72,-1.59,-11.01
-15,19,442,-118,-286,4104,-0.43,0.58,26.23,-1.18,-2.86,41.04,-5.47,1.84,28.52,4.03,-1.76,-11.32
-3,3,421,-70,-272,3895,-0.41,0.54,26.18,-0.70,-2.72,38.95,-5.45,1.84,28.42,3.77,-1.42,-11.13
-6,8,418,-46,-423,3975,-0.40,0.54,26.11,-0.46,-4.23,39.75,-5.46,1.84,28.31,3.83,-1.52,-11.08
-3,9,444,-29,-438,3844,-0.38,0.54,26.21,-0.29,-4.38,38.44,-5.47,1.83,28.21,3.77,-1.54,-11.31
4,4,443,-9,-297,3899,-0.32,0.51,26.29,-0.09,-2.97,38.99,-5.45,1.83,28.10,3.60,-1.43,-11.31
-12,16,413,-123,-482,3827,-0.36,0.55,26.18,-1.23,-4.82,38.27,-5.47,1.84,28.00,3.95,-1.69,-11.02
-11,-11,391,-86,-445,3948,-0.39,0.43,25.95,-0.86,-4.45,39.48,-5.48,1.84,27.90,3.95,-1.11,-10.78
-12,-1,347,-16,-369,3932,-0.42,0.38,25.47,-0.16,-3.69,39.32,-5.48,1.84,27.80,3.98,-1.30,-10.31
-8,5,351,-113,-574,3900,-0.43,0.38,25.06,-1.13,-5.74,39.00,-5.50,1.85,27.70,3.91,-1.42,-10.26
-16,-10,354,-59,-524,3956,-0.49,0.28,24.72,-0.59,-5.24,39.56,-5.51,1.85,27.60,4.10,-1.09,-10.21
-15,-13,293,84,-444,3989,-0.53,0.17,24.03,0.84,-4.44,39.89,-5.52,1.84,27.50,4.09,-1.00,-9.55
-9,-6,276,158,-364,3928,-0.53,0.12,23.31,1.58,-3.64,39.28,-5.51,1.83,27.41,3.97,-1.12,-9.26
-2,1,263,113,-534,3740,-0.49,0.11,22.58,1.13,-5.34,37.40,-5.52,1.83,27.32,3.82,-1.26,-9.00
-5,11,275,30,-602,3798,-0.47,0.17,22.00,0.30,-6.02,37.98,-5.54,1.83,27.23,3.89,-1.47,-8.99
-6,5,245,41,-368,3901,-0.46,0.18,21.30,0.41,-3.68,39.01,-5.54,1.82,27.15,3.90,-1.35,-8.59
-6,-1,253,96,-389,3971,-0.45,0.16,20.71,0.96,-3.89,39.71,-5.54,1.81,27.07,3.90,-1.22,-8.54
-3,8,285,35,-321,3928,-0.42,0.19,20.38,0.35,-3.21,39.28,-5.53,1.80,26.99,3.83,-1.40,-8.74
-1,19,304,-3,-445,3934,-0.39,0.29,20.20,-0.03,-4.45,39.34,-5.54,1.79,26.91,3.78,-1.65,-8.86
1,10,331,-79,-379,3904,-0.34,0.32,20.19,-0.79,-3.79,39.04,-5.54,1.78,26.83,3.73,-1.47,-9.08
1,10,322,-114,-395,3898,-0.30,0.35,20.14,-1.14,-3.95,38.98,-5.55,1.78,26.75,3.73,-1.48,-8.98
-4,12,322,-22,-450,3949,-0.30,0.39,20.09,-0.22,-4.50,39.49,-5.56,1.78,26.67,3.83,-1.52,-8.97
-16,13,342,-13,-447,3823,-0.36,0.43,20.17,-0.13,-4.47,38.23,-5.57,1.77,26.59,4.10,-1.55,-9.14
0,3,233,-207,-392,3918,-0.33,0.40,19.57,-2.07,-3.92,39.18,-5.57,1.80,26.51,3.77,-1.36,-8.10
-1,-3,236,-170,-431,3977,-0.30,0.34,19.05,-1.70,-4.31,39.77,-5.58,1.82,26.43,3.79,-1.24,-8.02
-17,13,337,-105,-560,3935,-0.38,0.39,19.20,-1.05,-5.60,39.35,-5.60,1.83,26.36,4.14,-1.58,-8.90
-7,32,405,-108,-353,3940,-0.38,0.55,19.75,-1.08,-3.53,39.40,-5.58,1.83,26.28,3.93,-2.01,-9.57
2,11,364,-146,-159,3963,-0.33,0.56,20.00,-1.46,-1.59,39.63,-5.56,1.84,26.20,3.72,-1.59,-9.26
0,18,345,-179,-424,3925,-0.30,0.61,20.10,-1.79,-4.24,39.25,-5.57,1.87,26.12,3.76,-1.76,-9.12
1,32,429,-115,-354,3781,-0.26,0.75,20.71,-1.15,-3.54,37.81,-5.56,1.87,26.04,3.72,-2.09,-9.94
-3,30,430,-185,-360,3939,-0.25,0.85,21.26,-1.85,-3.60,39.39,-5.55,1.90,25.95,3.79,-2.09,-10.04
0,30,378,-78,-363,3989,-0.23,0.95,21.44,-0.78,-3.63,39.89,-5.54,1.89,25.87,3.72,-2.12,-9.63
-1,24,395,30,-261,3995,-0.21,1.00,21.71,0.30,-2.61,39.95,-5.52,1.89,25.78,3.72,-2.01,-9.82
-19,27,501,-147,-534,3881,-0.31,1.07,22.59,-1.47,-5.34,38.81,-5.54,1.90,25.69,4.13,-2.10,-10.87
-2,21,517,-113,-399,4012,-0.29,1.09,23.49,-1.13,-3.99,40.12,-5.55,1.90,25.60,3.78,-1.98,-11.17
-4,14,421,-205,-568,3835,-0.28,1.07,23.71,-2.05,-5.68,38.35,-5.56,1.92,25.50,3.83,-1.84,-10.39
-18,3,460,-146,-613,3852,-0.36,0.98,24.14,-1.46,-6.13,38.52,-5.58,1.94,25.41,4.15,-1.61,-10.80
-4,10,507,-86,-323,3902,-0.35,0.94,24.82,-0.86,-3.23,39.02,-5.56,1.94,25.31,3.85,-1.74,-11.32
-9,14,478,-60,-490,3930,-0.37,0.93,25.25,-0.60,-4.90,39.30,-5.58,1.94,25.21,3.96,-1.82,-11.15
-9,14,464,-116,-405,3823,-0.39,0.92,25.56,-1.16,-4.05,38.23,-5.59,1.95,25.11,3.98,-1.82,-11.08
-13,1,459,-55,-469,3951,-0.43,0.84,25.80,-0.55,-4.69,39.51,-5.60,1.95,25.01,4.08,-1.53,-11.07
-11,13,478,-81,-536,3890,-0.45,0.83,26.14,-0.81,-5.36,38.90,-5.62,1.96,24.90,4.05,-1.78,-11.29
-15,4,467,62,-428,3918,-0.50,0.77,26.37,0.62,-4.28,39.18,-5.62,1.95,24.80,4.15,-1.58,-11.23
-1,4,440,8,-463,4025,-0.46,0.72,26.42,0.08,-4.63,40.25,-5.62,1.95,24.70,3.86,-1.56,-11.00
-11,13,437,-151,-551,3871,-0.48,0.73,26.44,-1.51,-5.51,38.71,-5.64,1.96,24.59,4.08,-1.76,-10.97
-17,14,469,-199,-428,3929,-0.53,0.74,26.66,-1.99,-4.28,39.29,-5.65,1.99,24.49,4.22,-1.80,-11.27
0,16,487,-122,-295,3978,-0.48,0.76,26.96,-1.22,-2.95,39.78,-5.63,2.00,24.38,3.85,-1.86,-11.47
-21,7,503,-125,-428,3921,-0.56,0.73,27.34,-1.25,-4.28,39.21,-5.65,2.01,24.27,4.31,-1.67,-11.67
-14,7,518,-19,-481,3826,-0.59,0.70,27.76,-0.19,-4.81,38.26,-5.66,2.01,24.16,4.18,-1.66,-11.87
-12,8,539,-60,-421,3807,-0.60,0.68,28.27,-0.60,-4.21,38.07,-5.66,2.01,24.05,4.15,-1.67,-12.13
-11,-8,520,134,-213,3959,-0.61,0.56,28.62,1.34,-2.13,39.59,-5.65,2.01,23.93,4.12,-1.32,-12.03
-15,28,609,-24,-600,3742,-0.64,0.68,29.47,-0.24,-6.00,37.42,-5.67,2.01,23.82,4.22,-2.08,-12.94
-27,6,580,97,-275,4116,-0.74,0.65,30.06,0.97,-2.75,41.16,-5.66,2.01,23.70,4.49,-1.63,-12.79
-3,5,567,-117,-438,3985,-0.69,0.61,30.52,-1.17,-4.38,39.85,-5.67,2.02,23.58,3.99,-1.60,-12.76
-10,3,577,-125,-427,3881,-0.68,0.57,30.98,-1.25,-4.27,38.81,-5.69,2.03,23.45,4.14,-1.55,-12.92
-5,13,503,-142,-409,3885,-0.64,0.59,30.95,-1.42,-4.09,38.85,-5.70,2.04,23.33,4.04,-1.77,-12.28
-9,7,497,-39,-480,3802,-0.63,0.57,30.89,-0.39,-4.80,38.02,-5.72,2.05,23.21,4.13,-1.65,-12.20
-10,17,509,-64,-451,3878,-0.63,0.62,30.91,-0.64,-4.51,38.78,-5.73,2.05,23.09,4.15,-1.87,-12.30
-8,18,458,-217,-345,3882,-0.62,0.67,30.61,-2.17,-3.45,38.82,-5.71,2.08,22.97,4.10,-1.92,-11.80
2,2,395,-101,-447,3923,-0.54,0.61,29.96,-1.01,-4.47,39.23,-5.73,2.08,22.85,3.89,-1.58,-11.13
-12,8,393,-204,-500,3897,-0.56,0.60,29.36,-2.04,-5.00,38.97,-5.74,2.10,22.73,4.19,-1.72,-10.99
1,7,414,-18,-415,3901,-0.50,0.58,28.95,-0.18,-4.15,39.01,-5.74,2.10,22.62,3.90,-1.69,-11.08
-6,10,404,-26,-500,3876,-0.49,0.59,28.52,-0.26,-5.00,38.76,-5.75,2.10,22.50,4.05,-1.75,-10.90
2,-15,344,213,-102,4022,-0.42,0.44,27.76,2.13,-1.02,40.22,-5.74,2.10,22.39,3.86,-1.20,-10.24
-5,-7,259,39,-368,3839,-0.41,0.35,26.57,0.39,-3.68,38.39,-5.73,2.09,22.29,4.00,-1.33,-9.28
1,18,423,-168,-402,3972,-0.37,0.42,26.49,-1.68,-4.02,39.72,-5.73,2.12,22.18,3.86,-1.88,-10.64
-18,13,455,-134,-500,3788,-0.44,0.46,26.62,-1.34,-5.00,37.88,-5.75,2.13,22.08,4.28,-1.80,-10.93
-8,22,517,-40,-364,3772,-0.44,0.55,27.11,-0.40,-3.64,37.72,-5.74,2.13,21.97,4.08,-2.00,-11.54
-16,11,506,-73,-432,3981,-0.50,0.56,27.49,-0.73,-4.32,39.81,-5.75,2.13,21.86,4.26,-1.78,-11.51
-15,12,552,-2,-435,3902,-0.54,0.58,28.10,-0.02,-4.35,39.02,-5.75,2.12,21.75,4.25,-1.80,-12.00
3,7,539,74,-344,3993,-0.47,0.56,28.58,0.74,-3.44,39.93,-5.75,2.12,21.63,3.86,-1.69,-11.98
-23,0,526,17,-437,3976,-0.56,0.51,28.93,0.17,-4.37,39.76,-5.75,2.11,21.52,4.41,-1.53,-11.92
2,10,513,-5,-280,3922,-0.49,0.52,29.17,-0.05,-2.80,39.22,-5.73,2.11,21.40,3.88,-1.74,-11.85
5,22,534,-50,-387,3864,-0.41,0.60,29.51,-0.50,-3.87,38.64,-5.73,2.11,21.28,3.79,-2.00,-12.08
-8,6,564,-63,-316,3956,-0.42,0.58,30.00,-0.63,-3.16,39.56,-5.72,2.11,21.17,4.05,-1.67,-12.42
-6,15,554,-174,-634,3918,-0.41,0.61,30.38,-1.74,-6.34,39.18,-5.73,2.13,21.05,4.02,-1.87,-12.39
-15,-1,602,38,-533,3925,-0.46,0.54,31.01,0.38,-5.33,39.25,-5.74,2.13,20.92,4.22,-1.53,-12.91
-14,17,690,-27,-370,3924,-0.50,0.59,32.12,-0.27,-3.70,39.24,-5.73,2.12,20.79,4.21,-1.91,-13.86
1,12,704,163,-185,4031,-0.45,0.61,33.20,1.63,-1.85,40.31,-5.72,2.12,20.66,3.88,-1.81,-14.17
-19,18,586,-57,-812,3946,-0.52,0.66,33.46,-0.57,-8.12,39.46,-5.73,2.14,20.53,4.31,-1.95,-13.21
-17,17,631,-5,-720,3885,-0.57,0.69,33.96,-0.05,-7.20,38.85,-5.75,2.15,20.40,4.30,-1.95,-13.67
4,4,582,-100,-255,3990,-0.49,0.65,34.11,-1.00,-2.55,39.90,-5.73,2.16,20.26,3.83,-1.68,-13.27
-17,-6,542,-149,-353,3882,-0.54,0.55,34.01,-1.49,-3.53,38.82,-5.71,2.17,20.12,4.26,-1.46,-12.90
-4,12,470,78,-728,3861,-0.51,0.57,33.48,0.78,-7.28,38.61,-5.72,2.18,19.99,4.00,-1.84,-12.18
-4,12,446,73,-526,4032,-0.49,0.58,32.85,0.73,-5.26,40.32,-5.72,2.18,19.86,3.99,-1.84,-11.84
-4,-4,368,-163,-404,4056,-0.46,0.50,31.81,-1.63,-4.04,40.56,-5.72,2.21,19.73,3.98,-1.51,-10.97
-6,-12,343,-120,-481,3824,-0.45,0.38,30.72,-1.20,-4.81,38.24,-5.73,2.22,19.61,4.03,-1.32,-10.54
-5,-11,329,-13,-387,3896,-0.44,0.27,29.65,-0.13,-3.87,38.96,-5.73,2.21,19.49,4.00,-1.31,-10.21
3,-4,305,-34,-248,3958,-0.38,0.22,28.55,-0.34,-2.48,39.58,-5.71,2.21,19.38,3.81,-1.44,-9.78
-8,22,404,-124,-575,3871,-0.39,0.33,28.16,-1.24,-5.75,38.71,-5.73,2.22,19.27,4.05,-2.01,-10.54
-10,-19,441,119,-134,4127,-0.41,0.18,28.03,1.19,-1.34,41.27,-5.71,2.22,19.16,4.08,-1.13,-10.82
1,10,559,-91,-427,4071,-0.36,0.23,28.64,-0.91,-4.27,40.71,-5.71,2.22,19.04,3.85,-1.73,-11.92
-11,8,572,-198,-457,3769,-0.39,0.25,29.27,-1.98,-4.57,37.69,-5.72,2.24,18.93,4.11,-1.71,-12.14
-10,4,559,-217,-384,3863,-0.41,0.25,29.75,-2.17,-3.84,38.63,-5.72,2.27,18.81,4.09,-1.65,-12.11
-4,14,583,-161,-539,3851,-0.40,0.31,30.33,-1.61,-5.39,38.51,-5.74,2.29,18.69,3.98,-1.88,-12.42
-15,32,617,-106,-416,3912,-0.45,0.48,31.06,-1.06,-4.16,39.12,-5.74,2.28,18.57,4.22,-2.29,-12.83
-6,34,622,-208,-401,3973,-0.44,0.64,31.75,-2.08,-4.01,39.73,-5.74,2.32,18.44,4.03,-2.39,-13.00
-8,16,543,-57,-421,3967,-0.45,0.67,31.89,-0.57,-4.21,39.67,-5.74,2.31,18.31,4.07,-2.03,-12.34
-1,12,487,-15,-401,3893,-0.41,0.68,31.67,-0.15,-4.01,38.93,-5.74,2.31,18.19,3.92,-1.95,-11.81
-8,18,469,-69,-371,3864,-0.42,0.72,31.36,-0.69,-3.71,38.64,-5.73,2.31,18.06,4.06,-2.09,-11.59
-15,12,477,-47,-397,3881,-0.47,0.72,31.14,-0.47,-3.97,38.81,-5.73,2.31,17.94,4.21,-1.96,-11.61
-8,16,437,-165,-433,3857,-0.47,0.75,30.69,-1.65,-4.33,38.57,-5.74,2.32,17.82,4.08,-2.06,-11.17
-10,25,422,-188,-555,3842,-0.48,0.82,30.19,-1.88,-5.55,38.42,-5.76,2.34,17.70,4.13,-2.28,-10.94
-6,5,394,-93,-339,3993,-0.47,0.77,29.58,-0.93,-3.39,39.93,-5.74,2.34,17.58,4.04,-1.86,-10.57
-7,4,395,-42,-323,3891,-0.47,0.72,29.03,-0.42,-3.23,38.91,-5.73,2.34,17.46,4.05,-1.82,-10.47
-11,12,403,-113,-412,3906,-0.49,0.72,28.58,-1.13,-4.12,39.06,-5.73,2.34,17.35,4.14,-1.98,-10.44
1,-9,405,167,-276,3982,-0.43,0.59,28.20,1.67,-2.76,39.82,-5.72,2.34,17.24,3.88,-1.52,-10.37
-6,1,355,20,-453,4022,-0.43,0.54,27.54,0.20,-4.53,40.22,-5.73,2.33,17.13,4.02,-1.71,-9.81
-9,13,325,1,-377,3803,-0.44,0.57,26.77,0.01,-3.77,38.03,-5.72,2.33,17.02,4.08,-1.95,-9.40
5,-1,187,108,-408,3911,-0.36,0.50,25.23,1.08,-4.08,39.11,-5.72,2.32,16.92,3.77,-1.65,-7.93
-1,-5,131,28,-504,3929,-0.33,0.42,23.51,0.28,-5.04,39.29,-5.73,2.32,16.83,3.89,-1.54,-7.12
-3,16,111,-219,-710,3879,-0.32,0.48,21.84,-2.19,-7.10,38.79,-5.74,2.33,16.74,3.94,-1.99,-6.62
-4,10,174,-185,-576,4014,-0.31,0.49,20.71,-1.85,-5.76,40.14,-5.76,2.34,16.66,3.97,-1.88,-6.93
-3,-10,144,5,-276,3974,-0.30,0.38,19.52,0.05,-2.76,39.74,-5.75,2.34,16.58,3.94,-1.44,-6.44
1,-11,111,52,-387,3831,-0.26,0.28,18.25,0.52,-3.87,38.31,-5.75,2.33,16.51,3.84,-1.39,-5.91
-11,14,249,49,-487,3873,-0.30,0.33,17.94,0.49,-4.87,38.73,-5.75,2.32,16.44,4.10,-1.91,-7.02
-2,-8,233,81,-276,4093,-0.28,0.25,17.57,0.81,-2.76,40.93,-5.74,2.31,16.37,3.91,-1.43,-6.80
-4,9,277,-141,-446,3949,-0.28,0.28,17.50,-1.41,-4.46,39.49,-5.76,2.31,16.30,3.96,-1.79,-7.16
-5,8,266,-80,-397,3940,-0.28,0.30,17.37,-0.80,-3.97,39.40,-5.76,2.30,16.23,3.98,-1.76,-7.03
4,1,145,71,-348,3888,-0.23,0.28,16.52,0.71,-3.48,38.88,-5.75,2.29,16.17,3.78,-1.61,-5.84
-2,-3,122,44,-429,3945,-0.22,0.23,15.61,0.44,-4.29,39.45,-5.75,2.28,16.10,3.90,-1.51,-5.47
-5,-1,150,-56,-496,3843,-0.23,0.20,14.97,-0.56,-4.96,38.43,-5.76,2.27,16.05,3.97,-1.54,-5.58
-2,11,156,-72,-436,3911,-0.22,0.25,14.42,-0.72,-4.36,39.11,-5.77,2.27,15.99,3.91,-1.79,-5.52
-2,0,145,-65,-422,3932,-0.21,0.22,13.86,-0.65,-4.22,39.32,-5.77,2.25,15.93,3.91,-1.55,-5.31
-4,-4,148,-29,-457,3893,-0.21,0.18,13.38,-0.29,-4.57,38.93,-5.78,2.24,15.88,3.95,-1.45,-5.24
-3,-11,132,-20,-387,3892,-0.21,0.09,12.85,-0.20,-3.87,38.92,-5.78,2.23,15.83,3.93,-1.27,-5.00
1,-8,119,-23,-436,3893,-0.18,0.03,12.29,-0.23,-4.36,38.93,-5.78,2.22,15.78,3.85,-1.31,-4.78
-7,2,171,-80,-457,4004,-0.21,0.04,12.10,-0.80,-4.57,40.04,-5.79,2.21,15.73,4.02,-1.51,-5.18
-7,-3,175,-68,-389,3871,-0.23,0.02,11.96,-0.68,-3.89,38.71,-5.79,2.20,15.68,4.03,-1.39,-5.18
-5,-8,153,-44,-430,3884,-0.24,-0.03,11.70,-0.44,-4.30,38.84,-5.80,2.18,15.64,3.99,-1.27,-4.94
0,-4,142,-57,-456,3928,-0.21,-0.05,11.39,-0.57,-4.56,39.28,-5.80,2.17,15.59,3.89,-1.34,-4.78
-4,6,178,-19,-484,4013,-0.22,-0.01,11.34,-0.19,-4.84,40.13,-5.81,2.16,15.55,3.98,-1.54,-5.07
-5,-1,176,-63,-480,3890,-0.22,-0.01,11.28,-0.63,-4.80,38.90,-5.82,2.15,15.50,4.01,-1.40,-5.04
-4,1,172,-67,-488,3860,-0.23,-0.01,11.20,-0.67,-4.88,38.60,-5.84,2.14,15.46,4.00,-1.43,-4.99
-4,10,185,-69,-496,3881,-0.23,0.05,11.21,-0.69,-4.96,38.81,-5.85,2.14,15.42,4.01,-1.63,-5.10
-4,0,156,-60,-388,3908,-0.23,0.05,11.04,-0.60,-3.88,39.08,-5.85,2.12,15.37,4.00,-1.42,-4.82
-4,0,164,-49,-477,3926,-0.23,0.04,10.94,-0.49,-4.77,39.26,-5.86,2.11,15.33,4.01,-1.41,-4.86
-8,-11,198,-79,-295,3992,-0.26,-0.03,11.05,-0.79,-2.95,39.92,-5.84,2.11,15.28,4.09,-1.16,-5.16
-3,9,199,-77,-489,3916,-0.25,0.03,11.16,-0.77,-4.89,39.16,-5.86,2.10,15.24,3.99,-1.58,-5.19
-3,-3,265,-96,-428,3874,-0.24,0.01,11.66,-0.96,-4.28,38.74,-5.87,2.09,15.19,4.00,-1.32,-5.84
1,10,267,-102,-468,3888,-0.21,0.07,12.12,-1.02,-4.68,38.88,-5.88,2.09,15.15,3.92,-1.60,-5.94
-9,-9,273,-168,-442,3787,-0.25,0.01,12.58,-1.68,-4.42,37.87,-5.90,2.10,15.10,4.14,-1.21,-6.08
-5,10,291,-60,-510,3934,-0.25,0.07,13.09,-0.60,-5.10,39.34,-5.91,2.10,15.05,4.07,-1.60,-6.32
-8,6,401,-74,-460,3882,-0.28,0.10,14.23,-0.74,-4.60,38.82,-5.92,2.09,14.99,4.14,-1.53,-7.47
-3,26,424,-148,-325,3903,-0.27,0.25,15.39,-1.48,-3.25,39.03,-5.90,2.10,14.93,4.03,-1.98,-7.88
-3,20,452,-66,-396,3945,-0.26,0.34,16.61,-0.66,-3.96,39.45,-5.90,2.09,14.86,4.02,-1.88,-8.34
-3,20,473,-44,-466,3976,-0.25,0.43,17.84,-0.44,-4.66,39.76,-5.90,2.08,14.79,4.03,-1.90,-8.75
-8,12,501,-76,-438,3840,-0.27,0.46,19.11,-0.76,-4.38,38.40,-5.91,2.07,14.72,4.14,-1.74,-9.22
-9,5,485,-86,-427,3995,-0.30,0.45,20.16,-0.86,-4.27,39.95,-5.91,2.07,14.64,4.17,-1.59,-9.28
-18,2,489,-34,-454,3990,-0.38,0.41,21.12,-0.34,-4.54,39.90,-5.92,2.06,14.55,4.38,-1.51,-9.49
-2,5,487,9,-288,3927,-0.36,0.40,21.98,0.09,-2.88,39.27,-5.91,2.06,14.46,4.04,-1.57,-9.63
-4,-17,433,-3,-365,3959,-0.34,0.26,22.42,-0.03,-3.65,39.59,-5.90,2.05,14.37,4.07,-1.08,-9.25
0,11,395,-119,-518,3828,-0.31,0.30,22.59,-1.19,-5.18,38.28,-5.91,2.06,14.29,3.99,-1.66,-8.95
4,13,431,23,-375,3922,-0.25,0.35,22.96,0.23,-3.75,39.22,-5.91,2.05,14.19,3.89,-1.71,-9.32
4,13,416,-28,-389,3916,-0.20,0.39,23.20,-0.28,-3.89,39.16,-5.90,2.04,14.10,3.87,-1.72,-9.23
-14,8,427,17,-484,3944,-0.27,0.40,23.49,0.17,-4.84,39.44,-5.91,2.04,14.01,4.26,-1.62,-9.37
-4,21,429,32,-418,3890,-0.27,0.49,23.76,0.32,-4.18,38.90,-5.91,2.03,13.91,4.05,-1.90,-9.43
-8,7,368,-103,-392,3937,-0.29,0.48,23.62,-1.03,-3.92,39.37,-5.90,2.02,13.82,4.13,-1.61,-8.88
-8,14,421,-169,-444,3907,-0.31,0.52,23.83,-1.69,-4.44,39.07,-5.91,2.05,13.73,4.15,-1.78,-9.36
-17,8,428,-33,-424,3957,-0.38,0.52,24.06,-0.33,-4.24,39.57,-5.91,2.04,13.63,4.35,-1.65,-9.45
-9,16,430,-97,-425,3891,-0.40,0.56,24.28,-0.97,-4.25,38.91,-5.92,2.04,13.53,4.20,-1.82,-9.50
1,12,427,-161,-501,3817,-0.35,0.58,24.45,-1.61,-5.01,38.17,-5.93,2.05,13.44,3.99,-1.76,-9.50
-5,15,422,-152,-539,3905,-0.35,0.61,24.58,-1.52,-5.39,39.05,-5.95,2.07,13.34,4.12,-1.84,-9.47
-3,19,405,43,-420,3961,-0.33,0.67,24.59,0.43,-4.20,39.61,-5.95,2.06,13.24,4.08,-1.93,-9.32
2,18,407,49,-468,3907,-0.29,0.71,24.62,0.49,-4.68,39.07,-5.95,2.06,13.15,3.97,-1.92,-9.34
-2,8,346,-54,-497,3961,-0.27,0.69,24.27,-0.54,-4.97,39.61,-5.96,2.06,13.05,4.05,-1.71,-8.74
-10,7,347,4,-477,3894,-0.30,0.66,23.96,0.04,-4.77,38.94,-5.97,2.05,12.96,4.23,-1.68,-8.68
-10,-7,340,36,-407,3911,-0.33,0.55,23.63,0.36,-4.07,39.11,-5.97,2.05,12.86,4.23,-1.36,-8.55
-6,2,341,-56,-549,3939,-0.34,0.51,23.35,-0.56,-5.49,39.39,-5.98,2.05,12.77,4.16,-1.53,-8.50
-8,13,439,-171,-381,3911,-0.35,0.54,23.69,-1.71,-3.81,39.11,-5.96,2.07,12.67,4.20,-1.78,-9.39
-8,9,457,-181,-394,3968,-0.37,0.54,24.11,-1.81,-3.94,39.68,-5.95,2.10,12.58,4.19,-1.72,-9.61
-5,14,469,-80,-501,3928,-0.36,0.57,24.56,-0.80,-5.01,39.28,-5.97,2.10,12.48,4.14,-1.83,-9.79
-7,9,437,-59,-407,3840,-0.37,0.57,24.77,-0.59,-4.07,38.40,-5.97,2.10,12.38,4.18,-1.72,-9.55
3,-1,284,-9,-227,3953,-0.31,0.51,24.03,-0.09,-2.27,39.53,-5.95,2.10,12.29,3.95,-1.50,-8.10
-5,7,269,55,-289,3891,-0.31,0.50,23.26,0.55,-2.89,38.91,-5.94,2.10,12.19,4.11,-1.66,-7.82
-6,-6,103,167,-469,3885,-0.32,0.41,21.57,1.67,-4.69,38.85,-5.94,2.09,12.11,4.13,-1.37,-6.08
-7,-9,59,50,-494,3893,-0.33,0.32,19.77,0.50,-4.94,38.93,-5.95,2.08,12.03,4.16,-1.28,-5.36
-9,-13,39,-56,-449,3924,-0.35,0.20,18.03,-0.56,-4.49,39.24,-5.95,2.07,11.96,4.21,-1.16,-4.85
-1,2,84,-98,-521,3901,-0.32,0.20,16.74,-0.98,-5.21,39.01,-5.97,2.07,11.89,4.05,-1.46,-4.98
-3,11,210,-60,-548,3854,-0.31,0.24,16.35,-0.60,-5.48,38.54,-5.98,2.07,11.83,4.09,-1.66,-5.97
-3,8,228,-85,-500,3966,-0.29,0.27,16.10,-0.85,-5.00,39.66,-6.00,2.07,11.77,4.10,-1.60,-6.07
-5,8,298,-65,-617,3919,-0.30,0.29,16.31,-0.65,-6.17,39.19,-6.01,2.07,11.70,4.15,-1.61,-6.70
-2,13,340,-85,-597,3842,-0.28,0.34,16.75,-0.85,-5.97,38.42,-6.03,2.07,11.64,4.10,-1.73,-7.13
-1,4,409,-84,-375,3946,-0.26,0.33,17.57,-0.84,-3.75,39.46,-6.02,2.07,11.57,4.06,-1.54,-7.86
-11,-9,409,-61,-418,3908,-0.30,0.24,18.31,-0.61,-4.18,39.08,-6.02,2.06,11.49,4.28,-1.24,-8.00
-2,-2,444,-34,-310,3862,-0.28,0.21,19.19,-0.34,-3.10,38.62,-6.00,2.05,11.42,4.08,-1.37,-8.46
-9,-9,409,-80,-362,3974,-0.31,0.13,19.76,-0.80,-3.62,39.74,-5.99,2.05,11.34,4.22,-1.21,-8.26
-12,12,418,-177,-374,3844,-0.35,0.19,20.34,-1.77,-3.74,38.44,-5.98,2.07,11.26,4.28,-1.66,-8.44
1,2,436,-75,-420,4009,-0.31,0.18,20.96,-0.75,-4.20,40.09,-5.97,2.06,11.17,4.01,-1.45,-8.71
-7,-7,360,-28,-393,3930,-0.32,0.12,21.06,-0.28,-3.93,39.30,-5.97,2.06,11.09,4.17,-1.25,-8.07
-2,7,343,-11,-385,3875,-0.30,0.15,21.05,-0.11,-3.85,38.75,-5.97,2.05,11.00,4.06,-1.54,-7.92
-12,6,346,10,-455,3911,-0.34,0.17,21.05,0.10,-4.55,39.11,-5.97,2.04,10.92,4.28,-1.52,-7.94
-16,17,338,-24,-477,3871,-0.41,0.26,21.01,-0.24,-4.77,38.71,-5.98,2.03,10.84,4.38,-1.76,-7.85
-5,7,381,-151,-445,3938,-0.40,0.28,21.23,-1.51,-4.45,39.38,-5.99,2.05,10.75,4.17,-1.57,-8.25
-7,0,395,-115,-447,3917,-0.40,0.25,21.52,-1.15,-4.47,39.17,-6.01,2.05,10.67,4.22,-1.42,-8.42
-12,-4,474,63,-490,4009,-0.43,0.20,22.26,0.63,-4.90,40.09,-6.01,2.04,10.58,4.33,-1.32,-9.22
-9,-6,457,-54,-496,3857,-0.44,0.14,22.82,-0.54,-4.96,38.57,-6.02,2.04,10.49,4.28,-1.26,-9.18
-19,24,539,-55,-547,3782,-0.52,0.28,23.83,-0.55,-5.47,37.82,-6.04,2.04,10.40,4.51,-1.91,-10.06
1,1,503,61,-409,4039,-0.46,0.25,24.51,0.61,-4.09,40.39,-6.03,2.03,10.30,4.09,-1.43,-9.87
-11,8,421,53,-540,3934,-0.48,0.28,24.63,0.53,-5.40,39.34,-6.04,2.03,10.20,4.34,-1.58,-9.19
4,17,402,-30,-541,3867,-0.41,0.35,24.62,-0.30,-5.41,38.67,-6.06,2.03,10.10,4.03,-1.78,-9.02
12,20,344,-260,-168,4086,-0.29,0.44,24.26,-2.60,-1.68,40.86,-6.04,2.05,10.01,3.82,-1.88,-8.45
9,4,331,-207,-310,3901,-0.21,0.42,23.85,-2.07,-3.10,39.01,-6.02,2.07,9.91,3.85,-1.56,-8.25
-3,18,376,-185,-503,3953,-0.21,0.49,23.76,-1.85,-5.03,39.53,-6.03,2.09,9.82,4.10,-1.88,-8.61
3,9,390,-164,-495,3934,-0.17,0.49,23.76,-1.64,-4.95,39.34,-6.05,2.11,9.72,3.98,-1.71,-8.72
-7,-12,340,105,-425,3915,-0.19,0.37,23.46,1.05,-4.25,39.15,-6.05,2.10,9.63,4.18,-1.24,-8.23
-6,-3,310,69,-490,3887,-0.21,0.32,23.00,0.69,-4.90,38.87,-6.05,2.09,9.54,4.17,-1.41,-7.88
1,0,276,43,-500,3867,-0.18,0.28,22.39,0.43,-5.00,38.67,-6.05,2.09,9.45,4.03,-1.46,-7.47
1,-6,268,-40,-579,3860,-0.16,0.22,21.78,-0.40,-5.79,38.60,-6.07,2.09,9.36,4.03,-1.32,-7.28
-12,5,261,-50,-440,3901,-0.22,0.23,21.20,-0.50,-4.40,39.01,-6.07,2.08,9.28,4.31,-1.54,-7.10
-7,1,252,-77,-464,3931,-0.24,0.21,20.61,-0.77,-4.64,39.31,-6.08,2.07,9.20,4.22,-1.45,-6.90
-27,6,254,-69,-549,3895,-0.38,0.23,20.10,-0.69,-5.49,38.95,-6.09,2.08,9.12,4.67,-1.55,-6.81
-5,30,281,-186,-559,3896,-0.37,0.39,19.81,-1.86,-5.59,38.96,-6.11,2.09,9.04,4.23,-2.10,-6.98
-4,-12,146,187,-362,3978,-0.36,0.28,18.72,1.87,-3.62,39.78,-6.10,2.08,8.97,4.21,-1.20,-5.62
-1,-19,123,173,-386,3961,-0.33,0.13,17.59,1.73,-3.86,39.61,-6.10,2.07,8.90,4.14,-1.02,-5.21
-12,16,163,-191,-934,3701,-0.37,0.22,16.83,-1.91,-9.34,37.01,-6.12,2.08,8.83,4.38,-1.76,-5.39
-11,43,298,-118,-866,3857,-0.40,0.46,16.96,-1.18,-8.66,38.57,-6.14,2.09,8.76,4.38,-2.38,-6.56
-1,-9,307,91,-269,4026,-0.37,0.36,17.14,0.91,-2.69,40.26,-6.12,2.08,8.70,4.16,-1.29,-6.66
-7,-11,255,58,-525,3782,-0.37,0.25,16.98,0.58,-5.25,37.82,-6.13,2.08,8.63,4.29,-1.22,-6.18
-10,15,331,-173,-568,3821,-0.40,0.32,17.30,-1.73,-5.68,38.21,-6.15,2.09,8.56,4.37,-1.77,-6.88
-2,16,366,-76,-496,4005,-0.37,0.39,17.81,-0.76,-4.96,40.05,-6.16,2.08,8.49,4.21,-1.81,-7.27
-8,-4,291,-45,-694,3783,-0.38,0.32,17.80,-0.45,-6.94,37.83,-6.18,2.09,8.42,4.34,-1.38,-6.63
-11,26,354,-40,-850,3745,-0.41,0.45,18.18,-0.40,-8.50,37.45,-6.19,2.09,8.35,4.42,-2.03,-7.22
-8,-4,358,-87,-262,3960,-0.42,0.38,18.55,-0.87,-2.62,39.60,-6.18,2.10,8.27,4.35,-1.41,-7.32
1,2,337,-88,-494,3885,-0.37,0.35,18.75,-0.88,-4.94,38.85,-6.19,2.09,8.20,4.17,-1.52,-7.18
2,14,375,-81,-398,3913,-0.32,0.40,19.16,-0.81,-3.98,39.13,-6.18,2.09,8.12,4.13,-1.77,-7.57
-9,3,367,-111,-499,3876,-0.34,0.38,19.48,-1.11,-4.99,38.76,-6.20,2.09,8.05,4.37,-1.54,-7.56
2,15,374,-93,-538,3981,-0.30,0.44,19.82,-0.93,-5.38,39.81,-6.21,2.09,7.97,4.14,-1.80,-7.67
-6,9,388,-115,-533,3834,-0.30,0.45,20.20,-1.15,-5.33,38.34,-6.23,2.10,7.89,4.31,-1.69,-7.86
-1,15,307,-18,-570,3775,-0.28,0.49,20.05,-0.18,-5.70,37.75,-6.24,2.10,7.81,4.21,-1.82,-7.14
-7,26,329,-29,-616,3925,-0.29,0.60,20.05,-0.29,-6.16,39.25,-6.25,2.10,7.73,4.35,-2.08,-7.32
4,2,274,-25,-372,3955,-0.24,0.55,19.72,-0.25,-3.72,39.55,-6.24,2.09,7.65,4.10,-1.57,-6.78
2,-5,245,34,-264,3943,-0.20,0.47,19.24,0.34,-2.64,39.43,-6.23,2.09,7.58,4.13,-1.41,-6.44
-8,20,278,-72,-573,3875,-0.23,0.54,19.01,-0.72,-5.73,38.75,-6.24,2.09,7.50,4.35,-1.94,-6.66
-6,28,307,-50,-504,3909,-0.25,0.66,18.99,-0.50,-5.04,39.09,-6.25,2.09,7.43,4.32,-2.13,-6.90
-5,-3,278,-76,-417,3960,-0.25,0.58,18.78,-0.76,-4.17,39.60,-6.25,2.08,7.35,4.29,-1.47,-6.61
-2,3,270,-90,-324,3901,-0.24,0.54,18.55,-0.90,-3.24,39.01,-6.23,2.08,7.28,4.22,-1.58,-6.49
3,14,266,-1,-411,4039,-0.20,0.57,18.32,-0.01,-4.11,40.39,-6.22,2.08,7.21,4.10,-1.81,-6.40
1,12,279,-9,-512,3764,-0.17,0.58,18.19,-0.09,-5.12,37.64,-6.23,2.07,7.13,4.14,-1.77,-6.48
-2,1,320,-3,-465,3992,-0.17,0.53,18.32,-0.03,-4.65,39.92,-6.23,2.07,7.06,4.20,-1.53,-6.85
-7,-22,310,52,-266,3973,-0.19,0.34,18.38,0.52,-2.66,39.73,-6.22,2.06,6.99,4.30,-1.01,-6.77
-10,-3,206,-65,-679,3845,-0.23,0.29,17.80,-0.65,-6.79,38.45,-6.24,2.06,6.92,4.38,-1.38,-5.77
-8,19,269,-44,-795,3823,-0.26,0.38,17.66,-0.44,-7.95,38.23,-6.25,2.07,6.85,4.36,-1.86,-6.27
-13,-2,248,12,-492,3876,-0.31,0.33,17.41,0.12,-4.92,38.76,-6.26,2.06,6.78,4.48,-1.41,-6.04
-3,12,248,-45,-537,3871,-0.30,0.37,17.18,-0.45,-5.37,38.71,-6.27,2.06,6.71,4.28,-1.70,-5.99
1,-1,104,16,-421,3891,-0.26,0.33,16.10,0.16,-4.21,38.91,-6.27,2.05,6.65,4.19,-1.42,-4.56
0,-4,97,52,-597,3869,-0.24,0.27,15.08,0.52,-5.97,38.69,-6.28,2.04,6.59,4.21,-1.34,-4.30
-13,11,248,-86,-489,3872,-0.29,0.31,15.08,-0.86,-4.89,38.72,-6.29,2.04,6.53,4.50,-1.65,-5.57
5,9,234,-67,-305,4138,-0.23,0.33,15.00,-0.67,-3.05,41.38,-6.28,2.04,6.47,4.10,-1.62,-5.43
-1,-5,175,22,-345,3976,-0.22,0.27,14.57,0.22,-3.45,39.76,-6.27,2.03,6.41,4.22,-1.31,-4.84
-3,-12,144,6,-330,3886,-0.21,0.17,13.99,0.06,-3.30,38.86,-6.26,2.02,6.35,4.25,-1.14,-4.47
-5,10,201,-98,-632,3866,-0.22,0.21,13.82,-0.98,-6.32,38.66,-6.27,2.02,6.30,4.30,-1.60,-4.91
2,17,240,-45,-590,3889,-0.19,0.30,13.90,-0.45,-5.90,38.89,-6.29,2.02,6.25,4.16,-1.76,-5.25
-2,-1,269,29,-427,3907,-0.18,0.26,14.15,0.29,-4.27,39.07,-6.29,2.01,6.19,4.24,-1.38,-5.54
0,8,251,-41,-451,3876,-0.16,0.28,14.27,-0.41,-4.51,38.76,-6.29,2.00,6.13,4.19,-1.56,-5.41
-10,2,267,-79,-554,3823,-0.21,0.27,14.47,-0.79,-5.54,38.23,-6.30,2.00,6.08,4.42,-1.43,-5.57
-1,16,294,-30,-547,3872,-0.19,0.34,14.82,-0.30,-5.47,38.72,-6.32,2.00,6.02,4.24,-1.74,-5.86
-6,-3,303,-51,-392,3980,-0.21,0.29,15.18,-0.51,-3.92,39.80,-6.31,1.99,5.96,4.34,-1.33,-6.00
-1,9,297,-96,-509,3912,-0.20,0.31,15.48,-0.96,-5.09,39.12,-6.32,1.99,5.90,4.25,-1.58,-6.00
-4,-11,310,-38,-414,3978,-0.20,0.21,15.82,-0.38,-4.14,39.78,-6.32,1.98,5.83,4.30,-1.14,-6.17
-2,0,321,-93,-602,3830,-0.19,0.19,16.20,-0.93,-6.02,38.30,-6.33,1.98,5.77,4.27,-1.36,-6.33
5,45,412,-17,-43,4117,-0.14,0.45,17.09,-0.17,-0.43,41.17,-6.31,1.99,5.70,4.10,-2.35,-7.27
-8,-15,366,95,16,4107,-0.18,0.31,17.61,0.95,0.16,41.07,-6.29,1.99,5.63,4.37,-1.09,-6.97
-4,40,434,-37,-819,3880,-0.18,0.52,18.50,-0.37,-8.19,38.80,-6.31,1.99,5.56,4.30,-2.27,-7.71
-26,11,486,-98,-639,3931,-0.32,0.54,19.61,-0.98,-6.39,39.31,-6.33,2.00,5.48,4.79,-1.69,-8.36
-12,-11,446,-33,-450,3904,-0.36,0.42,20.37,-0.33,-4.50,39.04,-6.33,1.99,5.40,4.52,-1.20,-8.16
-15,-1,441,-107,-429,3903,-0.42,0.37,21.03,-1.07,-4.29,39.03,-6.32,1.98,5.32,4.59,-1.39,-8.23
2,6,336,-7,-495,4021,-0.37,0.37,20.97,-0.07,-4.95,40.21,-6.33,1.98,5.23,4.24,-1.53,-7.33
-5,5,328,-123,-509,3871,-0.36,0.36,20.88,-1.23,-5.09,38.71,-6.35,1.99,5.15,4.39,-1.51,-7.23
-12,14,341,46,-559,3903,-0.40,0.41,20.87,0.46,-5.59,39.03,-6.36,1.98,5.07,4.55,-1.70,-7.33
0,19,337,0,-501,3909,-0.36,0.49,20.84,0.00,-5.01,39.09,-6.36,1.98,4.99,4.30,-1.82,-7.29
-11,9,354,-150,-688,3733,-0.39,0.49,20.91,-1.50,-6.88,37.33,-6.38,1.99,4.90,4.54,-1.63,-7.44
-3,24,408,-7,-615,3989,-0.37,0.59,21.31,-0.07,-6.15,39.89,-6.39,1.99,4.82,4.38,-1.96,-7.96
-7,15,417,-36,-697,3954,-0.37,0.62,21.72,-0.36,-6.97,39.54,-6.41,1.99,4.73,4.47,-1.79,-8.11
-18,9,460,-29,-732,3781,-0.45,0.62,22.36,-0.29,-7.32,37.81,-6.42,2.00,4.65,4.73,-1.67,-8.59
-9,-7,450,-59,-405,3872,-0.46,0.51,22.87,-0.59,-4.05,38.72,-6.41,2.00,4.56,4.54,-1.31,-8.59
-11,3,425,-61,-443,3937,-0.48,0.48,23.17,-0.61,-4.43,39.37,-6.41,1.99,4.46,4.59,-1.50,-8.43
-2,-25,387,175,-45,4234,-0.44,0.28,23.22,1.75,-0.45,42.34,-6.40,1.99,4.37,4.38,-0.88,-8.11
9,24,375,-120,-733,3734,-0.34,0.40,23.18,-1.20,-7.33,37.34,-6.41,2.00,4.28,4.14,-1.92,-7.99
-14,15,513,99,-314,4159,-0.39,0.45,23.99,0.99,-3.14,41.59,-6.40,2.00,4.18,4.62,-1.75,-9.31
-3,-12,478,-26,-355,3899,-0.37,0.33,24.51,-0.26,-3.55,38.99,-6.39,2.00,4.09,4.38,-1.16,-9.10
-20,14,497,-123,-402,3867,-0.46,0.38,25.09,-1.23,-4.02,38.67,-6.37,2.00,3.99,4.74,-1.71,-9.36
-15,17,493,-106,-388,3960,-0.50,0.45,25.59,-1.06,-3.88,39.60,-6.35,2.01,3.88,4.64,-1.79,-9.42
-5,24,464,9,-557,4010,-0.48,0.55,25.86,0.09,-5.57,40.10,-6.36,2.00,3.78,4.43,-1.96,-9.21
-22,3,467,-2,-482,3898,-0.57,0.51,26.12,-0.02,-4.82,38.98,-6.37,2.00,3.68,4.81,-1.52,-9.28
-5,-1,439,-21,-360,4035,-0.54,0.46,26.19,-0.21,-3.60,40.35,-6.36,2.00,3.57,4.44,-1.42,-9.05
4,-4,413,-28,-310,3890,-0.46,0.39,26.09,-0.28,-3.10,38.90,-6.34,2.00,3.47,4.23,-1.34,-8.80
4,16,442,42,-520,3813,-0.39,0.44,26.18,0.42,-5.20,38.13,-6.35,2.00,3.37,4.21,-1.77,-9.05
-2,4,407,-39,-308,4103,-0.37,0.42,26.04,-0.39,-3.08,41.03,-6.33,2.00,3.26,4.32,-1.52,-8.72
0,16,368,-62,-627,3871,-0.33,0.48,25.68,-0.62,-6.27,38.71,-6.34,2.01,3.16,4.28,-1.78,-8.31
-11,19,393,-56,-540,3935,-0.36,0.55,25.51,-0.56,-5.40,39.35,-6.36,2.01,3.06,4.52,-1.86,-8.48
-5,16,375,64,-418,3962,-0.36,0.59,25.25,0.64,-4.18,39.62,-6.35,2.00,2.96,4.39,-1.81,-8.27
-3,12,367,29,-388,3901,-0.34,0.60,24.96,0.29,-3.88,39.01,-6.35,2.00,2.86,4.34,-1.73,-8.14
-8,11,340,-54,-471,3843,-0.36,0.61,24.54,-0.54,-4.71,38.43,-6.35,2.00,2.76,4.45,-1.71,-7.82
-6,13,333,-53,-476,3969,-0.36,0.63,24.12,-0.53,-4.76,39.69,-6.36,1.99,2.67,4.41,-1.75,-7.67
-6,2,351,-46,-469,3962,-0.36,0.58,23.85,-0.46,-4.69,39.62,-6.36,1.99,2.57,4.42,-1.51,-7.76
-9,3,342,-131,-428,3893,-0.38,0.54,23.55,-1.31,-4.28,38.93,-6.34,1.99,2.48,4.47,-1.52,-7.62
-7,7,297,53,-450,3931,-0.38,0.53,23.00,0.53,-4.50,39.31,-6.34,1.98,2.39,4.43,-1.60,-7.13
-10,8,316,2,-551,3882,-0.40,0.52,22.63,0.02,-5.51,38.82,-6.35,1.98,2.30,4.51,-1.61,-7.21
-1,18,360,-46,-597,3790,-0.37,0.58,22.56,-0.46,-5.97,37.90,-6.37,1.99,2.21,4.33,-1.84,-7.56
-12,10,374,-25,-488,4008,-0.41,0.58,22.59,-0.25,-4.88,40.08,-6.37,1.98,2.12,4.56,-1.67,-7.68
3,7,327,-18,-601,3976,-0.35,0.57,22.33,-0.18,-6.01,39.76,-6.39,1.98,2.03,4.25,-1.61,-7.22
-5,13,353,-15,-652,3747,-0.34,0.59,22.25,-0.15,-6.52,37.47,-6.40,1.99,1.95,4.42,-1.74,-7.42
4,8,366,-38,-452,3829,-0.28,0.58,22.25,-0.38,-4.52,38.29,-6.40,1.98,1.86,4.22,-1.63,-7.52
-8,8,364,-60,-410,3924,-0.30,0.57,22.25,-0.60,-4.10,39.24,-6.40,1.98,1.77,4.47,-1.62,-7.50
-8,21,317,15,-459,3885,-0.32,0.64,21.96,0.15,-4.59,38.85,-6.40,1.97,1.68,4.47,-1.90,-7.03
-1,3,303,73,-421,4039,-0.30,0.60,21.61,0.73,-4.21,40.39,-6.39,1.96,1.60,4.32,-1.52,-6.84
-11,-9,261,-90,-393,3828,-0.33,0.48,21.04,-0.90,-3.93,38.28,-6.38,1.96,1.51,4.52,-1.24,-6.37
-8,10,238,-52,-399,3984,-0.35,0.49,20.39,-0.52,-3.99,39.84,-6.37,1.96,1.43,4.46,-1.63,-6.04
1,-3,81,-114,-370,3955,-0.31,0.43,18.84,-1.14,-3.70,39.55,-6.35,1.96,1.36,4.25,-1.35,-4.41
2,2,64,-72,-421,3887,-0.27,0.40,17.35,-0.72,-4.21,38.87,-6.35,1.95,1.29,4.22,-1.44,-3.97
-8,20,150,-17,-559,3898,-0.29,0.48,16.53,-0.17,-5.59,38.98,-6.36,1.95,1.22,4.44,-1.82,-4.54
-2,13,152,49,-473,3927,-0.27,0.51,15.80,0.49,-4.73,39.27,-6.36,1.94,1.16,4.31,-1.68,-4.41
-10,9,205,-18,-537,3893,-0.31,0.51,15.47,-0.18,-5.37,38.93,-6.37,1.94,1.10,4.49,-1.60,-4.79
-17,6,210,71,-525,3884,-0.38,0.50,15.21,0.71,-5.25,38.84,-6.38,1.93,1.04,4.66,-1.53,-4.78
-1,-4,162,-48,-415,3883,-0.35,0.42,14.68,-0.48,-4.15,38.83,-6.37,1.92,0.98,4.32,-1.30,-4.27
2,-3,157,-55,-438,3939,-0.30,0.36,14.17,-0.55,-4.38,39.39,-6.37,1.91,0.92,4.25,-1.30,-4.12
-5,-17,189,-89,-535,3909,-0.30,0.22,13.90,-0.89,-5.35,39.09,-6.39,1.91,0.87,4.40,-0.97,-4.34
-6,-6,208,35,-587,3854,-0.31,0.17,13.78,0.35,-5.87,38.54,-6.40,1.90,0.81,4.43,-1.18,-4.47
-7,-7,250,52,-456,3968,-0.32,0.11,13.93,0.52,-4.56,39.68,-6.40,1.89,0.76,4.45,-1.13,-4.85
-2,-14,239,54,-462,3946,-0.30,0.01,13.99,0.54,-4.62,39.46,-6.40,1.88,0.70,4.35,-0.96,-4.76
-10,5,240,-5,-500,3861,-0.33,0.04,14.06,-0.05,-5.00,38.61,-6.41,1.87,0.65,4.52,-1.34,-4.78
-9,11,224,2,-478,3966,-0.35,0.10,14.02,0.02,-4.78,39.66,-6.41,1.86,0.59,4.51,-1.48,-4.63
-2,4,206,-39,-529,3865,-0.33,0.12,13.87,-0.39,-5.29,38.65,-6.43,1.85,0.54,4.37,-1.33,-4.44
3,14,210,-74,-540,3898,-0.28,0.19,13.77,-0.74,-5.40,38.98,-6.44,1.85,0.48,4.27,-1.56,-4.45
-5,5,221,-49,-475,3971,-0.28,0.20,13.74,-0.49,-4.75,39.71,-6.45,1.84,0.43,4.43,-1.37,-4.54
-5,9,223,-54,-485,3884,-0.28,0.24,13.72,-0.54,-4.85,38.84,-6.46,1.83,0.38,4.44,-1.46,-4.55
-4,13,253,24,-528,3939,-0.28,0.29,13.90,0.24,-5.28,39.39,-6.47,1.82,0.32,4.42,-1.55,-4.83
-10,13,280,15,-563,3912,-0.31,0.34,14.21,0.15,-5.63,39.12,-6.48,1.81,0.26,4.56,-1.56,-5.11
-8,-5,277,-6,-604,3863,-0.33,0.28,14.48,-0.06,-6.04,38.63,-6.49,1.81,0.21,4.54,-1.17,-5.13
-12,6,301,10,-740,3785,-0.37,0.29,14.87,0.10,-7.40,37.85,-6.51,1.81,0.15,4.64,-1.40,-5.41
-20,-5,371,44,-467,3915,-0.46,0.23,15.65,0.44,-4.67,39.15,-6.51,1.80,0.09,4.83,-1.15,-6.14
-7,4,369,40,-490,3924,-0.45,0.23,16.33,0.40,-4.90,39.24,-6.51,1.79,0.02,4.56,-1.33,-6.25
-7,-2,391,-124,-513,3885,-0.45,0.19,17.08,-1.24,-5.13,38.85,-6.53,1.80,-0.05,4.58,-1.20,-6.57
-1,21,413,-20,-510,3780,-0.41,0.30,17.90,-0.20,-5.10,37.80,-6.54,1.80,-0.12,4.45,-1.70,-6.91
-5,2,412,-105,-384,3933,-0.40,0.28,18.62,-1.05,-3.84,39.33,-6.52,1.80,-0.19,4.52,-1.31,-7.03
-4,-15,407,-107,-432,4076,-0.38,0.16,19.24,-1.07,-4.32,40.76,-6.51,1.80,-0.27,4.48,-0.93,-7.10
-23,-8,433,-72,-439,4025,-0.49,0.10,19.96,-0.72,-4.39,40.25,-6.50,1.79,-0.35,4.89,-1.05,-7.45
-10,25,448,-44,-608,3906,-0.50,0.24,20.69,-0.44,-6.08,39.06,-6.52,1.80,-0.43,4.64,-1.76,-7.71
-14,20,482,-50,-362,4009,-0.53,0.34,21.56,-0.50,-3.62,40.09,-6.50,1.79,-0.51,4.72,-1.68,-8.16
-3,25,483,-76,-452,3843,-0.50,0.46,22.35,-0.76,-4.52,38.43,-6.51,1.79,-0.60,4.49,-1.81,-8.31
0,23,465,56,-411,3913,-0.45,0.55,22.96,0.56,-4.11,39.13,-6.50,1.78,-0.69,4.41,-1.80,-8.26
0,16,458,7,-470,3917,-0.40,0.60,23.45,0.07,-4.70,39.17,-6.50,1.78,-0.79,4.40,-1.66,-8.29
-11,-3,447,38,-418,3971,-0.43,0.52,23.84,0.38,-4.18,39.71,-6.50,1.77,-0.88,4.63,-1.25,-8.26
-7,4,455,43,-529,3814,-0.43,0.49,24.23,0.43,-5.29,38.14,-6.51,1.77,-0.98,4.55,-1.38,-8.40
-5,5,481,73,-508,3893,-0.42,0.47,24.74,0.73,-5.08,38.93,-6.51,1.77,-1.08,4.51,-1.40,-8.71
-9,-4,473,-9,-365,3974,-0.43,0.40,25.15,-0.09,-3.65,39.74,-6.50,1.77,-1.18,4.59,-1.19,-8.71
-1,18,457,-66,-404,3946,-0.39,0.47,25.42,-0.66,-4.04,39.46,-6.49,1.76,-1.28,4.41,-1.66,-8.62
2,11,410,-86,-365,4002,-0.34,0.49,25.38,-0.86,-3.65,40.02,-6.47,1.77,-1.38,4.32,-1.53,-8.20
-8,31,353,22,-390,3910,-0.36,0.63,25.00,0.22,-3.90,39.10,-6.46,1.77,-1.48,4.52,-1.97,-7.63
3,55,380,77,-380,3942,-0.30,0.90,24.81,0.77,-3.80,39.42,-6.45,1.76,-1.58,4.28,-2.53,-7.82
1,44,477,116,-502,3853,-0.27,1.08,25.24,1.16,-5.02,38.53,-6.45,1.76,-1.68,4.31,-2.35,-8.71
2,32,471,104,-521,3829,-0.23,1.17,25.59,1.04,-5.21,38.29,-6.46,1.76,-1.78,4.28,-2.13,-8.72
1,12,345,-308,-401,3905,-0.20,1.12,25.14,-3.08,-4.01,39.05,-6.45,1.80,-1.88,4.29,-1.74,-7.56
-10,-8,319,-216,-455,3963,-0.24,0.96,24.57,-2.16,-4.55,39.63,-6.45,1.83,-1.97,4.53,-1.31,-7.22
-3,-11,236,-51,-481,3876,-0.23,0.80,23.55,-0.51,-4.81,38.76,-6.46,1.83,-2.07,4.39,-1.20,-6.31
-14,-6,225,-45,-491,3855,-0.30,0.68,22.57,-0.45,-4.91,38.55,-6.47,1.82,-2.16,4.63,-1.27,-6.03
-7,-4,207,-85,-495,3909,-0.31,0.59,21.58,-0.85,-4.95,39.09,-6.48,1.82,-2.24,4.50,-1.28,-5.68
-8,-7,208,-56,-461,3899,-0.33,0.49,20.69,-0.56,-4.61,38.99,-6.48,1.82,-2.32,4.53,-1.19,-5.51
-3,0,239,58,-496,3965,-0.31,0.44,20.08,0.58,-4.96,39.65,-6.49,1.81,-2.40,4.43,-1.32,-5.65
-1,-3,232,36,-438,3924,-0.29,0.38,19.48,0.36,-4.38,39.24,-6.49,1.80,-2.48,4.38,-1.23,-5.47
-11,2,196,-108,-535,3915,-0.33,0.35,18.73,-1.08,-5.35,39.15,-6.50,1.81,-2.55,4.60,-1.33,-5.01
-2,24,213,-90,-578,3856,-0.31,0.46,18.16,-0.90,-5.78,38.56,-6.52,1.82,-2.62,4.43,-1.81,-5.04
-4,14,213,8,-507,3952,-0.30,0.50,17.64,0.08,-5.07,39.52,-6.52,1.81,-2.69,4.47,-1.62,-4.93
-5,4,201,42,-447,3920,-0.30,0.48,17.10,0.42,-4.47,39.20,-6.52,1.80,-2.76,4.49,-1.40,-4.72
-1,4,169,-56,-443,3901,-0.28,0.45,16.42,-0.56,-4.43,39.01,-6.52,1.79,-2.83,4.40,-1.39,-4.32
-5,1,158,-45,-487,3920,-0.28,0.41,15.74,-0.45,-4.87,39.20,-6.53,1.78,-2.89,4.49,-1.31,-4.09
0,0,138,60,-410,3886,-0.25,0.37,15.01,0.60,-4.10,38.86,-6.52,1.77,-2.95,4.37,-1.27,-3.77
-1,9,170,-26,-583,3876,-0.23,0.39,14.55,-0.26,-5.83,38.76,-6.54,1.77,-3.01,4.40,-1.46,-3.95
-6,1,208,-12,-454,3913,-0.25,0.36,14.36,-0.12,-4.54,39.13,-6.54,1.76,-3.06,4.50,-1.28,-4.23
-2,0,196,0,-401,3935,-0.23,0.32,14.12,0.00,-4.01,39.35,-6.53,1.75,-3.12,4.42,-1.24,-4.08
-4,6,169,-72,-498,3929,-0.23,0.33,13.74,-0.72,-4.98,39.29,-6.54,1.75,-3.17,4.46,-1.36,-3.77
-4,5,169,0,-477,3890,-0.24,0.32,13.40,0.00,-4.77,38.90,-6.55,1.74,-3.23,4.47,-1.34,-3.70
-1,10,166,-17,-546,3866,-0.22,0.35,13.07,-0.17,-5.46,38.66,-6.56,1.73,-3.28,4.41,-1.44,-3.61
-6,3,173,-5,-512,3958,-0.23,0.34,12.82,-0.05,-5.12,39.58,-6.57,1.72,-3.33,4.52,-1.29,-3.62
-1,4,163,-42,-487,3904,-0.22,0.33,12.53,-0.42,-4.87,39.04,-6.57,1.71,-3.38,4.42,-1.30,-3.47
-9,4,172,-54,-506,3889,-0.25,0.32,12.33,-0.54,-5.06,38.89,-6.59,1.71,-3.43,4.60,-1.29,-3.50
-2,-7,134,9,-412,3921,-0.24,0.24,11.91,0.09,-4.12,39.21,-6.58,1.69,-3.47,4.45,-1.04,-3.10
-3,-7,111,-8,-451,3886,-0.23,0.18,11.40,-0.08,-4.51,38.86,-6.58,1.68,-3.52,4.47,-1.02,-2.80
-7,3,145,57,-568,3898,-0.25,0.18,11.14,0.57,-5.68,38.98,-6.59,1.67,-3.56,4.56,-1.21,-3.04
-10,11,158,61,-518,3846,-0.29,0.23,10.99,0.61,-5.18,38.46,-6.60,1.66,-3.61,4.64,-1.38,-3.11
-3,5,136,-26,-493,3880,-0.28,0.23,10.72,-0.26,-4.93,38.80,-6.61,1.65,-3.65,4.50,-1.26,-2.87
2,2,125,-2,-465,3976,-0.24,0.22,10.41,-0.02,-4.65,39.76,-6.61,1.64,-3.69,4.38,-1.18,-2.72
0,-2,129,65,-451,3911,-0.21,0.19,10.16,0.65,-4.51,39.11,-6.61,1.63,-3.73,4.42,-1.08,-2.70
2,2,122,60,-487,3863,-0.18,0.18,9.89,0.60,-4.87,38.63,-6.61,1.61,-3.77,4.37,-1.15,-2.58
-4,-15,104,-72,-330,3949,-0.19,0.07,9.53,-0.72,-3.30,39.49,-6.59,1.61,-3.81,4.48,-0.78,-2.36
-2,-11,80,-69,-355,3893,-0.18,-0.00,9.07,-0.69,-3.55,38.93,-6.57,1.61,-3.84,4.43,-0.84,-2.06
0,-8,40,-19,-490,3897,-0.16,-0.05,8.40,-0.19,-4.90,38.97,-6.58,1.60,-3.88,4.39,-0.88,-1.60
0,-11,46,-15,-508,3923,-0.15,-0.11,7.84,-0.15,-5.08,39.23,-6.59,1.58,-3.91,4.39,-0.79,-1.54
-4,1,36,-88,-512,3937,-0.16,-0.10,7.28,-0.88,-5.12,39.37,-6.61,1.58,-3.94,4.48,-1.04,-1.34
-5,4,49,-83,-564,3915,-0.17,-0.06,6.85,-0.83,-5.64,39.15,-6.63,1.58,-3.96,4.52,-1.11,-1.37
2,8,76,106,-570,3863,-0.14,-0.01,6.63,1.06,-5.70,38.63,-6.63,1.57,-3.99,4.38,-1.19,-1.55
1,9,87,69,-587,3885,-0.12,0.05,6.50,0.69,-5.87,38.85,-6.64,1.55,-4.01,4.40,-1.22,-1.62
0,6,143,1,-425,4009,-0.11,0.08,6.72,0.01,-4.25,40.09,-6.64,1.54,-4.04,4.41,-1.16,-2.13
-1,-9,129,-24,-324,3928,-0.10,0.02,6.83,-0.24,-3.24,39.28,-6.62,1.53,-4.07,4.42,-0.83,-2.03
-2,-3,54,-110,-356,3913,-0.11,-0.00,6.48,-1.10,-3.56,39.13,-6.60,1.54,-4.10,4.43,-0.95,-1.33
1,-3,39,-72,-395,3907,-0.09,-0.02,6.07,-0.72,-3.95,39.07,-6.59,1.53,-4.12,4.35,-0.94,-1.12
-1,-5,32,-40,-495,3917,-0.09,-0.05,5.66,-0.40,-4.95,39.17,-6.60,1.52,-4.14,4.40,-0.89,-0.98
3,-3,45,-30,-538,3930,-0.06,-0.06,5.37,-0.30,-5.38,39.30,-6.61,1.51,-4.16,4.32,-0.92,-1.03
-1,1,98,23,-524,3910,-0.06,-0.05,5.43,0.23,-5.24,39.10,-6.62,1.49,-4.18,4.41,-0.99,-1.49
-6,1,106,-14,-538,3904,-0.09,-0.04,5.53,-0.14,-5.38,39.04,-6.63,1.48,-4.21,4.52,-0.99,-1.58
4,2,51,-52,-414,3900,-0.06,-0.02,5.29,-0.52,-4.14,39.00,-6.62,1.47,-4.23,4.30,-1.01,-1.06
6,5,38,-44,-447,3921,-0.01,0.01,4.99,-0.44,-4.47,39.21,-6.62,1.46,-4.25,4.25,-1.07,-0.89
4,4,30,-61,-493,3932,0.01,0.03,4.68,-0.61,-4.93,39.32,-6.63,1.44,-4.27,4.29,-1.04,-0.76
3,5,36,-43,-508,3901,0.03,0.06,4.43,-0.43,-5.08,39.01,-6.64,1.43,-4.28,4.31,-1.06,-0.77
-3,1,53,-15,-505,3914,0.01,0.06,4.31,-0.15,-5.05,39.14,-6.65,1.42,-4.30,4.45,-0.97,-0.89
-6,3,64,-51,-565,3888,-0.03,0.07,4.27,-0.51,-5.65,38.88,-6.67,1.42,-4.32,4.53,-1.02,-0.97
-3,0,126,89,-530,3891,-0.05,0.07,4.61,0.89,-5.30,38.91,-6.67,1.40,-4.33,4.48,-0.94,-1.56
-1,-2,125,-1,-475,3926,-0.05,0.05,4.91,-0.01,-4.75,39.26,-6.68,1.39,-4.35,4.44,-0.89,-1.61
-3,6,121,-22,-506,3894,-0.06,0.08,5.16,-0.22,-5.06,38.94,-6.69,1.37,-4.37,4.49,-1.05,-1.62
2,13,115,17,-477,3931,-0.04,0.15,5.34,0.17,-4.77,39.31,-6.69,1.36,-4.40,4.38,-1.20,-1.60
2,15,104,-89,-464,3927,-0.03,0.23,5.44,-0.89,-4.64,39.27,-6.70,1.35,-4.42,4.39,-1.26,-1.52
1,15,107,-17,-504,3886,-0.02,0.30,5.55,-0.17,-5.04,38.86,-6.71,1.33,-4.44,4.41,-1.27,-1.57
3,5,65,-19,-414,3868,0.00,0.30,5.39,-0.19,-4.14,38.68,-6.70,1.32,-4.46,4.36,-1.06,-1.18
2,3,54,-36,-430,3925,0.01,0.29,5.18,-0.36,-4.30,39.25,-6.69,1.31,-4.48,4.37,-1.00,-1.04
3,4,58,-27,-476,3915,0.03,0.28,5.02,-0.27,-4.76,39.15,-6.69,1.30,-4.50,4.35,-1.01,-1.05
2,3,57,16,-479,3891,0.04,0.27,4.86,0.16,-4.79,38.91,-6.70,1.28,-4.52,4.37,-0.98,-1.01
3,0,9,22,-438,3891,0.05,0.24,4.43,0.22,-4.38,38.91,-6.69,1.27,-4.54,4.34,-0.90,-0.52
6,1,-4,16,-468,3910,0.09,0.23,3.97,0.16,-4.68,39.10,-6.69,1.25,-4.55,4.27,-0.91,-0.31
5,4,-9,-14,-491,3916,0.11,0.23,3.51,-0.14,-4.91,39.16,-6.70,1.24,-4.57,4.29,-0.96,-0.18
3,3,-7,-14,-474,3919,0.12,0.22,3.12,-0.14,-4.74,39.19,-6.70,1.22,-4.58,4.33,-0.93,-0.12
-2,1,-3,-18,-496,3938,0.09,0.21,2.79,-0.18,-4.96,39.38,-6.71,1.21,-4.59,4.44,-0.87,-0.09
-3,1,-3,-19,-500,3934,0.06,0.19,2.49,-0.19,-5.00,39.34,-6.72,1.19,-4.60,4.48,-0.86,-0.04
-1,-3,-3,-26,-516,3918,0.05,0.15,2.22,-0.26,-5.16,39.18,-6.73,1.18,-4.61,4.45,-0.76,0.01
2,-11,-17,-93,-588,3877,0.06,0.07,1.90,-0.93,-5.88,38.77,-6.75,1.18,-4.61,4.40,-0.58,0.20
4,-9,-38,40,-417,3945,0.08,0.01,1.48,0.40,-4.17,39.45,-6.74,1.17,-4.62,4.35,-0.59,0.46
2,-5,-32,50,-408,3901,0.08,-0.02,1.13,0.50,-4.08,39.01,-6.73,1.15,-4.63,4.38,-0.65,0.47
0,2,-32,-1,-484,3920,0.07,-0.01,0.83,-0.01,-4.84,39.20,-6.74,1.13,-4.63,4.43,-0.79,0.53
0,2,-36,-19,-452,3920,0.07,0.01,0.52,-0.19,-4.52,39.20,-6.74,1.12,-4.63,4.43,-0.78,0.62
-2,2,-32,0,-478,3920,0.05,0.02,0.28,0.00,-4.78,39.20,-6.74,1.10,-4.63,4.48,-0.77,0.64
-2,1,-34,27,-504,3900,0.03,0.02,0.04,0.27,-5.04,39.00,-6.75,1.08,-4.63,4.48,-0.74,0.70
9,0,-64,-11,-460,3948,0.08,0.02,-0.35,-0.11,-4.60,39.48,-6.74,1.06,-4.63,4.24,-0.71,1.03
6,-1,-54,-85,-393,3989,0.11,0.01,-0.65,-0.85,-3.93,39.89,-6.72,1.07,-4.63,4.29,-0.69,1.00
0,7,-46,25,-456,3938,0.10,0.05,-0.86,0.25,-4.56,39.38,-6.72,1.05,-4.62,4.41,-0.85,0.97
0,6,-51,-3,-440,3904,0.09,0.08,-1.09,-0.03,-4.40,39.04,-6.72,1.03,-4.62,4.41,-0.82,1.06
6,4,-64,-29,-473,3913,0.12,0.10,-1.37,-0.29,-4.73,39.13,-6.72,1.01,-4.61,4.28,-0.78,1.22
2,4,-59,-41,-513,3911,0.12,0.11,-1.59,-0.41,-5.13,39.11,-6.74,1.00,-4.61,4.37,-0.77,1.22
-5,-1,-30,-3,-489,3898,0.08,0.10,-1.62,-0.03,-4.89,38.98,-6.74,0.99,-4.60,4.53,-0.66,0.98
-4,-3,-30,11,-488,3917,0.04,0.07,-1.64,0.11,-4.88,39.17,-6.75,0.97,-4.59,4.52,-0.60,0.98
-3,-4,-22,-26,-496,3918,0.02,0.04,-1.61,-0.26,-4.96,39.18,-6.76,0.95,-4.59,4.52,-0.56,0.91
-2,-3,-18,-21,-498,3908,0.01,0.02,-1.56,-0.21,-4.98,39.08,-6.77,0.94,-4.58,4.51,-0.56,0.86
-2,-1,-16,-75,-493,3917,-0.01,0.01,-1.50,-0.75,-4.93,39.17,-6.79,0.94,-4.58,4.52,-0.60,0.83
-2,-3,-20,-81,-513,3932,-0.02,-0.01,-1.47,-0.81,-5.13,39.32,-6.81,0.95,-4.57,4.54,-0.56,0.86
0,-5,-20,-25,-504,3919,-0.02,-0.04,-1.45,-0.25,-5.04,39.19,-6.82,0.93,-4.56,4.51,-0.50,0.86
-1,-5,-22,-47,-497,3894,-0.02,-0.07,-1.44,-0.47,-4.97,38.94,-6.84,0.92,-4.56,4.54,-0.49,0.87
2,1,-32,-32,-478,3907,-0.01,-0.05,-1.49,-0.32,-4.78,39.07,-6.84,0.91,-4.55,4.48,-0.60,0.96
2,1,-33,-23,-453,3917,0.01,-0.04,-1.54,-0.23,-4.53,39.17,-6.83,0.89,-4.55,4.47,-0.59,0.98
2,8,-31,-37,-489,3913,0.02,0.01,-1.57,-0.37,-4.89,39.13,-6.85,0.87,-4.54,4.47,-0.74,0.97
3,6,-35,-39,-466,3910,0.03,0.05,-1.63,-0.39,-4.66,39.10,-6.84,0.85,-4.53,4.45,-0.70,1.02
-1,3,-51,-21,-467,3931,0.03,0.06,-1.78,-0.21,-4.67,39.31,-6.84,0.84,-4.53,4.53,-0.63,1.18
3,1,-53,-19,-460,3905,0.04,0.06,-1.92,-0.19,-4.60,39.05,-6.84,0.82,-4.52,4.44,-0.58,1.22
-2,-1,-49,-16,-472,3895,0.02,0.05,-2.03,-0.16,-4.72,38.95,-6.84,0.80,-4.51,4.55,-0.52,1.21
2,-1,-48,6,-453,3914,0.03,0.04,-2.12,0.06,-4.53,39.14,-6.83,0.78,-4.50,4.46,-0.50,1.22
3,-1,-24,26,-440,3919,0.05,0.03,-2.05,0.26,-4.40,39.19,-6.83,0.76,-4.49,4.43,-0.49,1.00
3,1,-19,2,-459,3915,0.06,0.03,-1.97,0.02,-4.59,39.15,-6.82,0.74,-4.49,4.43,-0.52,0.94
1,8,-20,-24,-455,3922,0.06,0.08,-1.89,-0.24,-4.55,39.22,-6.82,0.73,-4.48,4.46,-0.66,0.93
0,6,-22,-72,-432,3953,0.06,0.11,-1.84,-0.72,-4.32,39.53,-6.80,0.73,-4.47,4.47,-0.64,0.94
-1,5,-60,-38,-459,3901,0.04,0.13,-2.02,-0.38,-4.59,39.01,-6.79,0.72,-4.46,4.49,-0.61,1.30
0,4,-76,4,-488,3919,0.04,0.14,-2.28,0.04,-4.88,39.19,-6.80,0.70,-4.45,4.48,-0.58,1.48
-4,-2,-49,56,-481,3925,0.01,0.11,-2.35,0.56,-4.81,39.25,-6.80,0.68,-4.44,4.57,-0.44,1.26
-3,-1,-36,35,-484,3907,-0.01,0.09,-2.34,0.35,-4.84,39.07,-6.80,0.66,-4.44,4.55,-0.44,1.15
0,-3,-29,-5,-480,3924,-0.01,0.07,-2.28,-0.05,-4.80,39.24,-6.81,0.64,-4.43,4.50,-0.38,1.08
2,-2,-30,-5,-478,3926,0.01,0.05,-2.23,-0.05,-4.78,39.26,-6.81,0.62,-4.42,4.45,-0.38,1.08
5,-2,-88,13,-417,3917,0.04,0.03,-2.55,0.13,-4.17,39.17,-6.80,0.61,-4.41,4.38,-0.37,1.63
0,0,-96,-66,-492,3885,0.03,0.03,-2.88,-0.66,-4.92,38.85,-6.82,0.62,-4.40,4.49,-0.42,1.76
-1,5,-56,0,-491,3923,0.02,0.06,-2.93,0.00,-4.91,39.23,-6.82,0.60,-4.38,4.52,-0.51,1.43
-3,-1,-58,31,-456,3923,0.00,0.04,-2.99,0.31,-4.56,39.23,-6.82,0.58,-4.37,4.56,-0.38,1.46
4,-2,-82,-21,-467,3907,0.03,0.03,-3.19,-0.21,-4.67,39.07,-6.82,0.56,-4.36,4.41,-0.34,1.70
4,-5,-88,-4,-459,3936,0.05,-0.01,-3.41,-0.04,-4.59,39.36,-6.81,0.55,-4.35,4.40,-0.26,1.79
-1,-2,-38,-50,-509,3912,0.04,-0.02,-3.30,-0.50,-5.09,39.12,-6.83,0.55,-4.33,4.52,-0.32,1.34
-2,-1,-30,-22,-493,3914,0.02,-0.02,-3.15,-0.22,-4.93,39.14,-6.85,0.54,-4.32,4.55,-0.33,1.25
-5,0,-35,3,-481,3906,-0.01,-0.02,-3.05,0.03,-4.81,39.06,-6.85,0.52,-4.31,4.63,-0.34,1.27
-3,2,-39,-4,-486,3930,-0.03,-0.01,-2.99,-0.04,-4.86,39.30,-6.86,0.50,-4.30,4.60,-0.37,1.29
11,-15,-153,44,-308,3896,0.04,-0.10,-3.62,0.44,-3.08,38.96,-6.84,0.49,-4.28,4.28,0.01,2.37
14,-6,-188,-66,-399,3878,0.12,-0.12,-4.40,-0.66,-3.99,38.78,-6.83,0.50,-4.26,4.19,-0.17,2.82
-3,9,-110,-9,-597,3948,0.09,-0.06,-4.64,-0.09,-5.97,39.48,-6.84,0.49,-4.25,4.55,-0.49,2.20
-4,2,-88,44,-537,3910,0.06,-0.04,-4.71,0.44,-5.37,39.10,-6.86,0.47,-4.23,4.59,-0.34,2.03
2,7,-112,24,-418,3885,0.06,0.01,-4.92,0.24,-4.18,38.85,-6.84,0.46,-4.21,4.46,-0.45,2.27
7,-12,-194,0,-170,3935,0.10,-0.07,-5.61,0.00,-1.70,39.35,-6.83,0.45,-4.19,4.34,-0.04,3.09
7,11,-328,-4,-518,3903,0.13,0.01,-7.05,-0.04,-5.18,39.03,-6.84,0.44,-4.16,4.34,-0.52,4.50
8,2,-324,19,-506,3939,0.17,0.02,-8.32,0.19,-5.06,39.39,-6.85,0.42,-4.12,4.31,-0.32,4.71
7,-11,-301,84,-426,3897,0.19,-0.05,-9.33,0.84,-4.26,38.97,-6.84,0.40,-4.09,4.32,-0.03,4.70
7,1,-321,62,-422,3820,0.22,-0.04,-10.35,0.62,-4.22,38.20,-6.84,0.38,-4.05,4.31,-0.26,5.06
14,-2,-367,-101,-454,3927,0.28,-0.05,-11.56,-1.01,-4.54,39.27,-6.83,0.39,-4.00,4.15,-0.20,5.68
6,-13,-366,-42,-493,3970,0.29,-0.12,-12.63,-0.42,-4.93,39.70,-6.85,0.39,-3.95,4.32,0.04,5.87
8,-6,-380,42,-387,3910,0.31,-0.15,-13.69,0.42,-3.87,39.10,-6.83,0.38,-3.90,4.26,-0.09,6.19
6,-11,-391,0,-383,3967,0.32,-0.20,-14.70,0.00,-3.83,39.67,-6.81,0.36,-3.84,4.29,0.04,6.47
8,-9,-442,34,-419,3941,0.33,-0.23,-15.93,0.34,-4.19,39.41,-6.80,0.34,-3.77,4.23,0.02,7.13
6,-6,-424,-104,-467,3922,0.34,-0.25,-16.92,-1.04,-4.67,39.22,-6.80,0.35,-3.71,4.27,-0.04,7.16
6,-14,-423,-75,-396,3883,0.34,-0.31,-17.81,-0.75,-3.96,38.83,-6.78,0.35,-3.64,4.26,0.14,7.31
5,-12,-431,-135,-461,3908,0.34,-0.35,-18.66,-1.35,-4.61,39.08,-6.78,0.36,-3.56,4.28,0.10,7.54
12,-20,-413,156,-631,3854,0.38,-0.44,-19.31,1.56,-6.31,38.54,-6.79,0.34,-3.49,4.14,0.30,7.50
11,-12,-428,141,-435,3887,0.40,-0.47,-19.99,1.41,-4.35,38.87,-6.79,0.31,-3.41,4.15,0.17,7.75
-3,-5,-416,-137,-578,3889,0.35,-0.45,-20.53,-1.37,-5.78,38.89,-6.80,0.31,-3.33,4.45,0.02,7.75
2,-15,-393,-44,-523,4032,0.32,-0.50,-20.87,-0.44,-5.23,40.32,-6.82,0.30,-3.24,4.37,0.24,7.61
7,-6,-426,-31,-516,3950,0.33,-0.48,-21.39,-0.31,-5.16,39.50,-6.83,0.30,-3.16,4.28,0.06,7.98
9,-4,-419,36,-431,3867,0.36,-0.46,-21.80,0.36,-4.31,38.67,-6.82,0.27,-3.07,4.22,0.03,7.99
9,-7,-390,-69,-540,3878,0.37,-0.46,-22.00,-0.69,-5.40,38.78,-6.84,0.27,-2.98,4.23,0.09,7.78
10,0,-368,-62,-473,3925,0.40,-0.41,-22.05,-0.62,-4.73,39.25,-6.84,0.27,-2.90,4.20,-0.07,7.59
3,-6,-321,-31,-416,4003,0.38,-0.41,-21.80,-0.31,-4.16,40.03,-6.82,0.26,-2.81,4.34,0.06,7.14
-4,-11,-328,-35,-447,3860,0.31,-0.43,-21.62,-0.35,-4.47,38.60,-6.80,0.27,-2.73,4.49,0.17,7.16
0,-3,-369,15,-597,3877,0.28,-0.41,-21.71,0.15,-5.97,38.77,-6.82,0.25,-2.64,4.42,0.01,7.51
18,7,-351,-41,-509,3973,0.36,-0.32,-21.68,-0.41,-5.09,39.73,-6.84,0.25,-2.55,4.05,-0.22,7.35
9,2,-354,-50,-488,3959,0.38,-0.28,-21.67,-0.50,-4.88,39.59,-6.84,0.25,-2.47,4.23,-0.13,7.36
2,-9,-357,-29,-403,3922,0.36,-0.31,-21.68,-0.29,-4.03,39.22,-6.82,0.25,-2.38,4.36,0.10,7.38
2,-15,-440,-40,-562,3858,0.33,-0.37,-22.20,-0.40,-5.62,38.58,-6.84,0.24,-2.29,4.38,0.25,8.18
13,-10,-456,-108,-559,3883,0.38,-0.39,-22.76,-1.08,-5.59,38.83,-6.85,0.24,-2.20,4.15,0.15,8.41
2,-15,-453,-81,-516,3918,0.35,-0.44,-23.25,-0.81,-5.16,39.18,-6.86,0.24,-2.11,4.39,0.27,8.47
11,-18,-488,68,-472,3919,0.39,-0.51,-23.90,0.68,-4.72,39.19,-6.86,0.21,-2.02,4.20,0.37,8.88
13,2,-521,-94,-360,3906,0.43,-0.45,-24.69,-0.94,-3.60,39.06,-6.84,0.21,-1.92,4.14,-0.05,9.30
16,-1,-516,-23,-388,3998,0.48,-0.41,-25.37,-0.23,-3.88,39.98,-6.82,0.19,-1.82,4.05,0.00,9.38
11,-9,-514,16,-491,3919,0.50,-0.42,-25.96,0.16,-4.91,39.19,-6.83,0.16,-1.71,4.15,0.19,9.47
16,-11,-521,37,-387,3922,0.55,-0.45,-26.55,0.37,-3.87,39.22,-6.81,0.14,-1.61,4.02,0.25,9.63
6,-16,-547,20,-445,3878,0.53,-0.50,-27.23,0.20,-4.45,38.78,-6.80,0.11,-1.50,4.22,0.39,9.97
8,-7,-555,-74,-451,3880,0.53,-0.49,-27.89,-0.74,-4.51,38.80,-6.80,0.11,-1.39,4.18,0.20,10.16
15,1,-592,-130,-444,3871,0.56,-0.44,-28.71,-1.30,-4.44,38.71,-6.79,0.12,-1.28,4.02,0.02,10.62
13,-16,-603,-35,-455,3973,0.59,-0.49,-29.52,-0.35,-4.55,39.73,-6.78,0.12,-1.16,4.05,0.38,10.85
24,-27,-655,-1,-391,3855,0.67,-0.61,-30.56,-0.01,-3.91,38.55,-6.76,0.10,-1.04,3.79,0.65,11.48
10,-25,-682,-35,-421,3997,0.67,-0.70,-31.67,-0.35,-4.21,39.97,-6.74,0.09,-0.91,4.06,0.64,11.91
13,-6,-677,111,-476,3866,0.68,-0.67,-32.63,1.11,-4.76,38.66,-6.74,0.05,-0.78,4.00,0.27,12.04
15,-7,-696,209,-428,3927,0.70,-0.64,-33.61,2.09,-4.28,39.27,-6.74,0.02,-0.65,3.95,0.31,12.38
13,-28,-725,6,-612,3897,0.71,-0.75,-34.67,0.06,-6.12,38.97,-6.75,-0.00,-0.51,4.00,0.78,12.82
9,-14,-725,-43,-434,3817,0.70,-0.76,-35.63,-0.43,-4.34,38.17,-6.74,-0.01,-0.37,4.08,0.50,12.99
25,-22,-727,35,-402,3969,0.78,-0.82,-36.50,0.35,-4.02,39.69,-6.72,-0.04,-0.23,3.72,0.69,13.16
14,-24,-740,70,-395,3833,0.79,-0.88,-37.36,0.70,-3.95,38.33,-6.71,-0.07,-0.08,3.93,0.78,13.42
16,-11,-787,-163,-442,3796,0.81,-0.86,-38.43,-1.63,-4.42,37.96,-6.70,-0.07,0.07,3.88,0.51,14.01
21,-8,-772,11,-472,3930,0.85,-0.82,-39.30,0.11,-4.72,39.30,-6.72,-0.11,0.23,3.77,0.46,14.03
20,-5,-807,94,-511,3868,0.89,-0.77,-40.29,0.94,-5.11,38.68,-6.72,-0.14,0.39,3.79,0.41,14.50
23,-11,-813,-87,-430,3951,0.94,-0.76,-41.22,-0.87,-4.30,39.51,-6.71,-0.15,0.55,3.71,0.53,14.72
14,-11,-759,-12,-459,3902,0.93,-0.75,-41.73,-0.12,-4.59,39.02,-6.71,-0.15,0.72,3.89,0.53,14.34
18,-17,-771,19,-510,3887,0.95,-0.78,-42.26,0.19,-5.10,38.87,-6.72,-0.18,0.88,3.81,0.68,14.53
23,-22,-769,-155,-378,3947,0.99,-0.84,-42.72,-1.55,-3.78,39.47,-6.71,-0.18,1.05,3.69,0.80,14.59
7,-18,-752,-85,-439,3858,0.94,-0.86,-43.04,-0.85,-4.39,38.58,-6.70,-0.19,1.22,4.02,0.73,14.49
10,-23,-747,61,-495,3883,0.91,-0.92,-43.29,0.61,-4.95,38.83,-6.71,-0.23,1.40,3.98,0.87,14.48
22,-17,-745,24,-463,3859,0.95,-0.93,-43.51,0.24,-4.63,38.59,-6.72,-0.26,1.57,3.73,0.77,14.49
-2,-14,-687,28,-513,3839,0.84,-0.92,-43.35,0.28,-5.13,38.39,-6.73,-0.29,1.74,4.25,0.73,13.95
10,-4,-647,48,-476,3949,0.82,-0.85,-42.96,0.48,-4.76,39.49,-6.73,-0.33,1.91,4.02,0.53,13.52
6,-6,-575,-7,-468,3943,0.77,-0.81,-42.17,-0.07,-4.68,39.43,-6.73,-0.34,2.08,4.11,0.56,12.74
8,-8,-532,-38,-358,3937,0.74,-0.77,-41.20,-0.38,-3.58,39.37,-6.71,-0.35,2.24,4.06,0.60,12.18
8,-11,-510,-102,-506,3869,0.72,-0.76,-40.19,-1.02,-5.06,38.69,-6.71,-0.36,2.40,4.07,0.67,11.79
8,-14,-492,-84,-503,3998,0.70,-0.77,-39.17,-0.84,-5.03,39.98,-6.71,-0.36,2.55,4.08,0.73,11.42
10,-27,-445,-59,-524,3790,0.69,-0.86,-37.97,-0.59,-5.24,37.90,-6.72,-0.37,2.70,4.05,1.03,10.78
0,0,-426,-224,-647,3819,0.62,-0.77,-36.77,-2.24,-6.47,38.19,-6.73,-0.37,2.85,4.27,0.46,10.38
-3,-11,-360,-8,-535,3902,0.54,-0.76,-35.29,-0.08,-5.35,39.02,-6.74,-0.38,2.99,4.37,0.69,9.53
16,-7,-368,195,-548,3920,0.58,-0.73,-34.01,1.95,-5.48,39.20,-6.75,-0.42,3.12,3.97,0.62,9.34
10,3,-299,-98,-579,4009,0.58,-0.64,-32.43,-0.98,-5.79,40.09,-6.76,-0.42,3.25,4.10,0.39,8.44
4,-13,-291,-103,-434,3967,0.55,-0.65,-30.96,-1.03,-4.34,39.67,-6.75,-0.42,3.38,4.22,0.72,8.08
6,4,-332,-97,-595,3906,0.53,-0.56,-29.89,-0.97,-5.95,39.06,-6.76,-0.43,3.49,4.19,0.35,8.21
6,-4,-335,15,-418,3915,0.52,-0.53,-28.94,0.15,-4.18,39.15,-6.74,-0.44,3.61,4.19,0.51,8.05
9,0,-421,35,-424,3862,0.52,-0.48,-28.62,0.35,-4.24,38.62,-6.72,-0.46,3.72,4.11,0.43,8.70
12,-2,-429,-3,-525,4022,0.54,-0.44,-28.37,-0.03,-5.25,40.22,-6.73,-0.46,3.84,4.05,0.47,8.71
7,-9,-404,-209,-470,4002,0.53,-0.45,-28.00,-2.09,-4.70,40.02,-6.73,-0.46,3.95,4.15,0.61,8.42
7,2,-385,-253,-470,3863,0.52,-0.40,-27.55,-2.53,-4.70,38.63,-6.73,-0.45,4.06,4.16,0.37,8.16
3,-19,-419,-71,-468,3966,0.49,-0.47,-27.35,-0.71,-4.68,39.66,-6.72,-0.45,4.16,4.24,0.81,8.40
10,-10,-431,-21,-332,3918,0.50,-0.49,-27.24,-0.21,-3.32,39.18,-6.70,-0.46,4.27,4.09,0.64,8.47
4,-4,-369,-128,-579,3952,0.47,-0.46,-26.77,-1.28,-5.79,39.52,-6.71,-0.46,4.38,4.22,0.51,7.85
-6,-12,-352,-117,-361,4052,0.39,-0.49,-26.24,-1.17,-3.61,40.52,-6.70,-0.46,4.48,4.44,0.68,7.59
1,2,-365,-66,-663,3937,0.36,-0.43,-25.84,-0.66,-6.63,39.37,-6.71,-0.46,4.58,4.31,0.38,7.62
-10,14,-287,-145,-773,3884,0.26,-0.30,-25.01,-1.45,-7.73,38.84,-6.73,-0.47,4.68,4.57,0.10,6.79
5,-14,-215,83,-292,4014,0.26,-0.36,-23.82,0.83,-2.92,40.14,-6.71,-0.48,4.78,4.25,0.70,5.94
13,2,-263,17,-297,3834,0.32,-0.31,-23.04,0.17,-2.97,38.34,-6.69,-0.49,4.87,4.06,0.37,6.19
16,-21,-437,96,-220,3973,0.38,-0.40,-23.40,0.96,-2.20,39.73,-6.67,-0.51,4.96,3.97,0.87,7.73
9,-31,-498,3,-419,3812,0.40,-0.55,-24.10,0.03,-4.19,38.12,-6.65,-0.51,5.06,4.10,1.12,8.37
22,-17,-452,7,-385,3825,0.49,-0.60,-24.45,0.07,-3.85,38.25,-6.63,-0.52,5.16,3.80,0.85,8.04
0,-13,-488,-85,-512,3900,0.44,-0.62,-24.98,-0.85,-5.12,39.00,-6.64,-0.51,5.25,4.26,0.77,8.44
2,-27,-590,-89,-512,3919,0.41,-0.72,-26.08,-0.89,-5.12,39.19,-6.64,-0.51,5.36,4.23,1.08,9.50
14,-21,-593,31,-504,3918,0.46,-0.78,-27.09,0.31,-5.04,39.18,-6.66,-0.53,5.46,3.99,0.99,9.71
6,-22,-518,32,-519,4000,0.45,-0.84,-27.54,0.32,-5.19,40.00,-6.67,-0.54,5.57,4.16,1.03,9.15
14,-23,-512,99,-466,3883,0.49,-0.89,-27.91,0.99,-4.66,38.83,-6.67,-0.57,5.68,3.99,1.09,9.16
-2,-8,-453,34,-547,3892,0.43,-0.85,-27.88,0.34,-5.47,38.92,-6.69,-0.59,5.79,4.34,0.78,8.65
5,-10,-449,20,-471,3933,0.41,-0.83,-27.83,0.20,-4.71,39.33,-6.69,-0.59,5.90,4.20,0.82,8.59
1,-20,-456,112,-421,3990,0.38,-0.87,-27.83,1.12,-4.21,39.90,-6.68,-0.62,6.01,4.29,1.05,8.64
0,-19,-457,53,-413,3904,0.34,-0.90,-27.84,0.53,-4.13,39.04,-6.66,-0.64,6.12,4.30,1.05,8.64
9,-21,-483,129,-679,3891,0.36,-0.93,-28.00,1.29,-6.79,38.91,-6.68,-0.67,6.24,4.12,1.12,8.88
24,-3,-474,-21,-662,3889,0.47,-0.86,-28.09,-0.21,-6.62,38.89,-6.69,-0.68,6.35,3.80,0.74,8.81
3,-20,-430,-4,-435,3885,0.44,-0.90,-27.90,-0.04,-4.35,38.85,-6.68,-0.68,6.46,4.23,1.10,8.39
-4,-16,-419,32,-416,3942,0.37,-0.90,-27.67,0.32,-4.16,39.42,-6.66,-0.69,6.57,4.37,1.02,8.25
4,-13,-362,-14,-403,3920,0.36,-0.89,-27.11,-0.14,-4.03,39.20,-6.64,-0.69,6.67,4.21,0.96,7.65
12,-11,-314,-26,-457,3850,0.40,-0.87,-26.32,-0.26,-4.57,38.50,-6.64,-0.69,6.78,4.03,0.91,7.08
2,-10,-319,-117,-381,3787,0.37,-0.84,-25.63,-1.17,-3.81,37.87,-6.63,-0.68,6.88,4.24,0.89,6.98
2,5,-311,-149,-542,3917,0.35,-0.73,-24.96,-1.49,-5.42,39.17,-6.64,-0.68,6.98,4.25,0.55,6.78
4,-7,-331,-110,-442,3971,0.34,-0.70,-24.49,-1.10,-4.42,39.71,-6.63,-0.68,7.08,4.21,0.78,6.85
5,-11,-335,-99,-291,3929,0.33,-0.70,-24.08,-0.99,-2.91,39.29,-6.62,-0.68,7.17,4.18,0.86,6.80
8,-5,-325,-136,-405,3901,0.35,-0.66,-23.66,-1.36,-4.05,39.01,-6.61,-0.68,7.26,4.11,0.73,6.62
3,-9,-331,-118,-368,3883,0.33,-0.65,-23.31,-1.18,-3.68,38.83,-6.60,-0.67,7.36,4.21,0.80,6.60
7,2,-342,-54,-421,3950,0.34,-0.57,-23.06,-0.54,-4.21,39.50,-6.59,-0.67,7.45,4.12,0.56,6.64
15,-8,-337,-23,-315,4001,0.40,-0.56,-22.81,-0.23,-3.15,40.01,-6.57,-0.67,7.54,3.92,0.76,6.54
-3,2,-340,-70,-660,3802,0.34,-0.49,-22.61,-0.70,-6.60,38.02,-6.59,-0.68,7.63,4.32,0.54,6.51
2,-13,-292,5,-484,3975,0.32,-0.52,-22.13,0.05,-4.84,39.75,-6.59,-0.67,7.72,4.22,0.85,6.01
3,-3,-304,-155,-551,3842,0.31,-0.49,-21.77,-1.55,-5.51,38.42,-6.60,-0.67,7.80,4.21,0.64,6.03
7,12,-240,-228,-674,3941,0.32,-0.37,-21.06,-2.28,-6.74,39.41,-6.61,-0.67,7.89,4.13,0.30,5.35
0,-19,-202,85,-209,3935,0.29,-0.45,-20.18,0.85,-2.09,39.35,-6.59,-0.68,7.97,4.27,0.96,4.85
0,-13,-272,-40,-416,3853,0.26,-0.48,-19.82,-0.40,-4.16,38.53,-6.58,-0.67,8.04,4.27,0.84,5.37
17,6,-339,-46,-423,3876,0.33,-0.40,-19.91,-0.46,-4.23,38.76,-6.57,-0.67,8.12,3.90,0.43,5.95
1,-8,-339,-130,-472,4003,0.31,-0.41,-19.99,-1.30,-4.72,40.03,-6.57,-0.66,8.20,4.23,0.71,5.95
10,-7,-326,-109,-365,3886,0.34,-0.41,-19.98,-1.09,-3.65,38.86,-6.56,-0.65,8.28,4.04,0.68,5.83
2,-2,-330,-98,-449,3903,0.32,-0.38,-19.99,-0.98,-4.49,39.03,-6.56,-0.65,8.36,4.20,0.57,5.86
6,2,-353,-43,-472,3822,0.32,-0.33,-20.15,-0.43,-4.72,38.22,-6.56,-0.64,8.44,4.12,0.47,6.08
10,1,-370,-53,-458,3884,0.35,-0.29,-20.39,-0.53,-4.58,38.84,-6.56,-0.63,8.52,4.03,0.48,6.26
7,3,-388,-49,-494,3836,0.36,-0.24,-20.72,-0.49,-4.94,38.36,-6.57,-0.63,8.60,4.10,0.42,6.47
0,-17,-393,-29,-450,3992,0.32,-0.32,-21.04,-0.29,-4.50,39.92,-6.57,-0.62,8.69,4.25,0.84,6.57
7,-8,-390,-61,-407,3951,0.33,-0.34,-21.32,-0.61,-4.07,39.51,-6.56,-0.61,8.77,4.09,0.66,6.59
10,-21,-401,-23,-416,3951,0.36,-0.43,-21.63,-0.23,-4.16,39.51,-6.55,-0.61,8.86,4.02,0.95,6.73
5,3,-339,-10,-532,3882,0.35,-0.37,-21.54,-0.10,-5.32,38.82,-6.56,-0.61,8.94,4.13,0.44,6.18
5,2,-306,-4,-496,3964,0.35,-0.32,-21.25,-0.04,-4.96,39.64,-6.57,-0.61,9.03,4.14,0.45,5.84
9,1,-315,53,-411,3919,0.37,-0.28,-21.05,0.53,-4.11,39.19,-6.55,-0.62,9.11,4.04,0.47,5.87
9,3,-308,-16,-571,3896,0.39,-0.24,-20.82,-0.16,-5.71,38.96,-6.56,-0.63,9.19,4.04,0.42,5.76
12,-14,-337,-44,-344,3887,0.42,-0.30,-20.79,-0.44,-3.44,38.87,-6.55,-0.62,9.28,3.96,0.78,5.99
10,-1,-311,-77,-497,3975,0.44,-0.27,-20.61,-0.77,-4.97,39.75,-6.55,-0.62,9.36,4.00,0.50,5.73
2,-5,-305,7,-412,3942,0.41,-0.28,-20.41,0.07,-4.12,39.42,-6.53,-0.62,9.44,4.16,0.58,5.64
7,0,-319,-28,-491,3837,0.41,-0.25,-20.32,-0.28,-4.91,38.37,-6.54,-0.61,9.52,4.06,0.47,5.73
-7,-16,-380,-5,-460,4008,0.33,-0.32,-20.60,-0.05,-4.60,40.08,-6.54,-0.60,9.60,4.37,0.81,6.29
15,-7,-388,-44,-471,3887,0.39,-0.33,-20.91,-0.44,-4.71,38.87,-6.54,-0.60,9.68,3.91,0.63,6.41
-3,-14,-412,45,-471,3896,0.33,-0.39,-21.33,0.45,-4.71,38.96,-6.56,-0.61,9.77,4.30,0.79,6.69
7,-3,-397,-88,-406,3998,0.34,-0.37,-21.62,-0.88,-4.06,39.98,-6.55,-0.61,9.85,4.09,0.56,6.61
1,-10,-378,-165,-450,3887,0.31,-0.39,-21.76,-1.65,-4.50,38.87,-6.55,-0.60,9.94,4.22,0.70,6.47
12,-12,-369,29,-492,3848,0.35,-0.42,-21.84,0.29,-4.92,38.48,-6.56,-0.61,10.03,3.99,0.76,6.40
19,-10,-413,-132,-476,4005,0.43,-0.44,-22.17,-1.32,-4.76,40.05,-6.56,-0.60,10.12,3.83,0.72,6.83
24,-7,-394,-29,-509,3720,0.54,-0.44,-22.36,-0.29,-5.09,37.20,-6.57,-0.60,10.20,3.70,0.66,6.69
-9,-2,-373,-269,-588,3845,0.43,-0.41,-22.40,-2.69,-5.88,38.45,-6.58,-0.60,10.29,4.41,0.55,6.51
18,-16,-374,-135,-425,3954,0.50,-0.47,-22.44,-1.35,-4.25,39.54,-6.57,-0.59,10.38,3.84,0.84,6.52
4,-25,-428,65,-437,3925,0.47,-0.57,-22.81,0.65,-4.37,39.25,-6.56,-0.62,10.47,4.12,1.07,7.04
9,-4,-451,-57,-499,3856,0.48,-0.54,-23.28,-0.57,-4.99,38.56,-6.56,-0.61,10.56,4.02,0.63,7.32
6,-20,-432,6,-351,3878,0.47,-0.61,-23.58,0.06,-3.51,38.78,-6.54,-0.62,10.66,4.07,0.98,7.21
-1,0,-411,-19,-526,3824,0.41,-0.55,-23.73,-0.19,-5.26,38.24,-6.56,-0.62,10.75,4.24,0.56,7.05
6,-23,-458,19,-331,3835,0.41,-0.63,-24.15,0.19,-3.31,38.35,-6.54,-0.63,10.85,4.08,1.06,7.52
12,-4,-462,13,-398,3883,0.44,-0.59,-24.56,0.13,-3.98,38.83,-6.52,-0.64,10.95,3.94,0.66,7.62
8,-12,-457,72,-451,3902,0.45,-0.61,-24.89,0.72,-4.51,39.02,-6.52,-0.67,11.04,4.02,0.85,7.63
12,-9,-427,23,-401,3936,0.47,-0.60,-25.00,0.23,-4.01,39.36,-6.50,-0.68,11.14,3.92,0.79,7.39
-1,3,-382,-123,-493,3947,0.42,-0.52,-24.83,-1.23,-4.93,39.47,-6.50,-0.67,11.24,4.20,0.52,6.97
11,-8,-375,-27,-352,3980,0.45,-0.52,-24.64,-0.27,-3.52,39.80,-6.48,-0.67,11.34,3.93,0.75,6.87
12,-9,-407,29,-325,3862,0.47,-0.52,-24.66,0.29,-3.25,38.62,-6.46,-0.68,11.44,3.89,0.78,7.13
11,4,-405,-127,-586,3928,0.49,-0.45,-24.66,-1.27,-5.86,39.28,-6.47,-0.68,11.53,3.91,0.49,7.11
1,-20,-469,28,-376,3974,0.45,-0.52,-25.06,0.28,-3.76,39.74,-6.45,-0.69,11.63,4.11,1.01,7.71
12,-16,-473,32,-403,3900,0.48,-0.57,-25.44,0.32,-4.03,39.00,-6.43,-0.70,11.74,3.87,0.94,7.81
17,1,-415,-3,-343,3932,0.53,-0.51,-25.42,-0.03,-3.43,39.32,-6.41,-0.70,11.84,3.74,0.58,7.31
6,-16,-420,-25,-369,3898,0.52,-0.55,-25.44,-0.25,-3.69,38.98,-6.39,-0.70,11.94,3.96,0.94,7.35
2,-13,-449,-203,-506,3984,0.48,-0.58,-25.64,-2.03,-5.06,39.84,-6.40,-0.70,12.04,4.05,0.88,7.62
15,-6,-454,-101,-435,3873,0.52,-0.56,-25.84,-1.01,-4.35,38.73,-6.39,-0.69,12.14,3.77,0.73,7.69
5,-8,-425,75,-404,3891,0.50,-0.55,-25.85,0.75,-4.04,38.91,-6.38,-0.72,12.24,3.97,0.79,7.44
14,6,-397,-96,-394,3979,0.54,-0.46,-25.69,-0.96,-3.94,39.79,-6.37,-0.72,12.35,3.77,0.48,7.16
-4,-9,-414,22,-503,3833,0.46,-0.47,-25.65,0.22,-5.03,38.33,-6.38,-0.72,12.45,4.17,0.79,7.29
5,-13,-412,21,-393,3999,0.44,-0.50,-25.59,0.21,-3.93,39.99,-6.36,-0.73,12.55,3.98,0.88,7.25
-5,-9,-424,-71,-491,3904,0.37,-0.50,-25.62,-0.71,-4.91,39.04,-6.37,-0.72,12.65,4.20,0.80,7.35
-3,-12,-430,-14,-474,3876,0.31,-0.53,-25.68,-0.14,-4.74,38.76,-6.37,-0.72,12.75,4.18,0.86,7.40
13,-20,-518,-54,-428,3886,0.36,-0.60,-26.27,-0.54,-4.28,38.86,-6.37,-0.72,12.86,3.84,1.04,8.25
6,-19,-547,-58,-501,3951,0.36,-0.65,-26.98,-0.58,-5.01,39.51,-6.38,-0.72,12.96,3.99,1.04,8.62
14,-33,-614,-83,-534,3927,0.41,-0.79,-28.03,-0.83,-5.34,39.27,-6.38,-0.72,13.08,3.82,1.36,9.38
2,-20,-655,-111,-560,3909,0.38,-0.83,-29.22,-1.11,-5.60,39.09,-6.39,-0.72,13.19,4.07,1.11,9.95
8,-13,-790,-134,-620,3780,0.39,-0.83,-31.12,-1.34,-6.20,37.80,-6.40,-0.72,13.31,3.96,0.97,11.44
-4,-21,-805,-116,-619,4042,0.33,-0.87,-32.92,-1.16,-6.19,40.42,-6.41,-0.73,13.44,4.22,1.15,11.90
12,-26,-842,-57,-396,3941,0.37,-0.94,-34.76,-0.57,-3.96,39.41,-6.40,-0.73,13.58,3.88,1.27,12.55
22,-18,-875,-90,-388,3863,0.47,-0.96,-36.62,-0.90,-3.88,38.63,-6.39,-0.73,13.73,3.64,1.11,13.18
16,-12,-867,-30,-375,3965,0.52,-0.94,-38.25,-0.30,-3.75,39.65,-6.38,-0.74,13.88,3.74,0.99,13.41
15,-10,-830,-115,-432,3946,0.56,-0.90,-39.49,-1.15,-4.32,39.46,-6.37,-0.74,14.04,3.75,0.94,13.32
9,-34,-810,-71,-362,4032,0.56,-1.02,-40.48,-0.71,-3.62,40.32,-6.36,-0.75,14.20,3.86,1.47,13.32
14,-10,-800,-111,-546,3696,0.59,-0.98,-41.31,-1.11,-5.46,36.96,-6.36,-0.76,14.36,3.75,0.97,13.38
28,-3,-751,-102,-357,3894,0.70,-0.90,-41.76,-1.02,-3.57,38.94,-6.35,-0.76,14.53,3.43,0.81,13.04
3,-8,-699,-208,-463,3927,0.65,-0.86,-41.85,-2.08,-4.63,39.27,-6.35,-0.77,14.69,3.95,0.90,12.60
15,-23,-689,11,-404,4001,0.67,-0.91,-41.87,0.11,-4.04,40.01,-6.33,-0.78,14.86,3.69,1.23,12.50
18,-14,-696,-37,-525,3862,0.72,-0.91,-41.93,-0.37,-5.25,38.62,-6.34,-0.79,15.02,3.62,1.05,12.56
9,-12,-663,-19,-350,3972,0.70,-0.89,-41.78,-0.19,-3.50,39.72,-6.32,-0.80,15.19,3.80,1.01,12.23
7,-22,-652,-32,-379,3881,0.67,-0.94,-41.58,-0.32,-3.79,38.81,-6.30,-0.80,15.35,3.83,1.23,12.09
23,-15,-634,88,-369,3833,0.75,-0.93,-41.29,0.88,-3.69,38.33,-6.28,-0.84,15.52,3.48,1.11,11.87
5,-5,-611,-87,-429,3973,0.70,-0.87,-40.89,-0.87,-4.29,39.73,-6.28,-0.84,15.68,3.85,0.89,11.58
10,-18,-620,-4,-358,4065,0.69,-0.89,-40.58,-0.04,-3.58,40.65,-6.26,-0.85,15.84,3.74,1.17,11.58
21,-3,-637,-58,-356,3798,0.75,-0.82,-40.41,-0.58,-3.56,37.98,-6.24,-0.85,16.00,3.49,0.85,11.68
-10,-30,-659,-205,-624,3697,0.61,-0.92,-40.39,-2.05,-6.24,36.97,-6.25,-0.86,16.16,4.16,1.43,11.85
10,-23,-684,-15,-419,4067,0.61,-0.97,-40.52,-0.15,-4.19,40.67,-6.24,-0.86,16.32,3.75,1.30,12.07
6,-19,-701,-23,-509,4040,0.59,-0.99,-40.74,-0.23,-5.09,40.40,-6.25,-0.87,16.49,3.84,1.23,12.24
12,-20,-707,0,-451,3923,0.60,-1.01,-40.98,0.00,-4.51,39.23,-6.25,-0.88,16.65,3.71,1.26,12.32
11,-28,-780,-39,-464,4044,0.61,-1.08,-41.64,-0.39,-4.64,40.44,-6.25,-0.88,16.81,3.73,1.45,13.05
15,-3,-770,-239,-555,3924,0.64,-0.99,-42.17,-2.39,-5.55,39.24,-6.25,-0.89,16.98,3.64,0.92,13.06
22,-27,-802,35,-220,4010,0.71,-1.06,-42.85,0.35,-2.20,40.10,-6.22,-0.91,17.15,3.47,1.44,13.44
18,-25,-816,-11,-501,3813,0.75,-1.10,-43.54,-0.11,-5.01,38.13,-6.23,-0.92,17.32,3.54,1.42,13.68
12,-19,-750,-43,-267,3837,0.75,-1.11,-43.76,-0.43,-2.67,38.37,-6.21,-0.93,17.50,3.65,1.30,13.14
15,-11,-755,-100,-329,3917,0.76,-1.07,-43.99,-1.00,-3.29,39.17,-6.20,-0.94,17.67,3.58,1.13,13.21
5,-16,-695,-94,-428,3997,0.72,-1.06,-43.83,-0.94,-4.28,39.97,-6.19,-0.94,17.84,3.79,1.24,12.66
16,-18,-697,-86,-345,3856,0.74,-1.06,-43.70,-0.86,-3.45,38.56,-6.18,-0.95,18.02,3.55,1.28,12.64
13,-14,-698,23,-391,3927,0.75,-1.04,-43.59,0.23,-3.91,39.27,-6.16,-0.96,18.19,3.60,1.20,12.61
5,-8,-691,-177,-607,3854,0.70,-0.99,-43.44,-1.77,-6.07,38.54,-6.16,-0.97,18.36,3.77,1.07,12.50
13,-8,-679,-42,-446,3767,0.71,-0.94,-43.24,-0.42,-4.46,37.67,-6.16,-0.97,18.54,3.61,1.06,12.35
2,-31,-698,77,-367,3910,0.65,-1.03,-43.18,0.77,-3.67,39.10,-6.14,-1.00,18.71,3.83,1.57,12.48
9,-13,-645,-25,-339,3806,0.64,-1.01,-42.79,-0.25,-3.39,38.06,-6.12,-1.01,18.88,3.68,1.20,11.94
27,-10,-619,-51,-255,3900,0.74,-0.97,-42.29,-0.51,-2.55,39.00,-6.10,-1.02,19.04,3.28,1.14,11.61
16,-3,-500,-155,-330,3936,0.77,-0.89,-41.11,-1.55,-3.30,39.36,-6.09,-1.02,19.21,3.49,0.98,10.36
2,-8,-481,-110,-411,3938,0.70,-0.85,-39.93,-1.10,-4.11,39.38,-6.08,-1.02,19.37,3.78,1.07,9.96
12,-6,-438,-70,-363,3951,0.71,-0.80,-38.61,-0.70,-3.63,39.51,-6.07,-1.03,19.52,3.57,1.02,9.33
15,-8,-421,-98,-391,3982,0.73,-0.77,-37.32,-0.98,-3.91,39.82,-6.06,-1.03,19.67,3.50,1.05,8.93
6,-16,-437,-140,-508,3905,0.69,-0.79,-36.25,-1.40,-5.08,39.05,-6.06,-1.03,19.81,3.69,1.22,8.85
-3,2,-391,-423,-572,3956,0.60,-0.70,-35.01,-4.23,-5.72,39.56,-6.07,-1.03,19.95,3.90,0.83,8.21
10,-10,-405,-167,-361,4022,0.60,-0.69,-33.98,-1.67,-3.61,40.22,-6.06,-1.03,20.09,3.63,1.07,8.12
10,-19,-437,-63,-449,3863,0.60,-0.74,-33.25,-0.63,-4.49,38.63,-6.06,-1.03,20.22,3.63,1.27,8.24
12,-1,-429,-11,-428,3801,0.62,-0.67,-32.54,-0.11,-4.28,38.01,-6.06,-1.03,20.35,3.59,0.88,8.02
6,-27,-463,80,-358,3910,0.59,-0.77,-32.11,0.80,-3.58,39.10,-6.03,-1.05,20.47,3.70,1.45,8.22
4,10,-362,-199,-498,3990,0.56,-0.63,-31.11,-1.99,-4.98,39.90,-6.03,-1.04,20.60,3.75,0.66,7.16
6,1,-322,-56,-268,3912,0.54,-0.56,-29.96,-0.56,-2.68,39.12,-6.02,-1.05,20.72,3.70,0.82,6.59
