gyroADC_X,gyroADC_Y,gyroADC_Z,accADC_X,accADC_Y,accADC_Z,GyroX,GyroY,GyroZ,AccX,AccY,AccZ,roll_IMU,pitch_IMU,yaw_IMU,roll_PID,pitch_PID,yaw_PID
3,0,-22,-52,-366,3894,0.38,-0.10,-7.17,-0.52,-3.66,38.94,-5.26,-0.63,33.05,3.38,0.37,-1.38
0,-3,-14,-46,-356,3893,0.34,-0.11,-6.54,-0.46,-3.56,38.93,-5.26,-0.61,33.07,3.44,0.42,-1.57
2,-1,-12,-50,-369,3899,0.32,-0.11,-5.96,-0.50,-3.69,38.99,-5.26,-0.59,33.10,3.41,0.37,-1.70
2,-2,-10,-47,-377,3903,0.30,-0.11,-5.43,-0.47,-3.77,39.03,-5.26,-0.58,33.12,3.42,0.38,-1.82
1,1,-10,-36,-411,3907,0.27,-0.09,-4.94,-0.36,-4.11,39.07,-5.27,-0.57,33.14,3.45,0.31,-1.92
-1,2,-17,-19,-424,3902,0.24,-0.07,-4.55,-0.19,-4.24,39.02,-5.28,-0.56,33.15,3.50,0.28,-1.94
-6,4,-36,6,-400,3914,0.18,-0.04,-4.32,0.06,-4.00,39.14,-5.29,-0.55,33.17,3.62,0.23,-1.82
-4,3,-43,12,-405,3911,0.14,-0.02,-4.15,0.12,-4.05,39.11,-5.31,-0.54,33.19,3.61,0.24,-1.80
-1,-4,-90,3,-434,3903,0.12,-0.04,-4.28,0.03,-4.34,39.03,-5.32,-0.53,33.21,3.57,0.36,-1.37
1,-6,-102,11,-428,3908,0.11,-0.07,-4.48,0.11,-4.28,39.08,-5.34,-0.53,33.22,3.55,0.40,-1.24
-1,-11,-118,-39,-420,3868,0.09,-0.13,-4.75,-0.39,-4.20,38.68,-5.35,-0.51,33.24,3.60,0.50,-1.05
0,-6,-100,21,-421,3877,0.09,-0.15,-4.88,0.21,-4.21,38.77,-5.37,-0.51,33.26,3.59,0.42,-1.18
7,-9,-49,22,-396,3901,0.12,-0.19,-4.69,0.22,-3.96,39.01,-5.38,-0.51,33.28,3.48,0.48,-1.65
5,-15,48,0,-374,3872,0.14,-0.27,-3.93,0.00,-3.74,38.72,-5.39,-0.49,33.29,3.51,0.59,-2.62
5,-7,76,2,-395,3929,0.15,-0.28,-3.08,0.02,-3.95,39.29,-5.40,-0.48,33.31,3.51,0.46,-3.02
8,-2,-1,-43,-470,3860,0.19,-0.27,-2.77,-0.43,-4.70,38.60,-5.41,-0.47,33.32,3.45,0.36,-2.43
6,4,-4,-158,-400,3899,0.21,-0.22,-2.52,-1.58,-4.00,38.99,-5.41,-0.46,33.33,3.48,0.23,-2.45
5,-1,44,-200,-174,3919,0.22,-0.20,-2.00,-2.00,-1.74,39.19,-5.40,-0.44,33.34,3.49,0.30,-2.96
5,1,39,-177,-190,3915,0.22,-0.17,-1.56,-1.77,-1.90,39.15,-5.39,-0.43,33.34,3.48,0.25,-3.00
4,3,8,-200,-184,3920,0.23,-0.14,-1.36,-2.00,-1.84,39.20,-5.38,-0.42,33.35,3.49,0.20,-2.78
7,3,2,-148,-242,3920,0.25,-0.11,-1.21,-1.48,-2.42,39.20,-5.36,-0.40,33.35,3.42,0.18,-2.76
2,-1,-3,-66,-359,3892,0.23,-0.10,-1.11,-0.66,-3.59,38.92,-5.36,-0.39,33.36,3.51,0.23,-2.74
0,-4,0,-57,-340,3901,0.21,-0.12,-1.00,-0.57,-3.40,39.01,-5.36,-0.37,33.36,3.55,0.28,-2.78
0,-6,0,-65,-354,3902,0.19,-0.14,-0.90,-0.65,-3.54,39.02,-5.35,-0.35,33.36,3.55,0.31,-2.80
0,-4,0,-58,-353,3904,0.17,-0.15,-0.81,-0.58,-3.53,39.04,-5.35,-0.33,33.37,3.55,0.27,-2.82
2,-2,1,-47,-343,3903,0.17,-0.15,-0.72,-0.47,-3.43,39.03,-5.34,-0.32,33.37,3.52,0.22,-2.85
1,-3,2,-56,-344,3890,0.16,-0.15,-0.64,-0.56,-3.44,38.90,-5.34,-0.30,33.37,3.53,0.23,-2.87
3,0,1,-60,-355,3901,0.16,-0.14,-0.57,-0.60,-3.55,39.01,-5.33,-0.28,33.37,3.50,0.16,-2.88
3,0,2,-60,-353,3899,0.16,-0.12,-0.50,-0.60,-3.53,38.99,-5.33,-0.27,33.38,3.50,0.14,-2.90
4,1,-2,-62,-351,3898,0.17,-0.10,-0.46,-0.62,-3.51,38.98,-5.33,-0.25,33.38,3.47,0.11,-2.87
4,2,-2,-62,-353,3907,0.18,-0.08,-0.43,-0.62,-3.53,39.07,-5.32,-0.23,33.38,3.47,0.07,-2.88
1,3,-5,-51,-362,3923,0.16,-0.06,-0.41,-0.51,-3.62,39.23,-5.32,-0.21,33.38,3.52,0.04,-2.86
1,2,-5,-58,-362,3906,0.15,-0.04,-0.40,-0.58,-3.62,39.06,-5.32,-0.19,33.38,3.52,0.04,-2.86
4,2,-6,-52,-364,3889,0.16,-0.02,-0.40,-0.52,-3.64,38.89,-5.32,-0.18,33.39,3.47,0.02,-2.85
3,2,-5,-48,-358,3898,0.17,-0.01,-0.39,-0.48,-3.58,38.98,-5.32,-0.16,33.39,3.49,0.00,-2.86
1,0,-2,-48,-355,3901,0.15,-0.01,-0.36,-0.48,-3.55,39.01,-5.32,-0.14,33.39,3.52,0.02,-2.89
1,2,-1,-51,-354,3904,0.15,0.01,-0.33,-0.51,-3.54,39.04,-5.31,-0.12,33.39,3.52,-0.03,-2.91
2,8,-4,-58,-351,3893,0.14,0.05,-0.32,-0.58,-3.51,38.93,-5.31,-0.10,33.39,3.50,-0.16,-2.89
2,11,-4,-54,-352,3898,0.14,0.12,-0.32,-0.54,-3.52,38.98,-5.31,-0.09,33.39,3.50,-0.24,-2.89
2,5,-2,-50,-362,3899,0.14,0.14,-0.30,-0.50,-3.62,38.99,-5.31,-0.07,33.39,3.50,-0.16,-2.91
3,3,-2,-52,-369,3896,0.14,0.14,-0.28,-0.52,-3.69,38.96,-5.31,-0.05,33.39,3.48,-0.14,-2.91
2,-2,-3,-56,-349,3915,0.14,0.11,-0.27,-0.56,-3.49,39.15,-5.30,-0.03,33.40,3.50,-0.05,-2.91
2,-1,-1,-59,-368,3907,0.14,0.10,-0.25,-0.59,-3.68,39.07,-5.30,-0.01,33.40,3.50,-0.08,-2.93
2,5,-3,-64,-359,3900,0.14,0.12,-0.24,-0.64,-3.59,39.00,-5.30,0.01,33.40,3.50,-0.20,-2.91
2,6,-2,-61,-357,3905,0.14,0.14,-0.23,-0.61,-3.57,39.05,-5.30,0.03,33.40,3.50,-0.24,-2.92
1,7,0,-60,-353,3904,0.13,0.17,-0.21,-0.60,-3.53,39.04,-5.30,0.04,33.40,3.52,-0.27,-2.95
2,7,-1,-53,-363,3897,0.13,0.20,-0.19,-0.53,-3.63,38.97,-5.30,0.06,33.40,3.50,-0.30,-2.94
0,6,-1,-60,-352,3906,0.12,0.21,-0.18,-0.60,-3.52,39.06,-5.29,0.08,33.40,3.54,-0.30,-2.94
2,5,-2,-67,-343,3907,0.12,0.22,-0.17,-0.67,-3.43,39.07,-5.29,0.10,33.40,3.50,-0.30,-2.94
1,1,-1,-51,-336,3895,0.11,0.21,-0.16,-0.51,-3.36,38.95,-5.28,0.12,33.40,3.51,-0.23,-2.95
3,2,-2,-59,-352,3895,0.12,0.20,-0.16,-0.59,-3.52,38.95,-5.27,0.14,33.40,3.47,-0.26,-2.94
2,1,-3,-64,-353,3900,0.12,0.18,-0.16,-0.64,-3.53,39.00,-5.27,0.15,33.40,3.49,-0.25,-2.93
1,0,-2,-61,-355,3894,0.11,0.17,-0.16,-0.61,-3.55,38.94,-5.27,0.17,33.40,3.50,-0.24,-2.94
1,4,0,-59,-355,3901,0.11,0.17,-0.14,-0.59,-3.55,39.01,-5.27,0.19,33.41,3.50,-0.32,-2.96
2,5,1,-55,-350,3903,0.11,0.19,-0.12,-0.55,-3.50,39.03,-5.26,0.21,33.41,3.48,-0.36,-2.97
1,5,0,-62,-347,3899,0.10,0.20,-0.11,-0.62,-3.47,38.99,-5.26,0.23,33.41,3.50,-0.37,-2.97
1,6,1,-68,-357,3899,0.10,0.22,-0.09,-0.68,-3.57,38.99,-5.26,0.25,33.41,3.50,-0.41,-2.98
0,2,1,-62,-359,3912,0.09,0.21,-0.08,-0.62,-3.59,39.12,-5.26,0.27,33.41,3.52,-0.35,-2.98
0,-1,1,-65,-357,3905,0.08,0.18,-0.06,-0.65,-3.57,39.05,-5.25,0.29,33.41,3.52,-0.30,-2.99
0,-7,0,-68,-359,3901,0.07,0.12,-0.06,-0.68,-3.59,39.01,-5.25,0.31,33.41,3.52,-0.19,-2.98
0,-8,0,-60,-360,3906,0.07,0.06,-0.05,-0.60,-3.60,39.06,-5.25,0.32,33.41,3.53,-0.17,-2.98
-1,-8,0,-55,-351,3891,0.05,0.00,-0.05,-0.55,-3.51,38.91,-5.25,0.34,33.41,3.55,-0.16,-2.98
1,-7,-1,-56,-355,3893,0.05,-0.04,-0.05,-0.56,-3.55,38.93,-5.25,0.36,33.41,3.51,-0.18,-2.98
1,-3,-1,-62,-348,3908,0.05,-0.05,-0.05,-0.62,-3.48,39.08,-5.24,0.38,33.41,3.51,-0.25,-2.98
1,-2,0,-65,-354,3909,0.05,-0.06,-0.04,-0.65,-3.54,39.09,-5.24,0.40,33.41,3.50,-0.28,-2.99
2,0,-1,-69,-351,3899,0.06,-0.05,-0.05,-0.69,-3.51,38.99,-5.24,0.41,33.41,3.48,-0.33,-2.98
2,1,-1,-73,-354,3897,0.07,-0.04,-0.05,-0.73,-3.54,38.97,-5.24,0.43,33.41,3.48,-0.36,-2.98
-3,0,-1,-89,-324,3928,0.04,-0.04,-0.05,-0.89,-3.24,39.28,-5.23,0.45,33.41,3.57,-0.35,-2.98
-3,-2,-1,-97,-327,3901,0.02,-0.05,-0.05,-0.97,-3.27,39.01,-5.22,0.46,33.41,3.57,-0.33,-2.98
-2,3,0,-67,-363,3904,0.01,-0.02,-0.04,-0.67,-3.63,39.04,-5.22,0.48,33.41,3.56,-0.43,-2.99
-2,6,-1,-66,-361,3909,-0.01,0.01,-0.05,-0.66,-3.61,39.09,-5.22,0.50,33.41,3.56,-0.51,-2.98
-2,2,-8,-51,-362,3899,-0.02,0.03,-0.09,-0.51,-3.62,38.99,-5.23,0.52,33.41,3.57,-0.46,-2.91
0,2,-18,-43,-372,3899,-0.02,0.04,-0.19,-0.43,-3.72,38.99,-5.25,0.53,33.41,3.55,-0.46,-2.81
2,7,-21,-52,-362,3902,-0.00,0.07,-0.30,-0.52,-3.62,39.02,-5.25,0.54,33.41,3.51,-0.57,-2.76
1,5,-20,-57,-356,3909,0.00,0.10,-0.39,-0.57,-3.56,39.09,-5.25,0.56,33.41,3.53,-0.56,-2.75
8,4,-21,-148,-364,3846,0.05,0.11,-0.48,-1.48,-3.64,38.46,-5.25,0.58,33.42,3.39,-0.56,-2.73
6,8,-19,-196,-288,3829,0.08,0.15,-0.55,-1.96,-2.88,38.29,-5.24,0.60,33.42,3.41,-0.65,-2.73
3,14,-83,-138,-300,3932,0.09,0.22,-1.00,-1.38,-3.00,39.32,-5.23,0.61,33.42,3.45,-0.79,-2.11
5,15,-104,-140,-291,3887,0.11,0.29,-1.53,-1.40,-2.91,38.87,-5.22,0.63,33.43,3.40,-0.84,-1.83
8,10,-127,-16,-338,3938,0.15,0.32,-2.16,-0.16,-3.38,39.38,-5.21,0.62,33.44,3.33,-0.75,-1.51
7,9,-126,29,-362,3924,0.18,0.34,-2.71,0.29,-3.62,39.24,-5.21,0.60,33.45,3.34,-0.73,-1.42
4,2,-108,9,-356,3904,0.19,0.32,-3.10,0.09,-3.56,39.04,-5.21,0.58,33.46,3.39,-0.59,-1.50
6,-3,-99,27,-325,3901,0.20,0.27,-3.39,0.27,-3.25,39.01,-5.20,0.56,33.47,3.34,-0.48,-1.52
4,-8,-97,-143,-356,3907,0.21,0.20,-3.64,-1.43,-3.56,39.07,-5.20,0.58,33.49,3.38,-0.38,-1.49
-2,-11,-99,-159,-339,3851,0.17,0.11,-3.88,-1.59,-3.39,38.51,-5.20,0.60,33.50,3.49,-0.32,-1.43
6,3,-105,17,-435,3902,0.19,0.12,-4.14,0.17,-4.35,39.02,-5.21,0.59,33.52,3.35,-0.55,-1.33
6,5,-87,23,-427,3920,0.21,0.14,-4.25,0.23,-4.27,39.20,-5.23,0.57,33.54,3.36,-0.58,-1.46
2,-1,-48,-13,-394,3896,0.20,0.12,-4.12,-0.13,-3.94,38.96,-5.24,0.56,33.55,3.44,-0.46,-1.82
2,0,-46,-40,-373,3882,0.19,0.10,-3.99,-0.40,-3.73,38.82,-5.26,0.56,33.57,3.45,-0.48,-1.86
2,-2,-27,-101,-388,3882,0.19,0.08,-3.75,-1.01,-3.88,38.82,-5.26,0.58,33.58,3.46,-0.45,-2.07
2,-1,-24,-71,-383,3895,0.18,0.07,-3.53,-0.71,-3.83,38.95,-5.28,0.59,33.60,3.47,-0.47,-2.14
5,0,-17,-77,-396,3914,0.19,0.06,-3.28,-0.77,-3.96,39.14,-5.29,0.60,33.61,3.42,-0.49,-2.25
3,0,-24,-112,-341,3916,0.19,0.05,-3.10,-1.12,-3.41,39.16,-5.28,0.62,33.62,3.45,-0.50,-2.23
4,1,-12,-53,-355,3912,0.20,0.06,-2.86,-0.53,-3.55,39.12,-5.27,0.64,33.64,3.43,-0.53,-2.38
3,0,-8,-62,-352,3915,0.20,0.05,-2.62,-0.62,-3.52,39.15,-5.26,0.65,33.65,3.44,-0.52,-2.46
2,-4,-7,-69,-360,3900,0.19,0.02,-2.40,-0.69,-3.60,39.00,-5.26,0.67,33.66,3.46,-0.45,-2.51
1,-4,-7,-69,-355,3906,0.18,-0.01,-2.20,-0.69,-3.55,39.06,-5.26,0.69,33.66,3.48,-0.46,-2.55
1,-4,-5,-74,-353,3904,0.16,-0.03,-2.01,-0.74,-3.53,39.04,-5.25,0.70,33.67,3.48,-0.46,-2.60
1,-3,-4,-65,-351,3900,0.15,-0.05,-1.84,-0.65,-3.51,39.00,-5.25,0.72,33.68,3.47,-0.48,-2.64
2,-1,-3,-58,-353,3905,0.15,-0.05,-1.67,-0.58,-3.53,39.05,-5.24,0.73,33.69,3.45,-0.52,-2.68
2,-1,-3,-61,-364,3908,0.15,-0.05,-1.52,-0.61,-3.64,39.08,-5.24,0.75,33.69,3.46,-0.53,-2.71
3,2,-5,-66,-354,3890,0.15,-0.03,-1.40,-0.66,-3.54,38.90,-5.24,0.77,33.70,3.44,-0.60,-2.72
2,4,-6,-57,-337,3886,0.15,-0.00,-1.30,-0.57,-3.37,38.86,-5.22,0.77,33.70,3.44,-0.65,-2.73
-6,-2,-20,-120,-271,3841,0.10,-0.02,-1.29,-1.20,-2.71,38.41,-5.21,0.78,33.71,3.59,-0.55,-2.62
-1,0,-39,-132,-247,3905,0.08,-0.01,-1.40,-1.32,-2.47,39.05,-5.19,0.79,33.71,3.50,-0.59,-2.44
6,1,-160,-263,-194,3872,0.11,-0.01,-2.24,-2.63,-1.94,38.72,-5.18,0.81,33.72,3.36,-0.62,-1.25
12,-6,-195,-213,-204,3965,0.17,-0.04,-3.20,-2.13,-2.04,39.65,-5.17,0.82,33.73,3.23,-0.50,-0.77
-1,-4,-303,-106,-304,3915,0.15,-0.06,-4.73,-1.06,-3.04,39.15,-5.15,0.83,33.75,3.45,-0.53,0.43
12,-5,-329,-45,-314,3983,0.21,-0.09,-6.26,-0.45,-3.14,39.83,-5.14,0.82,33.78,3.20,-0.50,0.94
-11,-11,-447,-60,-291,3864,0.12,-0.15,-8.36,-0.60,-2.91,38.64,-5.12,0.82,33.81,3.60,-0.38,2.34
-1,-16,-467,-78,-282,3901,0.10,-0.23,-10.38,-0.78,-2.82,39.01,-5.10,0.82,33.85,3.43,-0.27,2.89
7,-18,-535,-31,-282,3854,0.13,-0.32,-12.60,-0.31,-2.82,38.54,-5.08,0.81,33.90,3.27,-0.20,3.89
19,-18,-535,51,-342,3918,0.24,-0.39,-14.61,0.51,-3.42,39.18,-5.08,0.78,33.96,3.03,-0.16,4.27
-4,-18,-513,-95,-393,3916,0.19,-0.46,-16.27,-0.95,-3.93,39.16,-5.10,0.79,34.02,3.45,-0.14,4.39
17,-6,-523,-88,-333,3911,0.27,-0.45,-17.84,-0.88,-3.33,39.11,-5.09,0.80,34.10,3.06,-0.35,4.77
14,-13,-573,-36,-372,3969,0.33,-0.49,-19.55,-0.36,-3.72,39.69,-5.10,0.77,34.17,3.10,-0.20,5.52
11,-11,-594,-64,-316,3857,0.37,-0.51,-21.22,-0.64,-3.16,38.57,-5.08,0.77,34.26,3.13,-0.23,6.01
20,-10,-635,-181,-254,3828,0.45,-0.52,-22.97,-1.81,-2.54,38.28,-5.07,0.78,34.35,2.94,-0.25,6.68
2,-25,-667,-90,-176,3977,0.42,-0.62,-24.74,-0.90,-1.76,39.77,-5.05,0.77,34.45,3.24,0.05,7.28
33,-13,-752,-83,-266,3911,0.58,-0.64,-26.85,-0.83,-2.66,39.11,-5.04,0.76,34.55,2.66,-0.15,8.40
8,-9,-737,-63,-252,3879,0.57,-0.63,-28.66,-0.63,-2.52,38.79,-5.02,0.75,34.67,3.07,-0.21,8.61
13,-13,-706,47,-376,3867,0.59,-0.64,-30.10,0.47,-3.76,38.67,-5.02,0.72,34.79,2.98,-0.12,8.61
11,-10,-682,82,-454,3918,0.60,-0.64,-31.25,0.82,-4.54,39.18,-5.03,0.69,34.91,3.02,-0.15,8.62
9,-23,-632,40,-416,3946,0.59,-0.72,-31.98,0.40,-4.16,39.46,-5.04,0.67,35.04,3.06,0.11,8.32
4,-18,-617,50,-373,3829,0.56,-0.75,-32.55,0.50,-3.73,38.29,-5.05,0.63,35.17,3.16,0.06,8.29
9,-15,-532,-23,-461,3907,0.56,-0.77,-32.54,-0.23,-4.61,39.07,-5.07,0.62,35.30,3.09,0.03,7.56
4,-9,-513,-30,-392,3925,0.53,-0.75,-32.41,-0.30,-3.92,39.25,-5.08,0.60,35.43,3.19,-0.07,7.36
16,-12,-515,-55,-387,3932,0.57,-0.75,-32.31,-0.55,-3.87,39.32,-5.10,0.59,35.56,2.99,-0.01,7.35
6,-16,-511,-57,-349,3876,0.55,-0.77,-32.20,-0.57,-3.49,38.76,-5.10,0.59,35.68,3.17,0.06,7.28
9,-14,-487,-79,-373,3922,0.55,-0.78,-31.95,-0.79,-3.73,39.22,-5.11,0.59,35.81,3.12,0.03,7.02
11,-9,-486,-155,-363,3861,0.56,-0.76,-31.72,-1.55,-3.63,38.61,-5.11,0.60,35.94,3.08,-0.07,6.96
11,-8,-405,-70,-276,3968,0.57,-0.73,-31.02,-0.70,-2.76,39.68,-5.09,0.59,36.06,3.07,-0.09,6.13
11,-7,-365,-42,-350,3914,0.58,-0.70,-30.14,-0.42,-3.50,39.14,-5.10,0.59,36.18,3.07,-0.12,5.61
-5,-16,-280,-83,-448,3879,0.49,-0.73,-28.84,-0.83,-4.48,38.79,-5.12,0.59,36.29,3.38,0.05,4.63
-1,-12,-264,-64,-443,3917,0.44,-0.73,-27.56,-0.64,-4.43,39.17,-5.14,0.58,36.40,3.34,-0.01,4.25
0,-8,-219,-123,-417,3891,0.40,-0.70,-26.14,-1.23,-4.17,38.91,-5.15,0.58,36.51,3.35,-0.09,3.58
0,-7,-214,-141,-389,3899,0.36,-0.68,-24.83,-1.41,-3.89,38.99,-5.15,0.58,36.61,3.36,-0.12,3.28
3,-4,-199,-147,-371,3858,0.34,-0.63,-23.56,-1.47,-3.71,38.58,-5.16,0.59,36.70,3.32,-0.19,2.91
5,-4,-196,-152,-374,3898,0.33,-0.59,-22.40,-1.52,-3.74,38.98,-5.16,0.60,36.79,3.29,-0.21,2.65
6,-6,-213,-172,-337,3923,0.34,-0.57,-21.46,-1.72,-3.37,39.23,-5.16,0.61,36.88,3.27,-0.19,2.61
9,4,-222,-163,-365,3901,0.36,-0.49,-20.67,-1.63,-3.65,39.01,-5.16,0.62,36.96,3.21,-0.39,2.53
0,-2,-270,-233,-355,3924,0.32,-0.45,-20.25,-2.33,-3.55,39.24,-5.16,0.63,37.04,3.38,-0.31,2.85
3,-5,-312,-228,-296,3903,0.31,-0.44,-20.13,-2.28,-2.96,39.03,-5.15,0.63,37.12,3.33,-0.26,3.17
5,-4,-393,-206,-385,3905,0.31,-0.42,-20.51,-2.06,-3.85,39.05,-5.16,0.64,37.20,3.30,-0.29,3.92
3,-3,-419,-196,-457,3887,0.30,-0.39,-21.02,-1.96,-4.57,38.87,-5.17,0.65,37.28,3.34,-0.32,4.23
9,-3,-509,-112,-454,3947,0.32,-0.37,-22.02,-1.12,-4.54,39.47,-5.18,0.65,37.37,3.24,-0.33,5.18
11,4,-520,-11,-395,3896,0.36,-0.31,-22.99,-0.11,-3.95,38.96,-5.19,0.63,37.46,3.21,-0.46,5.45
3,0,-514,133,-350,3968,0.34,-0.28,-23.83,1.33,-3.50,39.68,-5.19,0.60,37.56,3.35,-0.38,5.55
23,0,-480,95,-251,3895,0.45,-0.25,-24.37,0.95,-2.51,38.95,-5.18,0.58,37.65,2.96,-0.37,5.36
20,-10,-394,6,-499,3971,0.52,-0.29,-24.34,0.06,-4.99,39.71,-5.20,0.56,37.75,3.00,-0.18,4.62
-1,13,-376,-77,-507,3945,0.46,-0.18,-24.20,-0.77,-5.07,39.45,-5.21,0.56,37.85,3.39,-0.60,4.43
4,-1,-362,2,-479,3811,0.44,-0.17,-23.99,0.02,-4.79,38.11,-5.23,0.54,37.94,3.32,-0.36,4.26
11,5,-371,-19,-402,4086,0.47,-0.12,-23.85,-0.19,-4.02,40.86,-5.25,0.52,38.04,3.20,-0.46,4.31
8,6,-448,-181,-677,3903,0.47,-0.07,-24.20,-1.81,-6.77,39.03,-5.26,0.52,38.14,3.26,-0.50,5.02
6,1,-469,-169,-572,3864,0.46,-0.06,-24.64,-1.69,-5.72,38.64,-5.28,0.52,38.23,3.31,-0.42,5.27
6,10,-473,13,-203,3893,0.45,0.01,-25.06,0.13,-2.03,38.93,-5.26,0.51,38.33,3.30,-0.58,5.38
15,6,-466,68,-234,3928,0.49,0.04,-25.40,0.68,-2.34,39.28,-5.24,0.48,38.43,3.12,-0.51,5.37
6,-10,-441,188,-246,3943,0.48,-0.02,-25.55,1.88,-2.46,39.43,-5.23,0.46,38.54,3.27,-0.20,5.18
5,-12,-434,221,-269,3894,0.46,-0.09,-25.64,2.21,-2.69,38.94,-5.23,0.43,38.64,3.29,-0.13,5.13
7,-9,-351,162,-312,3911,0.46,-0.14,-25.22,1.62,-3.12,39.11,-5.22,0.40,38.74,3.26,-0.14,4.34
9,-14,-315,145,-343,3942,0.47,-0.21,-24.62,1.45,-3.43,39.42,-5.22,0.38,38.84,3.22,-0.02,3.91
6,-8,-221,67,-319,3899,0.46,-0.24,-23.50,0.67,-3.19,38.99,-5.21,0.35,38.93,3.27,-0.09,2.89
12,-9,-203,-49,-270,3861,0.49,-0.27,-22.39,-0.49,-2.70,38.61,-5.19,0.35,39.02,3.14,-0.06,2.52
9,-14,-172,-98,-322,3925,0.49,-0.33,-21.20,-0.98,-3.22,39.25,-5.18,0.35,39.10,3.19,0.04,2.02
11,-10,-187,-100,-341,3947,0.51,-0.36,-20.22,-1.00,-3.41,39.47,-5.18,0.36,39.18,3.14,-0.03,1.96
1,-9,-236,-134,-294,3865,0.47,-0.37,-19.64,-1.34,-2.94,38.65,-5.17,0.37,39.26,3.32,-0.04,2.25
6,-11,-238,-159,-275,3903,0.46,-0.40,-19.13,-1.59,-2.75,39.03,-5.15,0.38,39.34,3.23,-0.01,2.17
4,-7,-354,-170,-170,3858,0.43,-0.41,-19.37,-1.70,-1.70,38.58,-5.14,0.38,39.41,3.26,-0.07,3.19
-1,-14,-380,-117,-188,3943,0.38,-0.45,-19.75,-1.17,-1.88,39.43,-5.12,0.38,39.49,3.35,0.06,3.48
-1,-19,-423,-5,-137,3899,0.34,-0.52,-20.36,-0.05,-1.37,38.99,-5.10,0.37,39.57,3.35,0.17,3.95
4,-10,-418,-38,-293,3889,0.33,-0.53,-20.87,-0.38,-2.93,38.89,-5.08,0.36,39.66,3.26,0.03,4.00
9,-11,-414,-74,-336,3883,0.35,-0.55,-21.31,-0.74,-3.36,38.83,-5.08,0.37,39.74,3.16,0.04,4.04
5,-16,-445,-80,-370,3910,0.35,-0.59,-21.89,-0.80,-3.70,39.10,-5.09,0.38,39.83,3.24,0.14,4.40
8,-8,-448,-67,-405,3904,0.36,-0.58,-22.44,-0.67,-4.05,39.04,-5.10,0.38,39.92,3.19,-0.00,4.53
4,-8,-448,13,-355,3921,0.35,-0.57,-22.93,0.13,-3.55,39.21,-5.10,0.35,40.01,3.26,0.02,4.61
1,-12,-390,-26,-366,3935,0.32,-0.59,-23.01,-0.26,-3.66,39.35,-5.12,0.34,40.10,3.34,0.09,4.13
3,-6,-388,-82,-385,3891,0.31,-0.56,-23.08,-0.82,-3.85,38.91,-5.13,0.35,40.19,3.31,-0.02,4.12
10,-5,-422,-214,-219,3916,0.34,-0.54,-23.35,-2.14,-2.19,39.16,-5.12,0.35,40.29,3.18,-0.05,4.45
7,-9,-446,-225,-114,3878,0.35,-0.54,-23.73,-2.25,-1.14,38.78,-5.10,0.35,40.38,3.22,0.02,4.71
9,-12,-553,-259,-136,3955,0.37,-0.56,-24.73,-2.59,-1.36,39.55,-5.09,0.36,40.48,3.17,0.08,5.80
2,-17,-578,-204,-185,3888,0.34,-0.61,-25.78,-2.04,-1.85,38.88,-5.08,0.36,40.58,3.28,0.17,6.21
14,-7,-667,-175,-204,3890,0.39,-0.59,-27.27,-1.75,-2.04,38.90,-5.06,0.36,40.69,3.06,-0.00,7.24
10,-6,-683,-103,-182,3863,0.42,-0.57,-28.71,-1.03,-1.82,38.63,-5.05,0.36,40.80,3.10,-0.02,7.64
15,-5,-694,53,-431,3934,0.47,-0.54,-30.08,0.53,-4.31,39.34,-5.06,0.33,40.92,3.01,-0.03,7.98
1,-12,-691,25,-376,3869,0.42,-0.56,-31.28,0.25,-3.76,38.69,-5.07,0.30,41.05,3.27,0.11,8.17
16,-5,-663,98,-345,3965,0.48,-0.53,-32.20,0.98,-3.45,39.65,-5.07,0.27,41.17,2.99,0.01,8.10
-4,-13,-657,93,-430,3808,0.41,-0.56,-32.99,0.93,-4.30,38.08,-5.08,0.24,41.31,3.36,0.17,8.19
0,-12,-587,92,-444,3874,0.37,-0.58,-33.27,0.92,-4.44,38.74,-5.09,0.22,41.44,3.32,0.18,7.64
14,-7,-557,96,-456,3922,0.42,-0.56,-33.34,0.96,-4.56,39.22,-5.10,0.19,41.57,3.07,0.10,7.38
-5,-8,-516,87,-415,3889,0.34,-0.55,-33.15,0.87,-4.15,38.89,-5.11,0.16,41.70,3.42,0.14,6.99
10,-12,-488,101,-426,3890,0.37,-0.57,-32.81,1.01,-4.26,38.90,-5.12,0.13,41.83,3.17,0.23,6.68
11,-9,-489,3,-411,3882,0.40,-0.57,-32.52,0.03,-4.11,38.82,-5.13,0.11,41.96,3.15,0.19,6.62
10,-11,-482,-4,-371,3874,0.42,-0.58,-32.20,-0.04,-3.71,38.74,-5.15,0.10,42.09,3.17,0.24,6.49
15,-6,-420,52,-358,3943,0.47,-0.56,-31.55,0.52,-3.58,39.43,-5.15,0.06,42.22,3.07,0.17,5.82
4,-6,-392,72,-371,3875,0.45,-0.54,-30.78,0.72,-3.71,38.75,-5.15,0.03,42.34,3.27,0.18,5.43
2,-6,-307,21,-409,3900,0.42,-0.52,-29.58,0.21,-4.09,39.00,-5.17,0.01,42.46,3.32,0.19,4.47
1,-14,-287,-18,-385,3894,0.38,-0.56,-28.37,-0.18,-3.85,38.94,-5.18,0.01,42.57,3.36,0.34,4.06
1,-12,-270,-90,-271,3895,0.35,-0.57,-27.18,-0.90,-2.71,38.95,-5.17,0.01,42.68,3.36,0.31,3.68
7,-12,-277,-144,-263,3913,0.36,-0.59,-26.15,-1.44,-2.63,39.13,-5.16,0.01,42.78,3.25,0.31,3.53
13,-17,-342,-189,-234,3930,0.40,-0.63,-25.62,-1.89,-2.34,39.30,-5.15,0.02,42.88,3.13,0.41,3.97
9,-12,-355,-176,-278,3892,0.41,-0.64,-25.23,-1.76,-2.78,38.92,-5.14,0.02,42.98,3.18,0.32,4.00
4,-12,-440,-218,-298,3963,0.40,-0.65,-25.39,-2.18,-2.98,39.63,-5.13,0.03,43.08,3.27,0.32,4.74
11,2,-484,-182,-330,3862,0.42,-0.57,-25.80,-1.82,-3.30,38.62,-5.13,0.04,43.19,3.14,0.06,5.18
18,-7,-550,-90,-340,3881,0.49,-0.56,-26.58,-0.90,-3.40,38.81,-5.12,0.04,43.29,3.00,0.20,5.88
4,-15,-562,-39,-352,3932,0.47,-0.60,-27.35,-0.39,-3.52,39.32,-5.12,0.05,43.40,3.24,0.34,6.12
13,1,-477,41,-344,3846,0.50,-0.53,-27.52,0.41,-3.44,38.46,-5.12,0.02,43.51,3.08,0.07,5.42
15,3,-446,-13,-431,3992,0.54,-0.46,-27.49,-0.13,-4.31,39.92,-5.14,0.01,43.62,3.04,0.02,5.14
8,-7,-366,-127,-306,3888,0.54,-0.46,-26.97,-1.27,-3.06,38.88,-5.13,0.02,43.73,3.15,0.18,4.36
5,-12,-343,-136,-291,3953,0.51,-0.48,-26.37,-1.36,-2.91,39.53,-5.12,0.02,43.83,3.21,0.27,4.04
-3,-11,-343,-194,-298,3917,0.44,-0.50,-25.82,-1.94,-2.98,39.17,-5.11,0.03,43.94,3.36,0.26,3.92
12,-5,-348,-222,-266,3894,0.47,-0.48,-25.36,-2.22,-2.66,38.94,-5.10,0.03,44.04,3.09,0.15,3.87
4,-11,-371,-163,-275,3930,0.45,-0.50,-25.09,-1.63,-2.75,39.30,-5.09,0.04,44.14,3.23,0.25,4.00
-4,-7,-393,-143,-270,3859,0.38,-0.49,-24.98,-1.43,-2.70,38.59,-5.08,0.04,44.24,3.38,0.18,4.16
6,-9,-415,2,-347,3898,0.38,-0.50,-25.01,0.02,-3.47,38.98,-5.08,0.02,44.33,3.21,0.23,4.34
14,1,-403,-50,-314,3882,0.43,-0.44,-24.97,-0.50,-3.14,38.82,-5.07,0.02,44.43,3.05,0.04,4.22
6,-8,-351,26,-433,3888,0.42,-0.45,-24.61,0.26,-4.33,38.88,-5.09,0.00,44.53,3.20,0.20,3.70
4,-11,-345,104,-375,3966,0.40,-0.47,-24.26,1.04,-3.75,39.66,-5.09,-0.02,44.63,3.24,0.28,3.58
-2,-6,-311,69,-343,3822,0.35,-0.46,-23.73,0.69,-3.43,38.22,-5.09,-0.05,44.72,3.36,0.21,3.18
8,-8,-297,19,-383,3936,0.36,-0.46,-23.17,0.19,-3.83,39.36,-5.10,-0.07,44.82,3.19,0.26,2.95
1,-9,-283,51,-417,3969,0.33,-0.47,-22.58,0.51,-4.17,39.69,-5.12,-0.09,44.90,3.33,0.29,2.71
5,-9,-279,41,-351,3851,0.33,-0.48,-22.02,0.41,-3.51,38.51,-5.12,-0.12,44.99,3.27,0.31,2.56
6,-8,-261,-25,-344,3921,0.33,-0.48,-21.41,-0.25,-3.44,39.21,-5.11,-0.11,45.08,3.24,0.29,2.28
5,-7,-258,-1,-334,3870,0.33,-0.47,-20.84,-0.01,-3.34,38.70,-5.10,-0.11,45.16,3.25,0.27,2.14
6,1,-246,-7,-340,3864,0.33,-0.42,-20.26,-0.07,-3.40,38.64,-5.09,-0.10,45.24,3.23,0.11,1.92
8,0,-239,-2,-335,3882,0.35,-0.38,-19.69,-0.02,-3.35,38.82,-5.07,-0.10,45.32,3.18,0.11,1.74
0,-5,-281,-97,-307,3893,0.32,-0.37,-19.44,-0.97,-3.07,38.93,-5.07,-0.09,45.40,3.32,0.19,2.04
7,-10,-303,-36,-291,4002,0.33,-0.40,-19.34,-0.36,-2.91,40.02,-5.05,-0.09,45.47,3.19,0.28,2.21
1,-15,-347,-29,-304,3893,0.30,-0.45,-19.52,-0.29,-3.04,38.93,-5.03,-0.08,45.55,3.29,0.38,2.61
5,-15,-354,-74,-368,3907,0.30,-0.49,-19.73,-0.74,-3.68,39.07,-5.04,-0.08,45.63,3.22,0.39,2.70
-7,-11,-391,-83,-280,3913,0.23,-0.51,-20.14,-0.83,-2.80,39.13,-5.03,-0.07,45.71,3.44,0.33,3.08
13,-3,-398,-62,-313,3931,0.28,-0.48,-20.56,-0.62,-3.13,39.31,-5.02,-0.06,45.79,3.08,0.17,3.21
2,-11,-454,-65,-310,4010,0.27,-0.50,-21.27,-0.65,-3.10,40.10,-5.01,-0.06,45.88,3.26,0.31,3.82
19,4,-510,-61,-458,3916,0.36,-0.42,-22.25,-0.61,-4.58,39.16,-5.02,-0.06,45.96,2.95,0.03,4.47
-3,3,-617,-284,-305,3882,0.30,-0.36,-23.79,-2.84,-3.05,38.82,-5.02,-0.05,46.06,3.34,0.03,5.66
8,4,-635,-122,-342,3949,0.32,-0.30,-25.29,-1.22,-3.42,39.49,-5.02,-0.04,46.16,3.15,-0.02,6.09
7,3,-656,-73,-369,3971,0.33,-0.25,-26.76,-0.73,-3.69,39.71,-5.02,-0.03,46.27,3.16,-0.02,6.54
5,-17,-648,57,-321,3926,0.33,-0.33,-28.04,0.57,-3.21,39.26,-5.01,-0.06,46.38,3.19,0.36,6.71
2,-10,-589,91,-334,3870,0.31,-0.36,-28.83,0.91,-3.34,38.70,-5.01,-0.09,46.49,3.25,0.27,6.35
18,3,-580,-68,-376,3911,0.39,-0.31,-29.48,-0.68,-3.76,39.11,-5.01,-0.08,46.61,2.96,0.03,6.39
13,-7,-551,11,-418,3869,0.43,-0.32,-29.89,0.11,-4.18,38.69,-5.03,-0.10,46.73,3.04,0.21,6.21
10,5,-552,-43,-246,3856,0.45,-0.26,-30.27,-0.43,-2.46,38.56,-5.01,-0.10,46.85,3.07,-0.01,6.28
28,-3,-603,12,-105,4025,0.57,-0.25,-30.92,0.12,-1.05,40.25,-4.99,-0.11,46.97,2.71,0.13,6.83
16,7,-661,-44,-5,3923,0.61,-0.18,-31.86,-0.44,-0.05,39.23,-4.97,-0.12,47.10,2.89,-0.05,7.49
1,-27,-788,-334,-150,3875,0.56,-0.33,-33.48,-3.34,-1.50,38.75,-4.96,-0.12,47.23,3.15,0.57,8.86
0,-33,-819,-186,-289,4016,0.50,-0.50,-35.13,-1.86,-2.89,40.16,-4.95,-0.12,47.37,3.18,0.72,9.42
11,-6,-791,-90,-419,3924,0.52,-0.48,-36.44,-0.90,-4.19,39.24,-4.96,-0.12,47.52,3.00,0.26,9.42
0,1,-754,-88,-453,3904,0.47,-0.43,-37.40,-0.88,-4.53,39.04,-4.97,-0.12,47.67,3.21,0.13,9.28
18,1,-542,33,-595,3912,0.53,-0.38,-36.96,0.33,-5.95,39.12,-4.99,-0.13,47.81,2.89,0.12,7.39
14,2,-474,134,-579,3913,0.56,-0.33,-36.16,1.34,-5.79,39.13,-5.00,-0.16,47.96,2.96,0.10,6.65
7,3,-301,80,-457,3917,0.55,-0.28,-34.38,0.80,-4.57,39.17,-5.01,-0.18,48.09,3.09,0.09,4.83
-1,-1,-275,101,-449,3882,0.49,-0.26,-32.62,1.01,-4.49,38.82,-5.03,-0.20,48.22,3.25,0.16,4.26
-5,-7,-139,116,-439,3896,0.41,-0.27,-30.21,1.16,-4.39,38.96,-5.04,-0.23,48.34,3.35,0.29,2.63
-6,-6,-93,101,-400,3892,0.33,-0.28,-27.75,1.01,-4.00,38.92,-5.05,-0.25,48.46,3.40,0.29,1.77
-6,-5,-54,10,-383,3907,0.26,-0.29,-25.31,0.10,-3.83,39.07,-5.06,-0.26,48.56,3.44,0.28,0.96
-7,-7,-56,0,-374,3911,0.19,-0.30,-23.12,0.00,-3.74,39.11,-5.08,-0.26,48.65,3.49,0.32,0.55
-3,-9,-103,-116,-383,3932,0.16,-0.32,-21.43,-1.16,-3.83,39.32,-5.08,-0.25,48.73,3.43,0.35,0.62
3,-7,-134,-149,-376,3894,0.16,-0.33,-20.11,-1.49,-3.76,38.94,-5.08,-0.24,48.81,3.33,0.31,0.62
16,-7,-322,-128,-265,3921,0.24,-0.34,-20.06,-1.28,-2.65,39.21,-5.07,-0.23,48.89,3.08,0.31,2.20
-1,-12,-365,-134,-208,3849,0.21,-0.38,-20.28,-1.34,-2.08,38.49,-5.06,-0.23,48.97,3.37,0.41,2.60
9,-2,-399,-57,-106,3843,0.24,-0.36,-20.69,-0.57,-1.06,38.43,-5.04,-0.23,49.06,3.17,0.23,2.95
-6,-15,-404,38,-193,3909,0.18,-0.41,-21.08,0.38,-1.93,39.09,-5.02,-0.24,49.14,3.43,0.48,3.06
26,22,-446,-1,-270,3892,0.32,-0.24,-21.70,-0.01,-2.70,38.92,-5.00,-0.25,49.23,2.83,-0.20,3.53
39,19,-427,104,-357,3890,0.53,-0.10,-22.13,1.04,-3.57,38.90,-5.00,-0.28,49.31,2.55,-0.18,3.44
34,34,-415,-41,-471,3864,0.68,0.12,-22.45,-0.41,-4.71,38.64,-5.01,-0.27,49.40,2.59,-0.51,3.39
43,35,-409,-17,-464,3905,0.88,0.32,-22.70,-0.17,-4.64,39.05,-5.03,-0.28,49.49,2.38,-0.59,3.38
35,27,-328,-16,-406,3920,1.00,0.45,-22.43,-0.16,-4.06,39.20,-5.04,-0.27,49.58,2.48,-0.50,2.64
30,20,-325,7,-366,3920,1.09,0.53,-22.17,0.07,-3.66,39.20,-5.05,-0.27,49.67,2.55,-0.41,2.55
6,0,-280,72,-315,3909,1.01,0.48,-21.66,0.72,-3.15,39.09,-5.04,-0.29,49.76,2.97,-0.04,2.07
12,5,-272,62,-382,3915,0.99,0.46,-21.15,0.62,-3.82,39.15,-5.04,-0.31,49.84,2.88,-0.10,1.90
44,19,-276,-14,-246,3904,1.16,0.53,-20.72,-0.14,-2.46,39.04,-5.02,-0.31,49.93,2.27,-0.37,1.84
32,19,-278,-13,-309,3888,1.23,0.59,-20.35,-0.13,-3.09,38.88,-5.00,-0.30,50.01,2.44,-0.39,1.78
17,15,-310,-59,-377,3909,1.22,0.63,-20.20,-0.59,-3.77,39.09,-5.01,-0.29,50.09,2.70,-0.34,2.01
24,14,-311,25,-374,3891,1.24,0.65,-20.08,0.25,-3.74,38.91,-5.02,-0.30,50.17,2.58,-0.33,1.99
5,1,-370,-71,-158,3914,1.15,0.59,-20.33,-0.71,-1.58,39.14,-5.00,-0.29,50.25,2.92,-0.09,2.53
17,3,-405,-54,-203,3955,1.14,0.55,-20.77,-0.54,-2.03,39.55,-4.98,-0.29,50.33,2.70,-0.11,2.90
34,18,-456,3,-183,3894,1.23,0.60,-21.47,0.03,-1.83,38.94,-4.95,-0.29,50.42,2.37,-0.38,3.46
29,20,-449,17,-97,3908,1.28,0.67,-22.06,0.17,-0.97,39.08,-4.93,-0.30,50.51,2.42,-0.43,3.51
23,11,-445,40,-273,3898,1.30,0.67,-22.57,0.40,-2.73,38.98,-4.91,-0.31,50.60,2.50,-0.28,3.56
26,10,-431,8,-272,3904,1.32,0.66,-22.94,0.08,-2.72,39.04,-4.88,-0.31,50.69,2.43,-0.26,3.51
5,0,-302,-13,-442,3947,1.22,0.59,-22.49,-0.13,-4.42,39.47,-4.89,-0.31,50.78,2.82,-0.06,2.32
8,-2,-264,-55,-472,3910,1.15,0.52,-21.85,-0.55,-4.72,39.10,-4.91,-0.31,50.87,2.80,-0.01,1.87
6,2,-184,-148,-499,3918,1.07,0.48,-20.79,-1.48,-4.99,39.18,-4.91,-0.30,50.95,2.87,-0.07,0.98
9,0,-165,-122,-471,3909,1.02,0.43,-19.72,-1.22,-4.71,39.09,-4.92,-0.29,51.03,2.84,-0.03,0.61
5,-4,-131,-126,-154,3865,0.95,0.37,-18.54,-1.26,-1.54,38.65,-4.90,-0.28,51.10,2.92,0.06,0.09
0,-4,-111,-134,-200,3842,0.85,0.31,-17.37,-1.34,-2.00,38.42,-4.89,-0.27,51.17,3.03,0.07,-0.31
-1,3,-124,-16,-203,3917,0.76,0.29,-16.39,-0.16,-2.03,39.17,-4.87,-0.27,51.24,3.06,-0.04,-0.39
7,1,-153,17,-188,3940,0.73,0.27,-15.68,0.17,-1.88,39.40,-4.85,-0.28,51.30,2.92,0.00,-0.29
5,-3,-249,39,-235,3955,0.69,0.22,-15.63,0.39,-2.35,39.55,-4.82,-0.29,51.36,2.95,0.09,0.51
5,-5,-269,12,-237,3850,0.65,0.17,-15.71,0.12,-2.37,38.50,-4.80,-0.29,51.42,2.95,0.14,0.69
5,-17,-292,37,-184,3875,0.61,0.05,-15.92,0.37,-1.84,38.75,-4.78,-0.30,51.49,2.95,0.39,0.92
0,-6,-284,40,-251,3915,0.55,0.01,-16.06,0.40,-2.51,39.15,-4.76,-0.31,51.55,3.04,0.23,0.87
9,-7,-334,-15,-304,3908,0.55,-0.03,-16.49,-0.15,-3.04,39.08,-4.75,-0.30,51.62,2.88,0.25,1.37
7,-4,-359,-50,-256,3899,0.54,-0.06,-17.03,-0.50,-2.56,38.99,-4.73,-0.29,51.69,2.91,0.20,1.68
4,1,-327,-111,-285,3881,0.51,-0.04,-17.32,-1.11,-2.85,38.81,-4.73,-0.28,51.75,2.97,0.11,1.46
9,-1,-318,-122,-282,3895,0.51,-0.05,-17.53,-1.22,-2.82,38.95,-4.72,-0.26,51.82,2.87,0.13,1.42
-2,-1,-310,-175,-328,3894,0.45,-0.05,-17.67,-1.75,-3.28,38.94,-4.72,-0.25,51.90,3.08,0.13,1.37
5,-6,-291,-166,-263,3892,0.44,-0.08,-17.68,-1.66,-2.63,38.92,-4.71,-0.24,51.97,2.96,0.21,1.20
5,-7,-358,-345,-93,3939,0.42,-0.11,-18.09,-3.45,-0.93,39.39,-4.70,-0.23,52.04,2.96,0.24,1.84
22,9,-393,-327,-104,3875,0.51,-0.05,-18.68,-3.27,-1.04,38.75,-4.69,-0.22,52.11,2.63,-0.06,2.24
6,3,-459,-264,-162,3901,0.50,-0.02,-19.61,-2.64,-1.62,39.01,-4.68,-0.21,52.19,2.90,0.02,2.97
4,6,-462,-244,-301,3888,0.47,0.01,-20.47,-2.44,-3.01,38.88,-4.67,-0.20,52.27,2.94,-0.05,3.16
18,16,-416,-163,-444,3997,0.54,0.11,-20.96,-1.63,-4.44,39.97,-4.68,-0.19,52.36,2.69,-0.25,2.85
-1,12,-387,-176,-458,3933,0.48,0.17,-21.23,-1.76,-4.58,39.33,-4.69,-0.18,52.44,3.03,-0.21,2.65
5,11,-428,-155,-304,3906,0.46,0.22,-21.71,-1.55,-3.04,39.06,-4.68,-0.17,52.53,2.94,-0.22,3.08
5,1,-447,-192,-250,3917,0.44,0.21,-22.27,-1.92,-2.50,39.17,-4.68,-0.16,52.62,2.94,-0.05,3.34
16,2,-527,-142,-234,3932,0.50,0.20,-23.26,-1.42,-2.34,39.32,-4.67,-0.15,52.71,2.72,-0.07,4.20
14,24,-544,-81,-160,3839,0.53,0.32,-24.25,-0.81,-1.60,38.39,-4.65,-0.15,52.81,2.74,-0.49,4.53
1,0,-568,16,-389,3949,0.49,0.29,-25.29,0.16,-3.89,39.49,-4.66,-0.16,52.91,2.98,-0.07,4.92
8,15,-544,-59,-393,3868,0.49,0.35,-26.08,-0.59,-3.93,38.68,-4.67,-0.15,53.01,2.87,-0.34,4.86
-2,-5,-423,81,-545,3917,0.43,0.29,-26.05,0.81,-5.45,39.17,-4.69,-0.17,53.11,3.07,0.03,3.82
8,-6,-376,92,-605,3907,0.43,0.22,-25.74,0.92,-6.05,39.07,-4.71,-0.18,53.22,2.91,0.07,3.35
-4,-15,-253,6,-422,3905,0.36,0.11,-24.71,0.06,-4.22,39.05,-4.72,-0.18,53.32,3.14,0.27,2.10
-1,-15,-233,-42,-394,3910,0.32,0.01,-23.66,-0.42,-3.94,39.10,-4.73,-0.18,53.41,3.12,0.30,1.72
-4,-16,-228,-128,-278,3888,0.26,-0.09,-22.68,-1.28,-2.78,38.88,-4.73,-0.17,53.50,3.18,0.34,1.49
0,-20,-217,-66,-348,3897,0.24,-0.20,-21.74,-0.66,-3.48,38.97,-4.73,-0.16,53.59,3.13,0.44,1.21
-12,-11,-192,-184,-332,3866,0.14,-0.25,-20.74,-1.84,-3.32,38.66,-4.73,-0.15,53.67,3.36,0.30,0.79
-10,-20,-175,-79,-295,3937,0.07,-0.35,-19.73,-0.79,-2.95,39.37,-4.73,-0.14,53.75,3.35,0.47,0.45
-4,-17,-91,162,-438,3911,0.04,-0.42,-18.31,1.62,-4.38,39.11,-4.74,-0.16,53.82,3.26,0.46,-0.54
-1,-14,-77,150,-439,3901,0.03,-0.46,-16.95,1.50,-4.39,39.01,-4.75,-0.19,53.89,3.22,0.44,-0.92
-6,-17,-18,91,-372,3900,-0.01,-0.52,-15.37,0.91,-3.72,39.00,-4.76,-0.21,53.95,3.33,0.52,-1.73
-7,-16,-14,20,-333,3898,-0.05,-0.56,-13.91,0.20,-3.33,38.98,-4.77,-0.23,54.00,3.37,0.53,-2.05
-3,-13,-10,-36,-320,3889,-0.07,-0.59,-12.58,-0.36,-3.20,38.89,-4.77,-0.21,54.05,3.30,0.48,-2.34
-4,-11,-5,-52,-312,3890,-0.09,-0.60,-11.36,-0.52,-3.12,38.90,-4.77,-0.20,54.10,3.32,0.44,-2.62
-2,-6,-3,-46,-311,3894,-0.09,-0.57,-10.24,-0.46,-3.11,38.94,-4.76,-0.19,54.14,3.29,0.34,-2.86
-1,-6,-2,-45,-304,3900,-0.09,-0.55,-9.23,-0.45,-3.04,39.00,-4.76,-0.18,54.18,3.27,0.33,-3.06
3,-3,-5,-24,-308,3900,-0.06,-0.51,-8.33,-0.24,-3.08,39.00,-4.75,-0.17,54.21,3.18,0.26,-3.21
2,-6,-5,-24,-313,3906,-0.04,-0.50,-7.53,-0.24,-3.13,39.06,-4.75,-0.15,54.24,3.19,0.29,-3.37
5,-5,-10,-40,-289,3905,-0.01,-0.48,-6.84,-0.40,-2.89,39.05,-4.73,-0.14,54.27,3.12,0.26,-3.46
5,-5,-10,-51,-297,3901,0.02,-0.46,-6.22,-0.51,-2.97,39.01,-4.73,-0.13,54.29,3.11,0.25,-3.58
-2,-6,-16,-74,-302,3921,0.01,-0.45,-5.69,-0.74,-3.02,39.21,-4.72,-0.12,54.31,3.23,0.25,-3.63
-4,-5,-14,-73,-298,3901,-0.02,-0.44,-5.21,-0.73,-2.98,39.01,-4.72,-0.10,54.33,3.27,0.22,-3.74
6,-9,-22,-110,-378,3957,0.02,-0.45,-4.82,-1.10,-3.78,39.57,-4.72,-0.09,54.35,3.09,0.29,-3.75
0,-16,-54,-249,-411,3901,0.02,-0.50,-4.67,-2.49,-4.11,39.01,-4.73,-0.07,54.37,3.20,0.41,-3.51
3,2,-129,-79,-336,3908,0.04,-0.44,-4.99,-0.79,-3.36,39.08,-4.73,-0.06,54.39,3.14,0.08,-2.82
0,-1,-126,-25,-291,3935,0.03,-0.40,-5.26,-0.25,-2.91,39.35,-4.72,-0.05,54.41,3.18,0.11,-2.79
-4,-1,-108,0,-302,3897,0.01,-0.37,-5.39,0.00,-3.02,38.97,-4.70,-0.05,54.43,3.25,0.10,-2.92
-2,-2,-105,67,-299,3919,-0.01,-0.34,-5.49,0.67,-2.99,39.19,-4.69,-0.07,54.46,3.21,0.12,-2.93
3,-11,-26,-13,-268,3914,0.01,-0.38,-5.10,-0.13,-2.68,39.14,-4.68,-0.07,54.48,3.11,0.28,-3.68
2,-5,-29,-2,-259,3910,0.02,-0.37,-4.77,-0.02,-2.59,39.10,-4.66,-0.07,54.49,3.11,0.18,-3.72
3,-3,-17,-41,-273,3914,0.04,-0.35,-4.40,-0.41,-2.73,39.14,-4.65,-0.06,54.51,3.08,0.13,-3.89
5,0,-14,-48,-294,3907,0.07,-0.32,-4.04,-0.48,-2.94,39.07,-4.64,-0.05,54.53,3.03,0.06,-3.99
2,6,-11,-39,-295,3916,0.07,-0.25,-3.70,-0.39,-2.95,39.16,-4.63,-0.03,54.54,3.08,-0.07,-4.08
0,5,-6,-31,-304,3900,0.06,-0.19,-3.37,-0.31,-3.04,39.00,-4.62,-0.02,54.56,3.11,-0.08,-4.19
3,3,-10,-51,-280,3907,0.08,-0.15,-3.09,-0.51,-2.80,39.07,-4.61,-0.00,54.57,3.05,-0.07,-4.21
3,0,-19,-93,-259,3902,0.09,-0.14,-2.90,-0.93,-2.59,39.02,-4.60,0.01,54.58,3.04,-0.03,-4.17
6,-9,-159,-332,-173,3863,0.11,-0.18,-3.58,-3.32,-1.73,38.63,-4.59,0.03,54.59,2.97,0.12,-2.86
-8,-4,-232,-360,-163,3931,0.05,-0.19,-4.64,-3.60,-1.63,39.31,-4.59,0.04,54.61,3.23,0.03,-2.04
17,24,-358,-94,-275,3847,0.15,-0.02,-6.36,-0.94,-2.75,38.47,-4.58,0.06,54.64,2.77,-0.51,-0.64
-4,3,-372,-115,-188,3871,0.11,-0.00,-7.99,-1.15,-1.88,38.71,-4.57,0.07,54.67,3.12,-0.17,-0.22
8,6,-294,173,-373,3934,0.15,0.04,-8.99,1.73,-3.73,39.34,-4.57,0.05,54.71,2.91,-0.22,-0.69
12,6,-277,99,-470,3935,0.21,0.07,-9.78,0.99,-4.70,39.35,-4.59,0.03,54.74,2.84,-0.22,-0.69
-3,-6,-143,109,-379,3920,0.17,0.03,-9.67,1.09,-3.79,39.20,-4.59,0.01,54.78,3.11,0.01,-1.85
-5,-19,-153,19,-320,3963,0.12,-0.09,-9.64,0.19,-3.20,39.63,-4.60,-0.01,54.82,3.16,0.28,-1.77
-6,-5,-86,35,-393,3901,0.07,-0.11,-9.20,0.35,-3.93,39.01,-4.61,-0.02,54.86,3.20,0.06,-2.43
-10,-11,-60,-12,-330,3889,0.00,-0.17,-8.64,-0.12,-3.30,38.89,-4.63,-0.01,54.89,3.30,0.18,-2.76
1,-15,-49,-74,-288,3910,0.01,-0.24,-8.08,-0.74,-2.88,39.10,-4.62,0.00,54.92,3.11,0.26,-2.96
5,-12,-48,-80,-299,3887,0.04,-0.29,-7.56,-0.80,-2.99,38.87,-4.62,0.02,54.96,3.03,0.21,-3.07
4,-5,-87,-128,-199,3906,0.06,-0.29,-7.34,-1.28,-1.99,39.06,-4.60,0.03,54.98,3.03,0.09,-2.79
4,-8,-129,-136,-176,3892,0.08,-0.31,-7.39,-1.36,-1.76,38.92,-4.59,0.04,55.01,3.02,0.14,-2.42
11,-8,-291,-155,-113,3919,0.14,-0.33,-8.43,-1.55,-1.13,39.19,-4.58,0.04,55.05,2.87,0.14,-0.86
1,-18,-325,-133,-114,3823,0.13,-0.41,-9.57,-1.33,-1.14,38.23,-4.56,0.05,55.09,3.03,0.33,-0.36
11,-2,-355,-169,-300,3854,0.18,-0.38,-10.78,-1.69,-3.00,38.54,-4.56,0.06,55.13,2.84,0.04,0.13
9,8,-347,-106,-410,3854,0.22,-0.29,-11.81,-1.06,-4.10,38.54,-4.57,0.07,55.17,2.87,-0.16,0.25
1,1,-255,111,-413,3962,0.20,-0.26,-12.19,1.11,-4.13,39.62,-4.58,0.05,55.22,3.02,-0.04,-0.46
2,-5,-220,96,-414,3888,0.20,-0.26,-12.31,0.96,-4.14,38.88,-4.59,0.03,55.27,3.01,0.08,-0.74
-2,-5,-147,-35,-321,3915,0.16,-0.27,-11.98,-0.35,-3.21,39.15,-4.60,0.05,55.32,3.09,0.07,-1.42
1,-10,-165,4,-296,3960,0.15,-0.30,-11.79,0.04,-2.96,39.60,-4.58,0.04,55.37,3.03,0.17,-1.31
7,-7,-163,4,-270,3887,0.18,-0.31,-11.60,0.04,-2.70,38.87,-4.56,0.03,55.41,2.91,0.13,-1.37
-7,-11,-173,9,-298,3905,0.12,-0.35,-11.50,0.09,-2.98,39.05,-4.54,0.01,55.46,3.16,0.22,-1.31
5,-3,-294,-88,-352,3990,0.14,-0.33,-12.14,-0.88,-3.52,39.90,-4.55,0.02,55.51,2.95,0.07,-0.17
1,-4,-305,-64,-279,3868,0.13,-0.32,-12.79,-0.64,-2.79,38.68,-4.54,0.04,55.56,3.02,0.08,0.05
1,-6,-281,-20,-345,3970,0.12,-0.33,-13.22,-0.20,-3.45,39.70,-4.56,0.04,55.61,3.03,0.11,-0.08
0,0,-208,36,-389,3962,0.11,-0.30,-13.17,0.36,-3.89,39.62,-4.57,0.03,55.66,3.06,0.01,-0.71
2,-6,-186,7,-379,3963,0.11,-0.30,-12.99,0.07,-3.79,39.63,-4.59,0.02,55.71,3.04,0.12,-0.94
10,-9,-176,21,-464,3939,0.16,-0.33,-12.76,0.21,-4.64,39.39,-4.61,0.01,55.77,2.90,0.18,-1.07
7,-12,-118,-9,-329,3905,0.19,-0.37,-12.21,-0.09,-3.29,39.05,-4.62,0.01,55.81,2.95,0.24,-1.67
4,-9,-125,-15,-339,3906,0.19,-0.39,-11.75,-0.15,-3.39,39.06,-4.64,0.02,55.86,3.01,0.19,-1.70
17,-5,-145,-40,-171,3880,0.28,-0.38,-11.46,-0.40,-1.71,38.80,-4.62,0.02,55.91,2.75,0.12,-1.60
14,-2,-149,-52,-196,3910,0.34,-0.35,-11.22,-0.52,-1.96,39.10,-4.60,0.02,55.95,2.77,0.06,-1.61
4,-3,-277,-26,-342,3988,0.33,-0.34,-11.79,-0.26,-3.42,39.88,-4.61,0.03,56.00,2.95,0.07,-0.42
1,10,-360,-80,-324,3858,0.30,-0.24,-12.81,-0.80,-3.24,38.58,-4.61,0.04,56.05,3.01,-0.19,0.47
9,1,-519,-19,-158,3794,0.33,-0.21,-14.69,-0.19,-1.58,37.94,-4.59,0.04,56.11,2.85,-0.05,2.17
6,-3,-517,15,-271,3867,0.33,-0.21,-16.38,0.15,-2.71,38.67,-4.58,0.02,56.17,2.89,0.03,2.47
29,15,-509,8,-327,3914,0.47,-0.10,-17.84,0.08,-3.27,39.14,-4.59,0.01,56.24,2.46,-0.30,2.68
-8,-8,-461,20,-495,3764,0.38,-0.13,-18.87,0.20,-4.95,37.64,-4.61,-0.00,56.32,3.13,0.11,2.46
5,-9,-315,27,-552,3938,0.37,-0.18,-18.90,0.27,-5.52,39.38,-4.62,-0.01,56.39,2.93,0.14,1.22
23,2,-246,-30,-253,3909,0.47,-0.15,-18.51,-0.30,-2.53,39.09,-4.60,-0.01,56.47,2.57,-0.05,0.56
0,13,-167,-60,-411,3925,0.43,-0.05,-17.68,-0.60,-4.11,39.25,-4.62,-0.00,56.54,2.99,-0.27,-0.28
0,10,-196,-23,-438,3902,0.38,0.01,-17.11,-0.23,-4.38,39.02,-4.64,-0.01,56.61,3.01,-0.24,-0.15
17,0,-299,-205,-250,3935,0.45,0.01,-17.22,-2.05,-2.50,39.35,-4.63,0.01,56.68,2.70,-0.08,0.74
11,-5,-329,-212,-192,3855,0.47,-0.02,-17.51,-2.12,-1.92,38.55,-4.62,0.02,56.75,2.79,0.01,1.04
9,-6,-435,-190,-201,3911,0.48,-0.05,-18.41,-1.90,-2.01,39.11,-4.61,0.02,56.82,2.81,0.03,2.11
12,4,-494,-180,-276,3921,0.50,-0.02,-19.58,-1.80,-2.76,39.21,-4.60,0.04,56.90,2.75,-0.16,2.83
6,14,-500,-89,-352,3866,0.49,0.06,-20.67,-0.89,-3.52,38.66,-4.61,0.05,56.98,2.86,-0.36,3.08
12,8,-475,-134,-371,3893,0.51,0.11,-21.50,-1.34,-3.71,38.93,-4.61,0.06,57.06,2.75,-0.28,3.02
10,9,-431,-77,-398,3956,0.52,0.15,-21.98,-0.77,-3.98,39.56,-4.62,0.06,57.15,2.79,-0.32,2.73
8,-2,-432,-109,-425,3897,0.52,0.12,-22.42,-1.09,-4.25,38.97,-4.63,0.07,57.24,2.83,-0.12,2.81
10,7,-464,-102,-369,3906,0.53,0.15,-23.01,-1.02,-3.69,39.06,-4.64,0.08,57.33,2.80,-0.29,3.19
16,-1,-466,-32,-220,3889,0.57,0.13,-23.55,-0.32,-2.20,38.89,-4.62,0.08,57.43,2.67,-0.15,3.30
-2,-5,-477,-107,-202,3868,0.50,0.09,-24.10,-1.07,-2.02,38.68,-4.60,0.08,57.52,2.99,-0.07,3.49
5,-10,-466,-135,-306,3886,0.48,0.02,-24.54,-1.35,-3.06,38.86,-4.60,0.09,57.62,2.87,0.03,3.47
15,-16,-408,-63,-203,3878,0.53,-0.08,-24.57,-0.63,-2.03,38.78,-4.58,0.09,57.72,2.68,0.16,2.98
2,-12,-382,-102,-248,3917,0.49,-0.15,-24.44,-1.02,-2.48,39.17,-4.57,0.10,57.82,2.90,0.11,2.73
8,-15,-390,-137,-290,3929,0.49,-0.22,-24.38,-1.37,-2.90,39.29,-4.57,0.11,57.91,2.80,0.18,2.77
-2,-20,-412,-124,-345,3885,0.43,-0.32,-24.45,-1.24,-3.45,38.85,-4.57,0.12,58.01,2.99,0.30,2.97
6,-6,-391,-68,-292,3915,0.42,-0.33,-24.39,-0.68,-2.92,39.15,-4.56,0.12,58.11,2.85,0.05,2.77
-3,-7,-393,-72,-335,3866,0.36,-0.34,-24.35,-0.72,-3.35,38.66,-4.57,0.13,58.21,3.03,0.07,2.77
7,-9,-392,-65,-210,3894,0.37,-0.36,-24.31,-0.65,-2.10,38.94,-4.55,0.13,58.30,2.84,0.11,2.74
5,-4,-387,-108,-265,3874,0.36,-0.35,-24.24,-1.08,-2.65,38.74,-4.54,0.14,58.40,2.88,0.02,2.68
2,-2,-388,-72,-317,3854,0.34,-0.32,-24.18,-0.72,-3.17,38.54,-4.54,0.15,58.50,2.94,-0.03,2.67
5,-5,-387,-9,-277,3921,0.33,-0.32,-24.12,-0.09,-2.77,39.21,-4.53,0.14,58.59,2.87,0.03,2.64
6,4,-396,-34,-260,3856,0.34,-0.27,-24.13,-0.34,-2.60,38.56,-4.51,0.14,58.69,2.84,-0.15,2.71
12,5,-406,42,-261,3904,0.38,-0.21,-24.19,0.42,-2.61,39.04,-4.49,0.12,58.78,2.72,-0.17,2.80
0,-3,-359,107,-309,3891,0.34,-0.21,-23.96,1.07,-3.09,38.91,-4.49,0.09,58.88,2.93,-0.01,2.35
6,-3,-346,89,-263,3921,0.34,-0.20,-23.68,0.89,-2.63,39.21,-4.48,0.07,58.97,2.83,0.00,2.18
-2,0,-311,19,-315,3896,0.29,-0.18,-23.21,0.19,-3.15,38.96,-4.49,0.04,59.07,2.98,-0.04,1.78
7,-3,-295,61,-330,3922,0.31,-0.18,-22.68,0.61,-3.30,39.22,-4.50,0.02,59.16,2.83,0.03,1.54
1,-7,-221,67,-351,3899,0.28,-0.21,-21.76,0.67,-3.51,38.99,-4.50,-0.01,59.24,2.94,0.12,0.73
-2,-6,-204,105,-343,3906,0.24,-0.22,-20.83,1.05,-3.43,39.06,-4.51,-0.03,59.33,3.01,0.12,0.40
-1,-12,-164,-11,-224,3916,0.21,-0.27,-19.75,-0.11,-2.24,39.16,-4.49,-0.04,59.40,2.99,0.24,-0.15
-6,-9,-165,-21,-225,3885,0.15,-0.30,-18.78,-0.21,-2.25,38.85,-4.47,-0.04,59.48,3.08,0.20,-0.34
3,-4,-178,-71,-248,3938,0.16,-0.30,-17.99,-0.71,-2.48,39.38,-4.46,-0.03,59.55,2.92,0.11,-0.39
3,-4,-183,-74,-216,3888,0.16,-0.29,-17.31,-0.74,-2.16,38.88,-4.45,-0.03,59.62,2.91,0.11,-0.48
4,1,-197,-32,-256,3914,0.17,-0.26,-16.78,-0.32,-2.56,39.14,-4.43,-0.02,59.69,2.88,0.01,-0.47
2,-3,-181,63,-284,3911,0.16,-0.25,-16.20,0.63,-2.84,39.11,-4.42,-0.04,59.75,2.91,0.09,-0.72
6,-7,-157,-35,-243,3885,0.18,-0.27,-15.54,-0.35,-2.43,38.85,-4.41,-0.04,59.81,2.83,0.16,-1.05
6,0,-174,-49,-187,3878,0.20,-0.24,-15.05,-0.49,-1.87,38.78,-4.39,-0.04,59.87,2.81,0.03,-1.01
15,-4,-286,-143,-60,3850,0.27,-0.24,-15.29,-1.43,-0.60,38.50,-4.37,-0.03,59.93,2.62,0.10,-0.02
13,-8,-330,-238,-78,3856,0.33,-0.26,-15.77,-2.38,-0.78,38.56,-4.36,-0.03,60.00,2.63,0.17,0.44
15,-5,-443,-62,-259,3942,0.38,-0.27,-16.90,-0.62,-2.59,39.42,-4.35,-0.02,60.06,2.57,0.11,1.60
14,12,-448,-38,-372,3916,0.43,-0.17,-17.94,-0.38,-3.72,39.16,-4.36,-0.01,60.14,2.58,-0.21,1.84
29,12,-327,119,-551,3932,0.57,-0.08,-18.14,1.19,-5.51,39.32,-4.38,-0.03,60.21,2.29,-0.23,0.85
39,22,-221,259,-645,3909,0.75,0.06,-17.67,2.59,-6.45,39.09,-4.39,-0.04,60.28,2.07,-0.44,-0.15
8,-1,-40,154,-349,3882,0.72,0.05,-16.15,1.54,-3.49,38.82,-4.39,-0.07,60.34,2.61,-0.03,-1.98
9,-6,-31,49,-325,3880,0.70,0.01,-14.73,0.49,-3.25,38.80,-4.40,-0.09,60.40,2.60,0.08,-2.33
6,0,-28,-8,-253,3862,0.67,0.01,-13.42,-0.08,-2.53,38.62,-4.38,-0.09,60.46,2.65,-0.02,-2.61
5,-3,-37,-35,-212,3927,0.63,-0.01,-12.31,-0.35,-2.12,39.27,-4.36,-0.08,60.50,2.66,0.04,-2.75
7,-1,-112,-112,-253,3936,0.61,-0.02,-11.76,-1.12,-2.53,39.36,-4.35,-0.07,60.55,2.63,-0.01,-2.23
7,5,-122,-66,-247,3941,0.59,0.02,-11.33,-0.66,-2.47,39.41,-4.34,-0.06,60.60,2.63,-0.13,-2.23
4,-6,-156,7,-229,3915,0.56,-0.02,-11.15,0.07,-2.29,39.15,-4.32,-0.06,60.64,2.68,0.08,-1.98
-5,-5,-158,-11,-255,3876,0.47,-0.05,-11.00,-0.11,-2.55,38.76,-4.30,-0.06,60.69,2.85,0.07,-1.99
2,8,-98,8,-469,3904,0.44,0.00,-10.49,0.08,-4.69,39.04,-4.31,-0.06,60.73,2.75,-0.17,-2.60
-9,3,-32,-12,-447,3906,0.34,0.02,-9.64,-0.12,-4.47,39.06,-4.33,-0.06,60.77,2.98,-0.09,-3.33
-2,-1,2,-48,-306,3901,0.29,0.01,-8.66,-0.48,-3.06,39.01,-4.33,-0.05,60.80,2.88,-0.03,-3.81
1,-1,2,-20,-269,3878,0.27,0.01,-7.79,-0.20,-2.69,38.78,-4.32,-0.04,60.83,2.82,-0.03,-3.98
7,-3,-10,-21,-279,3890,0.29,-0.01,-7.07,-0.21,-2.79,38.90,-4.31,-0.02,60.86,2.71,-0.00,-4.02
5,-1,-10,-45,-287,3899,0.29,-0.02,-6.42,-0.45,-2.87,38.99,-4.30,-0.01,60.88,2.74,-0.05,-4.14
-3,2,-13,-71,-287,3905,0.24,-0.00,-5.86,-0.71,-2.87,39.05,-4.30,0.01,60.91,2.89,-0.11,-4.23
-1,3,-19,-40,-266,3907,0.21,0.01,-5.39,-0.40,-2.66,39.07,-4.29,0.02,60.93,2.86,-0.14,-4.27
3,2,-20,-54,-302,3889,0.21,0.03,-4.97,-0.54,-3.02,38.89,-4.29,0.04,60.95,2.79,-0.14,-4.34
0,2,-17,-54,-310,3899,0.19,0.04,-4.58,-0.54,-3.10,38.99,-4.30,0.06,60.97,2.85,-0.15,-4.45
-1,-2,-12,-51,-328,3899,0.16,0.02,-4.19,-0.51,-3.28,38.99,-4.31,0.07,60.98,2.89,-0.09,-4.56
0,-4,-14,-59,-329,3898,0.15,-0.01,-3.86,-0.59,-3.29,38.98,-4.32,0.08,61.00,2.88,-0.06,-4.61
-4,-4,-6,-65,-355,3899,0.11,-0.03,-3.51,-0.65,-3.55,38.99,-4.33,0.09,61.01,2.97,-0.06,-4.75
-3,-1,8,-52,-393,3898,0.08,-0.03,-3.11,-0.52,-3.93,38.98,-4.35,0.10,61.03,2.97,-0.11,-4.95
-61,5,42,-54,-389,3859,-0.30,0.00,-2.54,-0.54,-3.89,38.59,-4.36,0.11,61.04,4.09,-0.23,-5.34
-41,3,53,4,-327,3965,-0.52,0.02,-1.97,0.04,-3.27,39.65,-4.38,0.10,61.04,3.84,-0.20,-5.55
-7,2,60,29,-194,3910,-0.51,0.03,-1.40,0.29,-1.94,39.10,-4.37,0.09,61.05,3.25,-0.18,-5.72
-10,1,50,36,-156,3887,-0.52,0.03,-0.96,0.36,-1.56,38.87,-4.35,0.09,61.05,3.29,-0.16,-5.72
2,3,17,-6,-206,3923,-0.46,0.05,-0.76,-0.06,-2.06,39.23,-4.33,0.09,61.06,3.06,-0.20,-5.48
5,3,10,-25,-261,3921,-0.38,0.06,-0.62,-0.25,-2.61,39.21,-4.32,0.10,61.06,2.97,-0.21,-5.44
-1,6,14,-20,-312,3918,-0.35,0.09,-0.47,-0.20,-3.12,39.18,-4.34,0.11,61.06,3.07,-0.28,-5.51
2,5,37,47,-382,3939,-0.30,0.11,-0.20,0.47,-3.82,39.39,-4.35,0.10,61.06,3.02,-0.26,-5.76
-2,10,207,59,-363,3878,-0.28,0.16,1.08,0.59,-3.63,38.78,-4.37,0.09,61.06,3.09,-0.35,-7.44
-2,7,241,73,-401,3929,-0.27,0.19,2.44,0.73,-4.01,39.29,-4.38,0.08,61.05,3.09,-0.30,-7.99
-2,8,294,-10,-347,3873,-0.25,0.22,3.99,-0.10,-3.47,38.73,-4.40,0.08,61.03,3.10,-0.33,-8.73
-8,-3,287,-59,-232,3957,-0.28,0.18,5.34,-0.59,-2.32,39.57,-4.39,0.10,61.01,3.20,-0.14,-8.93
-3,5,224,-97,-216,3870,-0.27,0.19,6.18,-0.97,-2.16,38.70,-4.38,0.11,60.99,3.11,-0.29,-8.56
6,5,208,-81,-218,3933,-0.20,0.20,6.83,-0.81,-2.18,39.33,-4.36,0.13,60.96,2.93,-0.31,-8.54
-9,-12,199,-89,-195,3851,-0.24,0.11,7.36,-0.89,-1.95,38.51,-4.35,0.14,60.93,3.18,0.00,-8.57
-3,-16,220,-93,-135,3943,-0.23,0.00,7.96,-0.93,-1.35,39.43,-4.33,0.15,60.90,3.07,0.10,-8.86
-2,-4,266,-44,-222,3897,-0.22,-0.02,8.79,-0.44,-2.22,38.97,-4.32,0.16,60.86,3.04,-0.10,-9.41
-1,3,293,-71,-215,3891,-0.21,-0.00,9.70,-0.71,-2.15,38.91,-4.30,0.18,60.82,3.01,-0.24,-9.81
-5,-3,321,-45,-318,3873,-0.22,-0.02,10.69,-0.45,-3.18,38.73,-4.32,0.19,60.78,3.08,-0.14,-10.23
-10,-3,332,-42,-322,3884,-0.26,-0.04,11.64,-0.42,-3.22,38.84,-4.33,0.21,60.74,3.19,-0.15,-10.50
-13,-10,373,-28,-324,3899,-0.31,-0.09,12.75,-0.28,-3.24,38.99,-4.35,0.22,60.68,3.27,-0.02,-11.06
-9,-10,382,-19,-361,3949,-0.33,-0.15,13.81,-0.19,-3.61,39.49,-4.37,0.23,60.63,3.22,-0.00,-11.33
-11,-1,386,-81,-463,3891,-0.37,-0.14,14.78,-0.81,-4.63,38.91,-4.39,0.24,60.57,3.28,-0.17,-11.55
-8,1,401,-20,-452,3880,-0.38,-0.12,15.75,-0.20,-4.52,38.80,-4.41,0.24,60.51,3.25,-0.21,-11.86
-14,2,438,32,-431,3879,-0.43,-0.09,16.85,0.32,-4.31,38.79,-4.42,0.24,60.44,3.38,-0.23,-12.37
-11,4,438,-28,-403,3922,-0.45,-0.06,17.83,-0.28,-4.03,39.22,-4.44,0.25,60.37,3.35,-0.28,-12.56
-4,-9,389,-85,-286,3857,-0.43,-0.11,18.42,-0.85,-2.86,38.57,-4.44,0.27,60.30,3.22,-0.06,-12.25
-8,-10,343,-49,-285,3874,-0.44,-0.16,18.67,-0.49,-2.85,38.74,-4.43,0.29,60.22,3.29,-0.04,-11.90
-3,-5,301,15,-262,3860,-0.41,-0.17,18.64,0.15,-2.62,38.60,-4.42,0.28,60.15,3.18,-0.12,-11.54
4,-4,317,-36,-264,3870,-0.35,-0.18,18.71,-0.36,-2.64,38.70,-4.41,0.30,60.07,3.03,-0.14,-11.68
-5,-3,336,-46,-346,3926,-0.34,-0.18,18.89,-0.46,-3.46,39.26,-4.42,0.31,60.00,3.20,-0.17,-11.87
-1,7,340,-81,-271,3899,-0.31,-0.12,19.08,-0.81,-2.71,38.99,-4.42,0.33,59.92,3.11,-0.37,-11.93
-4,-15,455,-46,-295,3922,-0.31,-0.20,19.94,-0.46,-2.95,39.22,-4.41,0.36,59.84,3.16,0.01,-13.07
-26,-14,466,48,-360,3930,-0.43,-0.27,20.79,0.48,-3.60,39.30,-4.42,0.35,59.76,3.58,0.02,-13.32
-4,0,387,-78,-393,3905,-0.42,-0.24,21.07,-0.78,-3.93,39.05,-4.44,0.36,59.67,3.21,-0.23,-12.70
0,-1,388,-62,-297,3869,-0.37,-0.22,21.33,-0.62,-2.97,38.69,-4.44,0.39,59.59,3.13,-0.24,-12.75
-20,-6,496,105,-386,3913,-0.46,-0.24,22.22,1.05,-3.86,39.13,-4.45,0.38,59.50,3.51,-0.14,-13.83
-12,3,500,55,-441,3940,-0.49,-0.19,23.05,0.55,-4.41,39.40,-4.47,0.37,59.41,3.39,-0.31,-14.01
-7,-5,484,26,-265,3886,-0.48,-0.20,23.70,0.26,-2.65,38.86,-4.46,0.36,59.31,3.30,-0.16,-13.99
-7,-3,479,-50,-291,3918,-0.47,-0.20,24.25,-0.50,-2.91,39.18,-4.45,0.39,59.22,3.29,-0.21,-14.05
-9,-11,495,21,-362,3914,-0.48,-0.25,24.85,0.21,-3.62,39.14,-4.47,0.38,59.12,3.34,-0.06,-14.29
-31,-10,504,14,-266,3840,-0.62,-0.29,25.44,0.14,-2.66,38.40,-4.46,0.38,59.02,3.75,-0.06,-14.47
-32,-20,577,7,-313,3844,-0.76,-0.38,26.41,0.07,-3.13,38.44,-4.46,0.37,58.91,3.82,0.15,-15.27
-45,-27,613,-25,-305,3890,-0.95,-0.51,27.51,-0.25,-3.05,38.90,-4.49,0.37,58.80,4.12,0.30,-15.78
-80,-60,699,-30,-302,3964,-1.35,-0.82,29.02,-0.30,-3.02,39.64,-4.47,0.39,58.69,4.83,0.96,-16.79
-69,-49,719,-20,-287,3901,-1.63,-1.04,30.51,-0.20,-2.87,39.01,-4.46,0.39,58.56,4.73,0.84,-17.23
-104,-80,777,20,-339,3853,-2.10,-1.42,32.20,0.20,-3.39,38.53,-4.48,0.38,58.43,5.49,1.50,-18.04
-120,-86,785,17,-303,3968,-2.63,-1.80,33.76,0.17,-3.03,39.68,-4.49,0.36,58.30,5.94,1.74,-18.39
-115,-89,781,5,-333,3857,-3.06,-2.17,35.15,0.05,-3.33,38.57,-4.51,0.35,58.16,6.01,1.91,-18.62
-125,-97,770,17,-329,3927,-3.52,-2.54,36.33,0.17,-3.29,39.27,-4.53,0.34,58.01,6.35,2.18,-18.74
-46,-26,764,62,-419,3925,-3.45,-2.45,37.36,0.62,-4.19,39.25,-4.56,0.33,57.86,5.00,0.95,-18.87
-39,-25,762,9,-354,3899,-3.34,-2.35,38.27,0.09,-3.54,38.99,-4.59,0.32,57.71,4.87,0.91,-19.02
-17,3,776,36,-505,3931,-3.11,-2.10,39.18,0.36,-5.05,39.31,-4.62,0.32,57.55,4.44,0.36,-19.30
-15,0,777,83,-448,3888,-2.89,-1.89,40.00,0.83,-4.48,38.88,-4.64,0.31,57.39,4.35,0.34,-19.45
-11,17,796,-7,-360,3859,-2.67,-1.60,40.86,-0.07,-3.60,38.59,-4.67,0.31,57.23,4.22,-0.04,-19.76
-1,6,819,7,-341,3855,-2.41,-1.40,41.77,0.07,-3.41,38.55,-4.69,0.31,57.06,3.98,0.08,-20.12
-4,23,816,-58,-323,3923,-2.19,-1.12,42.57,-0.58,-3.23,39.23,-4.70,0.34,56.89,3.97,-0.32,-20.23
2,21,816,-108,-235,3979,-1.96,-0.88,43.29,-1.08,-2.35,39.79,-4.69,0.36,56.72,3.79,-0.38,-20.36
-9,17,806,-117,-378,3909,-1.82,-0.69,43.88,-1.17,-3.78,39.09,-4.71,0.39,56.54,3.94,-0.39,-20.37
-32,23,775,-163,-290,3867,-1.83,-0.48,44.22,-1.63,-2.90,38.67,-4.71,0.42,56.37,4.33,-0.58,-20.15
-2,8,655,-106,-290,3855,-1.66,-0.38,43.79,-1.06,-2.90,38.55,-4.71,0.45,56.19,3.77,-0.38,-19.04
-14,14,651,-35,-289,3882,-1.58,-0.26,43.38,-0.35,-2.89,38.82,-4.70,0.46,56.02,3.94,-0.53,-18.91
-18,11,628,-22,-400,3854,-1.53,-0.17,42.87,-0.22,-4.00,38.54,-4.72,0.47,55.85,4.00,-0.52,-18.61
6,20,619,-49,-396,3961,-1.34,-0.03,42.36,-0.49,-3.96,39.61,-4.74,0.49,55.68,3.55,-0.73,-18.42
-15,8,567,5,-397,3914,-1.30,0.02,41.59,0.05,-3.97,39.14,-4.76,0.50,55.51,3.90,-0.54,-17.81
-2,12,568,12,-380,3897,-1.18,0.09,40.89,0.12,-3.80,38.97,-4.78,0.50,55.35,3.66,-0.64,-17.67
-5,9,610,-4,-359,3823,-1.09,0.14,40.52,-0.04,-3.59,38.23,-4.80,0.50,55.19,3.69,-0.60,-17.94
-7,12,646,-49,-382,3852,-1.03,0.20,40.41,-0.49,-3.82,38.52,-4.82,0.52,55.03,3.71,-0.69,-18.21
-26,1,591,-218,-265,3772,-1.08,0.19,39.98,-2.18,-2.65,37.72,-4.81,0.55,54.87,4.05,-0.52,-17.65
18,13,552,-195,-171,4085,-0.87,0.25,39.35,-1.95,-1.71,40.85,-4.80,0.58,54.71,3.23,-0.76,-17.19
-9,9,424,-48,-348,3940,-0.83,0.28,38.00,-0.48,-3.48,39.40,-4.82,0.60,54.56,3.69,-0.71,-15.83
2,11,383,-47,-373,3901,-0.74,0.32,36.53,-0.47,-3.73,39.01,-4.84,0.62,54.42,3.48,-0.77,-15.19
-12,1,337,-60,-332,3891,-0.74,0.29,34.94,-0.60,-3.32,38.91,-4.84,0.65,54.28,3.72,-0.61,-14.48
-8,7,343,-5,-333,3882,-0.71,0.30,33.53,-0.05,-3.33,38.82,-4.85,0.64,54.14,3.65,-0.72,-14.25
-6,10,420,122,-451,3894,-0.68,0.33,32.74,1.22,-4.51,38.94,-4.86,0.64,54.01,3.61,-0.78,-14.74
-4,15,433,123,-439,3925,-0.63,0.39,32.11,1.23,-4.39,39.25,-4.87,0.64,53.89,3.57,-0.88,-14.72
-8,3,469,66,-333,3946,-0.62,0.37,31.76,0.66,-3.33,39.46,-4.87,0.63,53.76,3.63,-0.66,-14.95
-6,12,486,86,-398,3865,-0.59,0.41,31.55,0.86,-3.98,38.65,-4.88,0.63,53.63,3.60,-0.82,-15.04
-1,18,442,25,-405,3850,-0.54,0.48,31.09,0.25,-4.05,38.50,-4.89,0.63,53.51,3.51,-0.95,-14.57
-6,23,406,-49,-410,3904,-0.52,0.57,30.46,-0.49,-4.10,39.04,-4.91,0.64,53.39,3.60,-1.07,-14.13
8,23,297,-77,-359,3918,-0.42,0.65,29.22,-0.77,-3.59,39.18,-4.92,0.67,53.27,3.33,-1.12,-12.96
15,26,274,-23,-354,3887,-0.29,0.75,27.97,-0.23,-3.54,38.87,-4.94,0.67,53.16,3.18,-1.20,-12.52
15,31,175,-85,-306,3904,-0.17,0.86,26.24,-0.85,-3.06,39.04,-4.92,0.70,53.06,3.13,-1.34,-11.34
29,34,151,-87,-272,3942,0.03,0.98,24.54,-0.87,-2.72,39.42,-4.91,0.72,52.96,2.82,-1.45,-10.80
11,36,121,-70,-333,3870,0.09,1.10,22.82,-0.70,-3.33,38.70,-4.91,0.75,52.87,3.10,-1.54,-10.21
24,28,106,-114,-337,3972,0.23,1.16,21.19,-1.14,-3.37,39.72,-4.90,0.78,52.79,2.83,-1.44,-9.76
11,14,90,-53,-247,3902,0.27,1.13,19.62,-0.53,-2.47,39.02,-4.88,0.79,52.71,3.03,-1.20,-9.32
10,6,108,-75,-195,3979,0.31,1.06,18.32,-0.75,-1.95,39.79,-4.86,0.80,52.63,3.02,-1.05,-9.22
-2,-1,104,-79,-99,3893,0.26,0.94,17.12,-0.79,-0.99,38.93,-4.84,0.81,52.57,3.22,-0.90,-8.95
0,-6,94,-81,-143,3939,0.24,0.81,15.98,-0.81,-1.43,39.39,-4.82,0.82,52.50,3.18,-0.78,-8.64
-6,-9,49,-48,-259,3924,0.18,0.68,14.68,-0.48,-2.59,39.24,-4.80,0.83,52.44,3.29,-0.69,-8.01
-8,-6,43,-41,-306,3905,0.11,0.57,13.47,-0.41,-3.06,39.05,-4.79,0.83,52.39,3.34,-0.71,-7.72
-11,-6,111,-55,-332,3890,0.03,0.48,12.80,-0.55,-3.32,38.90,-4.80,0.83,52.34,3.43,-0.68,-8.16
-6,-4,153,-66,-355,3905,-0.01,0.41,12.46,-0.66,-3.55,39.05,-4.82,0.84,52.29,3.37,-0.69,-8.45
-7,-2,352,21,-434,3886,-0.05,0.35,13.36,0.21,-4.34,38.86,-4.83,0.84,52.24,3.41,-0.71,-10.30
-4,-7,441,64,-415,3879,-0.07,0.28,14.71,0.64,-4.15,38.79,-4.84,0.83,52.18,3.37,-0.59,-11.31
-5,8,654,90,-493,3979,-0.09,0.30,17.23,0.90,-4.93,39.79,-4.86,0.82,52.11,3.40,-0.85,-13.59
-25,7,681,-162,-275,3873,-0.24,0.31,19.66,-1.62,-2.75,38.73,-4.85,0.84,52.03,3.78,-0.85,-14.28
-19,15,678,-255,-313,3983,-0.33,0.37,21.83,-2.55,-3.13,39.83,-4.85,0.87,51.95,3.71,-1.03,-14.66
-9,24,582,-496,-279,3951,-0.35,0.48,23.20,-4.96,-2.79,39.51,-4.84,0.90,51.85,3.54,-1.23,-14.10
-2,-3,297,-3,-226,3896,-0.33,0.41,22.69,-0.03,-2.26,38.96,-4.83,0.90,51.76,3.41,-0.75,-11.58
-8,-6,302,62,-173,3868,-0.34,0.34,22.26,0.62,-1.73,38.68,-4.81,0.90,51.67,3.51,-0.68,-11.53
-14,1,546,338,-319,3887,-0.39,0.31,23.37,3.38,-3.19,38.87,-4.81,0.89,51.58,3.62,-0.78,-13.80
-13,4,623,289,-313,3873,-0.43,0.30,24.83,2.89,-3.13,38.73,-4.81,0.88,51.48,3.62,-0.82,-14.72
-7,10,811,34,-280,3841,-0.43,0.33,27.30,0.34,-2.80,38.41,-4.80,0.87,51.37,3.51,-0.93,-16.78
-24,17,822,-100,-395,3843,-0.54,0.40,29.58,-1.00,-3.95,38.43,-4.82,0.89,51.26,3.84,-1.09,-17.30
-9,9,796,-29,-348,3908,-0.54,0.42,31.48,-0.29,-3.48,39.08,-4.83,0.89,51.13,3.60,-0.95,-17.43
-14,1,761,-69,-283,3965,-0.57,0.38,32.97,-0.69,-2.83,39.65,-4.81,0.91,51.00,3.68,-0.82,-17.40
-12,15,759,-17,-473,4015,-0.59,0.44,34.30,-0.17,-4.73,40.15,-4.83,0.91,50.86,3.66,-1.07,-17.63
2,34,730,-76,-392,3890,-0.52,0.60,35.33,-0.76,-3.92,38.90,-4.85,0.93,50.72,3.41,-1.46,-17.57
12,34,732,248,-456,3769,-0.39,0.75,36.26,2.48,-4.56,37.69,-4.85,0.93,50.58,3.21,-1.51,-17.75
6,27,770,246,-494,3840,-0.31,0.84,37.33,2.46,-4.94,38.40,-4.86,0.93,50.43,3.29,-1.42,-18.26
-11,20,977,376,-447,3902,-0.35,0.87,39.56,3.76,-4.47,39.02,-4.87,0.93,50.27,3.59,-1.31,-20.43
-33,1,1015,142,-325,3770,-0.52,0.79,41.79,1.42,-3.25,37.70,-4.86,0.93,50.11,4.02,-0.97,-21.16
1,15,1073,151,-458,3953,-0.46,0.81,44.16,1.51,-4.58,39.53,-4.87,0.93,49.93,3.43,-1.21,-22.09
-20,9,1073,178,-331,3843,-0.53,0.78,46.29,1.78,-3.31,38.43,-4.87,0.93,49.75,3.81,-1.10,-22.48
7,27,985,-39,-354,3930,-0.44,0.87,47.67,-0.39,-3.54,39.30,-4.88,0.94,49.56,3.33,-1.44,-21.98
4,18,911,-53,-392,3841,-0.37,0.89,48.46,-0.53,-3.92,38.41,-4.90,0.95,49.36,3.37,-1.30,-21.49
-5,9,804,-125,-359,3940,-0.36,0.86,48.52,-1.25,-3.59,39.40,-4.90,0.99,49.17,3.52,-1.16,-20.57
-23,3,755,-208,-329,3747,-0.47,0.79,48.27,-2.08,-3.29,37.47,-4.90,1.03,48.98,3.86,-1.06,-20.09
9,8,501,-146,-374,3820,-0.37,0.76,46.50,-1.46,-3.74,38.20,-4.91,1.06,48.79,3.29,-1.16,-17.59
-5,16,468,-163,-321,3854,-0.36,0.78,44.70,-1.63,-3.21,38.54,-4.91,1.10,48.62,3.52,-1.33,-16.95
7,20,349,-142,-515,3892,-0.28,0.82,42.36,-1.42,-5.15,38.92,-4.92,1.12,48.45,3.30,-1.43,-15.48
11,20,330,-115,-495,3916,-0.19,0.86,40.14,-1.15,-4.95,39.16,-4.94,1.14,48.29,3.21,-1.45,-14.88
-2,19,333,23,-461,3928,-0.18,0.89,38.16,0.23,-4.61,39.28,-4.95,1.15,48.14,3.44,-1.45,-14.51
6,28,335,37,-473,3886,-0.13,0.97,36.38,0.37,-4.73,38.86,-4.96,1.15,47.99,3.29,-1.63,-14.18
5,26,377,-72,-471,3983,-0.08,1.04,35.05,-0.72,-4.71,39.83,-4.98,1.17,47.85,3.31,-1.63,-14.26
-3,20,358,-57,-573,3906,-0.09,1.05,33.73,-0.57,-5.73,39.06,-4.99,1.18,47.72,3.46,-1.54,-13.84
-12,3,348,-107,-353,3943,-0.16,0.97,32.48,-1.07,-3.53,39.43,-4.99,1.22,47.59,3.63,-1.25,-13.50
-10,4,340,-149,-375,3942,-0.20,0.89,31.30,-1.49,-3.75,39.42,-5.00,1.25,47.47,3.62,-1.26,-13.20
-9,-2,332,-155,-190,3862,-0.24,0.79,30.20,-1.55,-1.90,38.62,-4.98,1.27,47.35,3.60,-1.14,-12.91
-12,2,341,-164,-190,3887,-0.29,0.73,29.26,-1.64,-1.90,38.87,-4.96,1.29,47.23,3.65,-1.20,-12.80
-6,4,325,-119,-127,3902,-0.29,0.68,28.31,-1.19,-1.27,39.02,-4.95,1.30,47.12,3.54,-1.23,-12.47
-5,1,314,-143,-159,3917,-0.30,0.62,27.40,-1.43,-1.59,39.17,-4.93,1.32,47.01,3.51,-1.17,-12.19
-9,-2,241,-136,-189,3930,-0.32,0.54,26.13,-1.36,-1.89,39.30,-4.91,1.34,46.90,3.58,-1.11,-11.32
2,2,210,-171,-223,3907,-0.28,0.50,24.80,-1.71,-2.23,39.07,-4.89,1.36,46.80,3.37,-1.17,-10.80
-2,-1,170,-132,-277,3908,-0.26,0.44,23.35,-1.32,-2.77,39.08,-4.88,1.38,46.71,3.42,-1.12,-10.17
1,0,170,-86,-285,3929,-0.23,0.40,22.06,-0.86,-2.85,39.29,-4.86,1.39,46.62,3.34,-1.12,-9.92
-2,2,248,-27,-342,3913,-0.22,0.37,21.36,-0.27,-3.42,39.13,-4.86,1.38,46.54,3.39,-1.14,-10.44
0,8,281,-43,-329,3873,-0.20,0.38,20.94,-0.43,-3.29,38.73,-4.86,1.37,46.45,3.35,-1.24,-10.63
-4,7,376,-50,-313,3906,-0.20,0.39,21.14,-0.50,-3.13,39.06,-4.85,1.36,46.37,3.41,-1.22,-11.46
-3,9,397,-30,-327,3904,-0.20,0.40,21.45,-0.30,-3.27,39.04,-4.85,1.35,46.28,3.39,-1.25,-11.69
-5,9,473,14,-300,3923,-0.21,0.42,22.19,0.14,-3.00,39.23,-4.84,1.34,46.20,3.43,-1.25,-12.47
0,20,482,-39,-330,3889,-0.19,0.50,22.91,-0.39,-3.30,38.89,-4.84,1.33,46.10,3.33,-1.46,-12.68
-2,11,440,-108,-314,3865,-0.18,0.52,23.30,-1.08,-3.14,38.65,-4.83,1.36,46.01,3.36,-1.33,-12.39
-4,8,433,-72,-306,3901,-0.19,0.51,23.61,-0.72,-3.06,39.01,-4.81,1.35,45.92,3.38,-1.28,-12.38
-2,3,417,-65,-291,3877,-0.18,0.48,23.80,-0.65,-2.91,38.77,-4.79,1.35,45.82,3.34,-1.18,-12.27
2,5,413,-37,-308,3910,-0.15,0.46,23.94,-0.37,-3.08,39.10,-4.79,1.35,45.73,3.25,-1.20,-12.25
-3,-4,370,70,-347,3914,-0.15,0.39,23.80,0.70,-3.47,39.14,-4.79,1.34,45.63,3.34,-1.02,-11.85
-2,6,352,0,-401,3918,-0.15,0.39,23.57,0.00,-4.01,39.18,-4.80,1.33,45.54,3.33,-1.19,-11.65
-3,1,271,24,-394,3880,-0.15,0.36,22.86,0.24,-3.94,38.80,-4.80,1.33,45.45,3.35,-1.09,-10.82
-3,0,256,8,-373,3905,-0.16,0.32,22.14,0.08,-3.73,39.05,-4.81,1.32,45.36,3.36,-1.05,-10.55
-1,-11,152,-11,-349,3882,-0.15,0.22,20.85,-0.11,-3.49,38.82,-4.81,1.31,45.28,3.32,-0.83,-9.41
-4,-8,130,1,-351,3888,-0.16,0.15,19.56,0.01,-3.51,38.88,-4.82,1.30,45.20,3.38,-0.85,-8.97
-4,7,180,-54,-323,3861,-0.17,0.18,18.70,-0.54,-3.23,38.61,-4.82,1.29,45.12,3.38,-1.10,-9.23
1,9,227,-58,-285,3882,-0.14,0.22,18.22,-0.58,-2.85,38.82,-4.80,1.28,45.05,3.28,-1.15,-9.52
2,19,389,-74,-317,3902,-0.12,0.31,18.77,-0.74,-3.17,39.02,-4.79,1.28,44.98,3.24,-1.34,-11.00
-6,14,417,-60,-322,3899,-0.14,0.36,19.43,-0.60,-3.22,38.99,-4.78,1.27,44.90,3.39,-1.27,-11.35
-5,6,426,-34,-304,3975,-0.16,0.36,20.09,-0.34,-3.04,39.75,-4.77,1.26,44.82,3.37,-1.13,-11.55
-2,5,416,-49,-299,3898,-0.15,0.36,20.62,-0.49,-2.99,38.98,-4.76,1.25,44.74,3.31,-1.11,-11.56
-9,-1,415,45,-350,3909,-0.19,0.32,21.09,0.45,-3.50,39.09,-4.76,1.24,44.65,3.44,-0.99,-11.63
-6,1,419,48,-314,3899,-0.21,0.29,21.53,0.48,-3.14,38.99,-4.76,1.23,44.57,3.39,-1.00,-11.74
1,7,440,-4,-367,3877,-0.18,0.30,22.07,-0.04,-3.67,38.77,-4.77,1.22,44.48,3.27,-1.11,-12.01
-6,5,451,15,-321,3890,-0.20,0.30,22.61,0.15,-3.21,38.90,-4.77,1.21,44.39,3.39,-1.07,-12.20
-3,5,455,11,-366,3898,-0.20,0.30,23.12,0.11,-3.66,38.98,-4.77,1.21,44.30,3.35,-1.06,-12.33
-5,5,455,21,-377,3924,-0.21,0.30,23.59,0.21,-3.77,39.24,-4.78,1.20,44.20,3.39,-1.06,-12.41
-4,7,429,-22,-334,3923,-0.21,0.32,23.85,-0.22,-3.34,39.23,-4.78,1.19,44.11,3.37,-1.09,-12.23
-4,10,434,-11,-314,3930,-0.22,0.35,24.11,-0.11,-3.14,39.30,-4.78,1.18,44.01,3.37,-1.14,-12.31
-9,11,481,-18,-326,3894,-0.25,0.38,24.63,-0.18,-3.26,38.94,-4.78,1.17,43.91,3.47,-1.16,-12.80
-5,10,496,5,-306,3894,-0.26,0.40,25.19,0.05,-3.06,38.94,-4.77,1.16,43.81,3.40,-1.15,-13.03
-8,10,574,17,-277,3912,-0.28,0.42,26.18,0.17,-2.77,39.12,-4.76,1.16,43.71,3.45,-1.15,-13.86
-10,8,602,-37,-317,3852,-0.31,0.43,27.23,-0.37,-3.17,38.52,-4.76,1.15,43.60,3.49,-1.12,-14.29
3,14,672,-32,-332,3918,-0.26,0.47,28.61,-0.32,-3.32,39.18,-4.76,1.14,43.49,3.26,-1.23,-15.14
-5,13,678,-18,-369,3903,-0.27,0.50,29.88,-0.18,-3.69,39.03,-4.77,1.14,43.37,3.40,-1.22,-15.42
-10,9,690,-67,-381,3890,-0.30,0.51,31.10,-0.67,-3.81,38.90,-4.79,1.15,43.25,3.51,-1.16,-15.75
-15,5,692,-53,-350,3894,-0.36,0.49,32.21,-0.53,-3.50,38.94,-4.80,1.15,43.12,3.62,-1.08,-15.96
-12,8,699,-73,-429,3864,-0.40,0.49,33.26,-0.73,-4.29,38.64,-4.81,1.16,42.98,3.59,-1.14,-16.21
-6,13,707,-52,-402,3925,-0.40,0.52,34.24,-0.52,-4.02,39.25,-4.83,1.17,42.85,3.50,-1.24,-16.46
-3,14,723,-15,-407,3887,-0.37,0.55,35.23,-0.15,-4.07,38.87,-4.84,1.17,42.71,3.45,-1.27,-16.77
-16,21,726,-15,-437,3870,-0.43,0.62,36.13,-0.15,-4.37,38.70,-4.86,1.18,42.57,3.70,-1.42,-16.95
-11,10,673,-94,-335,3911,-0.46,0.62,36.63,-0.94,-3.35,39.11,-4.86,1.21,42.42,3.62,-1.25,-16.58
-11,12,651,-103,-368,3897,-0.48,0.63,36.94,-1.03,-3.68,38.97,-4.87,1.23,42.27,3.64,-1.31,-16.44
-14,11,657,-69,-285,3881,-0.52,0.64,37.25,-0.69,-2.85,38.81,-4.86,1.24,42.12,3.69,-1.30,-16.54
2,21,671,-92,-288,3917,-0.45,0.70,37.62,-0.92,-2.88,39.17,-4.84,1.26,41.97,3.39,-1.50,-16.72
-11,13,749,-17,-339,3882,-0.48,0.71,38.42,-0.17,-3.39,38.82,-4.84,1.26,41.82,3.62,-1.36,-17.52
-6,25,762,21,-363,3912,-0.46,0.79,39.23,0.21,-3.63,39.12,-4.84,1.26,41.67,3.53,-1.59,-17.77
-6,21,777,-62,-394,3912,-0.45,0.84,40.05,-0.62,-3.94,39.12,-4.86,1.27,41.51,3.54,-1.55,-18.04
0,20,779,-128,-339,3918,-0.41,0.88,40.79,-1.28,-3.39,39.18,-4.86,1.30,41.34,3.42,-1.57,-18.18
-3,15,784,-50,-359,3924,-0.39,0.88,41.50,-0.50,-3.59,39.24,-4.86,1.31,41.18,3.47,-1.49,-18.34
-15,12,768,-14,-469,3925,-0.44,0.87,42.03,-0.14,-4.69,39.25,-4.88,1.31,41.01,3.70,-1.44,-18.30
-11,13,685,-70,-399,3965,-0.46,0.86,42.01,-0.70,-3.99,39.65,-4.89,1.33,40.85,3.65,-1.46,-17.57
-16,9,651,-80,-426,3903,-0.51,0.83,41.78,-0.80,-4.26,39.03,-4.91,1.34,40.68,3.76,-1.39,-17.23
-10,10,587,-72,-187,3918,-0.52,0.81,41.18,-0.72,-1.87,39.18,-4.89,1.36,40.52,3.65,-1.41,-16.55
-10,9,597,-36,-243,3863,-0.53,0.78,40.70,-0.36,-2.43,38.63,-4.87,1.36,40.35,3.64,-1.39,-16.53
-11,17,670,57,-314,3882,-0.55,0.81,40.72,0.57,-3.14,38.82,-4.87,1.36,40.19,3.66,-1.53,-17.14
-3,21,698,61,-345,3912,-0.51,0.85,40.91,0.61,-3.45,39.12,-4.87,1.36,40.03,3.51,-1.61,-17.40
-7,10,726,31,-339,3926,-0.50,0.83,41.24,0.31,-3.39,39.26,-4.87,1.36,39.86,3.58,-1.42,-17.69
-12,5,710,-4,-411,3891,-0.52,0.78,41.45,-0.04,-4.11,38.91,-4.88,1.36,39.70,3.68,-1.32,-17.57
-20,-1,636,-62,-412,3872,-0.59,0.69,41.19,-0.62,-4.12,38.72,-4.89,1.37,39.54,3.84,-1.20,-16.88
-8,2,597,-129,-386,3943,-0.58,0.64,40.71,-1.29,-3.86,39.43,-4.91,1.40,39.37,3.65,-1.25,-16.45
-4,-4,443,-271,-395,3848,-0.55,0.55,39.34,-2.71,-3.95,38.48,-4.91,1.43,39.22,3.57,-1.14,-14.87
0,-2,374,-309,-439,3915,-0.49,0.48,37.69,-3.09,-4.39,39.15,-4.92,1.47,39.07,3.49,-1.17,-13.95
2,2,122,-332,-254,3917,-0.43,0.45,34.66,-3.32,-2.54,39.17,-4.91,1.50,38.93,3.43,-1.25,-11.23
1,6,72,-281,-239,3904,-0.38,0.44,31.64,-2.81,-2.39,39.04,-4.90,1.52,38.80,3.42,-1.33,-10.21
2,10,19,-105,-329,3896,-0.33,0.45,28.59,-1.05,-3.29,38.96,-4.88,1.54,38.69,3.38,-1.41,-9.17
3,9,9,-71,-326,3902,-0.28,0.46,25.78,-0.71,-3.26,39.02,-4.87,1.53,38.59,3.34,-1.40,-8.54
-5,9,22,-65,-361,3902,-0.28,0.47,23.34,-0.65,-3.61,39.02,-4.88,1.53,38.49,3.48,-1.40,-8.18
-1,14,35,-79,-350,3887,-0.26,0.51,21.22,-0.79,-3.50,38.87,-4.89,1.52,38.41,3.41,-1.49,-7.87
0,12,184,122,-480,3876,-0.24,0.53,20.22,1.22,-4.80,38.76,-4.90,1.52,38.33,3.39,-1.46,-8.94
2,15,239,125,-442,3907,-0.20,0.57,19.66,1.25,-4.42,39.07,-4.91,1.51,38.25,3.35,-1.52,-9.29
-1,13,471,99,-542,3881,-0.19,0.59,20.56,0.99,-5.42,38.81,-4.92,1.50,38.17,3.41,-1.49,-11.42
-5,11,532,95,-551,3946,-0.20,0.60,21.75,0.95,-5.51,39.46,-4.93,1.50,38.08,3.48,-1.45,-12.16
-8,13,718,-23,-486,3932,-0.23,0.62,23.96,-0.23,-4.86,39.32,-4.95,1.50,37.99,3.55,-1.50,-14.15
-14,11,772,-38,-471,3864,-0.29,0.63,26.27,-0.38,-4.71,38.64,-4.96,1.51,37.88,3.69,-1.47,-15.04
-7,18,935,-62,-364,3890,-0.30,0.67,29.35,-0.62,-3.64,38.90,-4.97,1.50,37.77,3.58,-1.60,-16.99
-5,24,977,-150,-284,3941,-0.30,0.75,32.37,-1.50,-2.84,39.41,-4.95,1.53,37.64,3.53,-1.74,-17.92
5,16,1098,-36,-375,3872,-0.24,0.77,35.83,-0.36,-3.75,38.72,-4.96,1.53,37.50,3.35,-1.61,-19.59
2,25,1156,19,-392,3991,-0.21,0.85,39.30,0.19,-3.92,39.91,-4.96,1.53,37.34,3.39,-1.79,-20.73
-10,23,1249,98,-380,3910,-0.25,0.90,42.99,0.98,-3.80,39.10,-4.96,1.53,37.17,3.61,-1.78,-22.21
-18,22,1264,87,-400,3934,-0.33,0.95,46.40,0.87,-4.00,39.34,-4.96,1.53,36.99,3.77,-1.78,-22.97
-27,20,1280,32,-416,3972,-0.46,0.98,49.57,0.32,-4.16,39.72,-4.97,1.54,36.79,3.97,-1.75,-23.69
-13,18,1273,-1,-369,3867,-0.50,0.99,52.38,-0.01,-3.69,38.67,-4.97,1.54,36.58,3.74,-1.73,-24.15
-17,10,1227,-14,-310,3906,-0.55,0.95,54.62,-0.14,-3.10,39.06,-4.96,1.55,36.36,3.82,-1.58,-24.17
-16,5,1209,-74,-316,3943,-0.59,0.89,56.54,-0.74,-3.16,39.43,-4.95,1.56,36.14,3.81,-1.48,-24.37
-13,8,1172,-87,-322,3859,-0.61,0.85,58.03,-0.87,-3.22,38.59,-4.93,1.56,35.91,3.76,-1.53,-24.32
-13,18,1169,-59,-350,3898,-0.63,0.87,59.36,-0.59,-3.50,38.98,-4.93,1.57,35.67,3.76,-1.71,-24.52
0,10,1145,-146,-335,3889,-0.57,0.84,60.41,-1.46,-3.35,38.89,-4.93,1.61,35.43,3.52,-1.59,-24.50
-23,11,1127,-73,-370,3949,-0.65,0.83,61.24,-0.73,-3.70,39.49,-4.94,1.62,35.19,3.94,-1.61,-24.48
-14,21,1065,-129,-380,3903,-0.67,0.87,61.61,-1.29,-3.80,39.03,-4.95,1.65,34.94,3.80,-1.81,-24.01
-20,19,1076,-195,-346,3899,-0.73,0.90,62.02,-1.95,-3.46,38.99,-4.95,1.70,34.69,3.92,-1.82,-24.16
-8,20,1200,1,-364,3894,-0.70,0.93,63.14,0.01,-3.64,38.94,-4.95,1.70,34.44,3.71,-1.85,-25.40
-11,6,1227,-8,-446,3944,-0.70,0.88,64.31,-0.08,-4.46,39.44,-4.95,1.72,34.19,3.76,-1.60,-25.83
-19,16,1220,-84,-453,3902,-0.75,0.89,65.32,-0.84,-4.53,39.02,-4.97,1.74,33.93,3.92,-1.79,-25.94
-14,20,1196,-121,-468,3945,-0.76,0.92,66.08,-1.21,-4.68,39.45,-4.98,1.76,33.66,3.85,-1.89,-25.86
-7,18,1013,-221,-519,3930,-0.72,0.94,65.65,-2.21,-5.19,39.30,-4.99,1.80,33.40,3.73,-1.88,-24.20
-28,4,939,-188,-491,3897,-0.82,0.87,64.82,-1.88,-4.91,38.97,-5.00,1.83,33.15,4.13,-1.64,-23.39
-19,1,682,-173,-369,3880,-0.86,0.79,62.49,-1.73,-3.69,38.80,-5.01,1.87,32.90,3.99,-1.59,-20.75
-5,4,587,-151,-266,3880,-0.80,0.73,59.83,-1.51,-2.66,38.80,-4.98,1.90,32.66,3.72,-1.64,-19.41
0,3,441,-107,-230,3923,-0.72,0.68,56.53,-1.07,-2.30,39.23,-4.96,1.92,32.43,3.59,-1.62,-17.52
-9,-6,394,-125,-170,3891,-0.70,0.57,53.28,-1.25,-1.70,38.91,-4.94,1.94,32.22,3.72,-1.45,-16.49
-9,19,276,-249,-108,3877,-0.69,0.63,49.64,-2.49,-1.08,38.77,-4.92,1.97,32.02,3.70,-1.91,-14.77
6,21,244,-282,-140,3892,-0.58,0.70,46.16,-2.82,-1.40,38.92,-4.90,2.00,31.84,3.40,-1.98,-13.82
6,22,69,-187,-178,3909,-0.49,0.76,41.97,-1.87,-1.78,39.09,-4.88,2.02,31.67,3.36,-2.04,-11.52
6,23,41,-121,-203,3923,-0.40,0.83,38.02,-1.21,-2.03,39.23,-4.86,2.04,31.52,3.32,-2.08,-10.52
9,17,16,8,-319,3903,-0.31,0.85,34.32,0.08,-3.19,39.03,-4.85,2.03,31.38,3.23,-1.99,-9.58
7,15,19,-2,-307,3895,-0.23,0.85,31.00,-0.02,-3.07,38.95,-4.85,2.03,31.26,3.24,-1.95,-8.96
1,-3,41,-32,-349,3916,-0.20,0.75,28.15,-0.32,-3.49,39.16,-4.84,2.02,31.15,3.33,-1.61,-8.60
-1,-4,54,-29,-365,3884,-0.19,0.65,25.66,-0.29,-3.65,38.84,-4.85,2.02,31.04,3.36,-1.56,-8.22
-7,-9,114,32,-377,3905,-0.21,0.53,23.79,0.32,-3.77,39.05,-4.85,2.01,30.95,3.47,-1.43,-8.36
-8,-10,140,20,-394,3894,-0.24,0.42,22.27,0.20,-3.94,38.94,-4.85,2.00,30.86,3.50,-1.37,-8.28
-4,0,237,-70,-416,3887,-0.24,0.37,21.49,-0.70,-4.16,38.87,-4.87,2.00,30.78,3.44,-1.52,-8.95
1,5,263,-59,-382,3923,-0.21,0.37,20.94,-0.59,-3.82,39.23,-4.87,1.99,30.69,3.35,-1.60,-9.06
0,4,363,-44,-460,3893,-0.19,0.36,21.06,-0.44,-4.60,38.93,-4.89,1.99,30.61,3.37,-1.58,-9.92
-3,17,383,-31,-407,3926,-0.19,0.42,21.29,-0.31,-4.07,39.26,-4.90,1.98,30.52,3.42,-1.82,-10.13
3,11,459,-23,-405,3898,-0.15,0.45,21.96,-0.23,-4.05,38.98,-4.90,1.98,30.44,3.31,-1.72,-10.89
-4,9,478,12,-376,3915,-0.16,0.46,22.68,0.12,-3.76,39.15,-4.91,1.97,30.35,3.44,-1.68,-11.18
-3,14,494,-40,-372,3878,-0.16,0.50,23.43,-0.40,-3.72,38.78,-4.91,1.96,30.25,3.42,-1.78,-11.45
-2,8,503,-108,-374,3906,-0.16,0.50,24.15,-1.08,-3.74,39.06,-4.92,1.96,30.16,3.41,-1.67,-11.66
-7,13,534,-92,-388,3905,-0.19,0.53,25.00,-0.92,-3.88,39.05,-4.93,1.96,30.06,3.52,-1.77,-12.07
-12,2,537,-105,-434,3898,-0.24,0.49,25.77,-1.05,-4.34,38.98,-4.95,1.97,29.96,3.63,-1.57,-12.24
-6,4,589,-121,-386,3944,-0.25,0.46,26.79,-1.21,-3.86,39.44,-4.96,1.97,29.85,3.54,-1.60,-12.86
0,5,617,-88,-385,3924,-0.23,0.45,27.87,-0.88,-3.85,39.24,-4.97,1.97,29.74,3.44,-1.61,-13.30
-6,4,694,-124,-430,3857,-0.24,0.43,29.32,-1.24,-4.30,38.57,-4.99,1.98,29.63,3.55,-1.59,-14.21
-5,15,721,-140,-501,3959,-0.25,0.47,30.78,-1.40,-5.01,39.59,-5.00,1.99,29.50,3.55,-1.81,-14.71
-5,16,891,-86,-506,3899,-0.25,0.53,33.14,-0.86,-5.06,38.99,-5.02,2.00,29.37,3.56,-1.84,-16.59
-6,17,945,-79,-488,3878,-0.26,0.58,35.59,-0.79,-4.88,38.78,-5.03,2.01,29.23,3.59,-1.88,-17.50
-20,12,1088,-86,-492,3843,-0.36,0.59,38.67,-0.86,-4.92,38.43,-5.04,2.02,29.08,3.87,-1.81,-19.29
-17,9,1134,-76,-378,3927,-0.43,0.59,41.72,-0.76,-3.78,39.27,-5.05,2.02,28.91,3.84,-1.76,-20.25
-24,4,1144,-48,-410,3855,-0.53,0.55,44.53,-0.48,-4.10,38.55,-5.05,2.02,28.73,4.00,-1.67,-20.85
-5,24,1133,-75,-427,3956,-0.51,0.64,46.98,-0.75,-4.27,39.56,-5.06,2.03,28.55,3.67,-2.04,-21.21
-13,15,1066,-53,-355,3792,-0.54,0.67,48.79,-0.53,-3.55,37.92,-5.06,2.03,28.35,3.82,-1.90,-20.97
-24,18,1038,-66,-439,3921,-0.63,0.71,50.24,-0.66,-4.39,39.21,-5.07,2.04,28.15,4.04,-1.97,-20.99
4,25,955,-216,-355,3806,-0.54,0.80,51.04,-2.16,-3.55,38.06,-5.07,2.08,27.95,3.54,-2.14,-20.43
-16,4,955,-79,-446,3840,-0.59,0.74,51.76,-0.79,-4.46,38.40,-5.08,2.09,27.75,3.90,-1.77,-20.55
-16,4,926,16,-374,3902,-0.63,0.69,52.24,0.16,-3.74,39.02,-5.08,2.10,27.54,3.91,-1.76,-20.37
-10,17,918,-26,-382,3948,-0.62,0.73,52.61,-0.26,-3.82,39.48,-5.08,2.10,27.33,3.81,-1.99,-20.36
-10,13,906,-130,-447,3914,-0.62,0.73,52.88,-1.30,-4.47,39.14,-5.09,2.12,27.12,3.81,-1.94,-20.29
-18,7,891,-110,-329,3883,-0.67,0.70,53.03,-1.10,-3.29,38.83,-5.08,2.12,26.91,3.96,-1.83,-20.17
-16,-3,893,-87,-301,3874,-0.70,0.61,53.17,-0.87,-3.01,38.74,-5.06,2.13,26.69,3.92,-1.64,-20.19
-6,5,893,-96,-300,3925,-0.67,0.58,53.30,-0.96,-3.00,39.25,-5.05,2.14,26.48,3.73,-1.77,-20.20
0,11,926,-137,-322,3904,-0.60,0.59,53.62,-1.37,-3.22,39.04,-5.02,2.15,26.27,3.59,-1.88,-20.52
-7,9,933,-106,-311,3901,-0.58,0.59,53.95,-1.06,-3.11,39.01,-5.01,2.16,26.05,3.69,-1.85,-20.62
-18,12,924,-68,-368,3889,-0.63,0.60,54.19,-0.68,-3.68,38.89,-5.01,2.16,25.84,3.90,-1.91,-20.57
-7,16,914,-140,-424,3944,-0.61,0.64,54.35,-1.40,-4.24,39.44,-5.02,2.18,25.62,3.71,-2.00,-20.50
-10,8,840,-104,-377,3842,-0.61,0.62,54.04,-1.04,-3.77,38.42,-5.03,2.19,25.41,3.77,-1.87,-19.80
-9,12,812,-115,-417,3940,-0.61,0.63,53.59,-1.15,-4.17,39.40,-5.04,2.20,25.19,3.76,-1.95,-19.45
-9,1,697,-87,-385,3791,-0.60,0.58,52.48,-0.87,-3.85,37.91,-5.04,2.21,24.98,3.76,-1.75,-18.25
-11,2,642,-78,-378,3905,-0.61,0.53,51.15,-0.78,-3.78,39.05,-5.04,2.21,24.78,3.80,-1.75,-17.51
-9,11,569,-32,-356,3914,-0.60,0.55,49.50,-0.32,-3.56,39.14,-5.04,2.22,24.58,3.76,-1.91,-16.56
-11,6,555,-113,-356,3947,-0.61,0.53,47.94,-1.13,-3.56,39.47,-5.04,2.22,24.39,3.79,-1.82,-16.12
-9,8,529,-120,-352,3870,-0.60,0.52,46.37,-1.20,-3.52,38.70,-5.04,2.22,24.21,3.76,-1.85,-15.59
-7,7,521,-78,-302,3903,-0.59,0.51,44.91,-0.78,-3.02,39.03,-5.03,2.22,24.03,3.71,-1.83,-15.22
-6,12,431,-76,-370,3858,-0.56,0.54,43.05,-0.76,-3.70,38.58,-5.03,2.22,23.86,3.69,-1.92,-14.09
-4,9,393,-114,-381,3933,-0.53,0.54,41.14,-1.14,-3.81,39.33,-5.04,2.22,23.69,3.65,-1.88,-13.39
-5,24,269,-115,-261,3951,-0.51,0.63,38.67,-1.15,-2.61,39.51,-5.02,2.23,23.54,3.64,-2.17,-11.85
-7,27,251,-65,-218,3918,-0.50,0.73,36.33,-0.65,-2.18,39.18,-5.00,2.24,23.40,3.66,-2.25,-11.24
-7,42,240,46,-84,3852,-0.49,0.91,34.16,0.46,-0.84,38.52,-4.98,2.24,23.26,3.65,-2.57,-10.72
-5,42,253,72,-53,3843,-0.47,1.08,32.29,0.72,-0.53,38.43,-4.96,2.24,23.13,3.60,-2.63,-10.46
3,32,321,30,-191,3942,-0.41,1.17,31.02,0.30,-1.91,39.42,-4.95,2.25,23.01,3.43,-2.49,-10.78
6,27,341,6,-200,3884,-0.33,1.21,30.00,0.06,-2.00,38.84,-4.93,2.25,22.89,3.34,-2.42,-10.75
-4,17,409,-92,-308,3931,-0.32,1.20,29.49,-0.92,-3.08,39.31,-4.92,2.25,22.77,3.50,-2.24,-11.22
0,25,436,-63,-369,3898,-0.29,1.23,29.20,-0.63,-3.69,38.98,-4.92,2.24,22.65,3.43,-2.39,-11.38
-1,9,525,-120,-408,3924,-0.27,1.16,29.49,-1.20,-4.08,39.24,-4.94,2.25,22.54,3.44,-2.10,-12.18
-14,4,552,-132,-470,3900,-0.33,1.07,29.90,-1.32,-4.70,39.00,-4.95,2.26,22.42,3.69,-1.99,-12.47
1,-4,590,-51,-461,3922,-0.29,0.94,30.51,-0.51,-4.61,39.22,-4.96,2.26,22.30,3.43,-1.81,-12.90
-20,-9,599,-70,-489,3865,-0.38,0.79,31.12,-0.70,-4.89,38.65,-4.97,2.27,22.17,3.83,-1.68,-13.08
-4,-4,666,-122,-562,3897,-0.37,0.69,32.07,-1.22,-5.62,38.97,-4.99,2.28,22.05,3.56,-1.74,-13.82
-3,7,708,-117,-556,3912,-0.35,0.66,33.18,-1.17,-5.56,39.12,-5.00,2.29,21.92,3.55,-1.93,-14.38
0,22,693,-132,-449,3884,-0.31,0.73,34.09,-1.32,-4.49,38.84,-5.02,2.30,21.78,3.49,-2.21,-14.41
-1,24,671,-125,-441,3943,-0.29,0.80,34.77,-1.25,-4.41,39.43,-5.03,2.31,21.64,3.51,-2.28,-14.34
11,25,595,-152,-427,3957,-0.19,0.87,34.92,-1.52,-4.27,39.57,-5.04,2.32,21.50,3.29,-2.33,-13.72
9,32,580,-139,-428,3895,-0.12,0.98,34.97,-1.39,-4.28,38.95,-5.06,2.34,21.37,3.30,-2.49,-13.59
11,28,502,-119,-420,3958,-0.04,1.05,34.54,-1.19,-4.20,39.58,-5.07,2.34,21.23,3.25,-2.45,-12.83
4,25,482,-125,-452,3915,-0.01,1.10,34.02,-1.25,-4.52,39.15,-5.08,2.35,21.10,3.37,-2.42,-12.55
-4,7,405,-192,-504,3889,-0.03,1.03,33.09,-1.92,-5.04,38.89,-5.09,2.37,20.96,3.52,-2.10,-11.71
1,15,380,-177,-483,3920,-0.02,1.02,32.10,-1.77,-4.83,39.20,-5.10,2.39,20.84,3.44,-2.25,-11.29
-12,-4,329,-100,-481,3919,-0.10,0.90,30.90,-1.00,-4.81,39.19,-5.11,2.40,20.72,3.69,-1.89,-10.62
8,8,310,-12,-485,3948,-0.04,0.85,29.70,-0.12,-4.85,39.48,-5.12,2.40,20.60,3.34,-2.08,-10.22
16,24,347,-41,-423,3874,0.06,0.92,28.84,-0.41,-4.23,38.74,-5.13,2.40,20.48,3.17,-2.37,-10.36
6,10,356,-38,-427,3935,0.09,0.89,28.13,-0.38,-4.27,39.35,-5.13,2.39,20.37,3.33,-2.12,-10.29
27,40,415,-88,-447,3888,0.25,1.04,27.85,-0.88,-4.47,38.88,-5.14,2.40,20.26,2.93,-2.68,-10.73
15,24,429,-93,-451,3919,0.32,1.08,27.68,-0.93,-4.51,39.19,-5.15,2.40,20.15,3.12,-2.43,-10.80
22,28,456,-94,-423,3919,0.42,1.15,27.70,-0.94,-4.23,39.19,-5.16,2.40,20.04,2.97,-2.52,-11.03
35,43,464,-99,-424,3941,0.59,1.29,27.76,-0.99,-4.24,39.41,-5.16,2.40,19.93,2.70,-2.82,-11.09
28,38,458,-89,-401,3857,0.70,1.40,27.77,-0.89,-4.01,38.57,-5.16,2.40,19.82,2.78,-2.77,-11.04
26,27,460,-70,-411,3933,0.79,1.42,27.80,-0.70,-4.11,39.33,-5.17,2.40,19.71,2.79,-2.59,-11.05
11,19,434,-35,-354,3860,0.78,1.39,27.67,-0.35,-3.54,38.60,-5.16,2.40,19.60,3.04,-2.44,-10.79
11,14,439,-24,-392,3873,0.77,1.34,27.58,-0.24,-3.92,38.73,-5.16,2.40,19.49,3.04,-2.34,-10.81
6,14,454,-78,-367,3888,0.73,1.29,27.59,-0.78,-3.67,38.88,-5.15,2.40,19.39,3.14,-2.32,-10.93
13,18,465,-121,-325,3920,0.73,1.27,27.67,-1.21,-3.25,39.20,-5.13,2.40,19.27,3.01,-2.38,-11.03
19,24,489,-156,-343,3952,0.78,1.29,27.89,-1.56,-3.43,39.52,-5.11,2.40,19.16,2.88,-2.49,-11.26
7,18,503,-180,-320,3857,0.74,1.27,28.17,-1.80,-3.20,38.57,-5.09,2.42,19.05,3.08,-2.40,-11.42
20,32,543,-197,-382,3873,0.79,1.34,28.66,-1.97,-3.82,38.73,-5.10,2.45,18.94,2.85,-2.68,-11.85
22,30,556,-227,-373,3903,0.84,1.39,29.19,-2.27,-3.73,39.03,-5.09,2.48,18.82,2.79,-2.68,-12.05
38,49,634,-133,-373,3900,0.99,1.55,30.14,-1.33,-3.73,39.00,-5.10,2.49,18.70,2.47,-3.06,-12.88
49,56,658,-64,-413,3979,1.19,1.74,31.14,-0.64,-4.13,39.79,-5.09,2.49,18.58,2.22,-3.24,-13.26
52,61,682,-82,-359,3906,1.39,1.93,32.18,-0.82,-3.59,39.06,-5.09,2.49,18.45,2.10,-3.39,-13.65
10,17,708,-117,-267,3881,1.31,1.84,33.28,-1.17,-2.67,38.81,-5.06,2.50,18.32,2.82,-2.62,-14.07
10,20,632,-44,-391,3873,1.24,1.78,33.81,-0.44,-3.91,38.73,-5.06,2.50,18.19,2.84,-2.65,-13.52
-3,8,597,-96,-400,3907,1.10,1.65,34.07,-0.96,-4.00,39.07,-5.06,2.50,18.05,3.11,-2.41,-13.26
12,7,534,-59,-278,3932,1.06,1.53,33.92,-0.59,-2.78,39.32,-5.04,2.51,17.92,2.85,-2.36,-12.68
8,5,543,3,-318,3903,1.01,1.41,33.84,0.03,-3.18,39.03,-5.02,2.51,17.78,2.93,-2.28,-12.73
-1,10,555,-164,-346,3915,0.90,1.33,33.84,-1.64,-3.46,39.15,-5.02,2.51,17.65,3.11,-2.34,-12.82
11,18,559,-178,-323,3896,0.88,1.30,33.87,-1.78,-3.23,38.96,-4.99,2.53,17.51,2.90,-2.48,-12.85
0,8,579,-183,-462,3952,0.79,1.22,34.01,-1.83,-4.62,39.52,-5.00,2.55,17.38,3.12,-2.30,-13.03
7,8,571,-211,-424,3948,0.75,1.15,34.09,-2.11,-4.24,39.48,-5.01,2.57,17.24,3.02,-2.29,-12.97
-3,0,494,-61,-366,4027,0.66,1.03,33.70,-0.61,-3.66,40.27,-5.00,2.57,17.11,3.22,-2.11,-12.23
3,8,474,-78,-325,3902,0.61,0.98,33.22,-0.78,-3.25,39.02,-4.99,2.57,16.98,3.12,-2.23,-11.96
12,19,477,-245,-389,3892,0.62,1.00,32.81,-2.45,-3.89,38.92,-4.99,2.60,16.85,2.97,-2.44,-11.89
-7,-15,461,-163,-334,3824,0.52,0.81,32.34,-1.63,-3.34,38.24,-4.98,2.59,16.72,3.32,-1.80,-11.66
-3,-2,391,-237,-332,3869,0.45,0.71,31.49,-2.37,-3.32,38.69,-4.98,2.62,16.59,3.27,-2.01,-10.89
3,12,382,-195,-272,3913,0.42,0.72,30.67,-1.95,-2.72,39.13,-4.95,2.64,16.47,3.16,-2.26,-10.65
-2,-5,315,-129,-238,3931,0.37,0.61,29.53,-1.29,-2.38,39.31,-4.93,2.65,16.35,3.25,-1.94,-9.85
-2,3,295,-141,-285,3948,0.32,0.57,28.37,-1.41,-2.85,39.48,-4.91,2.65,16.24,3.25,-2.06,-9.45
10,6,298,-164,-256,3949,0.35,0.55,27.35,-1.64,-2.56,39.49,-4.88,2.65,16.13,3.02,-2.11,-9.27
1,-8,285,-117,-291,3871,0.32,0.45,26.36,-1.17,-2.91,38.71,-4.87,2.65,16.02,3.17,-1.84,-8.96
0,-1,199,-171,-316,3961,0.29,0.40,24.93,-1.71,-3.16,39.61,-4.84,2.65,15.92,3.18,-1.94,-7.95
3,-4,167,-240,-182,3901,0.28,0.33,23.46,-2.40,-1.82,39.01,-4.82,2.67,15.83,3.12,-1.88,-7.39
5,6,217,-253,-184,3911,0.28,0.34,22.44,-2.53,-1.84,39.11,-4.80,2.68,15.74,3.07,-2.06,-7.61
-1,1,235,-279,-220,3905,0.25,0.31,21.63,-2.79,-2.20,39.05,-4.78,2.70,15.65,3.17,-1.98,-7.60
-3,10,318,-244,-295,3889,0.20,0.34,21.40,-2.44,-2.95,38.89,-4.77,2.73,15.56,3.21,-2.16,-8.25
5,11,346,-251,-287,3905,0.21,0.37,21.37,-2.51,-2.87,39.05,-4.75,2.75,15.48,3.06,-2.20,-8.47
-1,11,409,-132,-310,3919,0.19,0.40,21.73,-1.32,-3.10,39.19,-4.74,2.74,15.39,3.17,-2.21,-9.07
2,18,417,-61,-273,3958,0.18,0.47,22.10,-0.61,-2.73,39.58,-4.73,2.74,15.30,3.11,-2.35,-9.20
0,15,373,-28,-390,3897,0.16,0.52,22.17,-0.28,-3.90,38.97,-4.73,2.73,15.22,3.15,-2.30,-8.83
-5,12,367,-51,-417,3915,0.11,0.54,22.19,-0.51,-4.17,39.15,-4.74,2.72,15.13,3.26,-2.26,-8.78
4,19,354,-73,-431,3869,0.13,0.60,22.13,-0.73,-4.31,38.69,-4.75,2.72,15.04,3.10,-2.39,-8.65
6,16,344,-135,-405,3926,0.15,0.64,22.02,-1.35,-4.05,39.26,-4.76,2.72,14.95,3.07,-2.35,-8.53
-1,23,323,-56,-457,3917,0.13,0.71,21.78,-0.56,-4.57,39.17,-4.77,2.72,14.87,3.20,-2.50,-8.30
-9,9,319,-47,-489,3904,0.06,0.70,21.55,-0.47,-4.89,39.04,-4.78,2.71,14.78,3.36,-2.25,-8.22
3,23,291,-50,-517,3891,0.07,0.77,21.17,-0.50,-5.17,38.91,-4.79,2.71,14.70,3.16,-2.51,-7.90
-5,14,278,-43,-609,3915,0.04,0.78,20.75,-0.43,-6.09,39.15,-4.80,2.72,14.62,3.32,-2.36,-7.70
3,7,213,46,-405,3900,0.05,0.74,19.97,0.46,-4.05,39.00,-4.80,2.71,14.54,3.18,-2.23,-7.00
5,6,223,-47,-461,3927,0.08,0.70,19.34,-0.47,-4.61,39.27,-4.81,2.70,14.46,3.14,-2.20,-6.95
-7,1,291,32,-411,3848,0.03,0.64,19.18,0.32,-4.11,38.48,-4.81,2.70,14.39,3.37,-2.09,-7.49
-6,3,284,-112,-372,4011,-0.01,0.59,18.99,-1.12,-3.72,40.11,-4.82,2.69,14.31,3.37,-2.10,-7.39
-4,-1,298,-23,-405,3959,-0.04,0.53,18.91,-0.23,-4.05,39.59,-4.82,2.68,14.24,3.34,-2.00,-7.49
-9,4,293,-24,-422,3914,-0.09,0.50,18.81,-0.24,-4.22,39.14,-4.83,2.67,14.16,3.45,-2.07,-7.42
-6,-15,341,54,-510,3906,-0.12,0.36,19.01,0.54,-5.10,39.06,-4.83,2.66,14.09,3.41,-1.70,-7.85
-4,-4,338,37,-453,3919,-0.13,0.30,19.17,0.37,-4.53,39.19,-4.84,2.66,14.01,3.38,-1.86,-7.85
15,-1,271,-88,-511,3886,-0.02,0.26,18.90,-0.88,-5.11,38.86,-4.85,2.66,13.93,3.04,-1.90,-7.23
3,-2,231,-74,-432,3826,-0.00,0.22,18.42,-0.74,-4.32,38.26,-4.86,2.65,13.86,3.24,-1.87,-6.79
2,-5,154,-100,-438,3945,0.01,0.17,17.52,-1.00,-4.38,39.45,-4.87,2.64,13.79,3.26,-1.80,-5.96
9,-7,130,-119,-388,3915,0.06,0.11,16.56,-1.19,-3.88,39.15,-4.88,2.64,13.73,3.13,-1.74,-5.57
4,-11,81,-174,-298,3905,0.08,0.03,15.40,-1.74,-2.98,39.05,-4.86,2.64,13.67,3.19,-1.65,-4.92
3,-11,66,-118,-372,3892,0.09,-0.04,14.26,-1.18,-3.72,38.92,-4.87,2.63,13.61,3.21,-1.62,-4.57
5,-8,53,-88,-402,3896,0.11,-0.08,13.16,-0.88,-4.02,38.96,-4.88,2.62,13.56,3.18,-1.65,-4.25
4,-6,75,-85,-415,3915,0.13,-0.11,12.30,-0.85,-4.15,39.15,-4.89,2.61,13.51,3.20,-1.66,-4.27
1,1,141,-184,-357,3917,0.12,-0.09,11.93,-1.84,-3.57,39.17,-4.90,2.62,13.46,3.26,-1.79,-4.75
-1,-1,149,-171,-343,3903,0.10,-0.09,11.65,-1.71,-3.43,39.03,-4.91,2.61,13.42,3.31,-1.75,-4.76
2,4,182,-133,-475,3892,0.10,-0.06,11.59,-1.33,-4.75,38.92,-4.93,2.60,13.37,3.26,-1.85,-5.03
-1,-2,195,-95,-436,3875,0.09,-0.06,11.62,-0.95,-4.36,38.75,-4.94,2.60,13.32,3.33,-1.74,-5.14
-1,-2,267,-66,-390,3925,0.07,-0.07,12.09,-0.66,-3.90,39.25,-4.94,2.58,13.28,3.34,-1.73,-5.83
0,-7,291,-1,-419,3887,0.07,-0.11,12.66,-0.01,-4.19,38.87,-4.95,2.57,13.23,3.33,-1.62,-6.14
-1,-7,356,-87,-319,3871,0.05,-0.14,13.56,-0.87,-3.19,38.71,-4.94,2.56,13.17,3.34,-1.60,-6.86
6,-8,369,-114,-334,3906,0.08,-0.17,14.46,-1.14,-3.34,39.06,-4.94,2.54,13.11,3.21,-1.57,-7.13
3,-4,449,-108,-477,3885,0.09,-0.18,15.75,-1.08,-4.77,38.85,-4.95,2.54,13.05,3.27,-1.63,-8.05
-1,-3,484,-86,-503,3894,0.08,-0.18,17.13,-0.86,-5.03,38.94,-4.97,2.54,12.98,3.35,-1.64,-8.61
7,12,558,-163,-447,3927,0.11,-0.09,18.82,-1.63,-4.47,39.27,-4.98,2.54,12.91,3.21,-1.93,-9.55
-5,12,579,-93,-434,3937,0.07,-0.01,20.47,-0.93,-4.34,39.37,-4.99,2.54,12.83,3.43,-1.95,-10.04
-2,10,571,-193,-541,3923,0.05,0.06,21.90,-1.93,-5.41,39.23,-5.00,2.55,12.74,3.40,-1.95,-10.24
5,14,566,-139,-536,3972,0.08,0.13,23.17,-1.39,-5.36,39.72,-5.02,2.55,12.65,3.28,-2.04,-10.43
0,27,560,-103,-345,3996,0.07,0.29,24.27,-1.03,-3.45,39.96,-5.01,2.54,12.55,3.36,-2.31,-10.58
-4,23,575,-172,-382,3824,0.04,0.40,25.35,-1.72,-3.82,38.24,-5.02,2.55,12.45,3.45,-2.28,-10.90
-8,17,402,-248,-253,3975,-0.01,0.46,25.26,-2.48,-2.53,39.75,-5.01,2.57,12.35,3.52,-2.22,-9.41
6,21,328,-219,-265,3835,0.02,0.54,24.74,-2.19,-2.65,38.35,-4.99,2.59,12.25,3.26,-2.33,-8.67
13,-3,415,-167,-476,3885,0.10,0.47,24.80,-1.67,-4.76,38.85,-5.00,2.60,12.16,3.13,-1.90,-9.41
26,19,467,-199,-560,3964,0.25,0.54,25.17,-1.99,-5.60,39.64,-5.01,2.62,12.06,2.87,-2.31,-9.92
19,23,580,-153,-569,3808,0.34,0.63,26.19,-1.53,-5.69,38.08,-5.02,2.63,11.95,2.96,-2.41,-11.06
4,18,610,-231,-522,3929,0.33,0.67,27.29,-2.31,-5.22,39.29,-5.04,2.64,11.84,3.23,-2.35,-11.51
10,27,699,-115,-221,3970,0.36,0.77,28.82,-1.15,-2.21,39.70,-5.01,2.65,11.73,3.10,-2.54,-12.55
5,29,703,-106,-335,3890,0.35,0.87,30.23,-1.06,-3.35,38.90,-5.00,2.64,11.61,3.18,-2.60,-12.84
1,15,613,-137,-298,4010,0.32,0.87,30.95,-1.37,-2.98,40.10,-4.98,2.65,11.49,3.25,-2.37,-12.21
3,15,561,-90,-291,3861,0.31,0.88,31.27,-0.90,-2.91,38.61,-4.97,2.64,11.36,3.21,-2.37,-11.82
-2,2,474,-90,-352,3853,0.27,0.80,31.04,-0.90,-3.52,38.53,-4.96,2.64,11.24,3.30,-2.12,-11.02
-4,16,482,-137,-326,3890,0.22,0.82,30.87,-1.37,-3.26,38.90,-4.95,2.64,11.11,3.35,-2.36,-11.05
-3,10,547,-26,-394,3850,0.18,0.80,31.12,-0.26,-3.94,38.50,-4.95,2.63,10.99,3.34,-2.25,-11.64
-5,11,550,-98,-466,3949,0.13,0.79,31.37,-0.98,-4.66,39.49,-4.96,2.64,10.87,3.40,-2.26,-11.70
3,0,479,-138,-349,3919,0.13,0.71,31.15,-1.38,-3.49,39.19,-4.96,2.63,10.74,3.26,-2.05,-11.04
-5,6,460,-156,-323,3903,0.09,0.67,30.84,-1.56,-3.23,39.03,-4.94,2.63,10.62,3.40,-2.14,-10.81
-1,10,488,-15,-414,3932,0.07,0.67,30.73,-0.15,-4.14,39.32,-4.95,2.63,10.50,3.34,-2.20,-11.02
0,1,496,-83,-350,3915,0.07,0.61,30.69,-0.83,-3.50,39.15,-4.94,2.62,10.37,3.32,-2.03,-11.07
2,23,546,-81,-289,3937,0.07,0.69,30.95,-0.81,-2.89,39.37,-4.93,2.62,10.25,3.27,-2.42,-11.53
-4,7,563,-117,-321,3857,0.04,0.66,31.29,-1.17,-3.21,38.57,-4.92,2.61,10.13,3.38,-2.14,-11.73
0,-1,515,-25,-304,3894,0.04,0.59,31.30,-0.25,-3.04,38.94,-4.91,2.61,10.00,3.31,-1.98,-11.31
-17,-11,462,-49,-262,3899,-0.07,0.46,30.99,-0.49,-2.62,38.99,-4.89,2.61,9.88,3.62,-1.77,-10.79
4,-15,403,71,-346,3925,-0.04,0.32,30.35,0.71,-3.46,39.25,-4.89,2.60,9.76,3.25,-1.65,-10.16
-22,-16,385,45,-273,3946,-0.17,0.19,29.66,0.45,-2.73,39.46,-4.88,2.59,9.64,3.73,-1.58,-9.86
-1,-6,410,36,-348,3896,-0.16,0.14,29.20,0.36,-3.48,38.96,-4.88,2.58,9.52,3.37,-1.73,-9.98
-8,1,401,-48,-361,3955,-0.19,0.13,28.72,-0.48,-3.61,39.55,-4.88,2.58,9.41,3.50,-1.84,-9.80
-2,15,376,-81,-454,3945,-0.18,0.21,28.14,-0.81,-4.54,39.45,-4.89,2.58,9.30,3.40,-2.10,-9.47
-1,26,392,-83,-417,3875,-0.17,0.35,27.72,-0.83,-4.17,38.75,-4.89,2.57,9.19,3.38,-2.33,-9.51
-2,12,393,-183,-355,3892,-0.17,0.39,27.35,-1.83,-3.55,38.92,-4.91,2.59,9.08,3.41,-2.12,-9.44
-14,-2,437,-91,-452,3846,-0.24,0.33,27.28,-0.91,-4.52,38.46,-4.92,2.59,8.97,3.64,-1.87,-9.79
-3,12,517,-56,-539,3905,-0.23,0.37,27.70,-0.56,-5.39,39.05,-4.93,2.59,8.86,3.46,-2.12,-10.54
-1,13,541,-76,-528,3902,-0.21,0.42,28.23,-0.76,-5.28,39.02,-4.94,2.59,8.75,3.43,-2.15,-10.83
-6,8,503,-196,-341,3862,-0.23,0.42,28.48,-1.96,-3.41,38.62,-4.94,2.62,8.64,3.52,-2.09,-10.55
3,9,451,-156,-312,3897,-0.19,0.44,28.38,-1.56,-3.12,38.97,-4.93,2.62,8.52,3.34,-2.11,-10.08
1,11,398,-18,-414,3872,-0.16,0.46,27.97,-0.18,-4.14,38.72,-4.93,2.62,8.41,3.37,-2.14,-9.54
6,3,391,-161,-378,3916,-0.11,0.43,27.56,-1.61,-3.78,39.16,-4.94,2.62,8.30,3.28,-2.00,-9.39
0,2,409,21,-477,3945,-0.10,0.40,27.30,0.21,-4.77,39.45,-4.95,2.62,8.19,3.38,-1.97,-9.48
-2,3,407,-88,-483,3917,-0.10,0.38,27.05,-0.88,-4.83,39.17,-4.96,2.62,8.09,3.42,-1.98,-9.41
-17,6,462,-163,-449,3978,-0.19,0.38,27.16,-1.63,-4.49,39.78,-4.97,2.62,7.98,3.71,-2.04,-9.89
7,-7,446,-131,-447,3907,-0.13,0.30,27.17,-1.31,-4.47,39.07,-4.98,2.63,7.87,3.29,-1.79,-9.74
4,-7,349,-234,-159,3834,-0.09,0.22,26.58,-2.34,-1.59,38.34,-4.96,2.64,7.76,3.32,-1.78,-8.80
-29,-5,304,-233,-64,3882,-0.26,0.17,25.78,-2.33,-0.64,38.82,-4.94,2.66,7.66,3.92,-1.81,-8.26
0,-2,221,-239,-277,3931,-0.24,0.14,24.55,-2.39,-2.77,39.31,-4.92,2.68,7.56,3.41,-1.86,-7.31
-2,17,201,-134,-474,3982,-0.22,0.23,23.32,-1.34,-4.74,39.82,-4.94,2.68,7.47,3.45,-2.21,-6.90
17,21,231,-189,-613,3952,-0.10,0.34,22.40,-1.89,-6.13,39.52,-4.95,2.69,7.38,3.09,-2.32,-6.97
17,12,227,-196,-674,3811,0.01,0.38,21.54,-1.96,-6.74,38.11,-4.96,2.70,7.30,3.06,-2.19,-6.76
8,10,194,-37,-320,3974,0.06,0.40,20.57,-0.37,-3.20,39.74,-4.96,2.69,7.21,3.20,-2.16,-6.29
8,15,182,17,-388,3805,0.10,0.45,19.62,0.17,-3.88,38.05,-4.96,2.68,7.14,3.18,-2.25,-6.00
-7,-11,158,-117,-161,3930,0.05,0.34,18.62,-1.17,-1.61,39.30,-4.94,2.68,7.06,3.44,-1.77,-5.60
3,-15,133,-205,-128,3874,0.06,0.21,17.57,-2.05,-1.28,38.74,-4.92,2.69,6.99,3.25,-1.67,-5.18
0,-18,48,-207,-214,3866,0.06,0.08,16.11,-2.07,-2.14,38.66,-4.90,2.70,6.93,3.29,-1.58,-4.17
-6,-19,52,-176,-279,3892,0.02,-0.04,14.82,-1.76,-2.79,38.92,-4.87,2.70,6.87,3.39,-1.53,-3.95
-4,-10,68,-139,-431,3925,-0.01,-0.10,13.75,-1.39,-4.31,39.25,-4.89,2.70,6.81,3.38,-1.66,-3.88
-6,-12,66,-158,-495,3912,-0.05,-0.16,12.78,-1.58,-4.95,39.12,-4.90,2.70,6.76,3.43,-1.61,-3.67
-4,-9,34,-161,-409,3880,-0.07,-0.20,11.71,-1.61,-4.09,38.80,-4.92,2.70,6.72,3.42,-1.64,-3.19
-1,-3,31,-120,-416,3909,-0.07,-0.20,10.72,-1.20,-4.16,39.09,-4.93,2.69,6.67,3.37,-1.74,-2.98
-2,1,102,-85,-528,4006,-0.07,-0.17,10.27,-0.85,-5.28,40.06,-4.95,2.68,6.63,3.40,-1.81,-3.49
5,-3,120,-42,-550,3814,-0.03,-0.17,9.98,-0.42,-5.50,38.14,-4.96,2.68,6.59,3.28,-1.74,-3.58
-12,-7,216,-51,-422,4001,-0.10,-0.20,10.30,-0.51,-4.22,40.01,-4.97,2.66,6.55,3.60,-1.65,-4.45
1,-22,200,-33,-234,3977,-0.09,-0.31,10.49,-0.33,-2.34,39.77,-4.95,2.65,6.51,3.36,-1.35,-4.35
-5,-21,113,-176,-182,3869,-0.11,-0.41,10.13,-1.76,-1.82,38.69,-4.94,2.65,6.47,3.46,-1.34,-3.54
-5,-30,80,-179,-212,3878,-0.13,-0.55,9.60,-1.79,-2.12,38.78,-4.92,2.65,6.43,3.45,-1.14,-3.16
-6,-16,30,66,-292,3975,-0.15,-0.59,8.83,0.66,-2.92,39.75,-4.91,2.63,6.39,3.47,-1.35,-2.58
-6,-3,38,43,-330,3959,-0.17,-0.55,8.18,0.43,-3.30,39.59,-4.91,2.62,6.36,3.48,-1.57,-2.52
5,-18,-53,-169,-386,3874,-0.13,-0.61,7.04,-1.69,-3.86,38.74,-4.93,2.61,6.33,3.29,-1.30,-1.53
-2,-23,-84,-77,-298,3819,-0.13,-0.69,5.82,-0.77,-2.98,38.19,-4.92,2.60,6.31,3.40,-1.18,-1.03
-145,-126,-242,162,-97,3928,-1.00,-1.39,3.76,1.62,-0.97,39.28,-4.91,2.58,6.29,6.11,0.81,0.70
-185,-187,-320,93,-46,4022,-2.03,-2.39,1.43,0.93,-0.46,40.22,-4.91,2.56,6.29,7.12,2.19,1.81
-206,-152,-585,-338,-131,3990,-3.08,-3.08,-2.28,-3.38,-1.31,39.90,-4.91,2.55,6.29,7.82,1.82,4.76
-126,-138,-668,-357,50,3839,-3.54,-3.61,-6.13,-3.57,0.50,38.39,-4.90,2.55,6.32,6.61,1.76,6.20
-10,-25,-1019,-523,194,3863,-3.25,-3.40,-11.73,-5.23,1.94,38.63,-4.90,2.54,6.36,4.55,-0.21,10.24
4,-33,-1069,-542,-119,3909,-2.90,-3.26,-17.08,-5.42,-1.19,39.09,-4.91,2.53,6.43,4.20,-0.12,11.68
42,-45,-634,-330,-1641,3430,-2.35,-3.21,-19.24,-3.30,-16.41,34.30,-4.94,2.52,6.51,3.40,0.08,8.40
51,-55,-203,588,-1277,4114,-1.81,-3.23,-18.55,5.88,-12.77,41.14,-4.96,2.49,6.58,3.09,0.27,4.61
10,-4,-27,27,-754,4023,-1.56,-2.93,-16.86,0.27,-7.54,40.23,-4.99,2.46,6.65,3.72,-0.68,2.79
7,17,-39,-45,-436,4077,-1.37,-2.53,-15.41,-0.45,-4.36,40.77,-5.01,2.43,6.71,3.71,-1.14,2.61
-10,11,-187,-118,-292,3895,-1.29,-2.21,-15.01,-1.18,-2.92,38.95,-5.00,2.40,6.77,3.97,-1.13,3.78
-17,-5,-200,-211,-513,3715,-1.26,-2.02,-14.73,-2.11,-5.13,37.15,-5.03,2.39,6.82,4.10,-0.91,3.84
0,-10,-99,174,-676,3851,-1.14,-1.88,-13.86,1.74,-6.76,38.51,-5.05,2.37,6.88,3.78,-0.86,2.81
2,-17,-55,70,-565,3860,-1.01,-1.80,-12.81,0.70,-5.65,38.60,-5.07,2.34,6.93,3.72,-0.75,2.23
17,-16,-32,-30,-404,3870,-0.81,-1.71,-11.73,-0.30,-4.04,38.70,-5.08,2.32,6.98,3.41,-0.78,1.83
20,-16,-34,-26,-432,3878,-0.60,-1.64,-10.76,-0.26,-4.32,38.78,-5.09,2.29,7.02,3.30,-0.78,1.65
21,2,-57,79,-572,3938,-0.42,-1.46,-10.03,0.79,-5.72,39.38,-5.11,2.27,7.06,3.23,-1.13,1.71
8,-5,-67,-40,-503,4041,-0.33,-1.35,-9.44,-0.40,-5.03,40.41,-5.13,2.25,7.10,3.43,-1.04,1.68
-20,-3,-26,-260,-444,3941,-0.41,-1.23,-8.65,-2.60,-4.44,39.41,-5.14,2.25,7.13,3.95,-1.11,1.17
-16,2,-8,-214,-480,3922,-0.47,-1.10,-7.84,-2.14,-4.80,39.22,-5.16,2.25,7.16,3.91,-1.24,0.86
-10,4,79,-51,-632,3829,-0.48,-0.96,-6.57,-0.51,-6.32,38.29,-5.18,2.24,7.19,3.83,-1.31,-0.12
-10,5,114,-61,-603,3836,-0.50,-0.84,-5.22,-0.61,-6.03,38.36,-5.20,2.23,7.21,3.85,-1.36,-0.67
2,7,277,-43,-637,3900,-0.44,-0.71,-3.01,-0.43,-6.37,39.00,-5.22,2.22,7.22,3.63,-1.43,-2.48
5,-1,339,36,-544,3959,-0.36,-0.64,-0.64,0.36,-5.44,39.59,-5.23,2.20,7.23,3.57,-1.31,-3.46
10,18,471,-88,-588,3948,-0.26,-0.47,2.30,-0.88,-5.88,39.48,-5.25,2.20,7.22,3.46,-1.68,-5.14
13,6,478,-32,-492,3877,-0.16,-0.39,4.98,-0.32,-4.92,38.77,-5.27,2.19,7.20,3.39,-1.50,-5.71
-1,17,497,-113,-527,3978,-0.15,-0.24,7.52,-1.13,-5.27,39.78,-5.28,2.18,7.17,3.63,-1.73,-6.35
0,14,473,-62,-487,3879,-0.13,-0.13,9.65,-0.62,-4.87,38.79,-5.30,2.18,7.13,3.62,-1.71,-6.55
-18,-10,461,44,-244,3993,-0.23,-0.18,11.50,0.44,-2.44,39.93,-5.29,2.16,7.08,3.95,-1.28,-6.80
-26,-8,480,-190,-280,3891,-0.37,-0.21,13.28,-1.90,-2.80,38.91,-5.27,2.18,7.03,4.12,-1.31,-7.30
0,13,426,-275,-270,3797,-0.33,-0.11,14.55,-2.75,-2.70,37.97,-5.26,2.20,6.97,3.66,-1.71,-7.08
-3,32,456,-122,-360,3994,-0.31,0.09,15.87,-1.22,-3.60,39.94,-5.25,2.19,6.91,3.70,-2.10,-7.58
2,19,479,83,-323,4032,-0.27,0.20,17.21,0.83,-3.23,40.32,-5.25,2.17,6.84,3.60,-1.90,-8.02
-17,5,459,-85,-492,3757,-0.35,0.21,18.29,-0.85,-4.92,37.57,-5.26,2.18,6.77,3.96,-1.67,-8.06
-20,8,453,-118,-229,3882,-0.43,0.24,19.22,-1.18,-2.29,38.82,-5.25,2.18,6.69,4.02,-1.73,-8.18
-16,-7,435,-95,-275,3933,-0.49,0.17,19.95,-0.95,-2.75,39.33,-5.23,2.18,6.61,3.96,-1.46,-8.16
4,1,358,-61,-443,3844,-0.42,0.16,20.14,-0.61,-4.43,38.44,-5.24,2.17,6.53,3.61,-1.58,-7.54
1,-2,348,41,-424,3884,-0.37,0.13,20.25,0.41,-4.24,38.84,-5.25,2.16,6.45,3.65,-1.52,-7.46
-8,16,358,-113,-420,3861,-0.38,0.22,20.41,-1.13,-4.20,38.61,-5.26,2.16,6.37,3.81,-1.85,-7.57
-4,6,377,-142,-447,3899,-0.37,0.23,20.67,-1.42,-4.47,38.99,-5.28,2.17,6.29,3.75,-1.69,-7.77
3,-3,338,-141,-410,3983,-0.31,0.19,20.66,-1.41,-4.10,39.83,-5.29,2.17,6.21,3.62,-1.53,-7.44
-1,-3,316,-151,-412,3803,-0.29,0.15,20.52,-1.51,-4.12,38.03,-5.31,2.18,6.13,3.69,-1.52,-7.22
-5,6,304,-129,-407,3951,-0.29,0.17,20.33,-1.29,-4.07,39.51,-5.32,2.18,6.05,3.77,-1.68,-7.07
-1,11,306,-156,-425,3875,-0.27,0.22,20.16,-1.56,-4.25,38.75,-5.34,2.19,5.97,3.71,-1.79,-7.05
-10,6,316,-228,-423,3839,-0.30,0.24,20.07,-2.28,-4.23,38.39,-5.35,2.22,5.89,3.88,-1.72,-7.11
3,27,331,-64,-424,3908,-0.25,0.38,20.08,-0.64,-4.24,39.08,-5.36,2.21,5.81,3.65,-2.12,-7.23
-9,1,403,-130,-467,3804,-0.28,0.35,20.53,-1.30,-4.67,38.04,-5.37,2.22,5.73,3.87,-1.67,-7.92
-10,2,431,-60,-413,3917,-0.31,0.32,21.11,-0.60,-4.13,39.17,-5.38,2.21,5.64,3.90,-1.68,-8.26
1,17,478,-73,-518,3826,-0.28,0.40,21.91,-0.73,-5.18,38.26,-5.39,2.21,5.56,3.71,-1.96,-8.80
-11,5,474,24,-625,3913,-0.32,0.39,22.61,0.24,-6.25,39.13,-5.41,2.21,5.47,3.94,-1.75,-8.89
-7,15,472,-145,-486,3879,-0.33,0.44,23.23,-1.45,-4.86,38.79,-5.42,2.22,5.37,3.88,-1.94,-8.99
-12,9,468,-48,-334,3975,-0.37,0.45,23.76,-0.48,-3.34,39.75,-5.41,2.21,5.28,3.98,-1.84,-9.05
-16,18,407,-77,-397,3928,-0.43,0.52,23.87,-0.77,-3.97,39.28,-5.42,2.21,5.18,4.07,-2.01,-8.54
-11,11,398,5,-451,3936,-0.45,0.53,23.91,0.05,-4.51,39.36,-5.42,2.20,5.09,3.99,-1.89,-8.46
2,17,345,-36,-535,3910,-0.40,0.58,23.62,-0.36,-5.35,39.10,-5.44,2.20,5.00,3.76,-2.01,-7.95
3,1,331,-2,-529,3919,-0.34,0.53,23.28,-0.02,-5.29,39.19,-5.45,2.20,4.90,3.73,-1.72,-7.76
-2,6,348,-38,-527,3836,-0.32,0.51,23.08,-0.38,-5.27,38.36,-5.46,2.20,4.81,3.82,-1.80,-7.86
0,-2,368,40,-575,3919,-0.28,0.45,23.01,0.40,-5.75,39.19,-5.47,2.20,4.72,3.78,-1.65,-8.01
3,-1,423,52,-571,3965,-0.24,0.40,23.29,0.52,-5.71,39.65,-5.48,2.20,4.63,3.72,-1.64,-8.52
-5,-2,425,-128,-621,3835,-0.24,0.35,23.56,-1.28,-6.21,38.35,-5.50,2.21,4.54,3.87,-1.62,-8.58
11,19,439,-7,-430,4003,-0.15,0.43,23.88,-0.07,-4.30,40.03,-5.50,2.20,4.44,3.57,-1.99,-8.75
3,10,432,-128,-420,3903,-0.12,0.45,24.12,-1.28,-4.20,39.03,-5.51,2.20,4.35,3.71,-1.85,-8.73
-12,9,409,-174,-359,3780,-0.18,0.46,24.21,-1.74,-3.59,37.80,-5.50,2.23,4.25,3.98,-1.85,-8.54
-13,-7,394,18,-248,4101,-0.24,0.37,24.19,0.18,-2.48,41.01,-5.49,2.23,4.15,4.00,-1.55,-8.40
-8,-1,393,81,-473,4020,-0.27,0.33,24.17,0.81,-4.73,40.20,-5.49,2.22,4.06,3.93,-1.64,-8.38
-13,3,400,-117,-569,3750,-0.32,0.31,24.19,-1.17,-5.69,37.50,-5.51,2.23,3.96,4.04,-1.70,-8.43
-6,0,453,10,-581,3832,-0.32,0.28,24.54,0.10,-5.81,38.32,-5.52,2.23,3.87,3.93,-1.64,-8.94
-3,6,457,-68,-511,3994,-0.31,0.29,24.87,-0.68,-5.11,39.94,-5.53,2.23,3.77,3.88,-1.75,-9.03
-1,12,453,-110,-206,3925,-0.28,0.33,25.15,-1.10,-2.06,39.25,-5.51,2.23,3.67,3.83,-1.87,-9.04
-6,23,461,-124,-182,3820,-0.29,0.44,25.44,-1.24,-1.82,38.20,-5.49,2.24,3.56,3.90,-2.10,-9.15
-4,8,363,-239,-223,3934,-0.29,0.44,25.11,-2.39,-2.23,39.34,-5.47,2.26,3.46,3.85,-1.86,-8.25
-3,11,319,-246,-258,3853,-0.28,0.47,24.55,-2.46,-2.58,38.53,-5.46,2.29,3.37,3.82,-1.93,-7.76
-3,-1,217,-188,-227,3864,-0.27,0.41,23.42,-1.88,-2.27,38.64,-5.44,2.30,3.27,3.81,-1.72,-6.67
-1,9,223,-173,-269,3891,-0.25,0.43,22.44,-1.73,-2.69,38.91,-5.42,2.31,3.18,3.75,-1.90,-6.53
1,0,190,-170,-310,3885,-0.22,0.39,21.35,-1.70,-3.10,38.85,-5.39,2.33,3.10,3.69,-1.74,-6.03
0,7,191,-159,-415,3875,-0.19,0.39,20.38,-1.59,-4.15,38.75,-5.41,2.34,3.02,3.72,-1.87,-5.85
6,3,160,-79,-373,3788,-0.14,0.37,19.32,-0.79,-3.73,37.88,-5.41,2.33,2.94,3.60,-1.79,-5.38
4,0,208,-105,-516,3879,-0.10,0.33,18.66,-1.05,-5.16,38.79,-5.43,2.33,2.87,3.63,-1.73,-5.65
-4,-8,229,142,-246,3828,-0.11,0.25,18.19,1.42,-2.46,38.28,-5.42,2.32,2.79,3.76,-1.56,-5.73
-7,-10,208,65,-332,3955,-0.15,0.16,17.64,0.65,-3.32,39.55,-5.41,2.31,2.72,3.82,-1.49,-5.44
0,-6,170,-47,-442,3900,-0.13,0.11,16.91,-0.47,-4.42,39.00,-5.42,2.30,2.66,3.70,-1.53,-4.98
-2,-5,178,-64,-453,3889,-0.13,0.07,16.31,-0.64,-4.53,38.89,-5.43,2.30,2.59,3.74,-1.53,-4.92
-6,-6,227,-54,-393,3914,-0.15,0.03,16.06,-0.54,-3.93,39.14,-5.43,2.28,2.53,3.82,-1.49,-5.28
-4,4,224,-119,-426,3878,-0.16,0.05,15.82,-1.19,-4.26,38.78,-5.44,2.28,2.46,3.79,-1.67,-5.21
-7,12,246,-20,-406,3839,-0.19,0.12,15.74,-0.20,-4.06,38.39,-5.45,2.27,2.40,3.86,-1.82,-5.37
-5,7,234,-41,-415,3959,-0.20,0.15,15.59,-0.41,-4.15,39.59,-5.45,2.26,2.34,3.83,-1.74,-5.24
0,2,171,-31,-339,3977,-0.18,0.14,15.08,-0.31,-3.39,39.77,-5.44,2.25,2.28,3.73,-1.64,-4.60
0,4,164,-202,-266,3872,-0.16,0.15,14.57,-2.02,-2.66,38.72,-5.43,2.26,2.22,3.71,-1.69,-4.44
2,18,246,-189,-366,3910,-0.13,0.25,14.61,-1.89,-3.66,39.10,-5.42,2.29,2.16,3.67,-1.97,-5.14
-3,5,254,-45,-402,3861,-0.14,0.25,14.70,-0.45,-4.02,38.61,-5.43,2.27,2.11,3.76,-1.75,-5.22
-5,-4,263,-269,-755,3854,-0.16,0.20,14.83,-2.69,-7.55,38.54,-5.44,2.29,2.05,3.81,-1.59,-5.31
3,12,251,-210,-690,3866,-0.12,0.26,14.88,-2.10,-6.90,38.66,-5.46,2.30,1.99,3.67,-1.88,-5.21
-9,0,274,-7,-487,4033,-0.16,0.23,15.07,-0.07,-4.87,40.33,-5.47,2.29,1.93,3.89,-1.67,-5.44
1,5,278,15,-590,3769,-0.14,0.24,15.25,0.15,-5.90,37.69,-5.48,2.28,1.87,3.73,-1.75,-5.50
-5,5,259,53,-607,3873,-0.16,0.25,15.31,0.53,-6.07,38.73,-5.49,2.28,1.81,3.84,-1.75,-5.35
-2,-7,254,143,-422,4000,-0.15,0.18,15.33,1.43,-4.22,40.00,-5.49,2.27,1.75,3.79,-1.52,-5.30
-4,10,338,-57,-538,3916,-0.16,0.22,15.86,-0.57,-5.38,39.16,-5.50,2.26,1.68,3.83,-1.82,-6.11
1,8,360,-4,-494,3907,-0.14,0.25,16.47,-0.04,-4.94,39.07,-5.51,2.26,1.62,3.75,-1.79,-6.41
-6,1,352,-130,-375,3910,-0.16,0.23,16.97,-1.30,-3.75,39.10,-5.51,2.25,1.55,3.87,-1.65,-6.43
-5,12,372,-148,-385,3857,-0.18,0.28,17.54,-1.48,-3.85,38.57,-5.53,2.25,1.48,3.87,-1.86,-6.70
-11,4,418,-151,-536,3922,-0.23,0.28,18.34,-1.51,-5.36,39.22,-5.54,2.26,1.41,4.00,-1.73,-7.24
-4,8,436,-163,-532,3855,-0.23,0.30,19.16,-1.63,-5.32,38.55,-5.56,2.27,1.34,3.89,-1.81,-7.54
-11,11,501,-68,-512,3824,-0.27,0.33,20.30,-0.68,-5.12,38.24,-5.57,2.26,1.26,4.03,-1.87,-8.30
-7,19,517,-76,-475,3949,-0.29,0.42,21.43,-0.76,-4.75,39.49,-5.58,2.26,1.17,3.98,-2.03,-8.65
2,-4,528,-142,-451,3929,-0.25,0.35,22.50,-1.42,-4.51,39.29,-5.60,2.27,1.08,3.82,-1.62,-8.94
1,15,530,-109,-487,3729,-0.22,0.41,23.49,-1.09,-4.87,37.29,-5.61,2.27,0.99,3.84,-1.97,-9.13
-15,11,578,-102,-422,3918,-0.29,0.43,24.66,-1.02,-4.22,39.18,-5.62,2.27,0.89,4.14,-1.91,-9.76
-9,16,587,-157,-451,3863,-0.31,0.49,25.78,-1.57,-4.51,38.63,-5.64,2.28,0.79,4.05,-2.02,-10.04
2,13,573,-7,-485,3863,-0.27,0.52,26.70,-0.07,-4.85,38.63,-5.64,2.28,0.68,3.86,-1.98,-10.08
-5,15,567,-68,-405,3940,-0.27,0.56,27.48,-0.68,-4.05,39.40,-5.64,2.28,0.57,3.98,-2.02,-10.17
-2,12,513,-71,-444,3911,-0.26,0.58,27.87,-0.71,-4.44,39.11,-5.65,2.27,0.46,3.93,-1.97,-9.78
-7,10,493,-71,-428,3908,-0.27,0.58,28.09,-0.71,-4.28,39.08,-5.65,2.27,0.35,4.02,-1.94,-9.64
-9,15,416,-67,-430,3803,-0.30,0.61,27.82,-0.67,-4.30,38.03,-5.66,2.27,0.24,4.07,-2.03,-8.93
-3,14,409,-84,-442,3941,-0.29,0.64,27.53,-0.84,-4.42,39.41,-5.67,2.27,0.13,3.97,-2.02,-8.80
-12,6,401,19,-273,3860,-0.33,0.61,27.22,0.19,-2.73,38.60,-5.66,2.26,0.03,4.13,-1.88,-8.67
-6,11,392,-40,-365,3927,-0.34,0.62,26.89,-0.40,-3.65,39.27,-5.65,2.26,-0.08,4.02,-1.96,-8.52
2,3,356,-13,-361,3916,-0.29,0.57,26.37,-0.13,-3.61,39.16,-5.64,2.25,-0.19,3.87,-1.81,-8.10
0,5,332,-21,-336,3889,-0.26,0.55,25.76,-0.21,-3.36,38.89,-5.63,2.25,-0.29,3.88,-1.83,-7.77
-2,-14,290,108,-317,3972,-0.25,0.41,24.95,1.08,-3.17,39.72,-5.63,2.24,-0.39,3.91,-1.46,-7.26
-3,8,253,-8,-328,3752,-0.24,0.41,24.00,-0.08,-3.28,37.52,-5.62,2.24,-0.48,3.92,-1.83,-6.75
5,13,174,-37,-358,3936,-0.19,0.45,22.66,-0.37,-3.58,39.36,-5.61,2.23,-0.57,3.76,-1.92,-5.82
2,1,162,-22,-375,3916,-0.16,0.41,21.39,-0.22,-3.75,39.16,-5.61,2.22,-0.66,3.80,-1.70,-5.46
1,-5,100,-1,-388,3951,-0.13,0.34,19.86,-0.01,-3.88,39.51,-5.60,2.21,-0.74,3.81,-1.57,-4.64
-3,-8,91,13,-435,3883,-0.14,0.26,18.43,0.13,-4.35,38.83,-5.61,2.20,-0.81,3.88,-1.48,-4.28
-2,5,79,-71,-431,3916,-0.14,0.26,17.07,-0.71,-4.31,39.16,-5.61,2.19,-0.88,3.86,-1.70,-3.92
-2,-1,72,-48,-423,3921,-0.14,0.23,15.80,-0.48,-4.23,39.21,-5.62,2.18,-0.94,3.87,-1.58,-3.61
-4,-2,60,-50,-450,3881,-0.15,0.20,14.58,-0.50,-4.50,38.81,-5.63,2.18,-1.00,3.91,-1.55,-3.27
-2,3,73,-61,-473,3878,-0.14,0.19,13.57,-0.61,-4.73,38.78,-5.64,2.17,-1.05,3.88,-1.63,-3.18
-2,-4,143,-34,-476,3904,-0.14,0.15,13.09,-0.34,-4.76,39.04,-5.65,2.16,-1.10,3.89,-1.49,-3.68
-3,-6,158,-42,-514,3865,-0.15,0.10,12.74,-0.42,-5.14,38.65,-5.66,2.15,-1.16,3.92,-1.43,-3.73
-4,-1,193,30,-563,3884,-0.16,0.08,12.64,0.30,-5.63,38.84,-5.67,2.15,-1.20,3.94,-1.51,-4.01
3,8,212,-39,-565,3903,-0.12,0.12,12.67,-0.39,-5.65,39.03,-5.69,2.14,-1.25,3.82,-1.67,-4.17
-6,-2,246,-40,-519,3927,-0.15,0.10,12.91,-0.40,-5.19,39.27,-5.70,2.14,-1.31,3.99,-1.49,-4.50
3,8,246,-52,-519,3849,-0.11,0.14,13.12,-0.52,-5.19,38.49,-5.71,2.13,-1.36,3.84,-1.67,-4.53
-8,-1,231,-55,-408,3758,-0.15,0.12,13.21,-0.55,-4.08,37.58,-5.72,2.12,-1.41,4.04,-1.50,-4.42
-4,14,217,-113,-419,3965,-0.16,0.19,13.22,-1.13,-4.19,39.65,-5.73,2.11,-1.46,3.98,-1.77,-4.30
-6,3,228,-84,-456,3900,-0.18,0.19,13.29,-0.84,-4.56,39.00,-5.74,2.10,-1.51,4.03,-1.58,-4.40
-8,6,234,-54,-407,3946,-0.21,0.21,13.38,-0.54,-4.07,39.46,-5.74,2.09,-1.57,4.07,-1.63,-4.46
-8,1,192,-81,-443,3888,-0.24,0.19,13.22,-0.81,-4.43,38.88,-5.75,2.08,-1.62,4.09,-1.54,-4.07
-7,10,195,-76,-445,3881,-0.26,0.24,13.08,-0.76,-4.45,38.81,-5.76,2.08,-1.67,4.09,-1.70,-4.07
-11,-2,170,-97,-422,3899,-0.30,0.20,12.81,-0.97,-4.22,38.99,-5.77,2.07,-1.72,4.17,-1.48,-3.80
-9,-5,162,-89,-385,3925,-0.32,0.15,12.52,-0.89,-3.85,39.25,-5.77,2.05,-1.77,4.15,-1.40,-3.67
-4,3,168,-32,-527,3868,-0.32,0.15,12.29,-0.32,-5.27,38.68,-5.78,2.05,-1.82,4.07,-1.53,-3.67
0,2,187,31,-520,3878,-0.28,0.15,12.20,0.31,-5.20,38.78,-5.79,2.04,-1.87,4.00,-1.51,-3.81
-2,-15,179,-48,-441,3885,-0.27,0.04,12.08,-0.48,-4.41,38.85,-5.80,2.03,-1.92,4.03,-1.18,-3.72
7,3,167,-75,-445,3853,-0.20,0.06,11.89,-0.75,-4.45,38.53,-5.81,2.02,-1.96,3.86,-1.48,-3.57
3,-2,174,-2,-475,3864,-0.16,0.04,11.76,-0.02,-4.75,38.64,-5.82,2.01,-2.01,3.92,-1.38,-3.61
2,-3,176,-91,-445,3861,-0.13,0.02,11.66,-0.91,-4.45,38.61,-5.83,2.00,-2.06,3.94,-1.36,-3.60
3,-2,156,-75,-380,3928,-0.10,0.00,11.44,-0.75,-3.80,39.28,-5.82,1.99,-2.10,3.91,-1.36,-3.38
4,-3,151,-40,-391,3909,-0.07,-0.02,11.22,-0.40,-3.91,39.09,-5.82,1.97,-2.15,3.88,-1.33,-3.29
1,-7,112,-20,-448,3894,-0.05,-0.06,10.78,-0.20,-4.48,38.94,-5.83,1.96,-2.19,3.93,-1.24,-2.88
-1,-2,112,-26,-471,3875,-0.05,-0.06,10.39,-0.26,-4.71,38.75,-5.84,1.95,-2.23,3.97,-1.31,-2.80
0,1,91,-62,-439,3913,-0.05,-0.05,9.90,-0.62,-4.39,39.13,-5.84,1.94,-2.27,3.95,-1.36,-2.52
-1,6,87,-57,-434,3892,-0.05,-0.01,9.44,-0.57,-4.34,38.92,-5.85,1.93,-2.31,3.98,-1.45,-2.40
-1,7,79,-85,-439,3964,-0.05,0.03,8.98,-0.85,-4.39,39.64,-5.86,1.91,-2.34,3.98,-1.47,-2.24
-1,3,85,-47,-456,3875,-0.05,0.05,8.60,-0.47,-4.56,38.75,-5.87,1.90,-2.38,3.99,-1.40,-2.21
1,-2,80,-95,-429,3870,-0.04,0.03,8.23,-0.95,-4.29,38.70,-5.88,1.89,-2.41,3.96,-1.31,-2.10
4,2,68,-81,-406,3912,-0.01,0.04,7.82,-0.81,-4.06,39.12,-5.88,1.88,-2.44,3.90,-1.37,-1.92
5,0,60,-41,-418,3918,0.02,0.04,7.40,-0.41,-4.18,39.18,-5.88,1.86,-2.47,3.87,-1.32,-1.77
4,1,52,-40,-416,3902,0.04,0.04,6.98,-0.40,-4.16,39.02,-5.89,1.85,-2.50,3.88,-1.33,-1.61
4,-1,22,-61,-400,3902,0.06,0.03,6.42,-0.61,-4.00,39.02,-5.88,1.83,-2.52,3.88,-1.28,-1.25
4,0,15,-63,-401,3903,0.08,0.03,5.87,-0.63,-4.01,39.03,-5.88,1.82,-2.54,3.87,-1.29,-1.08
3,0,-2,-60,-440,3896,0.09,0.02,5.27,-0.60,-4.40,38.96,-5.89,1.80,-2.57,3.89,-1.28,-0.82
3,0,-3,-62,-441,3906,0.10,0.02,4.72,-0.62,-4.41,39.06,-5.90,1.79,-2.58,3.89,-1.27,-0.71
1,0,-5,-58,-451,3896,0.10,0.02,4.22,-0.58,-4.51,38.96,-5.91,1.78,-2.60,3.93,-1.26,-0.59
-1,0,-6,-59,-451,3902,0.08,0.02,3.76,-0.59,-4.51,39.02,-5.92,1.76,-2.61,3.98,-1.25,-0.50
1,2,-7,-43,-467,3902,0.08,0.03,3.34,-0.43,-4.67,39.02,-5.93,1.75,-2.63,3.95,-1.28,-0.41
1,2,-9,-58,-451,3904,0.08,0.04,2.95,-0.58,-4.51,39.04,-5.94,1.74,-2.64,3.96,-1.27,-0.31
5,5,-14,-55,-498,3916,0.10,0.06,2.57,-0.55,-4.98,39.16,-5.95,1.73,-2.65,3.89,-1.33,-0.20
1,5,-12,-54,-454,3903,0.10,0.09,2.24,-0.54,-4.54,39.03,-5.96,1.71,-2.66,3.97,-1.33,-0.15
0,7,-47,-18,-521,3930,0.09,0.12,1.73,-0.18,-5.21,39.30,-5.98,1.70,-2.66,4.00,-1.36,0.24
-2,2,-46,-47,-467,3919,0.07,0.12,1.28,-0.47,-4.67,39.19,-5.99,1.69,-2.67,4.04,-1.27,0.32
1,1,-41,-43,-467,3866,0.06,0.12,0.90,-0.43,-4.67,38.66,-6.00,1.68,-2.67,4.00,-1.24,0.35
5,3,-43,-57,-456,3911,0.09,0.12,0.55,-0.57,-4.56,39.11,-6.01,1.66,-2.67,3.93,-1.27,0.44
7,4,-32,-53,-447,3905,0.12,0.13,0.30,-0.53,-4.47,39.05,-6.02,1.65,-2.67,3.89,-1.28,0.39
4,1,-33,-58,-416,3902,0.13,0.13,0.07,-0.58,-4.16,39.02,-6.02,1.63,-2.67,3.94,-1.21,0.44
2,-1,-32,-84,-393,3906,0.13,0.11,-0.14,-0.84,-3.93,39.06,-6.01,1.62,-2.67,3.97,-1.16,0.47
4,0,-38,-64,-428,3899,0.14,0.10,-0.35,-0.64,-4.28,38.99,-6.02,1.60,-2.67,3.94,-1.17,0.57
6,0,-30,-102,-415,3902,0.17,0.09,-0.50,-1.02,-4.15,39.02,-6.02,1.58,-2.67,3.90,-1.15,0.53
6,0,-24,-103,-404,3900,0.19,0.08,-0.60,-1.03,-4.04,39.00,-6.01,1.57,-2.67,3.88,-1.14,0.49
1,-1,-8,-69,-441,3902,0.17,0.07,-0.59,-0.69,-4.41,39.02,-6.02,1.56,-2.67,3.98,-1.11,0.36
1,-2,-7,-71,-434,3902,0.16,0.05,-0.57,-0.71,-4.34,39.02,-6.03,1.54,-2.66,3.99,-1.08,0.34
1,-1,-4,-50,-464,3894,0.15,0.04,-0.54,-0.50,-4.64,38.94,-6.04,1.53,-2.66,4.00,-1.08,0.31
0,-1,-3,-53,-449,3892,0.14,0.03,-0.50,-0.53,-4.49,38.92,-6.05,1.51,-2.66,4.03,-1.07,0.30
1,-2,-5,-53,-435,3906,0.13,0.01,-0.48,-0.53,-4.35,39.06,-6.06,1.50,-2.66,4.02,-1.04,0.31
1,-1,-5,-57,-438,3894,0.12,0.00,-0.46,-0.57,-4.38,38.94,-6.06,1.48,-2.65,4.03,-1.04,0.31
2,-4,-23,1,-484,3894,0.12,-0.02,-0.56,0.01,-4.84,38.94,-6.07,1.46,-2.65,4.01,-0.97,0.48
2,-3,-39,-29,-475,3910,0.12,-0.04,-0.74,-0.29,-4.75,39.10,-6.09,1.45,-2.65,4.02,-0.97,0.65
3,2,-68,-22,-472,3909,0.13,-0.02,-1.08,-0.22,-4.72,39.09,-6.10,1.43,-2.64,4.01,-1.05,0.96
2,0,-73,-36,-440,3912,0.13,-0.02,-1.42,-0.36,-4.40,39.12,-6.10,1.42,-2.64,4.03,-1.01,1.06
1,2,-40,-99,-385,3897,0.12,-0.00,-1.52,-0.99,-3.85,38.97,-6.08,1.42,-2.63,4.04,-1.05,0.80
1,1,-31,-71,-409,3893,0.12,0.00,-1.56,-0.71,-4.09,38.93,-6.08,1.40,-2.63,4.04,-1.02,0.73
4,1,-30,-38,-478,3906,0.13,0.01,-1.59,-0.38,-4.78,39.06,-6.09,1.39,-2.62,3.99,-1.01,0.73
4,0,-34,-44,-457,3915,0.14,0.01,-1.63,-0.44,-4.57,39.15,-6.10,1.37,-2.61,3.99,-0.99,0.77
4,-1,-53,-44,-455,3906,0.15,0.00,-1.79,-0.44,-4.55,39.06,-6.11,1.35,-2.61,4.00,-0.96,0.96
3,1,-59,-64,-473,3901,0.15,0.01,-1.97,-0.64,-4.73,39.01,-6.13,1.35,-2.60,4.02,-0.99,1.05
1,1,-56,-66,-436,3903,0.14,0.01,-2.12,-0.66,-4.36,39.03,-6.14,1.33,-2.59,4.07,-0.98,1.05
2,1,-69,-74,-424,3924,0.14,0.02,-2.33,-0.74,-4.24,39.24,-6.14,1.31,-2.58,4.05,-0.97,1.20
1,5,-77,-55,-427,3893,0.13,0.05,-2.56,-0.55,-4.27,38.93,-6.14,1.29,-2.57,4.07,-1.03,1.31
-2,2,-77,-45,-427,3900,0.11,0.05,-2.78,-0.45,-4.27,39.00,-6.15,1.27,-2.56,4.14,-0.97,1.35
0,0,-143,-42,-514,3886,0.10,0.05,-3.37,-0.42,-5.14,38.86,-6.16,1.26,-2.54,4.12,-0.93,2.02
2,5,-144,-44,-510,3877,0.10,0.07,-3.91,-0.44,-5.10,38.77,-6.18,1.25,-2.53,4.09,-1.02,2.13
0,1,-139,-42,-467,3900,0.09,0.07,-4.37,-0.42,-4.67,39.00,-6.19,1.24,-2.51,4.14,-0.94,2.18
1,0,-146,-35,-452,3910,0.09,0.07,-4.82,-0.35,-4.52,39.10,-6.20,1.22,-2.49,4.13,-0.91,2.32
3,-1,-171,-29,-411,3901,0.10,0.05,-5.38,-0.29,-4.11,39.01,-6.20,1.20,-2.47,4.09,-0.87,2.64
0,-2,-164,-40,-409,3869,0.09,0.03,-5.85,-0.40,-4.09,38.69,-6.19,1.18,-2.45,4.14,-0.84,2.67
2,0,-172,-59,-452,3922,0.09,0.03,-6.31,-0.59,-4.52,39.22,-6.21,1.17,-2.42,4.11,-0.86,2.82
-3,-19,-177,-220,-546,3862,0.06,-0.09,-6.76,-2.20,-5.46,38.62,-6.22,1.18,-2.39,4.21,-0.51,2.95
5,-22,-302,-193,-515,3896,0.09,-0.21,-7.93,-1.93,-5.15,38.96,-6.23,1.19,-2.36,4.08,-0.42,4.23
17,-11,-340,-215,-516,3865,0.18,-0.26,-9.21,-2.15,-5.16,38.65,-6.24,1.20,-2.33,3.85,-0.60,4.79
8,-19,-374,-57,-318,3978,0.21,-0.35,-10.57,-0.57,-3.18,39.78,-6.22,1.19,-2.28,3.98,-0.43,5.34
5,-2,-367,9,-287,3840,0.22,-0.33,-11.75,0.09,-2.87,38.40,-6.21,1.17,-2.24,4.02,-0.71,5.50
3,-10,-398,-18,-428,3915,0.22,-0.35,-13.00,-0.18,-4.28,39.15,-6.21,1.15,-2.19,4.06,-0.55,6.00
7,-5,-400,-75,-441,3930,0.24,-0.35,-14.14,-0.75,-4.41,39.30,-6.23,1.13,-2.13,3.99,-0.63,6.23
4,-13,-414,-50,-404,3954,0.24,-0.39,-15.25,-0.50,-4.04,39.54,-6.21,1.11,-2.07,4.04,-0.46,6.55
0,1,-426,-104,-464,3818,0.22,-0.35,-16.33,-1.04,-4.64,38.18,-6.23,1.11,-2.00,4.12,-0.72,6.86
-2,-13,-414,-58,-445,3908,0.18,-0.39,-17.22,-0.58,-4.45,39.08,-6.24,1.09,-1.94,4.18,-0.45,6.92
-4,-11,-454,-49,-518,3886,0.14,-0.42,-18.27,-0.49,-5.18,38.86,-6.26,1.08,-1.86,4.24,-0.47,7.45
11,-11,-467,-74,-448,3877,0.19,-0.45,-19.29,-0.74,-4.48,38.77,-6.28,1.07,-1.79,3.98,-0.45,7.75
8,-8,-481,-77,-511,3922,0.22,-0.45,-20.29,-0.77,-5.11,39.22,-6.30,1.06,-1.71,4.03,-0.49,8.06
8,-18,-491,17,-467,3992,0.25,-0.51,-21.26,0.17,-4.67,39.92,-6.31,1.03,-1.62,4.02,-0.28,8.32
14,-10,-491,-41,-451,3914,0.31,-0.52,-22.13,-0.41,-4.51,39.14,-6.32,1.00,-1.53,3.91,-0.40,8.48
9,-9,-489,-54,-375,3929,0.33,-0.53,-22.90,-0.54,-3.75,39.29,-6.30,0.98,-1.44,3.98,-0.40,8.60
9,-18,-491,-27,-387,3859,0.35,-0.58,-23.60,-0.27,-3.87,38.59,-6.29,0.96,-1.35,3.96,-0.22,8.75
10,-13,-489,-81,-412,3891,0.38,-0.60,-24.23,-0.81,-4.12,38.91,-6.27,0.96,-1.25,3.93,-0.29,8.84
4,-17,-494,-56,-418,3839,0.37,-0.65,-24.82,-0.56,-4.18,38.39,-6.26,0.93,-1.16,4.03,-0.19,8.99
11,-9,-489,-57,-404,3876,0.40,-0.64,-25.32,-0.57,-4.04,38.76,-6.25,0.91,-1.05,3.89,-0.32,9.03
15,-13,-456,-1,-368,3875,0.45,-0.65,-25.57,-0.01,-3.68,38.75,-6.23,0.88,-0.95,3.79,-0.23,8.79
17,-2,-414,11,-408,3856,0.51,-0.60,-25.54,0.11,-4.08,38.56,-6.23,0.85,-0.85,3.74,-0.41,8.42
9,-2,-380,-15,-400,3932,0.51,-0.55,-25.30,-0.15,-4.00,39.32,-6.22,0.82,-0.75,3.86,-0.41,8.08
10,3,-300,-58,-378,3983,0.52,-0.48,-24.60,-0.58,-3.78,39.83,-6.20,0.81,-0.65,3.83,-0.51,7.26
-1,-12,-282,-43,-372,3926,0.46,-0.50,-23.86,-0.43,-3.72,39.26,-6.18,0.79,-0.56,4.03,-0.23,6.96
2,-3,-242,-80,-469,3896,0.43,-0.47,-22.95,-0.80,-4.69,38.96,-6.20,0.79,-0.47,4.00,-0.40,6.44
0,0,-224,-118,-495,3895,0.39,-0.42,-22.02,-1.18,-4.95,38.95,-6.21,0.79,-0.38,4.05,-0.46,6.11
0,-5,-184,-61,-487,3888,0.35,-0.41,-20.94,-0.61,-4.87,38.88,-6.23,0.78,-0.30,4.08,-0.38,5.55
2,-1,-182,-85,-472,3892,0.33,-0.38,-19.96,-0.85,-4.72,38.92,-6.24,0.78,-0.22,4.06,-0.46,5.34
3,-3,-170,-86,-402,3930,0.31,-0.36,-19.00,-0.86,-4.02,39.30,-6.23,0.79,-0.14,4.04,-0.43,5.05
3,-1,-163,-51,-454,3852,0.30,-0.33,-18.09,-0.51,-4.54,38.52,-6.25,0.78,-0.07,4.06,-0.47,4.81
0,0,-147,-63,-442,3896,0.27,-0.30,-17.18,-0.63,-4.42,38.96,-6.27,0.78,-0.00,4.13,-0.50,4.50
2,-4,-147,-58,-431,3911,0.25,-0.29,-16.36,-0.58,-4.31,39.11,-6.27,0.79,0.06,4.10,-0.44,4.34
2,-1,-155,-53,-412,3909,0.24,-0.27,-15.67,-0.53,-4.12,39.09,-6.25,0.78,0.12,4.09,-0.49,4.27
5,1,-158,-21,-434,3881,0.25,-0.23,-15.07,-0.21,-4.34,38.81,-6.26,0.75,0.18,4.04,-0.52,4.17
6,-13,-182,-24,-471,3965,0.26,-0.29,-14.67,-0.24,-4.71,39.65,-6.27,0.73,0.24,4.03,-0.25,4.30
9,9,-184,-86,-546,3760,0.29,-0.21,-14.33,-0.86,-5.46,37.60,-6.29,0.73,0.30,3.98,-0.65,4.24
1,1,-92,-81,-393,3902,0.27,-0.18,-13.45,-0.81,-3.93,39.02,-6.27,0.74,0.35,4.12,-0.52,3.29
1,-4,-108,-73,-314,3959,0.24,-0.19,-12.77,-0.73,-3.14,39.59,-6.26,0.73,0.40,4.11,-0.43,3.29
6,-19,-219,-64,-441,3933,0.26,-0.28,-12.83,-0.64,-4.41,39.33,-6.27,0.74,0.45,4.03,-0.15,4.24
3,-15,-230,-9,-394,3912,0.25,-0.35,-12.95,-0.09,-3.94,39.12,-6.25,0.72,0.51,4.08,-0.19,4.35
8,-4,-234,-92,-456,3873,0.27,-0.34,-13.08,-0.92,-4.56,38.73,-6.26,0.73,0.56,3.99,-0.38,4.41
4,-2,-219,-94,-439,3929,0.27,-0.31,-13.11,-0.94,-4.39,39.29,-6.27,0.74,0.61,4.06,-0.43,4.28
3,-8,-225,-59,-425,3861,0.26,-0.33,-13.17,-0.59,-4.25,38.61,-6.27,0.75,0.66,4.08,-0.33,4.34
2,-5,-225,-80,-432,3896,0.25,-0.33,-13.22,-0.80,-4.32,38.96,-6.27,0.76,0.71,4.10,-0.39,4.35
3,-12,-231,-55,-384,3910,0.24,-0.37,-13.31,-0.55,-3.84,39.10,-6.25,0.76,0.77,4.08,-0.25,4.41
3,-12,-240,-38,-428,3837,0.24,-0.41,-13.44,-0.38,-4.28,38.37,-6.26,0.73,0.82,4.08,-0.23,4.51
4,-12,-295,-144,-388,3916,0.24,-0.44,-13.90,-1.44,-3.88,39.16,-6.25,0.74,0.87,4.06,-0.22,5.06
6,-14,-312,-146,-422,3896,0.25,-0.48,-14.41,-1.46,-4.22,38.96,-6.25,0.75,0.93,4.02,-0.18,5.29
7,-11,-341,-74,-434,3918,0.27,-0.50,-15.05,-0.74,-4.34,39.18,-6.26,0.76,0.99,4.00,-0.23,5.66
4,-12,-352,-97,-407,3902,0.26,-0.52,-15.69,-0.97,-4.07,39.02,-6.25,0.77,1.05,4.05,-0.21,5.87
0,-15,-356,-69,-439,3884,0.24,-0.56,-16.30,-0.69,-4.39,38.84,-6.26,0.77,1.12,4.13,-0.15,6.01
13,-16,-357,-42,-449,3965,0.29,-0.60,-16.84,-0.42,-4.49,39.65,-6.27,0.75,1.19,3.90,-0.11,6.12
4,-85,-348,-30,-391,3927,0.29,-1.06,-17.28,-0.30,-3.91,39.27,-6.26,0.73,1.25,4.05,1.23,6.12
12,-48,-344,-53,-419,3797,0.33,-1.25,-17.65,-0.53,-4.19,37.97,-6.27,0.73,1.32,3.90,0.66,6.15
1,-17,-345,-44,-407,3846,0.31,-1.23,-17.99,-0.44,-4.07,38.46,-6.25,0.71,1.39,4.09,0.14,6.22
10,-8,-347,-31,-366,3921,0.34,-1.15,-18.31,-0.31,-3.66,39.21,-6.23,0.70,1.47,3.91,-0.03,6.29
0,-13,-350,-30,-403,3869,0.30,-1.12,-18.61,-0.30,-4.03,38.69,-6.22,0.67,1.54,4.08,0.06,6.37
9,-11,-359,17,-417,3936,0.33,-1.07,-18.94,0.17,-4.17,39.36,-6.21,0.64,1.61,3.92,0.03,6.50
4,-12,-381,-6,-392,3925,0.32,-1.04,-19.37,-0.06,-3.92,39.25,-6.20,0.62,1.69,4.00,0.06,6.76
5,-13,-385,-55,-438,3913,0.32,-1.01,-19.78,-0.55,-4.38,39.13,-6.21,0.62,1.77,3.99,0.07,6.87
4,-8,-374,-15,-449,3849,0.31,-0.96,-20.09,-0.15,-4.49,38.49,-6.23,0.59,1.85,4.02,-0.02,6.83
5,-7,-365,-17,-436,3890,0.31,-0.91,-20.30,-0.17,-4.36,38.90,-6.23,0.56,1.93,4.01,-0.03,6.79
8,-7,-331,-44,-423,3856,0.33,-0.86,-20.29,-0.44,-4.23,38.56,-6.24,0.57,2.01,3.95,-0.05,6.49
11,-13,-330,-26,-435,3925,0.36,-0.85,-20.28,-0.26,-4.35,39.25,-6.25,0.54,2.09,3.90,0.06,6.47
8,-11,-315,-35,-455,3942,0.37,-0.83,-20.17,-0.35,-4.55,39.42,-6.26,0.53,2.17,3.96,0.03,6.32
10,-6,-307,-34,-422,3843,0.40,-0.79,-20.03,-0.34,-4.22,38.43,-6.27,0.50,2.25,3.91,-0.05,6.22
13,-9,-340,-28,-422,3848,0.44,-0.76,-20.10,-0.28,-4.22,38.48,-6.26,0.47,2.33,3.85,0.02,6.51
16,-7,-350,-107,-364,3944,0.49,-0.73,-20.22,-1.07,-3.64,39.44,-6.25,0.47,2.41,3.77,-0.03,6.61
9,-20,-366,-46,-330,3936,0.50,-0.78,-20.43,-0.46,-3.30,39.36,-6.23,0.46,2.49,3.88,0.21,6.78
0,-18,-379,6,-395,3881,0.45,-0.81,-20.70,0.06,-3.95,38.81,-6.22,0.43,2.57,4.04,0.21,6.93
4,-17,-344,-6,-544,3871,0.43,-0.83,-20.73,-0.06,-5.44,38.71,-6.23,0.41,2.65,3.99,0.21,6.63
12,-19,-307,-53,-582,3875,0.46,-0.87,-20.53,-0.53,-5.82,38.75,-6.25,0.41,2.73,3.85,0.26,6.28
7,-4,-231,-155,-655,3882,0.45,-0.80,-19.89,-1.55,-6.55,38.82,-6.27,0.40,2.81,3.95,-0.01,5.50
3,-8,-220,-150,-579,3941,0.43,-0.77,-19.24,-1.50,-5.79,39.41,-6.28,0.40,2.89,4.03,0.04,5.28
-11,-26,-232,-36,-327,4006,0.32,-0.85,-18.73,-0.36,-3.27,40.06,-6.26,0.39,2.96,4.29,0.38,5.28
-15,-38,-241,3,-309,3994,0.19,-1.00,-18.33,0.03,-3.09,39.94,-6.24,0.38,3.04,4.39,0.64,5.27
-38,-74,-303,-19,-320,3928,-0.06,-1.35,-18.34,-0.19,-3.20,39.28,-6.22,0.36,3.11,4.85,1.38,5.79
-37,-84,-323,-81,-342,3952,-0.28,-1.73,-18.48,-0.81,-3.42,39.52,-6.21,0.36,3.18,4.90,1.68,5.98
-37,-65,-446,-227,-110,3936,-0.47,-1.95,-19.35,-2.27,-1.10,39.36,-6.20,0.35,3.26,4.95,1.43,7.19
84,110,-572,-82,-126,2917,0.08,-1.09,-20.91,-0.82,-1.26,29.17,-6.18,0.34,3.34,2.71,-1.81,8.54
78,-33,-847,-307,-178,4555,0.55,-1.18,-23.98,-3.07,-1.78,45.55,-6.16,0.34,3.43,2.65,0.64,11.46
19,-86,-904,-500,-204,3274,0.61,-1.59,-27.10,-5.00,-2.04,32.74,-6.16,0.34,3.54,3.62,1.67,12.52
30,-53,-1030,-211,-209,3779,0.73,-1.75,-30.67,-2.11,-2.09,37.79,-6.14,0.33,3.66,3.38,1.17,14.27
16,-23,-1043,-259,-310,3568,0.76,-1.72,-33.97,-2.59,-3.10,35.68,-6.13,0.33,3.80,3.61,0.66,14.99
18,-33,-1059,-123,-337,3939,0.79,-1.75,-37.03,-1.23,-3.37,39.39,-6.12,0.32,3.94,3.55,0.84,15.70
16,-24,-1054,-159,-319,3869,0.81,-1.72,-39.76,-1.59,-3.19,38.69,-6.11,0.31,4.10,3.57,0.69,16.17
29,-27,-1048,-52,-383,3829,0.91,-1.71,-42.17,-0.52,-3.83,38.29,-6.09,0.30,4.27,3.31,0.74,16.57
14,-15,-1038,-106,-474,3864,0.90,-1.63,-44.29,-1.06,-4.74,38.64,-6.10,0.29,4.44,3.57,0.52,16.87
15,-19,-990,-53,-434,3944,0.90,-1.58,-45.90,-0.53,-4.34,39.44,-6.10,0.28,4.63,3.56,0.58,16.76
20,-22,-939,18,-507,3880,0.93,-1.56,-47.04,0.18,-5.07,38.80,-6.12,0.25,4.81,3.47,0.64,16.53
11,-24,-867,-7,-653,3900,0.91,-1.55,-47.62,-0.07,-6.53,39.00,-6.13,0.22,5.00,3.64,0.69,16.02
12,-11,-846,40,-637,3876,0.89,-1.46,-48.02,0.40,-6.37,38.76,-6.15,0.19,5.19,3.64,0.46,15.90
18,-15,-744,54,-644,3930,0.91,-1.41,-47.76,0.54,-6.44,39.30,-6.16,0.16,5.38,3.54,0.53,14.97
12,-19,-715,35,-630,3883,0.89,-1.38,-47.34,0.35,-6.30,38.83,-6.18,0.13,5.57,3.66,0.61,14.63
19,-6,-594,58,-547,3947,0.92,-1.28,-46.23,0.58,-5.47,39.47,-6.19,0.09,5.75,3.54,0.38,13.38
19,-15,-563,-41,-567,3815,0.94,-1.24,-45.04,-0.41,-5.67,38.15,-6.20,0.07,5.93,3.54,0.53,12.88
3,-13,-436,19,-603,3873,0.87,-1.20,-43.20,0.19,-6.03,38.73,-6.22,0.05,6.10,3.85,0.50,11.43
9,-2,-412,24,-600,3923,0.84,-1.09,-41.39,0.24,-6.00,39.23,-6.23,0.02,6.27,3.77,0.30,10.87
11,-6,-290,12,-646,3862,0.82,-1.02,-39.02,0.12,-6.46,38.62,-6.25,0.00,6.42,3.75,0.36,9.37
7,-11,-216,67,-629,3918,0.78,-0.98,-36.44,0.67,-6.29,39.18,-6.26,-0.02,6.56,3.84,0.45,8.24
1,-3,-76,-71,-569,3866,0.71,-0.90,-33.26,-0.71,-5.69,38.66,-6.28,-0.03,6.70,3.97,0.29,6.43
5,-4,-59,-124,-506,3930,0.67,-0.84,-30.29,-1.24,-5.06,39.30,-6.28,-0.04,6.82,3.92,0.29,5.71
3,-2,-42,-37,-402,3909,0.62,-0.77,-27.52,-0.37,-4.02,39.09,-6.27,-0.04,6.93,3.96,0.23,5.03
5,0,-50,-36,-377,3915,0.59,-0.69,-25.07,-0.36,-3.77,39.15,-6.25,-0.04,7.02,3.93,0.17,4.62
4,-1,-87,5,-378,3901,0.55,-0.63,-23.09,0.05,-3.78,39.01,-6.23,-0.05,7.12,3.94,0.18,4.55
4,0,-93,-17,-392,3901,0.52,-0.56,-21.35,-0.17,-3.92,39.01,-6.21,-0.05,7.20,3.94,0.14,4.26
4,-2,-100,-75,-436,3899,0.49,-0.52,-19.83,-0.75,-4.36,38.99,-6.21,-0.05,7.28,3.95,0.16,4.02
6,1,-104,-70,-424,3882,0.48,-0.46,-18.48,-0.70,-4.24,38.82,-6.21,-0.04,7.35,3.92,0.08,3.79
4,-5,-97,-54,-435,3926,0.46,-0.45,-17.22,-0.54,-4.35,39.26,-6.21,-0.03,7.42,3.96,0.17,3.48
4,0,-97,-34,-396,3892,0.44,-0.40,-16.09,-0.34,-3.96,38.92,-6.20,-0.02,7.49,3.96,0.07,3.26
2,-6,-122,-97,-472,3887,0.41,-0.40,-15.23,-0.97,-4.72,38.87,-6.21,-0.01,7.55,4.01,0.16,3.30
4,-8,-115,-91,-435,3914,0.39,-0.41,-14.41,-0.91,-4.35,39.14,-6.21,-0.00,7.60,3.98,0.19,3.08
1,-5,-66,-101,-442,3909,0.36,-0.40,-13.37,-1.01,-4.42,39.09,-6.21,0.01,7.66,4.04,0.13,2.46
2,-3,-65,-67,-406,3910,0.33,-0.38,-12.43,-0.67,-4.06,39.10,-6.20,0.02,7.70,4.03,0.08,2.27
0,-2,-93,-38,-349,3921,0.30,-0.35,-11.75,-0.38,-3.49,39.21,-6.19,0.02,7.75,4.06,0.06,2.37
5,4,-99,-61,-371,3910,0.30,-0.29,-11.18,-0.61,-3.71,39.10,-6.17,0.03,7.80,3.97,-0.07,2.31
4,-8,-82,-95,-462,3894,0.29,-0.31,-10.56,-0.95,-4.62,38.94,-6.18,0.04,7.84,3.99,0.13,2.04
5,-1,-74,-55,-445,3866,0.30,-0.29,-9.96,-0.55,-4.45,38.66,-6.19,0.05,7.88,3.98,0.00,1.86
0,6,-94,-34,-383,3915,0.27,-0.22,-9.54,-0.34,-3.83,39.15,-6.17,0.05,7.91,4.06,-0.14,1.94
0,4,-97,-85,-390,3880,0.24,-0.17,-9.17,-0.85,-3.90,38.80,-6.16,0.07,7.95,4.07,-0.13,1.89
-1,-4,-108,-50,-278,3930,0.21,-0.18,-8.92,-0.50,-2.78,39.30,-6.14,0.07,7.99,4.08,0.00,1.94
1,0,-121,-52,-261,3907,0.19,-0.16,-8.76,-0.52,-2.61,39.07,-6.13,0.07,8.02,4.04,-0.07,2.01
3,-15,-174,-122,-338,4004,0.19,-0.24,-8.95,-1.22,-3.38,40.04,-6.11,0.08,8.06,4.00,0.20,2.49
9,-4,-185,-151,-300,3841,0.23,-0.24,-9.18,-1.51,-3.00,38.41,-6.10,0.09,8.09,3.88,0.01,2.63
11,-9,-241,-121,-305,3888,0.27,-0.27,-9.73,-1.21,-3.05,38.88,-6.09,0.10,8.13,3.82,0.10,3.20
10,3,-254,-99,-281,3922,0.31,-0.22,-10.31,-0.99,-2.81,39.22,-6.07,0.10,8.17,3.82,-0.12,3.42
11,-7,-302,-93,-330,3919,0.34,-0.24,-11.12,-0.93,-3.30,39.19,-6.06,0.11,8.22,3.78,0.05,3.98
6,-7,-317,-152,-355,3870,0.35,-0.26,-11.94,-1.52,-3.55,38.70,-6.05,0.12,8.26,3.86,0.05,4.26
8,-6,-329,-88,-358,3905,0.36,-0.27,-12.75,-0.88,-3.58,39.05,-6.04,0.13,8.31,3.81,0.03,4.51
7,-6,-323,-109,-372,3856,0.37,-0.28,-13.45,-1.09,-3.72,38.56,-6.03,0.14,8.37,3.82,0.02,4.59
5,-6,-312,-76,-408,3961,0.36,-0.29,-14.01,-0.76,-4.08,39.61,-6.03,0.15,8.42,3.85,0.02,4.60
3,-12,-318,-62,-381,3900,0.34,-0.33,-14.55,-0.62,-3.81,39.00,-6.02,0.16,8.48,3.89,0.13,4.75
4,-13,-347,-4,-426,3899,0.33,-0.38,-15.21,-0.04,-4.26,38.99,-6.03,0.14,8.54,3.88,0.17,5.11
2,0,-354,-42,-399,3877,0.31,-0.34,-15.85,-0.42,-3.99,38.77,-6.02,0.15,8.60,3.92,-0.07,5.29
5,-14,-361,-49,-321,3957,0.31,-0.39,-16.46,-0.49,-3.21,39.57,-6.01,0.15,8.67,3.86,0.19,5.46
6,-11,-368,-96,-420,3842,0.32,-0.42,-17.06,-0.96,-4.20,38.42,-6.01,0.16,8.74,3.84,0.14,5.63
7,-2,-392,-26,-385,3857,0.33,-0.39,-17.75,-0.26,-3.85,38.57,-5.99,0.16,8.81,3.81,-0.02,5.96
4,-15,-392,-17,-401,3931,0.32,-0.44,-18.36,-0.17,-4.01,39.31,-5.98,0.16,8.88,3.85,0.22,6.07
15,-19,-412,-33,-378,3951,0.38,-0.52,-19.04,-0.33,-3.78,39.51,-5.96,0.16,8.96,3.63,0.31,6.36
1,-6,-412,-78,-417,3946,0.35,-0.50,-19.65,-0.78,-4.17,39.46,-5.96,0.17,9.03,3.88,0.08,6.47
-2,-14,-429,-32,-463,3889,0.30,-0.54,-20.30,-0.32,-4.63,38.89,-5.98,0.16,9.11,3.96,0.23,6.73
5,-12,-445,44,-397,3938,0.30,-0.56,-20.99,0.44,-3.97,39.38,-5.97,0.13,9.20,3.84,0.22,6.99
-2,-18,-489,62,-468,3888,0.26,-0.61,-21.87,0.62,-4.68,38.88,-5.98,0.11,9.28,3.98,0.36,7.52
10,-1,-496,109,-386,3874,0.29,-0.55,-22.71,1.09,-3.86,38.74,-5.98,0.08,9.38,3.76,0.07,7.73
5,-12,-507,-54,-395,3875,0.29,-0.57,-23.53,-0.54,-3.95,38.75,-5.97,0.09,9.47,3.84,0.26,7.98
9,-4,-509,-78,-380,3921,0.32,-0.54,-24.28,-0.78,-3.80,39.21,-5.96,0.09,9.56,3.76,0.11,8.13
11,-26,-524,-113,-412,3986,0.36,-0.64,-25.05,-1.13,-4.12,39.86,-5.96,0.10,9.66,3.71,0.51,8.39
9,1,-526,-157,-422,3796,0.37,-0.57,-25.75,-1.57,-4.22,37.96,-5.96,0.10,9.77,3.74,0.03,8.53
14,-16,-513,-66,-477,3914,0.42,-0.61,-26.31,-0.66,-4.77,39.14,-5.98,0.10,9.87,3.65,0.33,8.52
13,-6,-510,-46,-468,3860,0.46,-0.59,-26.79,-0.46,-4.68,38.60,-5.99,0.10,9.98,3.66,0.15,8.58
11,-14,-494,-37,-521,3884,0.48,-0.62,-27.12,-0.37,-5.21,38.84,-6.00,0.09,10.08,3.70,0.30,8.50
14,-11,-488,-37,-540,3867,0.52,-0.62,-27.39,-0.37,-5.40,38.67,-6.02,0.08,10.19,3.65,0.26,8.49
10,-15,-483,-165,-538,3938,0.53,-0.65,-27.60,-1.65,-5.38,39.38,-6.03,0.08,10.30,3.72,0.34,8.47
10,-11,-487,-154,-504,3871,0.54,-0.65,-27.81,-1.54,-5.04,38.71,-6.04,0.08,10.41,3.72,0.27,8.54
7,-17,-489,-74,-418,3903,0.52,-0.69,-28.01,-0.74,-4.18,39.03,-6.04,0.08,10.52,3.77,0.38,8.58
7,-9,-482,-79,-398,3902,0.51,-0.68,-28.15,-0.79,-3.98,39.02,-6.03,0.08,10.64,3.77,0.24,8.54
10,-5,-457,-141,-411,3935,0.52,-0.64,-28.12,-1.41,-4.11,39.35,-6.03,0.09,10.75,3.72,0.16,8.31
6,-14,-447,-160,-390,3880,0.51,-0.66,-28.04,-1.60,-3.90,38.80,-6.02,0.09,10.86,3.79,0.32,8.20
6,-14,-406,-164,-452,3873,0.49,-0.68,-27.71,-1.64,-4.52,38.73,-6.03,0.10,10.97,3.79,0.32,7.78
9,-11,-387,-149,-407,3913,0.50,-0.68,-27.30,-1.49,-4.07,39.13,-6.03,0.10,11.08,3.74,0.27,7.53
8,-9,-366,-119,-414,3891,0.50,-0.67,-26.80,-1.19,-4.14,38.91,-6.02,0.10,11.18,3.76,0.22,7.25
7,-6,-363,-57,-426,3880,0.49,-0.64,-26.34,-0.57,-4.26,38.80,-6.03,0.11,11.29,3.78,0.16,7.13
3,-9,-313,-31,-464,3920,0.46,-0.63,-25.61,-0.31,-4.64,39.20,-6.04,0.10,11.39,3.87,0.21,6.56
