gyroADC_X,gyroADC_Y,gyroADC_Z,accADC_X,accADC_Y,accADC_Z,GyroX,GyroY,GyroZ,AccX,AccY,AccZ,roll_IMU,pitch_IMU,yaw_IMU,roll_PID,pitch_PID,yaw_PID
1,8,4,-70,-390,3882,0.02,0.12,0.08,-0.70,-3.90,38.82,-5.71,0.99,2.22,1.86,-0.48,-0.21
0,12,36,-314,-412,3942,0.02,0.18,0.29,-3.14,-4.12,39.42,-5.71,1.00,2.22,1.88,-0.57,-0.53
-5,39,44,-252,-457,3822,-0.01,0.40,0.53,-2.52,-4.57,38.22,-5.72,1.02,2.22,1.97,-1.05,-0.65
3,67,66,-23,-469,3857,0.01,0.77,0.88,-0.23,-4.69,38.57,-5.74,1.02,2.21,1.85,-1.59,-0.92
2,81,68,38,-382,3962,0.02,1.18,1.21,0.38,-3.82,39.62,-5.73,1.00,2.21,1.86,-1.93,-1.02
3,27,26,2,-399,3905,0.03,1.23,1.24,0.02,-3.99,39.05,-5.74,0.99,2.21,1.84,-1.11,-0.67
-1,19,20,-18,-381,3925,0.03,1.22,1.24,-0.18,-3.81,39.25,-5.73,0.98,2.20,1.90,-0.99,-0.62
0,2,22,-53,-369,3954,0.02,1.11,1.25,-0.53,-3.69,39.54,-5.71,0.98,2.20,1.88,-0.69,-0.64
-6,0,14,-64,-348,3932,-0.02,1.00,1.21,-0.64,-3.48,39.32,-5.70,0.98,2.19,1.98,-0.63,-0.56
-2,-19,17,-71,-366,3921,-0.03,0.79,1.19,-0.71,-3.66,39.21,-5.68,0.99,2.19,1.91,-0.28,-0.58
-1,-38,16,-65,-366,3942,-0.03,0.48,1.17,-0.65,-3.66,39.42,-5.66,0.99,2.18,1.89,0.11,-0.56
-7,-29,11,-20,-377,3899,-0.07,0.25,1.12,-0.20,-3.77,38.99,-5.66,0.97,2.18,1.99,0.05,-0.51
-6,-23,10,-18,-360,3889,-0.10,0.09,1.07,-0.18,-3.60,38.89,-5.65,0.95,2.17,1.99,0.01,-0.49
-1,-23,2,-43,-352,3926,-0.10,-0.06,0.98,-0.43,-3.52,39.26,-5.63,0.94,2.17,1.90,0.06,-0.40
3,-36,-4,-96,-376,3989,-0.07,-0.28,0.85,-0.96,-3.76,39.89,-5.62,0.96,2.17,1.83,0.32,-0.32
-3,-35,-2,-12,-398,3866,-0.08,-0.46,0.76,-0.12,-3.98,38.66,-5.63,0.94,2.16,1.93,0.36,-0.31
-2,-24,-1,-66,-375,3899,-0.08,-0.56,0.67,-0.66,-3.75,38.99,-5.61,0.94,2.16,1.91,0.23,-0.30
-4,-11,0,-68,-369,3912,-0.10,-0.57,0.61,-0.68,-3.69,39.12,-5.60,0.94,2.16,1.94,0.03,-0.29
-3,-8,-1,-72,-387,3903,-0.11,-0.57,0.54,-0.72,-3.87,39.03,-5.61,0.96,2.15,1.93,-0.02,-0.27
-1,-6,-1,-60,-382,3905,-0.10,-0.55,0.48,-0.60,-3.82,39.05,-5.60,0.94,2.15,1.90,-0.05,-0.26
-1,-4,-1,-61,-392,3916,-0.10,-0.51,0.43,-0.61,-3.92,39.16,-5.62,0.93,2.15,1.90,-0.09,-0.24
0,-2,-2,-67,-396,3895,-0.09,-0.48,0.37,-0.67,-3.96,38.95,-5.64,0.93,2.15,1.89,-0.13,-0.22
1,-1,-2,-66,-395,3911,-0.07,-0.43,0.32,-0.66,-3.95,39.11,-5.65,0.93,2.15,1.87,-0.16,-0.21
0,1,-1,-55,-400,3912,-0.07,-0.38,0.28,-0.55,-4.00,39.12,-5.67,0.92,2.15,1.89,-0.20,-0.21
0,1,-1,-60,-404,3890,-0.06,-0.34,0.25,-0.60,-4.04,38.90,-5.69,0.92,2.15,1.90,-0.21,-0.20
0,3,-1,-67,-397,3901,-0.05,-0.29,0.22,-0.67,-3.97,39.01,-5.70,0.92,2.15,1.90,-0.26,-0.19
-1,3,-1,-62,-394,3903,-0.05,-0.24,0.19,-0.62,-3.94,39.03,-5.72,0.92,2.14,1.92,-0.28,-0.19
8,8,-9,-77,-484,3896,-0.00,-0.17,0.12,-0.77,-4.84,38.96,-5.74,0.92,2.14,1.77,-0.37,-0.10
11,6,-9,-68,-507,3892,0.07,-0.11,0.05,-0.68,-5.07,38.92,-5.76,0.92,2.14,1.71,-0.36,-0.09
7,10,-4,-45,-491,3957,0.10,-0.04,0.02,-0.45,-4.91,39.57,-5.78,0.92,2.14,1.77,-0.44,-0.12
6,9,-6,-34,-518,3923,0.13,0.02,-0.02,-0.34,-5.18,39.23,-5.79,0.91,2.15,1.78,-0.44,-0.10
0,3,-31,-75,-461,3904,0.12,0.03,-0.21,-0.75,-4.61,39.04,-5.81,0.92,2.15,1.88,-0.36,0.16
2,1,-38,-74,-441,3906,0.12,0.04,-0.42,-0.74,-4.41,39.06,-5.83,0.92,2.15,1.86,-0.33,0.27
-2,1,-20,-126,-475,3886,0.09,0.04,-0.50,-1.26,-4.75,38.86,-5.84,0.93,2.15,1.93,-0.33,0.14
0,0,-17,-139,-423,3932,0.08,0.03,-0.55,-1.39,-4.23,39.32,-5.85,0.95,2.15,1.90,-0.32,0.12
2,5,-11,-114,-360,3969,0.09,0.06,-0.56,-1.14,-3.60,39.69,-5.83,0.96,2.15,1.87,-0.41,0.08
3,4,-8,-118,-329,3889,0.10,0.08,-0.56,-1.18,-3.29,38.89,-5.82,0.97,2.16,1.84,-0.41,0.05
3,3,-30,-95,-289,3895,0.11,0.09,-0.68,-0.95,-2.89,38.95,-5.80,0.98,2.16,1.84,-0.40,0.26
2,0,-42,-72,-298,3885,0.11,0.08,-0.87,-0.72,-2.98,38.85,-5.78,0.98,2.16,1.84,-0.35,0.41
1,2,-70,-36,-350,3902,0.10,0.09,-1.21,-0.36,-3.50,39.02,-5.77,0.97,2.17,1.86,-0.38,0.73
1,6,-70,-40,-328,3887,0.10,0.11,-1.52,-0.40,-3.28,38.87,-5.75,0.96,2.17,1.85,-0.44,0.80
3,11,-75,-47,-367,3906,0.11,0.17,-1.82,-0.47,-3.67,39.06,-5.73,0.95,2.18,1.81,-0.53,0.91
1,16,-91,-66,-425,3924,0.10,0.25,-2.20,-0.66,-4.25,39.24,-5.75,0.95,2.19,1.85,-0.63,1.13
6,9,-150,-57,-425,3900,0.13,0.28,-2.89,-0.57,-4.25,39.00,-5.77,0.95,2.20,1.77,-0.54,1.80
4,10,-177,-45,-422,3929,0.14,0.31,-3.68,-0.45,-4.22,39.29,-5.78,0.94,2.22,1.80,-0.56,2.21
5,-1,-255,-29,-399,3915,0.16,0.28,-4.87,-0.29,-3.99,39.15,-5.78,0.92,2.24,1.78,-0.37,3.15
8,-8,-284,-7,-415,3931,0.19,0.20,-6.11,-0.07,-4.15,39.31,-5.79,0.90,2.26,1.73,-0.23,3.69
9,-15,-350,-33,-412,3992,0.23,0.09,-7.64,-0.33,-4.12,39.92,-5.79,0.88,2.29,1.71,-0.09,4.60
3,-21,-356,-28,-379,3932,0.22,-0.05,-9.05,-0.28,-3.79,39.32,-5.78,0.86,2.33,1.79,0.05,4.98
3,-7,-350,-70,-424,3914,0.22,-0.09,-10.28,-0.70,-4.24,39.14,-5.80,0.86,2.37,1.80,-0.15,5.22
2,-11,-354,-126,-392,3884,0.21,-0.15,-11.41,-1.26,-3.92,38.84,-5.80,0.87,2.41,1.82,-0.08,5.52
1,-9,-406,-30,-399,3868,0.19,-0.19,-12.74,-0.30,-3.99,38.68,-5.80,0.85,2.46,1.84,-0.09,6.27
4,-8,-448,-57,-429,3919,0.20,-0.22,-14.20,-0.57,-4.29,39.19,-5.82,0.84,2.52,1.80,-0.09,6.97
5,-5,-588,-115,-446,3896,0.21,-0.22,-16.37,-1.15,-4.46,38.96,-5.83,0.85,2.59,1.78,-0.13,8.66
9,-10,-627,-163,-430,3886,0.24,-0.26,-18.56,-1.63,-4.30,38.86,-5.84,0.86,2.66,1.72,-0.05,9.50
5,-19,-714,-80,-438,3880,0.25,-0.35,-21.06,-0.80,-4.38,38.80,-5.85,0.86,2.74,1.78,0.12,10.82
12,0,-724,-86,-388,3937,0.30,-0.32,-23.37,-0.86,-3.88,39.37,-5.85,0.86,2.84,1.66,-0.19,11.44
6,-18,-767,-60,-372,3936,0.30,-0.40,-25.71,-0.60,-3.72,39.36,-5.83,0.85,2.94,1.74,0.12,12.35
11,-12,-772,-75,-362,3905,0.34,-0.43,-27.85,-0.75,-3.62,39.05,-5.81,0.84,3.05,1.65,0.04,12.89
5,-12,-750,-115,-364,3894,0.34,-0.46,-29.64,-1.15,-3.64,38.94,-5.80,0.85,3.17,1.74,0.04,13.12
4,-12,-733,-92,-331,3924,0.33,-0.49,-31.15,-0.92,-3.31,39.24,-5.79,0.84,3.29,1.75,0.05,13.32
9,-13,-659,-61,-288,3896,0.35,-0.52,-32.05,-0.61,-2.88,38.96,-5.77,0.82,3.42,1.66,0.08,12.90
10,-13,-632,-49,-313,3932,0.38,-0.54,-32.70,-0.49,-3.13,39.32,-5.75,0.81,3.55,1.63,0.10,12.81
-7,-9,-593,-33,-426,3851,0.30,-0.55,-33.05,-0.33,-4.26,38.51,-5.77,0.78,3.68,1.92,0.05,12.55
5,-9,-591,-26,-373,3888,0.30,-0.55,-33.35,-0.26,-3.73,38.88,-5.76,0.75,3.81,1.73,0.06,12.60
9,-19,-564,57,-420,3880,0.32,-0.61,-33.45,0.57,-4.20,38.80,-5.76,0.72,3.94,1.67,0.24,12.38
14,-22,-569,117,-402,3867,0.38,-0.68,-33.58,1.17,-4.02,38.67,-5.76,0.68,4.08,1.57,0.32,12.45
4,-21,-555,-8,-361,3897,0.36,-0.74,-33.61,-0.08,-3.61,38.97,-5.75,0.65,4.21,1.73,0.33,12.33
-5,-12,-551,-70,-342,3887,0.30,-0.74,-33.61,-0.70,-3.42,38.87,-5.74,0.65,4.34,1.88,0.20,12.28
6,-16,-548,5,-252,3919,0.30,-0.76,-33.59,0.05,-2.52,39.19,-5.72,0.62,4.48,1.70,0.27,12.24
11,-13,-547,-23,-315,3953,0.34,-0.77,-33.57,-0.23,-3.15,39.53,-5.70,0.60,4.61,1.61,0.23,12.22
14,-12,-553,-59,-259,3920,0.39,-0.76,-33.58,-0.59,-2.59,39.20,-5.68,0.59,4.74,1.54,0.22,12.27
3,-12,-557,-102,-271,3910,0.37,-0.76,-33.62,-1.02,-2.71,39.10,-5.67,0.58,4.88,1.71,0.22,12.30
9,-14,-556,-136,-317,3910,0.39,-0.77,-33.65,-1.36,-3.17,39.10,-5.66,0.58,5.01,1.61,0.26,12.29
10,-11,-549,-135,-372,3888,0.41,-0.76,-33.64,-1.35,-3.72,38.88,-5.65,0.58,5.14,1.59,0.21,12.22
11,-4,-544,-84,-380,3858,0.44,-0.71,-33.59,-0.84,-3.80,38.58,-5.65,0.58,5.28,1.56,0.08,12.15
14,-15,-543,-71,-367,3995,0.48,-0.73,-33.54,-0.71,-3.67,39.95,-5.64,0.58,5.41,1.50,0.26,12.13
8,-14,-546,-92,-295,3953,0.48,-0.74,-33.52,-0.92,-2.95,39.53,-5.62,0.57,5.54,1.59,0.25,12.14
3,-4,-562,-114,-340,3864,0.45,-0.69,-33.60,-1.14,-3.40,38.64,-5.61,0.57,5.68,1.67,0.08,12.28
8,-11,-634,-107,-315,3933,0.45,-0.69,-34.10,-1.07,-3.15,39.33,-5.60,0.57,5.81,1.59,0.19,13.00
16,-14,-648,-118,-327,3913,0.51,-0.71,-34.65,-1.18,-3.27,39.13,-5.59,0.57,5.95,1.45,0.24,13.24
11,-11,-682,-25,-336,3912,0.52,-0.70,-35.34,-0.25,-3.36,39.12,-5.57,0.55,6.09,1.51,0.20,13.68
13,-14,-687,26,-363,3969,0.55,-0.72,-36.00,0.26,-3.63,39.69,-5.56,0.51,6.23,1.47,0.26,13.87
11,-6,-696,-75,-347,3903,0.56,-0.68,-36.64,-0.75,-3.47,39.03,-5.55,0.51,6.38,1.49,0.13,14.08
10,-14,-694,-118,-349,3845,0.57,-0.70,-37.21,-1.18,-3.49,38.45,-5.54,0.51,6.53,1.50,0.26,14.19
18,-12,-688,-184,-329,3869,0.62,-0.70,-37.69,-1.84,-3.29,38.69,-5.54,0.51,6.68,1.36,0.23,14.24
20,-11,-692,-154,-364,3887,0.68,-0.70,-38.14,-1.54,-3.64,38.87,-5.53,0.51,6.83,1.31,0.21,14.37
15,-6,-734,-115,-430,3862,0.70,-0.67,-38.80,-1.15,-4.30,38.62,-5.54,0.51,6.98,1.39,0.13,14.87
13,-3,-747,-119,-403,3849,0.71,-0.62,-39.48,-1.19,-4.03,38.49,-5.55,0.51,7.14,1.42,0.07,15.13
29,65,-792,-37,-514,4006,0.82,-0.16,-40.36,-0.37,-5.14,40.06,-5.56,0.49,7.30,1.14,-1.11,15.71
20,75,-806,-61,-531,3954,0.86,0.31,-41.24,-0.61,-5.31,39.54,-5.58,0.48,7.46,1.27,-1.40,16.02
13,18,-875,-88,-310,3977,0.85,0.39,-42.46,-0.88,-3.10,39.77,-5.56,0.48,7.63,1.38,-0.55,16.88
10,-4,-912,-121,-249,3921,0.83,0.33,-43.77,-1.21,-2.49,39.21,-5.55,0.47,7.81,1.43,-0.19,17.49
13,-12,-916,-190,-232,3976,0.82,0.22,-44.98,-1.90,-2.32,39.76,-5.53,0.47,7.99,1.38,-0.04,17.80
5,-17,-910,-123,-196,3885,0.77,0.10,-46.04,-1.23,-1.96,38.85,-5.51,0.46,8.17,1.51,0.08,17.98
2,-14,-872,-361,-321,3837,0.71,0.00,-46.75,-3.61,-3.21,38.37,-5.51,0.46,8.36,1.57,0.06,17.82
9,-18,-858,-277,-334,3911,0.69,-0.11,-47.31,-2.77,-3.34,39.11,-5.51,0.46,8.54,1.47,0.16,17.82
21,-10,-842,-302,-332,3916,0.75,-0.16,-47.72,-3.02,-3.32,39.16,-5.50,0.46,8.73,1.27,0.05,17.76
-4,-16,-853,-240,-329,3842,0.65,-0.24,-48.15,-2.40,-3.29,38.42,-5.50,0.46,8.92,1.68,0.17,17.95
12,-22,-911,-275,-338,3947,0.66,-0.35,-48.89,-2.75,-3.38,39.47,-5.49,0.45,9.12,1.43,0.29,18.60
15,-13,-928,-290,-387,3936,0.68,-0.39,-49.66,-2.90,-3.87,39.36,-5.49,0.45,9.32,1.37,0.17,18.91
12,-12,-975,-236,-380,3893,0.69,-0.43,-50.64,-2.36,-3.80,38.93,-5.49,0.45,9.52,1.42,0.17,19.53
5,-9,-1003,-202,-449,3856,0.65,-0.44,-51.70,-2.02,-4.49,38.56,-5.50,0.44,9.72,1.54,0.13,20.00
8,-17,-1068,-78,-474,3909,0.63,-0.50,-53.04,-0.78,-4.74,39.09,-5.51,0.43,9.94,1.50,0.27,20.85
12,-7,-1083,-95,-498,3876,0.64,-0.49,-54.34,-0.95,-4.98,38.76,-5.53,0.42,10.15,1.44,0.12,21.27
12,-10,-1147,-124,-435,3924,0.65,-0.50,-55.91,-1.24,-4.35,39.24,-5.54,0.41,10.37,1.44,0.17,22.16
22,-27,-1155,-67,-420,3896,0.72,-0.62,-57.36,-0.67,-4.20,38.96,-5.55,0.40,10.60,1.27,0.47,22.56
19,-17,-1135,-3,-444,3926,0.77,-0.66,-58.55,-0.03,-4.44,39.26,-5.56,0.36,10.84,1.31,0.34,22.65
11,-8,-1114,-19,-526,3879,0.76,-0.64,-59.49,-0.19,-5.26,38.79,-5.58,0.34,11.07,1.44,0.21,22.68
16,-9,-1042,122,-518,3911,0.78,-0.63,-59.90,1.22,-5.18,39.11,-5.59,0.30,11.31,1.36,0.23,22.15
17,-7,-1013,95,-577,3906,0.80,-0.61,-60.09,0.95,-5.77,39.06,-5.61,0.26,11.55,1.34,0.21,21.93
16,-8,-934,159,-501,3879,0.82,-0.60,-59.78,1.59,-5.01,38.79,-5.61,0.22,11.79,1.36,0.23,21.17
11,2,-893,89,-444,3929,0.81,-0.53,-59.24,0.89,-4.44,39.29,-5.62,0.18,12.02,1.44,0.07,20.68
-1,-15,-867,66,-359,3943,0.72,-0.57,-58.61,0.66,-3.59,39.43,-5.61,0.14,12.26,1.65,0.36,20.30
27,-9,-879,76,-322,3960,0.81,-0.57,-58.11,0.76,-3.22,39.60,-5.60,0.10,12.49,1.19,0.28,20.26
3,-15,-881,45,-265,3905,0.75,-0.60,-57.67,0.45,-2.65,39.05,-5.58,0.07,12.72,1.57,0.39,20.16
5,-20,-881,13,-233,3908,0.70,-0.66,-57.28,0.13,-2.33,39.08,-5.56,0.04,12.94,1.54,0.49,20.05
5,-35,-895,-3,-250,3975,0.66,-0.81,-57.01,-0.03,-2.50,39.75,-5.54,0.01,13.17,1.55,0.78,20.09
-2,-17,-892,-45,-186,3857,0.59,-0.83,-56.75,-0.45,-1.86,38.57,-5.52,-0.01,13.40,1.67,0.52,19.99
12,-25,-944,-130,-209,3882,0.60,-0.90,-56.83,-1.30,-2.09,38.82,-5.50,-0.02,13.62,1.45,0.66,20.44
12,-21,-961,-147,-202,3928,0.61,-0.94,-57.01,-1.47,-2.02,39.28,-5.48,-0.03,13.85,1.44,0.62,20.61
12,-13,-1009,-104,-213,3887,0.63,-0.92,-57.47,-1.04,-2.13,38.87,-5.46,-0.05,14.08,1.43,0.50,21.10
16,-13,-1007,-45,-246,3892,0.66,-0.91,-57.86,-0.45,-2.46,38.92,-5.44,-0.07,14.31,1.35,0.50,21.16
16,-8,-953,-1,-332,3910,0.69,-0.87,-57.89,-0.01,-3.32,39.10,-5.42,-0.09,14.54,1.33,0.42,20.70
21,-23,-926,85,-273,3937,0.75,-0.92,-57.75,0.85,-2.73,39.37,-5.41,-0.13,14.77,1.23,0.68,20.42
6,-15,-823,63,-392,3967,0.71,-0.92,-56.99,0.63,-3.92,39.67,-5.41,-0.17,14.99,1.48,0.57,19.35
8,-7,-803,-46,-377,3851,0.69,-0.87,-56.19,-0.46,-3.77,38.51,-5.41,-0.18,15.22,1.45,0.43,18.98
17,-18,-778,-34,-384,3894,0.72,-0.89,-55.32,-0.34,-3.84,38.94,-5.41,-0.19,15.44,1.30,0.61,18.54
18,-16,-786,-1,-369,3862,0.76,-0.90,-54.58,-0.01,-3.69,38.62,-5.41,-0.19,15.65,1.28,0.58,18.42
11,-14,-856,-128,-375,3880,0.75,-0.90,-54.35,-1.28,-3.75,38.80,-5.41,-0.20,15.87,1.39,0.55,18.95
7,-10,-874,-184,-319,3915,0.72,-0.87,-54.24,-1.84,-3.19,39.15,-5.40,-0.20,16.09,1.46,0.49,19.06
10,-6,-904,-213,-418,3913,0.71,-0.82,-54.33,-2.13,-4.18,39.13,-5.40,-0.21,16.30,1.41,0.41,19.32
14,-7,-894,-189,-410,3909,0.72,-0.78,-54.35,-1.89,-4.10,39.09,-5.40,-0.21,16.52,1.35,0.42,19.22
-8,-21,-808,43,-423,3907,0.60,-0.83,-53.85,0.43,-4.23,39.07,-5.41,-0.25,16.73,1.72,0.66,18.36
21,-22,-779,114,-417,3976,0.67,-0.88,-53.21,1.14,-4.17,39.76,-5.42,-0.29,16.94,1.26,0.70,17.95
-1,-25,-699,69,-392,3881,0.60,-0.95,-52.16,0.69,-3.92,38.81,-5.42,-0.33,17.15,1.62,0.78,17.01
-2,-21,-673,85,-345,3947,0.53,-0.98,-51.05,0.85,-3.45,39.47,-5.41,-0.37,17.35,1.66,0.74,16.51
8,-18,-616,36,-331,3914,0.52,-0.99,-49.70,0.36,-3.31,39.14,-5.39,-0.39,17.55,1.50,0.71,15.70
1,-16,-594,-40,-280,3887,0.48,-0.99,-48.35,-0.40,-2.80,38.87,-5.37,-0.41,17.74,1.61,0.68,15.18
19,-4,-537,-30,-286,3933,0.54,-0.91,-46.79,-0.30,-2.86,39.33,-5.35,-0.42,17.93,1.31,0.48,14.32
7,0,-534,-69,-267,3889,0.53,-0.82,-45.37,-0.69,-2.67,38.89,-5.34,-0.42,18.11,1.49,0.39,13.95
17,-1,-594,-198,-295,3901,0.58,-0.75,-44.46,-1.98,-2.95,39.01,-5.33,-0.43,18.29,1.32,0.38,14.23
12,2,-657,-227,-234,3919,0.60,-0.66,-44.02,-2.27,-2.34,39.19,-5.31,-0.43,18.46,1.39,0.31,14.65
14,-5,-764,-134,-269,3939,0.62,-0.62,-44.28,-1.34,-2.69,39.39,-5.30,-0.43,18.64,1.35,0.41,15.60
7,-1,-779,-90,-241,3848,0.60,-0.57,-44.60,-0.90,-2.41,38.48,-5.29,-0.44,18.82,1.45,0.33,15.79
18,1,-773,18,-334,3963,0.65,-0.51,-44.86,0.18,-3.34,39.63,-5.26,-0.45,18.99,1.26,0.29,15.79
9,1,-756,32,-383,3892,0.64,-0.45,-44.98,0.32,-3.83,38.92,-5.28,-0.47,19.17,1.41,0.28,15.66
15,-2,-673,57,-386,3963,0.67,-0.42,-44.59,0.57,-3.86,39.63,-5.29,-0.50,19.35,1.31,0.32,14.85
17,-4,-647,117,-367,3902,0.71,-0.40,-44.08,1.17,-3.67,39.02,-5.28,-0.54,19.53,1.27,0.36,14.50
11,-6,-596,31,-317,3893,0.70,-0.40,-43.31,0.31,-3.17,38.93,-5.26,-0.55,19.70,1.35,0.39,13.87
8,-12,-581,64,-337,3914,0.68,-0.43,-42.52,0.64,-3.37,39.14,-5.24,-0.58,19.87,1.40,0.51,13.55
11,-11,-578,-36,-229,3894,0.68,-0.45,-41.79,-0.36,-2.29,38.94,-5.22,-0.59,20.03,1.35,0.50,13.34
11,-16,-611,-64,-261,3986,0.68,-0.51,-41.34,-0.64,-2.61,39.86,-5.21,-0.59,20.20,1.34,0.59,13.50
19,-14,-652,-36,-320,3959,0.73,-0.54,-41.18,-0.36,-3.20,39.59,-5.19,-0.60,20.36,1.20,0.58,13.80
29,-5,-650,-12,-349,3916,0.83,-0.52,-41.03,-0.12,-3.49,39.16,-5.19,-0.59,20.53,1.01,0.43,13.74
18,-3,-642,24,-356,3923,0.86,-0.48,-40.84,0.24,-3.56,39.23,-5.18,-0.59,20.69,1.17,0.39,13.61
26,-1,-619,-10,-430,3946,0.93,-0.44,-40.54,-0.10,-4.30,39.46,-5.19,-0.60,20.85,1.03,0.35,13.34
23,10,-564,-28,-401,3989,0.98,-0.34,-39.92,-0.28,-4.01,39.89,-5.19,-0.60,21.01,1.06,0.15,12.71
21,9,-566,6,-387,3914,1.01,-0.25,-39.38,0.06,-3.87,39.14,-5.20,-0.60,21.17,1.09,0.14,12.59
10,-1,-554,3,-316,3869,0.97,-0.23,-38.82,0.03,-3.16,38.69,-5.18,-0.60,21.32,1.26,0.28,12.35
-6,-9,-543,-53,-288,3870,0.84,-0.26,-38.25,-0.53,-2.88,38.70,-5.17,-0.60,21.47,1.54,0.42,12.11
-3,-25,-559,-127,-249,3912,0.73,-0.39,-37.84,-1.27,-2.49,39.12,-5.15,-0.60,21.62,1.52,0.70,12.14
3,-22,-569,-76,-298,3927,0.68,-0.48,-37.53,-0.76,-2.98,39.27,-5.14,-0.60,21.77,1.44,0.68,12.14
21,-8,-561,-20,-405,3961,0.74,-0.48,-37.19,-0.20,-4.05,39.61,-5.15,-0.60,21.92,1.15,0.47,11.98
11,-3,-563,-91,-282,3818,0.73,-0.45,-36.91,-0.91,-2.82,38.18,-5.13,-0.60,22.07,1.30,0.38,11.92
17,1,-584,-174,-344,3896,0.76,-0.40,-36.78,-1.74,-3.44,38.96,-5.13,-0.60,22.21,1.20,0.30,12.06
25,3,-594,-97,-293,3953,0.84,-0.34,-36.73,-0.97,-2.93,39.53,-5.12,-0.59,22.36,1.05,0.25,12.12
29,19,-613,-49,-317,3882,0.93,-0.19,-36.79,-0.49,-3.17,38.82,-5.11,-0.59,22.51,0.96,-0.04,12.29
44,26,-580,-111,-332,3894,1.11,-0.02,-36.65,-1.11,-3.32,38.94,-5.10,-0.58,22.65,0.67,-0.20,11.96
18,7,-543,-94,-283,3962,1.11,0.03,-36.30,-0.94,-2.83,39.62,-5.08,-0.58,22.80,1.07,0.08,11.56
30,3,-603,-182,-215,3984,1.18,0.04,-36.35,-1.82,-2.15,39.84,-5.07,-0.58,22.94,0.85,0.13,12.07
21,6,-728,42,-389,3906,1.19,0.08,-37.15,0.42,-3.89,39.06,-5.08,-0.59,23.09,0.99,0.08,13.31
20,-3,-735,83,-316,3917,1.19,0.05,-37.92,0.83,-3.16,39.17,-5.06,-0.62,23.24,1.00,0.23,13.53
14,-3,-691,4,-214,3899,1.16,0.03,-38.34,0.04,-2.14,38.99,-5.04,-0.63,23.40,1.10,0.24,13.25
17,-7,-674,20,-263,3945,1.15,-0.02,-38.62,0.20,-2.63,39.45,-5.01,-0.64,23.55,1.05,0.32,13.16
16,-6,-643,-138,-169,3892,1.13,-0.05,-38.68,-1.38,-1.69,38.92,-5.00,-0.64,23.70,1.06,0.32,12.90
1,-10,-637,-188,-239,3907,1.02,-0.11,-38.70,-1.88,-2.39,39.07,-4.98,-0.63,23.86,1.32,0.39,12.84
14,8,-683,-174,-229,3902,1.01,-0.05,-39.00,-1.74,-2.29,39.02,-4.97,-0.63,24.01,1.12,0.10,13.29
26,7,-714,-175,-179,4028,1.06,-0.00,-39.45,-1.75,-1.79,40.28,-4.95,-0.63,24.17,0.91,0.10,13.65
13,-1,-845,-201,-227,3923,1.04,-0.01,-40.66,-2.01,-2.27,39.23,-4.94,-0.63,24.33,1.11,0.22,15.04
16,-1,-876,-131,-249,3933,1.03,-0.01,-41.94,-1.31,-2.49,39.33,-4.92,-0.63,24.50,1.07,0.23,15.59
33,8,-1009,-121,-385,3975,1.13,0.04,-43.90,-1.21,-3.85,39.75,-4.92,-0.62,24.67,0.78,0.07,17.16
43,33,-1114,-224,-423,3910,1.28,0.23,-46.30,-2.24,-4.23,39.10,-4.92,-0.62,24.86,0.58,-0.37,18.61
69,42,-1278,-165,-640,4065,1.57,0.47,-49.47,-1.65,-6.40,40.65,-4.93,-0.63,25.06,0.09,-0.58,20.73
103,79,-1317,-247,-635,4044,2.04,0.90,-52.56,-2.47,-6.35,40.44,-4.93,-0.63,25.27,-0.57,-1.27,21.77
34,19,-1423,-160,-392,3945,2.05,0.93,-55.98,-1.60,-3.92,39.45,-4.92,-0.62,25.49,0.48,-0.37,23.46
33,22,-1452,-210,-420,3983,2.04,0.97,-59.24,-2.10,-4.20,39.83,-4.92,-0.62,25.73,0.50,-0.43,24.46
18,8,-1465,-168,-281,3956,1.95,0.92,-62.25,-1.68,-2.81,39.56,-4.90,-0.62,25.97,0.75,-0.20,25.26
24,-15,-1453,-66,-314,3907,1.90,0.74,-64.89,-0.66,-3.14,39.07,-4.89,-0.62,26.23,0.67,0.21,25.76
5,-3,-1359,-17,-304,3895,1.74,0.65,-66.69,-0.17,-3.04,38.95,-4.87,-0.63,26.50,1.00,0.06,25.37
6,-3,-1327,-8,-327,3940,1.60,0.56,-68.12,-0.08,-3.27,39.40,-4.86,-0.63,26.77,1.02,0.08,25.42
13,-5,-1228,42,-247,3879,1.52,0.48,-68.80,0.42,-2.47,38.79,-4.83,-0.65,27.05,0.93,0.15,24.72
15,-8,-1172,40,-331,3936,1.46,0.38,-69.07,0.40,-3.31,39.36,-4.82,-0.66,27.32,0.91,0.22,24.29
18,-6,-1035,192,-293,3892,1.42,0.31,-68.47,1.92,-2.93,38.92,-4.80,-0.70,27.59,0.88,0.23,22.97
13,2,-984,210,-325,3906,1.36,0.29,-67.63,2.10,-3.25,39.06,-4.79,-0.74,27.86,0.97,0.12,22.32
2,-7,-805,188,-288,3870,1.24,0.22,-65.78,1.88,-2.88,38.70,-4.78,-0.77,28.13,1.17,0.30,20.35
-11,-15,-748,125,-277,3935,1.05,0.10,-63.76,1.25,-2.77,39.35,-4.76,-0.81,28.38,1.42,0.46,19.37
7,-6,-538,98,-501,3977,0.98,0.06,-60.67,0.98,-5.01,39.77,-4.77,-0.83,28.62,1.17,0.35,16.85
10,-16,-490,69,-448,3889,0.95,-0.05,-57.59,0.69,-4.48,38.89,-4.78,-0.86,28.85,1.14,0.54,15.70
-1,-7,-399,-70,-527,3906,0.85,-0.09,-54.26,-0.70,-5.27,39.06,-4.79,-0.86,29.07,1.34,0.42,14.13
0,-4,-375,-60,-531,3948,0.76,-0.10,-51.13,-0.60,-5.31,39.48,-4.80,-0.87,29.27,1.35,0.38,13.17
-3,-4,-293,-108,-476,3925,0.67,-0.12,-47.80,-1.08,-4.76,39.25,-4.81,-0.88,29.46,1.43,0.39,11.68
-6,0,-255,-47,-459,3830,0.56,-0.10,-44.58,-0.47,-4.59,38.30,-4.82,-0.88,29.64,1.51,0.32,10.59
-6,-5,-209,-40,-407,3935,0.47,-0.12,-41.39,-0.40,-4.07,39.35,-4.82,-0.88,29.80,1.54,0.40,9.44
3,-4,-203,-68,-400,3929,0.44,-0.14,-38.49,-0.68,-4.00,39.29,-4.83,-0.88,29.96,1.41,0.39,8.69
-2,-5,-225,-116,-217,3867,0.39,-0.15,-36.02,-1.16,-2.17,38.67,-4.81,-0.87,30.10,1.50,0.41,8.28
3,-12,-247,-71,-176,3929,0.37,-0.21,-33.92,-0.71,-1.76,39.29,-4.80,-0.87,30.24,1.43,0.54,7.97
2,-9,-318,-98,-175,3907,0.34,-0.24,-32.47,-0.98,-1.75,39.07,-4.78,-0.87,30.37,1.44,0.50,8.22
2,-7,-332,-82,-208,3930,0.32,-0.26,-31.25,-0.82,-2.08,39.30,-4.77,-0.87,30.49,1.44,0.47,8.04
3,-2,-363,-98,-320,3884,0.31,-0.25,-30.34,-0.98,-3.20,38.84,-4.76,-0.86,30.61,1.43,0.39,8.08
8,-8,-357,-118,-305,3936,0.32,-0.27,-29.48,-1.18,-3.05,39.36,-4.76,-0.86,30.73,1.35,0.49,7.82
1,-9,-295,-130,-302,3890,0.30,-0.30,-28.33,-1.30,-3.02,38.90,-4.75,-0.85,30.84,1.46,0.51,7.02
1,-12,-276,-126,-328,3913,0.27,-0.34,-27.18,-1.26,-3.28,39.13,-4.75,-0.84,30.95,1.47,0.57,6.58
3,-5,-202,-100,-347,3943,0.26,-0.34,-25.70,-1.00,-3.47,39.43,-4.75,-0.83,31.05,1.44,0.45,5.59
3,9,-203,-142,-366,3862,0.26,-0.25,-24.36,-1.42,-3.66,38.62,-4.75,-0.82,31.15,1.44,0.21,5.28
-5,-1,-176,-43,-346,3837,0.20,-0.23,-23.00,-0.43,-3.46,38.37,-4.75,-0.81,31.24,1.58,0.35,4.72
5,-10,-161,-74,-278,3992,0.21,-0.27,-21.68,-0.74,-2.78,39.92,-4.75,-0.80,31.33,1.43,0.50,4.28
-6,-9,-208,-173,-94,3875,0.15,-0.30,-20.78,-1.73,-0.94,38.75,-4.73,-0.80,31.41,1.61,0.49,4.46
1,-1,-244,-187,-83,3905,0.14,-0.27,-20.19,-1.87,-0.83,39.05,-4.72,-0.79,31.49,1.50,0.36,4.62
-2,0,-403,-144,-138,3892,0.12,-0.25,-20.63,-1.44,-1.38,38.92,-4.70,-0.79,31.57,1.55,0.34,6.07
9,-3,-431,-78,-140,3914,0.16,-0.24,-21.20,-0.78,-1.40,39.14,-4.69,-0.79,31.66,1.36,0.38,6.43
-4,-15,-476,-32,-246,3890,0.12,-0.31,-21.98,-0.32,-2.46,38.90,-4.67,-0.78,31.75,1.57,0.58,6.99
-3,-11,-468,-32,-365,3898,0.09,-0.34,-22.64,-0.32,-3.65,38.98,-4.68,-0.77,31.84,1.56,0.53,7.07
3,0,-426,-43,-329,3896,0.10,-0.31,-22.97,-0.43,-3.29,38.96,-4.68,-0.76,31.93,1.47,0.35,6.79
0,-7,-402,-80,-418,3954,0.09,-0.32,-23.13,-0.80,-4.18,39.54,-4.69,-0.76,32.02,1.52,0.45,6.61
-1,-2,-313,-66,-401,3942,0.07,-0.30,-22.73,-0.66,-4.01,39.42,-4.70,-0.75,32.11,1.54,0.37,5.76
1,-9,-299,-10,-356,3895,0.07,-0.33,-22.28,-0.10,-3.56,38.95,-4.70,-0.74,32.20,1.52,0.48,5.53
-2,1,-234,-70,-330,3893,0.05,-0.29,-21.48,-0.70,-3.30,38.93,-4.70,-0.73,32.28,1.57,0.31,4.78
2,-5,-231,-53,-327,3933,0.06,-0.29,-20.74,-0.53,-3.27,39.33,-4.70,-0.72,32.37,1.50,0.40,4.58
6,11,-249,-57,-333,3867,0.09,-0.19,-20.18,-0.57,-3.33,38.67,-4.71,-0.71,32.45,1.43,0.13,4.59
11,3,-263,24,-289,3927,0.15,-0.16,-19.77,0.24,-2.89,39.27,-4.69,-0.71,32.53,1.33,0.24,4.61
3,1,-357,-109,-190,3904,0.15,-0.13,-19.97,-1.09,-1.90,39.04,-4.68,-0.70,32.61,1.45,0.26,5.45
10,-8,-400,-52,-204,3910,0.20,-0.17,-20.41,-0.52,-2.04,39.10,-4.66,-0.70,32.69,1.32,0.40,5.91
7,2,-489,-57,-168,3896,0.22,-0.14,-21.35,-0.57,-1.68,38.96,-4.64,-0.69,32.77,1.36,0.24,6.88
9,-6,-495,-64,-278,3902,0.25,-0.16,-22.24,-0.64,-2.78,39.02,-4.64,-0.68,32.86,1.31,0.37,7.13
6,0,-497,-72,-328,3869,0.26,-0.15,-23.05,-0.72,-3.28,38.69,-4.64,-0.67,32.95,1.36,0.27,7.33
5,-2,-507,-16,-307,3942,0.27,-0.14,-23.83,-0.16,-3.07,39.42,-4.63,-0.66,33.05,1.37,0.29,7.60
7,-7,-532,-65,-353,3950,0.28,-0.17,-24.70,-0.65,-3.53,39.50,-4.63,-0.66,33.15,1.33,0.38,8.01
17,-6,-532,-64,-305,3882,0.36,-0.19,-25.47,-0.64,-3.05,38.82,-4.63,-0.65,33.25,1.16,0.36,8.18
10,16,-541,-56,-483,3880,0.38,-0.07,-26.22,-0.56,-4.83,38.80,-4.64,-0.65,33.35,1.26,-0.01,8.43
11,-15,-526,47,-341,3985,0.41,-0.16,-26.81,0.47,-3.41,39.85,-4.66,-0.66,33.46,1.24,0.49,8.43
11,-6,-535,-1,-335,3951,0.44,-0.18,-27.39,-0.01,-3.35,39.51,-4.66,-0.65,33.57,1.24,0.36,8.64
8,-2,-571,-27,-340,3913,0.44,-0.17,-28.14,-0.27,-3.40,39.13,-4.66,-0.64,33.68,1.28,0.30,9.11
-2,-2,-636,-65,-361,3890,0.39,-0.17,-29.20,-0.65,-3.61,38.90,-4.66,-0.63,33.80,1.45,0.29,9.90
18,9,-658,-46,-351,3887,0.46,-0.10,-30.30,-0.46,-3.51,38.87,-4.67,-0.63,33.92,1.13,0.10,10.34
0,-8,-709,-23,-277,3863,0.41,-0.14,-31.59,-0.23,-2.77,38.63,-4.66,-0.62,34.04,1.41,0.37,11.07
-10,-15,-709,-74,-284,3854,0.31,-0.21,-32.76,-0.74,-2.84,38.54,-4.65,-0.62,34.17,1.59,0.50,11.33
10,-13,-716,9,-345,3911,0.34,-0.27,-33.85,0.09,-3.45,39.11,-4.66,-0.61,34.31,1.28,0.48,11.64
11,-3,-711,-7,-363,3913,0.37,-0.26,-34.80,-0.07,-3.63,39.13,-4.67,-0.61,34.45,1.26,0.33,11.81
1,0,-712,-55,-317,3872,0.34,-0.24,-35.66,-0.55,-3.17,38.72,-4.66,-0.61,34.59,1.42,0.27,12.01
4,7,-708,-101,-282,3923,0.33,-0.17,-36.42,-1.01,-2.82,39.23,-4.66,-0.60,34.73,1.37,0.14,12.15
-4,-7,-670,-32,-278,3864,0.27,-0.20,-36.86,-0.32,-2.78,38.64,-4.65,-0.60,34.88,1.51,0.36,11.92
6,-2,-614,-2,-348,3885,0.28,-0.19,-36.92,-0.02,-3.48,38.85,-4.65,-0.60,35.03,1.36,0.29,11.45
7,-4,-542,-48,-316,3963,0.30,-0.19,-36.54,-0.48,-3.16,39.63,-4.65,-0.59,35.17,1.34,0.32,10.74
0,-6,-537,-117,-272,3905,0.27,-0.21,-36.16,-1.17,-2.72,39.05,-4.64,-0.59,35.32,1.45,0.35,10.60
-6,-15,-488,-140,-410,3891,0.20,-0.28,-35.52,-1.40,-4.10,38.91,-4.65,-0.58,35.46,1.56,0.51,10.02
-3,-5,-458,-148,-457,3887,0.17,-0.28,-34.76,-1.48,-4.57,38.87,-4.66,-0.58,35.60,1.53,0.35,9.58
-5,0,-328,-18,-381,3877,0.12,-0.26,-33.29,-0.18,-3.81,38.77,-4.67,-0.58,35.73,1.58,0.27,8.12
6,4,-297,-2,-319,3896,0.14,-0.21,-31.77,-0.02,-3.19,38.96,-4.67,-0.57,35.86,1.40,0.19,7.49
1,-10,-265,-33,-261,3930,0.14,-0.25,-30.21,-0.33,-2.61,39.30,-4.65,-0.57,35.98,1.48,0.42,6.84
-1,-8,-267,11,-279,3911,0.12,-0.27,-28.82,0.11,-2.79,39.11,-4.64,-0.57,36.09,1.51,0.39,6.53
-6,-2,-331,-24,-248,3896,0.07,-0.26,-27.95,-0.24,-2.48,38.96,-4.62,-0.57,36.20,1.60,0.30,6.86
6,-3,-389,-27,-173,3937,0.10,-0.25,-27.53,-0.27,-1.73,39.37,-4.60,-0.57,36.31,1.40,0.31,7.24
3,-15,-460,33,-238,3937,0.11,-0.31,-27.58,0.33,-2.38,39.37,-4.58,-0.58,36.42,1.43,0.52,7.85
9,-4,-477,-25,-206,3936,0.15,-0.31,-27.74,-0.25,-2.06,39.36,-4.57,-0.58,36.53,1.32,0.35,8.02
4,-17,-521,-24,-194,3922,0.16,-0.38,-28.14,-0.24,-1.94,39.22,-4.55,-0.58,36.65,1.39,0.57,8.48
-1,-17,-530,-3,-261,3878,0.14,-0.45,-28.56,-0.03,-2.61,38.78,-4.53,-0.58,36.76,1.47,0.59,8.65
9,-6,-570,-77,-239,3948,0.18,-0.44,-29.18,-0.77,-2.39,39.48,-4.52,-0.57,36.88,1.30,0.41,9.12
5,-3,-577,-72,-369,3918,0.19,-0.41,-29.78,-0.72,-3.69,39.18,-4.53,-0.57,36.99,1.36,0.36,9.32
8,-2,-558,-13,-329,3910,0.22,-0.38,-30.21,-0.13,-3.29,39.10,-4.53,-0.56,37.12,1.31,0.33,9.25
-1,-1,-566,-7,-272,3884,0.19,-0.35,-30.64,-0.07,-2.72,38.84,-4.52,-0.56,37.24,1.45,0.31,9.41
0,-6,-600,-1,-240,3953,0.17,-0.35,-31.24,-0.01,-2.40,39.53,-4.50,-0.56,37.36,1.43,0.38,9.83
1,-3,-602,-13,-291,3856,0.16,-0.34,-31.78,-0.13,-2.91,38.56,-4.50,-0.56,37.49,1.42,0.33,9.96
5,-17,-573,-46,-334,3877,0.18,-0.41,-32.10,-0.46,-3.34,38.77,-4.50,-0.55,37.62,1.35,0.56,9.78
0,-12,-551,-8,-373,3970,0.16,-0.44,-32.25,-0.08,-3.73,39.70,-4.51,-0.55,37.74,1.44,0.50,9.62
10,-3,-503,-43,-264,3903,0.20,-0.41,-32.09,-0.43,-2.64,39.03,-4.50,-0.55,37.87,1.27,0.35,9.17
6,-10,-507,-64,-289,3925,0.22,-0.43,-31.98,-0.64,-2.89,39.25,-4.50,-0.54,38.00,1.32,0.46,9.17
7,7,-520,-51,-269,3897,0.24,-0.35,-31.95,-0.51,-2.69,38.97,-4.49,-0.53,38.13,1.30,0.18,9.26
3,4,-524,-22,-366,3929,0.24,-0.29,-31.95,-0.22,-3.66,39.29,-4.50,-0.53,38.25,1.37,0.20,9.29
9,1,-521,-87,-305,3876,0.27,-0.25,-31.94,-0.87,-3.05,38.76,-4.50,-0.53,38.38,1.26,0.24,9.25
3,6,-514,-60,-356,3900,0.26,-0.19,-31.88,-0.60,-3.56,39.00,-4.50,-0.52,38.51,1.36,0.14,9.17
-2,3,-440,-16,-367,3918,0.22,-0.15,-31.37,-0.16,-3.67,39.18,-4.51,-0.52,38.63,1.45,0.17,8.42
-3,-7,-394,-33,-423,3941,0.18,-0.18,-30.64,-0.33,-4.23,39.41,-4.53,-0.52,38.76,1.48,0.33,7.84
-1,-1,-365,-126,-302,3873,0.16,-0.17,-29.80,-1.26,-3.02,38.73,-4.52,-0.51,38.87,1.46,0.24,7.39
3,-1,-366,-53,-256,3864,0.16,-0.16,-29.06,-0.53,-2.56,38.64,-4.51,-0.50,38.99,1.40,0.23,7.22
9,-16,-408,-33,-316,3965,0.20,-0.24,-28.64,-0.33,-3.16,39.65,-4.51,-0.50,39.10,1.29,0.48,7.47
13,-3,-415,-30,-257,3864,0.26,-0.23,-28.31,-0.30,-2.57,38.64,-4.50,-0.49,39.22,1.21,0.28,7.44
5,-13,-415,-39,-252,3979,0.26,-0.29,-28.01,-0.39,-2.52,39.79,-4.49,-0.49,39.33,1.32,0.45,7.36
-8,1,-417,-110,-351,3865,0.19,-0.25,-27.75,-1.10,-3.51,38.65,-4.49,-0.48,39.44,1.55,0.22,7.31
0,-1,-399,35,-411,3936,0.17,-0.24,-27.41,0.35,-4.11,39.36,-4.51,-0.49,39.55,1.44,0.25,7.07
1,-8,-381,55,-330,3920,0.16,-0.26,-26.99,0.55,-3.30,39.20,-4.52,-0.51,39.66,1.43,0.37,6.81
2,-5,-344,-10,-272,3876,0.15,-0.27,-26.39,-0.10,-2.72,38.76,-4.51,-0.51,39.76,1.41,0.32,6.35
1,-4,-330,-21,-269,3901,0.14,-0.26,-25.77,-0.21,-2.69,39.01,-4.49,-0.50,39.86,1.42,0.31,6.08
7,-3,-355,-3,-306,3902,0.17,-0.26,-25.35,-0.03,-3.06,39.02,-4.49,-0.49,39.97,1.32,0.29,6.18
3,-1,-364,-68,-331,3900,0.17,-0.24,-25.04,-0.68,-3.31,39.00,-4.49,-0.48,40.07,1.38,0.25,6.18
4,-5,-418,-85,-292,3852,0.18,-0.24,-25.08,-0.85,-2.92,38.52,-4.49,-0.47,40.17,1.37,0.31,6.64
8,7,-423,-50,-265,3901,0.21,-0.18,-25.16,-0.50,-2.65,39.01,-4.48,-0.47,40.27,1.29,0.10,6.69
12,2,-399,20,-417,3880,0.26,-0.15,-25.07,0.20,-4.17,38.80,-4.50,-0.47,40.37,1.22,0.17,6.46
2,7,-389,-53,-459,3866,0.25,-0.09,-24.94,-0.53,-4.59,38.66,-4.51,-0.47,40.46,1.38,0.08,6.34
-4,-14,-300,-75,-390,3919,0.20,-0.17,-24.28,-0.75,-3.90,39.19,-4.52,-0.47,40.56,1.49,0.42,5.42
-8,-7,-292,-112,-436,3928,0.13,-0.19,-23.63,-1.12,-4.36,39.28,-4.53,-0.46,40.66,1.58,0.32,5.20
8,-2,-320,-83,-314,3991,0.17,-0.18,-23.22,-0.83,-3.14,39.91,-4.53,-0.45,40.75,1.32,0.24,5.33
0,4,-342,-74,-297,3864,0.15,-0.14,-22.98,-0.74,-2.97,38.64,-4.53,-0.44,40.84,1.45,0.13,5.45
4,-2,-301,-37,-261,3906,0.16,-0.14,-22.52,-0.37,-2.61,39.06,-4.52,-0.43,40.93,1.38,0.22,4.99
-5,-1,-288,-63,-342,3876,0.11,-0.13,-22.03,-0.63,-3.42,38.76,-4.52,-0.42,41.02,1.53,0.19,4.76
-3,-4,-240,-27,-308,3908,0.08,-0.14,-21.29,-0.27,-3.08,39.08,-4.52,-0.41,41.10,1.51,0.24,4.17
-1,-4,-246,-23,-277,3926,0.07,-0.15,-20.66,-0.23,-2.77,39.26,-4.51,-0.40,41.18,1.48,0.24,4.07
5,-14,-298,-37,-179,3921,0.09,-0.22,-20.41,-0.37,-1.79,39.21,-4.49,-0.40,41.27,1.38,0.41,4.45
13,1,-346,-40,-199,3861,0.16,-0.19,-20.48,-0.40,-1.99,38.61,-4.47,-0.40,41.35,1.23,0.18,4.86
2,-8,-416,-99,-135,3915,0.16,-0.22,-20.97,-0.99,-1.35,39.15,-4.46,-0.40,41.43,1.39,0.32,5.57
8,-7,-417,-84,-131,3894,0.19,-0.24,-21.42,-0.84,-1.31,38.94,-4.44,-0.39,41.52,1.29,0.31,5.67
-2,-11,-417,-72,-257,3955,0.16,-0.29,-21.82,-0.72,-2.57,39.55,-4.43,-0.38,41.60,1.44,0.38,5.76
0,-12,-425,-1,-371,3879,0.14,-0.33,-22.23,-0.01,-3.71,38.79,-4.45,-0.39,41.69,1.42,0.41,5.92
0,-3,-297,-32,-275,3850,0.13,-0.32,-21.82,-0.32,-2.75,38.50,-4.44,-0.38,41.78,1.43,0.27,4.73
-1,4,-284,-45,-266,3933,0.11,-0.26,-21.37,-0.45,-2.66,39.33,-4.43,-0.37,41.86,1.44,0.14,4.51
1,-3,-306,-28,-276,3907,0.11,-0.25,-21.10,-0.28,-2.76,39.07,-4.42,-0.36,41.95,1.41,0.24,4.63
0,-4,-313,2,-280,3913,0.10,-0.25,-20.90,0.02,-2.80,39.13,-4.41,-0.35,42.03,1.43,0.26,4.63
5,-2,-323,-21,-331,3886,0.12,-0.24,-20.78,-0.21,-3.31,38.86,-4.42,-0.35,42.11,1.35,0.22,4.68
3,-5,-335,1,-307,3909,0.12,-0.25,-20.74,0.01,-3.07,39.09,-4.42,-0.34,42.20,1.38,0.26,4.77
8,-1,-348,-26,-360,3897,0.16,-0.23,-20.79,-0.26,-3.60,38.97,-4.43,-0.33,42.28,1.29,0.19,4.89
-2,1,-344,-25,-352,3891,0.13,-0.20,-20.81,-0.25,-3.52,38.91,-4.45,-0.33,42.36,1.46,0.15,4.85
3,5,-358,-20,-340,3905,0.14,-0.15,-20.91,-0.20,-3.40,39.05,-4.46,-0.32,42.45,1.38,0.07,4.99
0,2,-369,-38,-326,3878,0.12,-0.12,-21.07,-0.38,-3.26,38.78,-4.46,-0.31,42.53,1.43,0.11,5.11
-2,6,-306,2,-366,3893,0.10,-0.07,-20.83,0.02,-3.66,38.93,-4.48,-0.31,42.61,1.48,0.03,4.52
0,0,-268,31,-408,3916,0.09,-0.07,-20.38,0.31,-4.08,39.16,-4.50,-0.32,42.69,1.46,0.13,4.08
-3,-1,-141,5,-389,3906,0.06,-0.06,-19.21,0.05,-3.89,39.06,-4.51,-0.32,42.77,1.52,0.14,2.73
-3,-1,-134,10,-320,3933,0.04,-0.06,-18.10,0.10,-3.20,39.33,-4.52,-0.31,42.84,1.53,0.14,2.40
5,0,-142,-7,-256,3889,0.06,-0.06,-17.16,-0.07,-2.56,38.89,-4.51,-0.31,42.91,1.39,0.12,2.24
2,-2,-142,5,-267,3916,0.07,-0.06,-16.31,0.05,-2.67,39.16,-4.49,-0.31,42.98,1.43,0.15,2.04
-9,-2,-93,-90,-369,3896,0.01,-0.07,-15.25,-0.90,-3.69,38.96,-4.50,-0.30,43.04,1.62,0.15,1.37
-11,-2,-77,-60,-334,3904,-0.06,-0.08,-14.19,-0.60,-3.34,39.04,-4.50,-0.29,43.09,1.67,0.15,0.98
-7,0,-43,-94,-250,3887,-0.10,-0.07,-13.03,-0.94,-2.50,38.87,-4.50,-0.27,43.15,1.62,0.11,0.42
-7,-5,-40,-111,-222,3911,-0.13,-0.09,-11.97,-1.11,-2.22,39.11,-4.49,-0.26,43.19,1.63,0.19,0.14
-5,-3,-28,-50,-257,3927,-0.15,-0.10,-10.95,-0.50,-2.57,39.27,-4.48,-0.25,43.24,1.60,0.16,-0.21
-2,-1,-20,-31,-293,3958,-0.14,-0.10,-9.98,-0.31,-2.93,39.58,-4.47,-0.24,43.28,1.55,0.12,-0.51
4,1,-16,-50,-313,3901,-0.11,-0.08,-9.08,-0.50,-3.13,39.01,-4.47,-0.22,43.31,1.45,0.08,-0.76
1,0,-17,-52,-319,3898,-0.09,-0.07,-8.27,-0.52,-3.19,38.98,-4.48,-0.21,43.35,1.49,0.09,-0.94
4,5,-36,-32,-337,3911,-0.06,-0.04,-7.66,-0.32,-3.37,39.11,-4.49,-0.20,43.38,1.44,-0.00,-0.93
2,5,-46,-57,-339,3888,-0.04,-0.00,-7.18,-0.57,-3.39,38.88,-4.49,-0.18,43.40,1.46,-0.02,-0.96
0,-1,-50,-15,-308,3907,-0.03,-0.01,-6.77,-0.15,-3.08,39.07,-4.50,-0.16,43.43,1.49,0.07,-1.02
0,-3,-47,-12,-282,3902,-0.03,-0.02,-6.38,-0.12,-2.82,39.02,-4.48,-0.15,43.46,1.49,0.10,-1.14
-2,-4,-22,9,-267,3912,-0.04,-0.05,-5.87,0.09,-2.67,39.12,-4.46,-0.16,43.48,1.52,0.13,-1.47
-2,-3,-15,-23,-293,3921,-0.05,-0.06,-5.38,-0.23,-2.93,39.21,-4.46,-0.14,43.50,1.52,0.11,-1.65
3,-1,-7,-27,-307,3924,-0.03,-0.06,-4.88,-0.27,-3.07,39.24,-4.46,-0.12,43.52,1.43,0.07,-1.84
4,1,-6,-18,-303,3910,0.00,-0.05,-4.43,-0.18,-3.03,39.10,-4.46,-0.11,43.54,1.41,0.03,-1.95
4,-1,-5,-26,-299,3901,0.03,-0.05,-4.02,-0.26,-2.99,39.01,-4.45,-0.09,43.56,1.40,0.06,-2.06
3,-2,-6,-29,-309,3896,0.04,-0.06,-3.65,-0.29,-3.09,38.96,-4.46,-0.07,43.57,1.41,0.07,-2.14
1,-5,-6,-43,-310,3901,0.04,-0.08,-3.32,-0.43,-3.10,39.01,-4.46,-0.06,43.58,1.44,0.12,-2.22
1,-4,-6,-42,-305,3906,0.05,-0.10,-3.03,-0.42,-3.05,39.06,-4.46,-0.04,43.59,1.44,0.10,-2.29
-2,1,3,-84,-339,3916,0.03,-0.08,-2.71,-0.84,-3.39,39.16,-4.47,-0.02,43.61,1.50,0.02,-2.44
2,1,5,-108,-353,3920,0.04,-0.07,-2.41,-1.08,-3.53,39.20,-4.47,-0.01,43.62,1.43,0.01,-2.53
2,-1,-18,-111,-314,3923,0.05,-0.07,-2.27,-1.11,-3.14,39.23,-4.47,0.01,43.62,1.43,0.03,-2.37
-2,-2,-21,-20,-296,3932,0.03,-0.07,-2.18,-0.20,-2.96,39.32,-4.46,0.02,43.63,1.49,0.04,-2.36
-1,-1,4,-15,-318,3883,0.02,-0.07,-1.93,-0.15,-3.18,38.83,-4.48,0.04,43.64,1.49,0.03,-2.63
-1,0,9,-16,-322,3905,0.01,-0.06,-1.69,-0.16,-3.22,39.05,-4.49,0.05,43.65,1.49,0.00,-2.73
0,5,14,-82,-311,3917,0.01,-0.03,-1.43,-0.82,-3.11,39.17,-4.49,0.06,43.65,1.48,-0.09,-2.84
4,7,17,-60,-319,3899,0.03,0.02,-1.18,-0.60,-3.19,38.99,-4.50,0.08,43.66,1.41,-0.14,-2.92
-3,2,12,25,-252,3906,0.01,0.03,-0.99,0.25,-2.52,39.06,-4.48,0.07,43.66,1.52,-0.06,-2.92
-2,3,17,28,-279,3888,-0.00,0.04,-0.79,0.28,-2.79,38.88,-4.47,0.06,43.66,1.51,-0.08,-3.01
0,5,23,-9,-307,3878,-0.00,0.07,-0.57,-0.09,-3.07,38.78,-4.48,0.07,43.67,1.48,-0.12,-3.12
-3,4,12,1,-258,3899,-0.02,0.09,-0.44,0.01,-2.58,38.99,-4.46,0.07,43.67,1.52,-0.11,-3.05
1,3,-11,36,-238,3895,-0.01,0.10,-0.46,0.36,-2.38,38.95,-4.45,0.06,43.67,1.46,-0.10,-2.85
-1,3,-8,77,-245,3902,-0.02,0.11,-0.47,0.77,-2.45,39.02,-4.44,0.05,43.67,1.48,-0.09,-2.88
-1,0,-2,12,-273,3904,-0.02,0.10,-0.43,0.12,-2.73,39.04,-4.42,0.04,43.67,1.48,-0.04,-2.94
-2,0,-2,-6,-284,3902,-0.03,0.09,-0.40,-0.06,-2.84,39.02,-4.40,0.04,43.68,1.49,-0.04,-2.95
-3,0,0,-20,-307,3906,-0.05,0.08,-0.36,-0.20,-3.07,39.06,-4.41,0.06,43.68,1.51,-0.04,-2.97
-3,-1,2,-12,-305,3900,-0.06,0.06,-0.31,-0.12,-3.05,39.00,-4.42,0.08,43.68,1.52,-0.03,-3.00
-4,2,8,-32,-305,3887,-0.08,0.07,-0.23,-0.32,-3.05,38.87,-4.42,0.09,43.68,1.54,-0.08,-3.07
-2,1,7,-15,-272,3910,-0.08,0.07,-0.17,-0.15,-2.72,39.10,-4.40,0.10,43.68,1.51,-0.07,-3.08
-3,-2,-2,0,-281,3919,-0.09,0.05,-0.16,0.00,-2.81,39.19,-4.39,0.09,43.68,1.52,-0.02,-3.00
-1,-3,-3,-42,-307,3902,-0.09,0.03,-0.16,-0.42,-3.07,39.02,-4.39,0.11,43.68,1.49,0.00,-2.99
0,0,-6,-38,-301,3892,-0.08,0.02,-0.18,-0.38,-3.01,38.92,-4.39,0.13,43.68,1.47,-0.05,-2.96
2,2,-9,-34,-304,3899,-0.06,0.03,-0.22,-0.34,-3.04,38.99,-4.40,0.15,43.68,1.44,-0.09,-2.93
0,-3,-11,-30,-308,3914,-0.05,0.01,-0.27,-0.30,-3.08,39.14,-4.40,0.17,43.68,1.47,-0.01,-2.90
0,-3,-11,-28,-311,3912,-0.05,-0.01,-0.31,-0.28,-3.11,39.12,-4.41,0.18,43.69,1.47,-0.01,-2.89
1,-1,-5,-20,-322,3906,-0.04,-0.01,-0.31,-0.20,-3.22,39.06,-4.43,0.19,43.69,1.46,-0.04,-2.94
0,-2,-4,-32,-315,3902,-0.03,-0.02,-0.30,-0.32,-3.15,39.02,-4.44,0.20,43.69,1.48,-0.03,-2.95
-4,-5,-9,-25,-320,3900,-0.05,-0.05,-0.32,-0.25,-3.20,39.00,-4.45,0.21,43.69,1.55,0.02,-2.91
-4,-8,-9,0,-285,3917,-0.07,-0.10,-0.35,0.00,-2.85,39.17,-4.44,0.20,43.69,1.55,0.08,-2.90
5,-3,-15,-81,-312,3917,-0.04,-0.10,-0.40,-0.81,-3.12,39.17,-4.44,0.22,43.69,1.40,0.01,-2.84
-1,-2,-21,-86,-329,3901,-0.04,-0.11,-0.49,-0.86,-3.29,39.01,-4.45,0.24,43.69,1.50,-0.01,-2.76
3,-1,-24,-13,-294,3913,-0.02,-0.10,-0.59,-0.13,-2.94,39.13,-4.43,0.23,43.70,1.42,-0.03,-2.72
3,-2,-19,-4,-284,3901,0.00,-0.10,-0.65,-0.04,-2.84,39.01,-4.42,0.22,43.70,1.41,-0.01,-2.75
2,-8,-21,-52,-293,3915,0.02,-0.14,-0.71,-0.52,-2.93,39.15,-4.41,0.24,43.70,1.42,0.09,-2.71
2,-8,-29,-72,-298,3918,0.03,-0.18,-0.82,-0.72,-2.98,39.18,-4.41,0.25,43.71,1.42,0.09,-2.62
4,-3,-71,-103,-277,3913,0.05,-0.18,-1.17,-1.03,-2.77,39.13,-4.40,0.27,43.71,1.38,0.01,-2.18
3,-1,-82,-93,-278,3916,0.06,-0.17,-1.55,-0.93,-2.78,39.16,-4.40,0.29,43.72,1.39,-0.03,-2.00
3,0,-79,99,-350,3917,0.07,-0.15,-1.88,0.99,-3.50,39.17,-4.41,0.27,43.72,1.39,-0.04,-1.95
0,-4,-55,133,-330,3870,0.07,-0.16,-2.03,1.33,-3.30,38.70,-4.41,0.25,43.73,1.43,0.03,-2.12
-3,-11,-19,-1,-306,3906,0.04,-0.21,-1.94,-0.01,-3.06,39.06,-4.41,0.23,43.74,1.49,0.16,-2.44
-1,-10,-17,-23,-310,3917,0.03,-0.25,-1.85,-0.23,-3.10,39.17,-4.43,0.24,43.75,1.47,0.15,-2.48
-1,-2,-22,-51,-318,3902,0.02,-0.24,-1.80,-0.51,-3.18,39.02,-4.44,0.26,43.75,1.47,0.02,-2.45
0,2,-28,-48,-314,3900,0.02,-0.20,-1.79,-0.48,-3.14,39.00,-4.44,0.27,43.76,1.46,-0.06,-2.40
13,19,-75,-106,-391,3887,0.10,-0.07,-2.07,-1.06,-3.91,38.87,-4.45,0.28,43.77,1.24,-0.36,-1.94
0,15,-104,-159,-411,3892,0.09,0.03,-2.50,-1.59,-4.11,38.92,-4.47,0.30,43.78,1.45,-0.34,-1.60
2,13,-138,-35,-330,3847,0.09,0.11,-3.09,-0.35,-3.30,38.47,-4.48,0.31,43.79,1.42,-0.33,-1.17
0,7,-140,-24,-285,3894,0.08,0.14,-3.63,-0.24,-2.85,38.94,-4.46,0.31,43.81,1.45,-0.25,-1.02
4,9,-132,21,-262,3904,0.10,0.18,-4.07,0.21,-2.62,39.04,-4.45,0.29,43.82,1.38,-0.29,-0.99
1,10,-121,39,-262,3909,0.09,0.22,-4.41,0.39,-2.62,39.09,-4.44,0.28,43.84,1.42,-0.31,-1.01
4,-6,-129,54,-257,3920,0.11,0.17,-4.75,0.54,-2.57,39.20,-4.43,0.26,43.86,1.37,-0.05,-0.86
3,-7,-128,45,-257,3913,0.12,0.11,-5.06,0.45,-2.57,39.13,-4.42,0.25,43.88,1.38,-0.01,-0.80
0,-6,-83,32,-269,3920,0.10,0.06,-5.06,0.32,-2.69,39.20,-4.41,0.23,43.90,1.42,-0.00,-1.18
-2,-7,-49,-28,-290,3905,0.08,0.01,-4.85,-0.28,-2.90,39.05,-4.39,0.24,43.92,1.46,0.02,-1.52
-1,0,-7,-57,-305,3919,0.07,0.01,-4.41,-0.57,-3.05,39.19,-4.40,0.26,43.94,1.45,-0.09,-1.98
0,0,-4,-36,-306,3937,0.06,0.01,-3.99,-0.36,-3.06,39.37,-4.40,0.28,43.95,1.43,-0.09,-2.10
2,1,1,-25,-277,3903,0.07,0.01,-3.59,-0.25,-2.77,39.03,-4.38,0.28,43.97,1.39,-0.11,-2.24
2,1,-1,-27,-281,3887,0.07,0.02,-3.23,-0.27,-2.81,38.87,-4.36,0.29,43.98,1.39,-0.12,-2.31
4,2,-7,-37,-274,3889,0.09,0.03,-2.95,-0.37,-2.74,38.89,-4.35,0.30,43.99,1.35,-0.14,-2.32
5,5,-10,-41,-287,3892,0.11,0.06,-2.72,-0.41,-2.87,38.92,-4.34,0.31,44.00,1.32,-0.20,-2.35
4,-2,-48,-205,-224,3914,0.12,0.04,-2.74,-2.05,-2.24,39.14,-4.33,0.33,44.01,1.33,-0.09,-2.03
5,-1,-84,-270,-210,3928,0.14,0.03,-2.98,-2.70,-2.10,39.28,-4.33,0.35,44.02,1.31,-0.11,-1.67
5,1,-244,-235,-230,3872,0.16,0.03,-4.17,-2.35,-2.30,38.72,-4.32,0.36,44.04,1.30,-0.14,-0.03
2,3,-287,-122,-287,3873,0.16,0.05,-5.50,-1.22,-2.87,38.73,-4.32,0.38,44.06,1.35,-0.19,0.64
8,-1,-334,-7,-191,3854,0.19,0.04,-6.99,-0.07,-1.91,38.54,-4.30,0.37,44.09,1.24,-0.12,1.39
2,1,-354,23,-274,3883,0.18,0.04,-8.45,0.23,-2.74,38.83,-4.30,0.35,44.12,1.33,-0.14,1.90
0,-3,-356,88,-297,3910,0.16,0.02,-9.78,0.88,-2.97,39.10,-4.30,0.33,44.16,1.37,-0.07,2.23
1,-1,-341,63,-368,3939,0.15,0.01,-10.88,0.63,-3.68,39.39,-4.31,0.32,44.21,1.36,-0.09,2.36
9,-3,-275,59,-374,3896,0.19,-0.01,-11.47,0.59,-3.74,38.96,-4.32,0.30,44.25,1.23,-0.05,1.93
6,12,-270,67,-416,3912,0.21,0.06,-11.97,0.67,-4.16,39.12,-4.33,0.29,44.30,1.27,-0.30,2.01
12,17,-197,61,-361,3870,0.26,0.16,-11.97,0.61,-3.61,38.70,-4.34,0.27,44.35,1.17,-0.40,1.39
3,12,-180,88,-362,3896,0.25,0.22,-11.87,0.88,-3.62,38.96,-4.35,0.25,44.40,1.31,-0.33,1.22
0,5,-58,145,-396,3904,0.23,0.23,-11.04,1.45,-3.96,39.04,-4.36,0.23,44.44,1.37,-0.22,-0.02
0,-1,-29,23,-321,3906,0.21,0.20,-10.11,0.23,-3.21,39.06,-4.37,0.21,44.48,1.38,-0.12,-0.49
-2,-2,-13,-42,-286,3907,0.17,0.17,-9.18,-0.42,-2.86,39.07,-4.36,0.23,44.52,1.42,-0.10,-0.84
-1,-1,-16,-38,-273,3916,0.15,0.14,-8.36,-0.38,-2.73,39.16,-4.35,0.24,44.55,1.40,-0.11,-1.01
0,-3,-29,-57,-303,3933,0.13,0.11,-7.70,-0.57,-3.03,39.33,-4.35,0.26,44.58,1.39,-0.07,-1.06
0,0,-23,-18,-341,3918,0.12,0.10,-7.07,-0.18,-3.41,39.18,-4.37,0.25,44.61,1.40,-0.11,-1.26
-6,0,9,-24,-315,3904,0.07,0.09,-6.31,-0.24,-3.15,39.04,-4.38,0.26,44.63,1.52,-0.11,-1.71
-5,-1,8,-24,-316,3908,0.03,0.07,-5.63,-0.24,-3.16,39.08,-4.40,0.26,44.66,1.52,-0.09,-1.87
-2,-2,12,-29,-291,3900,0.02,0.05,-4.99,-0.29,-2.91,39.00,-4.39,0.28,44.68,1.47,-0.08,-2.05
-2,-2,13,-34,-298,3905,0.01,0.04,-4.42,-0.34,-2.98,39.05,-4.39,0.29,44.69,1.48,-0.08,-2.20
-3,-2,12,-7,-282,3937,-0.01,0.02,-3.90,-0.07,-2.82,39.37,-4.37,0.28,44.71,1.49,-0.07,-2.31
-2,-1,16,5,-292,3909,-0.02,0.01,-3.41,0.05,-2.92,39.09,-4.37,0.26,44.72,1.48,-0.08,-2.46
-4,1,41,13,-366,3902,-0.05,0.02,-2.82,0.13,-3.66,39.02,-4.38,0.26,44.73,1.52,-0.11,-2.81
-6,7,57,9,-395,3904,-0.08,0.06,-2.19,0.09,-3.95,39.04,-4.40,0.25,44.74,1.57,-0.21,-3.10
-7,-4,122,57,-328,3904,-0.11,0.03,-1.23,0.57,-3.28,39.04,-4.41,0.23,44.75,1.60,-0.02,-3.88
-6,-2,132,44,-309,3892,-0.14,0.01,-0.30,0.44,-3.09,38.92,-4.41,0.21,44.75,1.59,-0.04,-4.18
-8,6,172,4,-335,3902,-0.17,0.05,0.78,0.04,-3.35,39.02,-4.43,0.21,44.75,1.64,-0.17,-4.77
-5,3,178,-18,-292,3914,-0.19,0.06,1.79,-0.18,-2.92,39.14,-4.41,0.21,44.74,1.59,-0.13,-5.06
0,9,146,-81,-275,3880,-0.17,0.11,2.50,-0.81,-2.75,38.80,-4.41,0.23,44.73,1.51,-0.25,-4.96
1,13,139,-64,-281,3898,-0.15,0.18,3.10,-0.64,-2.81,38.98,-4.40,0.25,44.72,1.48,-0.34,-5.04
1,5,110,-61,-253,3898,-0.12,0.19,3.46,-0.61,-2.53,38.98,-4.39,0.26,44.70,1.47,-0.22,-4.88
0,5,75,-153,-194,3910,-0.11,0.20,3.57,-1.53,-1.94,39.10,-4.38,0.28,44.69,1.48,-0.23,-4.60
4,11,10,-59,-273,3907,-0.08,0.25,3.27,-0.59,-2.73,39.07,-4.37,0.30,44.68,1.40,-0.34,-3.98
4,11,6,-42,-289,3912,-0.04,0.29,2.98,-0.42,-2.89,39.12,-4.36,0.32,44.66,1.39,-0.36,-3.88
-4,0,6,-21,-347,3903,-0.06,0.26,2.72,-0.21,-3.47,39.03,-4.38,0.32,44.65,1.53,-0.19,-3.82
-2,3,7,-50,-284,3900,-0.07,0.25,2.49,-0.50,-2.84,39.00,-4.37,0.34,44.64,1.49,-0.23,-3.77
2,1,-1,-1,-312,3890,-0.05,0.24,2.24,-0.01,-3.12,38.90,-4.38,0.32,44.64,1.43,-0.19,-3.64
-2,-2,-2,-23,-317,3903,-0.06,0.20,2.00,-0.23,-3.17,39.03,-4.40,0.33,44.63,1.50,-0.14,-3.58
-4,-5,-2,-56,-331,3887,-0.08,0.15,1.79,-0.56,-3.31,38.87,-4.41,0.34,44.62,1.54,-0.08,-3.53
-5,-4,-3,-31,-302,3903,-0.10,0.11,1.59,-0.31,-3.02,39.03,-4.41,0.36,44.61,1.56,-0.09,-3.47
1,-4,1,-29,-311,3912,-0.08,0.07,1.44,-0.29,-3.11,39.12,-4.43,0.37,44.61,1.47,-0.08,-3.47
2,-4,7,-36,-336,3887,-0.06,0.04,1.34,-0.36,-3.36,38.87,-4.45,0.37,44.60,1.46,-0.08,-3.50
1,-1,14,-18,-289,3900,-0.05,0.03,1.29,-0.18,-2.89,39.00,-4.43,0.37,44.60,1.46,-0.12,-3.54
1,-1,14,-27,-277,3911,-0.04,0.02,1.25,-0.27,-2.77,39.11,-4.41,0.37,44.59,1.45,-0.11,-3.53
0,1,5,-25,-300,3915,-0.04,0.03,1.15,-0.25,-3.00,39.15,-4.40,0.37,44.59,1.46,-0.14,-3.43
1,1,5,-29,-300,3922,-0.03,0.03,1.07,-0.29,-3.00,39.22,-4.39,0.38,44.58,1.44,-0.15,-3.41
4,0,-2,-10,-293,3910,0.00,0.03,0.95,-0.10,-2.93,39.10,-4.38,0.37,44.58,1.38,-0.13,-3.33
3,-1,-2,-6,-315,3911,0.02,0.02,0.84,-0.06,-3.15,39.11,-4.39,0.35,44.58,1.40,-0.11,-3.30
4,5,-6,-19,-304,3919,0.04,0.05,0.72,-0.19,-3.04,39.19,-4.40,0.34,44.57,1.38,-0.20,-3.24
5,5,-4,-14,-299,3914,0.07,0.07,0.62,-0.14,-2.99,39.14,-4.40,0.32,44.57,1.35,-0.20,-3.23
1,0,0,-24,-311,3911,0.07,0.07,0.56,-0.24,-3.11,39.11,-4.41,0.32,44.57,1.42,-0.13,-3.25
0,0,0,-25,-314,3900,0.06,0.06,0.51,-0.25,-3.14,39.00,-4.43,0.33,44.57,1.44,-0.13,-3.24
1,2,1,-36,-300,3907,0.06,0.07,0.46,-0.36,-3.00,39.07,-4.43,0.35,44.57,1.43,-0.17,-3.24
1,2,2,-36,-298,3915,0.06,0.07,0.43,-0.36,-2.98,39.15,-4.42,0.36,44.56,1.43,-0.17,-3.24
3,3,0,-19,-301,3903,0.07,0.08,0.38,-0.19,-3.01,39.03,-4.42,0.35,44.56,1.39,-0.19,-3.21
2,5,-1,10,-276,3921,0.08,0.10,0.34,0.10,-2.76,39.21,-4.41,0.33,44.56,1.40,-0.22,-3.19
-2,9,5,11,-244,3918,0.06,0.15,0.34,0.11,-2.44,39.18,-4.39,0.32,44.56,1.46,-0.29,-3.24
-1,12,10,-4,-291,3912,0.05,0.21,0.36,-0.04,-2.91,39.12,-4.38,0.31,44.56,1.45,-0.35,-3.29
1,10,17,-54,-332,3913,0.05,0.25,0.43,-0.54,-3.32,39.13,-4.39,0.32,44.56,1.42,-0.33,-3.36
0,9,18,-73,-342,3925,0.04,0.28,0.50,-0.73,-3.42,39.25,-4.41,0.34,44.55,1.44,-0.33,-3.39
-1,4,16,-31,-310,3896,0.03,0.27,0.55,-0.31,-3.10,38.96,-4.42,0.35,44.55,1.46,-0.26,-3.38
-3,-1,20,-20,-306,3902,0.01,0.24,0.61,-0.20,-3.06,39.02,-4.43,0.34,44.55,1.51,-0.17,-3.43
0,-2,11,-55,-307,3905,0.01,0.20,0.62,-0.55,-3.07,39.05,-4.44,0.36,44.55,1.46,-0.15,-3.36
2,0,6,-49,-311,3914,0.02,0.18,0.59,-0.49,-3.11,39.14,-4.44,0.38,44.55,1.43,-0.18,-3.31
1,1,1,-21,-282,3901,0.02,0.17,0.54,-0.21,-2.82,39.01,-4.42,0.37,44.54,1.44,-0.19,-3.25
-1,2,2,-3,-273,3915,0.02,0.17,0.50,-0.03,-2.73,39.15,-4.41,0.36,44.54,1.47,-0.20,-3.25
2,5,9,-22,-293,3918,0.03,0.18,0.50,-0.22,-2.93,39.18,-4.39,0.36,44.54,1.41,-0.25,-3.31
2,5,10,-28,-291,3917,0.04,0.19,0.51,-0.28,-2.91,39.17,-4.37,0.37,44.54,1.40,-0.26,-3.32
4,9,17,-23,-278,3906,0.06,0.23,0.57,-0.23,-2.78,39.06,-4.36,0.37,44.54,1.36,-0.33,-3.39
1,3,24,-65,-216,3833,0.06,0.22,0.66,-0.65,-2.16,38.33,-4.34,0.38,44.53,1.40,-0.24,-3.48
1,-9,103,50,-162,3930,0.06,0.15,1.22,0.50,-1.62,39.30,-4.32,0.37,44.53,1.39,-0.03,-4.28
1,-9,111,-99,-209,3933,0.06,0.08,1.77,-0.99,-2.09,39.33,-4.31,0.38,44.52,1.39,-0.01,-4.47
-4,-12,81,-131,-323,3952,0.03,-0.00,2.09,-1.31,-3.23,39.52,-4.31,0.40,44.51,1.48,0.05,-4.29
3,-7,74,-101,-360,3950,0.04,-0.05,2.33,-1.01,-3.60,39.50,-4.32,0.41,44.50,1.37,-0.02,-4.29
-2,-4,96,-78,-356,3895,0.03,-0.07,2.69,-0.78,-3.56,38.95,-4.34,0.43,44.49,1.45,-0.06,-4.56
-6,-6,90,-103,-349,3931,-0.01,-0.10,2.97,-1.03,-3.49,39.31,-4.35,0.44,44.48,1.53,-0.02,-4.57
-6,-9,78,-108,-287,3874,-0.05,-0.14,3.15,-1.08,-2.87,38.74,-4.35,0.46,44.47,1.54,0.03,-4.51
-8,-12,86,-116,-263,3860,-0.09,-0.20,3.36,-1.16,-2.63,38.60,-4.34,0.48,44.45,1.58,0.09,-4.63
-1,-10,106,-160,-299,3913,-0.09,-0.24,3.67,-1.60,-2.99,39.13,-4.34,0.50,44.44,1.47,0.06,-4.87
-2,-4,105,-188,-338,3878,-0.09,-0.24,3.94,-1.88,-3.38,38.78,-4.35,0.51,44.42,1.49,-0.03,-4.93
-5,-2,93,-231,-320,3900,-0.11,-0.23,4.11,-2.31,-3.20,39.00,-4.35,0.53,44.41,1.55,-0.07,-4.87
-3,6,75,-250,-329,3911,-0.12,-0.17,4.16,-2.50,-3.29,39.11,-4.35,0.55,44.39,1.52,-0.22,-4.72
0,2,78,-18,-285,3908,-0.11,-0.14,4.22,-0.18,-2.85,39.08,-4.34,0.54,44.37,1.47,-0.16,-4.76
1,4,90,-11,-327,3902,-0.09,-0.10,4.35,-0.11,-3.27,39.02,-4.36,0.52,44.36,1.45,-0.20,-4.89
-8,-7,92,-8,-331,3922,-0.13,-0.13,4.47,-0.08,-3.31,39.22,-4.37,0.51,44.34,1.60,-0.02,-4.94
5,3,78,55,-406,3907,-0.09,-0.10,4.50,0.55,-4.06,39.07,-4.38,0.50,44.32,1.40,-0.18,-4.82
-3,-2,48,119,-365,3936,-0.10,-0.10,4.34,1.19,-3.65,39.36,-4.39,0.49,44.30,1.52,-0.10,-4.53
-3,-1,43,125,-359,3884,-0.11,-0.10,4.17,1.25,-3.59,38.84,-4.40,0.47,44.29,1.53,-0.11,-4.45
-1,-4,44,106,-362,3895,-0.10,-0.11,4.02,1.06,-3.62,38.95,-4.41,0.45,44.27,1.50,-0.05,-4.42
-2,-1,47,91,-363,3911,-0.10,-0.11,3.91,0.91,-3.63,39.11,-4.42,0.44,44.26,1.52,-0.10,-4.42
-4,3,54,41,-287,3929,-0.12,-0.08,3.85,0.41,-2.87,39.29,-4.41,0.42,44.24,1.55,-0.16,-4.46
2,-1,28,68,-259,3922,-0.09,-0.08,3.63,0.68,-2.59,39.22,-4.40,0.41,44.23,1.45,-0.09,-4.19
2,-2,8,96,-255,3898,-0.07,-0.08,3.32,0.96,-2.55,38.98,-4.40,0.39,44.21,1.44,-0.07,-3.94
3,-2,6,25,-288,3898,-0.05,-0.09,3.02,0.25,-2.88,38.98,-4.39,0.37,44.20,1.42,-0.07,-3.86
1,3,4,-8,-291,3904,-0.04,-0.06,2.74,-0.08,-2.91,39.04,-4.39,0.36,44.19,1.44,-0.15,-3.77
1,6,4,3,-273,3910,-0.03,-0.02,2.49,0.03,-2.73,39.10,-4.37,0.34,44.18,1.44,-0.20,-3.71
4,8,9,-28,-302,3901,0.00,0.03,2.30,-0.28,-3.02,39.01,-4.38,0.36,44.17,1.39,-0.25,-3.71
3,8,10,-29,-310,3901,0.02,0.08,2.13,-0.29,-3.10,39.01,-4.40,0.37,44.16,1.40,-0.27,-3.68
4,4,11,-27,-307,3892,0.04,0.10,1.99,-0.27,-3.07,38.92,-4.42,0.37,44.15,1.38,-0.21,-3.65
4,3,12,-33,-311,3894,0.06,0.10,1.86,-0.33,-3.11,38.94,-4.43,0.38,44.15,1.38,-0.20,-3.63
1,2,9,-38,-306,3897,0.06,0.11,1.73,-0.38,-3.06,38.97,-4.44,0.40,44.14,1.43,-0.20,-3.57
1,3,4,-47,-302,3904,0.06,0.11,1.58,-0.47,-3.02,39.04,-4.44,0.42,44.13,1.43,-0.22,-3.50
2,5,0,-38,-306,3900,0.07,0.13,1.42,-0.38,-3.06,39.00,-4.44,0.44,44.13,1.42,-0.26,-3.42
2,5,-1,-35,-300,3909,0.07,0.15,1.27,-0.35,-3.00,39.09,-4.43,0.46,44.12,1.41,-0.27,-3.38
1,3,-1,-31,-305,3901,0.07,0.15,1.14,-0.31,-3.05,39.01,-4.45,0.46,44.12,1.43,-0.24,-3.35
0,2,0,-25,-302,3899,0.06,0.15,1.03,-0.25,-3.02,38.99,-4.45,0.44,44.11,1.45,-0.22,-3.33
1,1,-2,-31,-300,3903,0.06,0.14,0.91,-0.31,-3.00,39.03,-4.43,0.45,44.11,1.43,-0.21,-3.29
1,1,-2,-32,-301,3900,0.06,0.13,0.81,-0.32,-3.01,39.00,-4.42,0.46,44.11,1.42,-0.21,-3.26
2,2,1,-33,-302,3903,0.07,0.13,0.73,-0.33,-3.02,39.03,-4.42,0.48,44.10,1.41,-0.23,-3.27
2,3,1,-34,-302,3894,0.08,0.14,0.67,-0.34,-3.02,38.94,-4.43,0.50,44.10,1.41,-0.25,-3.25
1,-2,5,-18,-301,3920,0.07,0.11,0.63,-0.18,-3.01,39.20,-4.43,0.48,44.10,1.42,-0.16,-3.28
1,0,3,-38,-303,3902,0.07,0.10,0.59,-0.38,-3.03,39.02,-4.43,0.50,44.10,1.42,-0.19,-3.25
-3,0,0,-3,-282,3892,0.05,0.09,0.53,-0.03,-2.82,38.92,-4.42,0.48,44.09,1.49,-0.19,-3.21
-6,-1,3,35,-266,3900,0.01,0.08,0.49,0.35,-2.66,39.00,-4.41,0.47,44.09,1.55,-0.16,-3.23
2,-1,12,-82,-327,3911,0.02,0.06,0.52,-0.82,-3.27,39.11,-4.42,0.48,44.09,1.42,-0.16,-3.31
2,1,7,-102,-337,3914,0.03,0.06,0.51,-1.02,-3.37,39.14,-4.43,0.50,44.09,1.42,-0.20,-3.27
0,3,3,-39,-310,3905,0.02,0.07,0.48,-0.39,-3.10,39.05,-4.44,0.51,44.09,1.46,-0.24,-3.22
1,2,2,-38,-307,3899,0.03,0.08,0.44,-0.38,-3.07,38.99,-4.46,0.52,44.09,1.45,-0.23,-3.21
0,0,0,-29,-295,3906,0.03,0.07,0.40,-0.29,-2.95,39.06,-4.44,0.51,44.08,1.46,-0.19,-3.18
1,1,-1,-24,-292,3905,0.03,0.07,0.35,-0.24,-2.92,39.05,-4.43,0.50,44.08,1.44,-0.20,-3.16
1,1,0,-22,-299,3904,0.03,0.07,0.32,-0.22,-2.99,39.04,-4.42,0.48,44.08,1.44,-0.20,-3.16
1,1,-2,-17,-304,3902,0.04,0.07,0.27,-0.17,-3.04,39.02,-4.43,0.46,44.08,1.43,-0.19,-3.13
1,-2,-4,-27,-303,3911,0.04,0.05,0.22,-0.27,-3.03,39.11,-4.43,0.45,44.08,1.43,-0.13,-3.10
1,-1,-4,-30,-298,3909,0.04,0.04,0.17,-0.30,-2.98,39.09,-4.41,0.44,44.08,1.43,-0.14,-3.09
-1,0,-1,-32,-296,3918,0.03,0.03,0.15,-0.32,-2.96,39.18,-4.39,0.45,44.08,1.46,-0.16,-3.11
0,0,-1,-32,-300,3911,0.03,0.03,0.13,-0.32,-3.00,39.11,-4.39,0.47,44.08,1.44,-0.16,-3.11
0,-1,-2,-27,-309,3911,0.02,0.02,0.10,-0.27,-3.09,39.11,-4.40,0.46,44.08,1.45,-0.14,-3.09
0,-1,-2,-26,-305,3902,0.02,0.01,0.08,-0.26,-3.05,39.02,-4.41,0.44,44.08,1.45,-0.14,-3.09
-2,0,2,-26,-301,3912,0.01,0.01,0.09,-0.26,-3.01,39.12,-4.41,0.43,44.08,1.48,-0.14,-3.12
-3,0,2,-27,-299,3907,-0.01,0.01,0.09,-0.27,-2.99,39.07,-4.40,0.41,44.08,1.50,-0.14,-3.12
-4,-3,8,-45,-298,3903,-0.03,-0.01,0.13,-0.45,-2.98,39.03,-4.39,0.43,44.08,1.52,-0.09,-3.18
-3,-1,4,-28,-293,3904,-0.05,-0.01,0.14,-0.28,-2.93,39.04,-4.38,0.43,44.07,1.51,-0.12,-3.15
-2,1,2,-20,-297,3896,-0.06,-0.01,0.14,-0.20,-2.97,38.96,-4.37,0.41,44.07,1.49,-0.15,-3.13
-1,1,3,-16,-298,3889,-0.06,0.00,0.14,-0.16,-2.98,38.89,-4.38,0.39,44.07,1.48,-0.14,-3.14
0,1,1,-26,-294,3902,-0.05,0.01,0.13,-0.26,-2.94,39.02,-4.36,0.39,44.07,1.45,-0.15,-3.13
1,2,1,-33,-298,3899,-0.04,0.02,0.13,-0.33,-2.98,38.99,-4.36,0.41,44.07,1.44,-0.17,-3.12
3,5,1,-26,-297,3901,-0.02,0.05,0.12,-0.26,-2.97,39.01,-4.36,0.39,44.07,1.40,-0.22,-3.12
4,5,0,-29,-298,3908,0.01,0.07,0.11,-0.29,-2.98,39.08,-4.36,0.41,44.07,1.37,-0.23,-3.11
5,4,-2,-9,-285,3932,0.04,0.09,0.09,-0.09,-2.85,39.32,-4.35,0.39,44.07,1.35,-0.22,-3.09
9,5,-2,3,-276,3900,0.09,0.11,0.06,0.03,-2.76,39.00,-4.34,0.38,44.07,1.27,-0.24,-3.08
-3,9,39,204,-268,3893,0.06,0.15,0.30,2.04,-2.68,38.93,-4.33,0.36,44.07,1.46,-0.30,-3.49
-1,1,68,148,-299,3891,0.05,0.15,0.68,1.48,-2.99,38.91,-4.33,0.34,44.07,1.43,-0.17,-3.82
-5,-2,70,-5,-228,3914,0.01,0.12,1.04,-0.05,-2.28,39.14,-4.32,0.34,44.06,1.50,-0.12,-3.92
0,3,70,-23,-236,3944,0.01,0.13,1.36,-0.23,-2.36,39.44,-4.30,0.34,44.06,1.41,-0.20,-4.00
3,6,64,-36,-256,3962,0.03,0.15,1.62,-0.36,-2.56,39.62,-4.28,0.35,44.05,1.36,-0.25,-4.01
0,6,59,-55,-298,3891,0.03,0.17,1.82,-0.55,-2.98,38.91,-4.28,0.37,44.04,1.41,-0.26,-4.01
-3,-1,66,-76,-348,3916,0.01,0.15,2.04,-0.76,-3.48,39.16,-4.30,0.38,44.04,1.46,-0.16,-4.12
-2,-3,68,-94,-345,3893,-0.01,0.11,2.25,-0.94,-3.45,38.93,-4.31,0.40,44.03,1.45,-0.12,-4.19
0,-4,88,-77,-363,3915,-0.01,0.08,2.56,-0.77,-3.63,39.15,-4.32,0.41,44.02,1.43,-0.10,-4.43
0,-4,89,-88,-367,3885,-0.01,0.05,2.85,-0.88,-3.67,38.85,-4.34,0.42,44.01,1.43,-0.09,-4.51
-4,-6,115,-44,-433,3893,-0.03,0.01,3.26,-0.44,-4.33,38.93,-4.36,0.42,43.99,1.51,-0.05,-4.82
-6,-1,147,-44,-429,3939,-0.06,-0.00,3.83,-0.44,-4.29,39.39,-4.37,0.43,43.98,1.55,-0.13,-5.23
-8,-2,189,-62,-400,3905,-0.11,-0.01,4.60,-0.62,-4.00,39.05,-4.39,0.43,43.96,1.60,-0.11,-5.76
-1,2,201,-144,-398,3915,-0.10,0.00,5.37,-1.44,-3.98,39.15,-4.40,0.45,43.94,1.50,-0.18,-6.04
-2,8,231,-59,-378,3907,-0.10,0.05,6.24,-0.59,-3.78,39.07,-4.42,0.46,43.91,1.52,-0.29,-6.50
-4,9,253,-95,-394,3931,-0.12,0.10,7.16,-0.95,-3.94,39.31,-4.44,0.47,43.88,1.56,-0.32,-6.90
-5,18,322,-23,-412,3844,-0.14,0.20,8.41,-0.23,-4.12,38.44,-4.45,0.47,43.85,1.59,-0.49,-7.78
1,12,344,-35,-403,3963,-0.12,0.25,9.67,-0.35,-4.03,39.63,-4.47,0.48,43.81,1.50,-0.42,-8.26
-1,7,402,32,-357,3882,-0.11,0.27,11.15,0.32,-3.57,38.82,-4.48,0.47,43.77,1.53,-0.34,-9.10
-10,-4,434,23,-332,3818,-0.16,0.22,12.68,0.23,-3.32,38.18,-4.49,0.46,43.72,1.68,-0.16,-9.73
-9,-4,590,99,-472,3869,-0.20,0.17,15.01,0.99,-4.72,38.69,-4.51,0.45,43.66,1.69,-0.14,-11.59
-12,0,637,122,-474,3904,-0.25,0.15,17.40,1.22,-4.74,39.04,-4.52,0.44,43.59,1.75,-0.19,-12.55
-9,-2,704,18,-407,3975,-0.28,0.13,19.95,0.18,-4.07,39.75,-4.54,0.44,43.51,1.72,-0.15,-13.71
-4,17,709,-13,-304,3850,-0.28,0.22,22.28,-0.13,-3.04,38.50,-4.54,0.43,43.42,1.64,-0.47,-14.30
-8,9,657,-121,-238,3927,-0.30,0.25,24.06,-1.21,-2.38,39.27,-4.53,0.46,43.33,1.71,-0.36,-14.27
-5,7,641,-171,-181,3903,-0.30,0.27,25.57,-1.71,-1.81,39.03,-4.52,0.48,43.22,1.66,-0.35,-14.48
-24,-5,559,-203,-203,3890,-0.42,0.21,26.42,-2.03,-2.03,38.90,-4.51,0.50,43.12,1.98,-0.15,-13.98
-8,-1,532,-262,-248,3934,-0.42,0.18,27.02,-2.62,-2.48,39.34,-4.50,0.53,43.01,1.74,-0.22,-13.88
-8,0,429,-233,-277,3825,-0.43,0.17,26.94,-2.33,-2.77,38.25,-4.50,0.56,42.90,1.74,-0.23,-12.98
-9,12,399,-204,-280,3950,-0.44,0.22,26.68,-2.04,-2.80,39.50,-4.50,0.58,42.80,1.76,-0.44,-12.66
-6,-3,328,-83,-171,3943,-0.43,0.18,26.01,-0.83,-1.71,39.43,-4.48,0.60,42.69,1.70,-0.21,-11.90
0,7,298,-4,-239,3953,-0.39,0.21,25.23,-0.04,-2.39,39.53,-4.47,0.60,42.59,1.59,-0.37,-11.45
-10,12,289,57,-230,3941,-0.41,0.26,24.47,0.57,-2.30,39.41,-4.46,0.59,42.49,1.75,-0.46,-11.19
5,10,290,67,-260,3964,-0.34,0.29,23.79,0.67,-2.60,39.64,-4.45,0.59,42.40,1.50,-0.44,-11.03
-3,9,308,20,-252,3940,-0.33,0.32,23.29,0.20,-2.52,39.40,-4.44,0.58,42.31,1.61,-0.43,-11.06
-1,0,315,62,-183,3929,-0.30,0.29,22.88,0.62,-1.83,39.29,-4.42,0.58,42.22,1.57,-0.28,-11.02
1,-4,402,-34,-199,3903,-0.26,0.23,23.05,-0.34,-1.99,39.03,-4.40,0.58,42.12,1.52,-0.20,-11.78
-7,-11,425,2,-301,3869,-0.28,0.14,23.33,0.02,-3.01,38.69,-4.41,0.57,42.03,1.65,-0.07,-12.04
-5,6,352,-100,-326,3838,-0.28,0.17,23.15,-1.00,-3.26,38.38,-4.41,0.60,41.94,1.62,-0.34,-11.37
-8,5,350,-17,-284,3945,-0.30,0.18,22.97,-0.17,-2.84,39.45,-4.40,0.59,41.85,1.67,-0.33,-11.31
-2,2,385,16,-246,3868,-0.28,0.17,23.02,0.16,-2.46,38.68,-4.39,0.59,41.75,1.57,-0.28,-11.61
-6,-1,420,45,-276,3909,-0.29,0.15,23.28,0.45,-2.76,39.09,-4.39,0.58,41.66,1.63,-0.22,-11.96
-9,4,427,-35,-259,3910,-0.32,0.16,23.56,-0.35,-2.59,39.10,-4.37,0.58,41.57,1.68,-0.30,-12.08
-2,12,437,-12,-262,3910,-0.30,0.22,23.87,-0.12,-2.62,39.10,-4.35,0.58,41.47,1.56,-0.44,-12.23
4,9,475,-53,-217,3874,-0.24,0.25,24.38,-0.53,-2.17,38.74,-4.34,0.59,41.37,1.44,-0.41,-12.66
-7,-2,481,-41,-235,3865,-0.26,0.21,24.87,-0.41,-2.35,38.65,-4.32,0.60,41.28,1.61,-0.23,-12.82
-1,12,484,-27,-325,3965,-0.24,0.27,25.34,-0.27,-3.25,39.65,-4.33,0.60,41.17,1.52,-0.46,-12.95
2,8,476,11,-297,3889,-0.21,0.29,25.71,0.11,-2.97,38.89,-4.33,0.59,41.07,1.46,-0.40,-12.97
-21,-7,500,16,-350,3833,-0.31,0.22,26.19,0.16,-3.50,38.33,-4.35,0.59,40.97,1.85,-0.15,-13.27
-14,2,501,-34,-278,3905,-0.37,0.21,26.62,-0.34,-2.78,39.05,-4.33,0.59,40.86,1.75,-0.29,-13.38
0,12,500,49,-358,3859,-0.33,0.26,27.01,0.49,-3.58,38.59,-4.34,0.58,40.75,1.53,-0.45,-13.45
-9,8,540,19,-284,3959,-0.35,0.28,27.61,0.19,-2.84,39.59,-4.34,0.57,40.64,1.68,-0.40,-13.92
-4,2,583,82,-366,3913,-0.34,0.27,28.40,0.82,-3.66,39.13,-4.35,0.57,40.53,1.60,-0.30,-14.47
-9,3,603,59,-336,3914,-0.36,0.26,29.24,0.59,-3.36,39.14,-4.35,0.56,40.41,1.68,-0.31,-14.83
-5,-2,659,55,-216,3936,-0.36,0.22,30.34,0.55,-2.16,39.36,-4.34,0.56,40.29,1.62,-0.22,-15.55
-18,-4,665,37,-284,3864,-0.43,0.17,31.36,0.37,-2.84,38.64,-4.34,0.55,40.17,1.84,-0.17,-15.83
-7,9,717,97,-383,3861,-0.43,0.21,32.60,0.97,-3.83,38.61,-4.35,0.55,40.04,1.67,-0.38,-16.56
-10,-1,724,82,-297,3946,-0.45,0.18,33.75,0.82,-2.97,39.46,-4.35,0.54,39.90,1.72,-0.22,-16.88
-11,4,768,104,-397,3912,-0.47,0.19,35.06,1.04,-3.97,39.12,-4.36,0.53,39.76,1.75,-0.30,-17.55
-15,2,780,60,-322,3927,-0.52,0.18,36.31,0.60,-3.22,39.27,-4.37,0.53,39.62,1.83,-0.26,-17.94
-42,-33,845,-26,-385,3903,-0.72,-0.04,37.84,-0.26,-3.85,39.03,-4.39,0.54,39.47,2.31,0.34,-18.84
-62,-45,852,15,-426,4015,-1.03,-0.31,39.25,0.15,-4.26,40.15,-4.40,0.54,39.31,2.71,0.60,-19.22
-53,-48,868,-34,-111,3799,-1.25,-0.57,40.62,-0.34,-1.11,37.99,-4.39,0.55,39.15,2.64,0.72,-19.66
-108,-79,851,-148,-291,3833,-1.78,-0.99,41.75,-1.48,-2.91,38.33,-4.39,0.58,38.98,3.64,1.32,-19.78
-49,-40,781,-141,-99,3844,-1.90,-1.14,42.34,-1.41,-0.99,38.44,-4.38,0.59,38.81,2.78,0.76,-19.31
-55,-52,756,-42,-123,3911,-2.05,-1.34,42.72,-0.42,-1.23,39.11,-4.37,0.60,38.64,2.91,1.00,-19.17
-49,-49,659,-109,-89,4008,-2.14,-1.51,42.46,-1.09,-0.89,40.08,-4.36,0.62,38.47,2.84,1.00,-18.28
-44,-37,645,-41,-259,3878,-2.20,-1.58,42.15,-0.41,-2.59,38.78,-4.35,0.62,38.30,2.78,0.84,-18.08
-24,-2,611,-104,-498,3881,-2.12,-1.44,41.66,-1.04,-4.98,38.81,-4.37,0.63,38.14,2.46,0.26,-17.66
-15,5,611,-107,-479,3935,-2.00,-1.26,41.23,-1.07,-4.79,39.35,-4.40,0.65,37.97,2.29,0.10,-17.55
-20,-12,631,56,-555,3872,-1.92,-1.21,40.95,0.56,-5.55,38.72,-4.42,0.65,37.81,2.35,0.34,-17.64
-18,-10,647,10,-550,3970,-1.84,-1.15,40.80,0.10,-5.50,39.70,-4.44,0.65,37.65,2.30,0.29,-17.73
-22,-16,688,-1,-518,3884,-1.79,-1.13,40.92,-0.01,-5.18,38.84,-4.47,0.66,37.48,2.36,0.37,-18.09
-19,4,703,-44,-446,3912,-1.73,-0.99,41.12,-0.44,-4.46,39.12,-4.49,0.67,37.32,2.30,0.02,-18.26
-18,9,748,-79,-446,3857,-1.66,-0.84,41.57,-0.79,-4.46,38.57,-4.51,0.68,37.15,2.27,-0.10,-18.73
-12,12,761,-105,-367,3969,-1.57,-0.68,42.05,-1.05,-3.67,39.69,-4.53,0.70,36.99,2.16,-0.21,-18.94
-13,8,787,-114,-491,3907,-1.49,-0.57,42.65,-1.14,-4.91,39.07,-4.55,0.72,36.82,2.16,-0.19,-19.29
-15,8,775,-143,-418,3982,-1.44,-0.46,43.11,-1.43,-4.18,39.82,-4.57,0.75,36.64,2.17,-0.23,-19.29
-15,-4,739,-98,-389,3898,-1.38,-0.44,43.31,-0.98,-3.89,38.98,-4.59,0.77,36.47,2.17,-0.06,-19.02
-14,13,727,-63,-367,3965,-1.33,-0.32,43.41,-0.63,-3.67,39.65,-4.61,0.78,36.30,2.14,-0.36,-18.93
-16,-2,698,-112,-310,3887,-1.30,-0.30,43.33,-1.12,-3.10,38.87,-4.61,0.81,36.12,2.16,-0.15,-18.65
-10,5,663,-78,-269,3923,-1.23,-0.24,43.04,-0.78,-2.69,39.23,-4.60,0.83,35.95,2.04,-0.28,-18.27
-14,-2,616,-55,-380,3856,-1.19,-0.22,42.49,-0.55,-3.80,38.56,-4.62,0.85,35.78,2.10,-0.18,-17.74
-17,-4,596,-87,-335,3949,-1.17,-0.23,41.88,-0.87,-3.35,39.49,-4.63,0.88,35.62,2.15,-0.16,-17.41
-14,-4,533,-119,-263,3880,-1.14,-0.23,40.94,-1.19,-2.63,38.80,-4.62,0.90,35.45,2.09,-0.17,-16.64
-10,-11,512,-111,-311,3890,-1.09,-0.27,39.97,-1.11,-3.11,38.90,-4.62,0.93,35.29,2.01,-0.06,-16.23
-6,15,446,-214,-338,3915,-1.02,-0.15,38.70,-2.14,-3.38,39.15,-4.62,0.96,35.14,1.93,-0.50,-15.36
-4,9,440,-139,-290,3883,-0.94,-0.08,37.51,-1.39,-2.90,38.83,-4.62,0.99,34.99,1.87,-0.44,-15.01
-2,17,433,-40,-339,3941,-0.86,0.03,36.40,-0.40,-3.39,39.41,-4.63,0.99,34.84,1.82,-0.59,-14.68
1,10,412,-31,-338,3887,-0.77,0.09,35.27,-0.31,-3.38,38.87,-4.64,0.98,34.70,1.75,-0.50,-14.23
-2,23,373,24,-318,3904,-0.70,0.22,34.02,0.24,-3.18,39.04,-4.64,0.98,34.57,1.78,-0.74,-13.60
-4,22,356,109,-382,3904,-0.66,0.33,32.79,1.09,-3.82,39.04,-4.65,0.97,34.44,1.79,-0.76,-13.15
-1,8,294,59,-337,3892,-0.60,0.35,31.31,0.59,-3.37,38.92,-4.65,0.97,34.31,1.73,-0.55,-12.27
-3,10,285,47,-383,3879,-0.55,0.37,29.91,0.47,-3.83,38.79,-4.66,0.96,34.19,1.75,-0.58,-11.86
10,10,249,1,-385,3901,-0.44,0.40,28.44,0.01,-3.85,39.01,-4.67,0.96,34.08,1.52,-0.59,-11.20
6,17,242,6,-405,3884,-0.36,0.46,27.07,0.06,-4.05,38.84,-4.69,0.96,33.97,1.56,-0.72,-10.81
11,14,248,7,-392,3862,-0.26,0.50,25.88,0.07,-3.92,38.62,-4.70,0.96,33.87,1.46,-0.68,-10.57
4,20,245,-4,-367,3940,-0.21,0.57,24.78,-0.04,-3.67,39.40,-4.71,0.95,33.77,1.56,-0.79,-10.28
3,25,286,141,-250,3899,-0.17,0.67,24.05,1.41,-2.50,38.99,-4.70,0.94,33.68,1.56,-0.90,-10.45
12,31,292,75,-194,3978,-0.08,0.79,23.43,0.75,-1.94,39.78,-4.69,0.94,33.58,1.39,-1.02,-10.34
-3,7,325,53,-296,3990,-0.09,0.75,23.07,0.53,-2.96,39.90,-4.68,0.94,33.49,1.62,-0.65,-10.53
-18,15,344,-95,-295,3939,-0.19,0.77,22.86,-0.95,-2.95,39.39,-4.67,0.96,33.40,1.87,-0.78,-10.64
-14,-2,378,48,-248,3943,-0.25,0.68,22.88,0.48,-2.48,39.43,-4.66,0.95,33.31,1.83,-0.49,-10.92
-11,3,392,35,-289,3907,-0.30,0.63,22.98,0.35,-2.89,39.07,-4.65,0.95,33.22,1.79,-0.55,-11.06
-20,9,440,4,-342,4031,-0.39,0.62,23.37,0.04,-3.42,40.31,-4.66,0.94,33.13,1.96,-0.64,-11.55
-14,11,468,-22,-224,3819,-0.44,0.63,23.89,-0.22,-2.24,38.19,-4.64,0.94,33.03,1.88,-0.67,-11.90
-13,1,554,18,-387,3992,-0.47,0.57,24.88,0.18,-3.87,39.92,-4.65,0.94,32.93,1.88,-0.50,-12.86
-10,5,591,35,-230,3956,-0.48,0.54,25.99,0.35,-2.30,39.56,-4.64,0.93,32.83,1.83,-0.55,-13.43
-16,9,711,-78,-327,3992,-0.53,0.54,27.73,-0.78,-3.27,39.92,-4.64,0.96,32.72,1.94,-0.62,-14.85
-31,-3,750,-60,-309,3885,-0.67,0.47,29.53,-0.60,-3.09,38.85,-4.63,0.96,32.60,2.21,-0.42,-15.59
-23,7,865,-47,-333,3908,-0.74,0.47,31.86,-0.47,-3.33,39.08,-4.64,0.96,32.47,2.11,-0.57,-17.11
-15,12,914,-15,-325,3877,-0.76,0.49,34.25,-0.15,-3.25,38.77,-4.65,0.96,32.34,1.99,-0.65,-18.08
-20,11,972,-18,-337,3909,-0.81,0.51,36.75,-0.18,-3.37,39.09,-4.66,0.95,32.19,2.09,-0.64,-19.15
3,20,968,-74,-269,3899,-0.71,0.58,38.98,-0.74,-2.69,38.99,-4.64,0.97,32.03,1.70,-0.80,-19.63
-18,9,929,-3,-365,3917,-0.75,0.58,40.75,-0.03,-3.65,39.17,-4.65,0.97,31.87,2.04,-0.63,-19.70
-7,17,916,-33,-312,3883,-0.71,0.62,42.26,-0.33,-3.12,38.83,-4.65,0.97,31.70,1.86,-0.77,-19.94
-3,19,861,-35,-387,3923,-0.66,0.68,43.29,-0.35,-3.87,39.23,-4.66,0.98,31.53,1.79,-0.82,-19.70
-6,17,846,-14,-380,3842,-0.63,0.71,44.12,-0.14,-3.80,38.42,-4.68,0.98,31.36,1.83,-0.80,-19.76
-6,23,769,-23,-445,3963,-0.61,0.78,44.40,-0.23,-4.45,39.63,-4.69,1.00,31.18,1.83,-0.92,-19.16
-4,28,747,-15,-365,3881,-0.57,0.88,44.52,-0.15,-3.65,38.81,-4.71,1.00,31.00,1.79,-1.02,-18.99
-12,19,659,-36,-426,3813,-0.59,0.90,44.08,-0.36,-4.26,38.13,-4.72,1.01,30.83,1.92,-0.90,-18.13
12,24,592,-28,-326,3944,-0.45,0.96,43.29,-0.28,-3.26,39.44,-4.72,1.01,30.66,1.51,-0.99,-17.36
0,11,469,-45,-391,3865,-0.41,0.93,41.82,-0.45,-3.91,38.65,-4.74,1.03,30.49,1.69,-0.79,-15.96
6,13,435,-84,-324,3934,-0.33,0.92,40.29,-0.84,-3.24,39.34,-4.73,1.06,30.33,1.57,-0.83,-15.30
4,11,342,-88,-361,3929,-0.27,0.89,38.35,-0.88,-3.61,39.29,-4.75,1.08,30.18,1.59,-0.80,-14.05
-4,5,329,-114,-281,3932,-0.27,0.83,36.52,-1.14,-2.81,39.32,-4.73,1.11,30.03,1.71,-0.70,-13.49
-2,3,255,-116,-272,3914,-0.26,0.77,34.42,-1.16,-2.72,39.14,-4.72,1.14,29.89,1.66,-0.66,-12.36
-1,4,242,-133,-254,3918,-0.24,0.72,32.46,-1.33,-2.54,39.18,-4.70,1.16,29.76,1.64,-0.66,-11.78
5,12,186,-131,-241,3899,-0.18,0.72,30.35,-1.31,-2.41,38.99,-4.68,1.18,29.64,1.52,-0.79,-10.80
2,3,160,-148,-236,3900,-0.15,0.66,28.29,-1.48,-2.36,39.00,-4.67,1.21,29.53,1.56,-0.65,-10.09
9,5,60,-161,-224,3893,-0.08,0.63,25.82,-1.61,-2.24,38.93,-4.65,1.23,29.43,1.42,-0.67,-8.65
7,1,26,-126,-254,3903,-0.03,0.57,23.40,-1.26,-2.54,39.03,-4.63,1.25,29.33,1.43,-0.60,-7.79
4,3,8,-48,-316,3906,-0.00,0.53,21.11,-0.48,-3.16,39.06,-4.63,1.24,29.25,1.47,-0.62,-7.09
3,6,9,-48,-327,3905,0.02,0.52,19.05,-0.48,-3.27,39.05,-4.64,1.23,29.17,1.48,-0.66,-6.61
-4,6,10,29,-319,3913,-0.01,0.50,17.21,0.29,-3.19,39.13,-4.63,1.22,29.11,1.59,-0.65,-6.18
-5,8,19,50,-341,3881,-0.04,0.50,15.60,0.50,-3.41,38.81,-4.64,1.21,29.04,1.62,-0.67,-5.87
0,6,50,68,-324,3875,-0.04,0.49,14.35,0.68,-3.24,38.75,-4.64,1.20,28.99,1.54,-0.64,-5.83
0,1,75,131,-355,3838,-0.03,0.44,13.37,1.31,-3.55,38.38,-4.64,1.19,28.93,1.54,-0.54,-5.81
-1,10,151,31,-429,3968,-0.04,0.46,12.96,0.31,-4.29,39.68,-4.65,1.18,28.88,1.56,-0.68,-6.35
7,5,171,54,-372,3899,0.01,0.44,12.70,0.54,-3.72,38.99,-4.66,1.17,28.83,1.43,-0.60,-6.46
-2,-1,230,-28,-451,3898,-0.00,0.39,12.84,-0.28,-4.51,38.98,-4.67,1.17,28.78,1.57,-0.49,-6.99
4,3,216,-68,-360,3916,0.02,0.37,12.87,-0.68,-3.60,39.16,-4.69,1.17,28.73,1.48,-0.54,-6.87
-5,-4,199,-86,-331,3925,-0.01,0.31,12.80,-0.86,-3.31,39.25,-4.70,1.18,28.68,1.63,-0.42,-6.71
-1,5,203,-109,-334,3889,-0.02,0.31,12.76,-1.09,-3.34,38.89,-4.71,1.20,28.63,1.57,-0.57,-6.73
1,4,209,-85,-352,3922,-0.01,0.30,12.75,-0.85,-3.52,39.22,-4.73,1.21,28.58,1.55,-0.55,-6.78
-6,2,206,-90,-352,3909,-0.04,0.29,12.74,-0.90,-3.52,39.09,-4.74,1.22,28.53,1.67,-0.52,-6.74
-10,6,165,-104,-370,3934,-0.10,0.29,12.47,-1.04,-3.70,39.34,-4.76,1.23,28.48,1.75,-0.59,-6.33
-4,6,170,-3,-388,3911,-0.11,0.30,12.26,-0.03,-3.88,39.11,-4.77,1.22,28.43,1.67,-0.59,-6.32
-9,9,216,-14,-356,3962,-0.16,0.33,12.35,-0.14,-3.56,39.62,-4.78,1.21,28.38,1.76,-0.64,-6.73
1,8,221,-26,-337,3887,-0.14,0.34,12.46,-0.26,-3.37,38.87,-4.78,1.20,28.33,1.60,-0.62,-6.79
4,9,245,-40,-293,3927,-0.10,0.36,12.71,-0.40,-2.93,39.27,-4.77,1.19,28.28,1.54,-0.64,-7.05
1,13,248,-46,-286,3929,-0.08,0.41,12.95,-0.46,-2.86,39.29,-4.75,1.19,28.23,1.58,-0.71,-7.13
-2,15,306,-58,-134,3833,-0.09,0.46,13.52,-0.58,-1.34,38.33,-4.73,1.19,28.18,1.62,-0.76,-7.75
-6,15,302,-132,-133,3932,-0.11,0.50,14.01,-1.32,-1.33,39.32,-4.72,1.20,28.12,1.68,-0.78,-7.83
5,8,323,-86,-291,3913,-0.07,0.50,14.58,-0.86,-2.91,39.13,-4.70,1.21,28.06,1.50,-0.67,-8.14
-5,13,352,-100,-298,3869,-0.10,0.53,15.27,-1.00,-2.98,38.69,-4.68,1.23,28.00,1.65,-0.77,-8.54
4,17,357,-126,-342,3927,-0.06,0.58,15.92,-1.26,-3.42,39.27,-4.69,1.25,27.94,1.51,-0.85,-8.73
-16,-1,343,-130,-363,3937,-0.15,0.52,16.42,-1.30,-3.63,39.37,-4.70,1.27,27.87,1.84,-0.56,-8.73
-3,9,318,-70,-350,3882,-0.16,0.52,16.72,-0.70,-3.50,38.82,-4.72,1.27,27.81,1.65,-0.72,-8.58
-1,7,314,-77,-320,3918,-0.15,0.51,16.96,-0.77,-3.20,39.18,-4.71,1.26,27.74,1.61,-0.68,-8.60
1,16,332,-77,-321,3924,-0.13,0.56,17.29,-0.77,-3.21,39.24,-4.70,1.25,27.67,1.58,-0.83,-8.82
-1,-3,313,-53,-279,3908,-0.12,0.48,17.47,-0.53,-2.79,39.08,-4.69,1.25,27.60,1.60,-0.51,-8.70
-24,9,331,24,-404,3807,-0.25,0.49,17.74,0.24,-4.04,38.07,-4.70,1.24,27.53,1.99,-0.70,-8.91
6,17,340,-61,-349,3994,-0.19,0.54,18.04,-0.61,-3.49,39.94,-4.71,1.24,27.46,1.52,-0.83,-9.05
1,8,371,-75,-351,3941,-0.17,0.54,18.50,-0.75,-3.51,39.41,-4.73,1.24,27.38,1.60,-0.70,-9.42
-8,-9,373,-53,-382,3953,-0.20,0.43,18.93,-0.53,-3.82,39.53,-4.74,1.24,27.31,1.75,-0.40,-9.53
-5,6,344,-122,-333,3916,-0.21,0.42,19.13,-1.22,-3.33,39.16,-4.75,1.26,27.23,1.71,-0.64,-9.33
-12,-7,338,-83,-372,3894,-0.26,0.34,19.28,-0.83,-3.72,38.94,-4.76,1.27,27.16,1.83,-0.42,-9.31
1,10,411,-104,-285,3892,-0.23,0.37,19.86,-1.04,-2.85,38.92,-4.75,1.29,27.08,1.62,-0.69,-10.06
-14,8,422,-99,-325,3920,-0.29,0.38,20.45,-0.99,-3.25,39.20,-4.74,1.31,27.00,1.87,-0.67,-10.28
16,21,465,-84,-93,3882,-0.17,0.47,21.24,-0.84,-0.93,38.82,-4.72,1.32,26.91,1.37,-0.90,-10.83
11,21,489,-54,-138,3918,-0.08,0.55,22.10,-0.54,-1.38,39.18,-4.70,1.33,26.82,1.41,-0.93,-11.23
-1,18,488,1,-239,3865,-0.08,0.60,22.87,0.01,-2.39,38.65,-4.69,1.32,26.73,1.59,-0.90,-11.39
5,21,486,-19,-276,3927,-0.04,0.67,23.54,-0.19,-2.76,39.27,-4.68,1.32,26.64,1.48,-0.96,-11.53
5,6,462,-28,-325,3942,-0.01,0.64,24.01,-0.28,-3.25,39.42,-4.68,1.31,26.54,1.47,-0.72,-11.43
-5,2,459,-20,-324,3900,-0.04,0.59,24.41,-0.20,-3.24,39.00,-4.68,1.30,26.44,1.63,-0.64,-11.49
-6,4,491,-67,-369,3980,-0.07,0.55,24.96,-0.67,-3.69,39.80,-4.69,1.30,26.35,1.66,-0.66,-11.89
-7,0,496,-68,-369,3942,-0.10,0.50,25.49,-0.68,-3.69,39.42,-4.71,1.31,26.24,1.69,-0.58,-12.05
3,6,547,-84,-328,3899,-0.08,0.49,26.28,-0.84,-3.28,38.99,-4.72,1.31,26.14,1.53,-0.67,-12.66
-12,-1,559,-60,-388,3871,-0.14,0.43,27.06,-0.60,-3.88,38.71,-4.73,1.31,26.03,1.79,-0.55,-12.93
-3,25,596,-45,-316,3913,-0.15,0.54,27.99,-0.45,-3.16,39.13,-4.73,1.30,25.92,1.65,-0.98,-13.46
2,18,594,-50,-263,3918,-0.12,0.60,28.81,-0.50,-2.63,39.18,-4.71,1.30,25.81,1.56,-0.89,-13.63
4,16,582,-11,-283,3889,-0.08,0.63,29.48,-0.11,-2.83,38.89,-4.70,1.30,25.69,1.52,-0.87,-13.68
-8,15,578,-17,-289,3940,-0.12,0.66,30.06,-0.17,-2.89,39.40,-4.69,1.30,25.57,1.71,-0.86,-13.77
10,20,591,-1,-330,3906,-0.05,0.72,30.66,-0.01,-3.30,39.06,-4.69,1.29,25.45,1.41,-0.95,-14.01
-8,18,601,26,-374,3925,-0.09,0.76,31.26,0.26,-3.74,39.25,-4.69,1.29,25.32,1.70,-0.93,-14.23
-9,20,614,-60,-383,3886,-0.14,0.80,31.88,-0.60,-3.83,38.86,-4.71,1.29,25.20,1.73,-0.98,-14.48
-14,7,619,-45,-450,3869,-0.21,0.77,32.47,-0.45,-4.50,38.69,-4.72,1.30,25.07,1.84,-0.77,-14.65
-17,0,620,-58,-450,3917,-0.29,0.69,33.00,-0.58,-4.50,39.17,-4.74,1.31,24.94,1.91,-0.64,-14.77
8,12,621,-78,-412,3975,-0.22,0.69,33.49,-0.78,-4.12,39.75,-4.76,1.32,24.80,1.51,-0.83,-14.89
0,9,642,-72,-479,3882,-0.19,0.68,34.06,-0.72,-4.79,38.82,-4.77,1.33,24.67,1.63,-0.78,-15.19
-5,7,633,-112,-446,3962,-0.20,0.65,34.51,-1.12,-4.46,39.62,-4.79,1.35,24.53,1.72,-0.75,-15.21
-11,3,578,-43,-410,3920,-0.25,0.61,34.59,-0.43,-4.10,39.20,-4.80,1.35,24.39,1.83,-0.68,-14.75
-10,6,564,-39,-384,3904,-0.29,0.58,34.57,-0.39,-3.84,39.04,-4.81,1.36,24.26,1.83,-0.72,-14.62
-4,10,524,-131,-378,3858,-0.28,0.59,34.31,-1.31,-3.78,38.58,-4.82,1.38,24.12,1.74,-0.79,-14.21
-5,3,516,-116,-333,3881,-0.29,0.54,34.03,-1.16,-3.33,38.81,-4.83,1.41,23.99,1.76,-0.68,-14.07
0,18,511,-65,-333,3918,-0.26,0.60,33.74,-0.65,-3.33,39.18,-4.83,1.41,23.85,1.67,-0.92,-13.95
-13,8,503,-59,-335,3924,-0.31,0.59,33.43,-0.59,-3.35,39.24,-4.83,1.40,23.72,1.89,-0.76,-13.80
0,9,473,-45,-324,3924,-0.28,0.58,32.98,-0.45,-3.24,39.24,-4.82,1.40,23.59,1.68,-0.78,-13.43
-12,-1,471,-54,-331,3913,-0.32,0.52,32.55,-0.54,-3.31,39.13,-4.82,1.39,23.46,1.87,-0.60,-13.30
-12,5,423,-87,-389,3867,-0.37,0.50,31.88,-0.87,-3.89,38.67,-4.84,1.40,23.33,1.89,-0.69,-12.73
-3,6,405,-96,-372,3911,-0.35,0.49,31.16,-0.96,-3.72,39.11,-4.85,1.42,23.21,1.75,-0.71,-12.40
-9,-4,350,-51,-399,3901,-0.37,0.41,30.18,-0.51,-3.99,39.01,-4.87,1.42,23.09,1.86,-0.53,-11.69
-16,-1,334,-78,-390,3906,-0.43,0.37,29.20,-0.78,-3.90,39.06,-4.88,1.42,22.97,1.99,-0.57,-11.32
-7,-2,289,-78,-437,3917,-0.43,0.32,28.04,-0.78,-4.37,39.17,-4.90,1.43,22.86,1.85,-0.54,-10.66
-6,0,294,-108,-440,3872,-0.42,0.28,27.03,-1.08,-4.40,38.72,-4.92,1.44,22.75,1.84,-0.56,-10.45
2,8,329,-98,-461,3904,-0.37,0.31,26.33,-0.98,-4.61,39.04,-4.93,1.45,22.65,1.71,-0.69,-10.58
-1,9,343,-67,-433,3900,-0.34,0.33,25.79,-0.67,-4.33,39.00,-4.95,1.46,22.55,1.75,-0.72,-10.56
-5,11,368,21,-395,3930,-0.33,0.36,25.46,0.21,-3.95,39.30,-4.96,1.45,22.45,1.81,-0.76,-10.69
-9,5,360,-4,-341,3910,-0.36,0.36,25.11,-0.04,-3.41,39.10,-4.96,1.44,22.35,1.88,-0.66,-10.53
-10,3,342,-3,-264,3903,-0.38,0.34,24.68,-0.03,-2.64,39.03,-4.94,1.44,22.25,1.90,-0.62,-10.27
-4,7,306,-51,-265,3947,-0.37,0.35,24.08,-0.51,-2.65,39.47,-4.93,1.44,22.15,1.80,-0.69,-9.82
0,0,228,-74,-226,3860,-0.33,0.31,23.06,-0.74,-2.26,38.60,-4.91,1.44,22.06,1.72,-0.57,-8.91
-4,0,218,-60,-238,3894,-0.32,0.28,22.09,-0.60,-2.38,38.94,-4.89,1.44,21.97,1.77,-0.56,-8.59
-1,4,199,-70,-343,3888,-0.30,0.28,21.09,-0.70,-3.43,38.88,-4.90,1.44,21.89,1.72,-0.62,-8.19
2,6,203,-73,-343,3915,-0.25,0.29,20.22,-0.73,-3.43,39.15,-4.90,1.43,21.81,1.66,-0.65,-8.01
3,9,252,-65,-310,3925,-0.21,0.31,19.74,-0.65,-3.10,39.25,-4.89,1.42,21.73,1.63,-0.70,-8.31
-1,5,274,-21,-303,3897,-0.20,0.31,19.43,-0.21,-3.03,38.97,-4.88,1.41,21.65,1.68,-0.64,-8.42
-2,10,344,25,-285,3892,-0.19,0.34,19.59,0.25,-2.85,38.92,-4.87,1.40,21.57,1.70,-0.72,-9.04
-10,11,373,-5,-297,3893,-0.23,0.38,19.91,-0.05,-2.97,38.93,-4.86,1.39,21.49,1.83,-0.74,-9.35
-2,19,462,-42,-261,3929,-0.22,0.45,20.73,-0.42,-2.61,39.29,-4.85,1.39,21.41,1.70,-0.89,-10.30
-1,11,484,-39,-271,3884,-0.20,0.48,21.61,-0.39,-2.71,38.84,-4.83,1.39,21.32,1.67,-0.77,-10.69
-9,0,525,-37,-359,3925,-0.24,0.43,22.65,-0.37,-3.59,39.25,-4.84,1.38,21.23,1.81,-0.59,-11.27
-11,6,521,-21,-304,3917,-0.28,0.42,23.57,-0.21,-3.04,39.17,-4.83,1.37,21.14,1.85,-0.67,-11.45
3,17,577,-31,-328,3906,-0.23,0.48,24.73,-0.31,-3.28,39.06,-4.83,1.36,21.04,1.62,-0.86,-12.19
-11,7,591,-15,-320,3915,-0.28,0.48,25.86,-0.15,-3.20,39.15,-4.83,1.36,20.94,1.85,-0.70,-12.57
-10,15,652,-25,-253,3947,-0.31,0.52,27.25,-0.25,-2.53,39.47,-4.81,1.36,20.83,1.84,-0.84,-13.40
-16,10,672,-55,-270,3887,-0.38,0.53,28.63,-0.55,-2.70,38.87,-4.79,1.36,20.71,1.94,-0.76,-13.89
-3,13,731,-45,-310,3946,-0.36,0.56,30.22,-0.45,-3.10,39.46,-4.79,1.35,20.59,1.73,-0.82,-14.76
-16,16,740,-57,-286,3927,-0.42,0.60,31.71,-0.57,-2.86,39.27,-4.77,1.35,20.47,1.95,-0.87,-15.17
-9,11,739,-73,-311,3909,-0.43,0.61,33.05,-0.73,-3.11,39.09,-4.76,1.35,20.33,1.84,-0.80,-15.47
-15,13,753,-106,-335,3895,-0.48,0.62,34.34,-1.06,-3.35,38.95,-4.77,1.38,20.20,1.95,-0.85,-15.88
-13,16,787,-64,-372,3935,-0.51,0.66,35.71,-0.64,-3.72,39.35,-4.78,1.39,20.06,1.93,-0.90,-16.48
-1,20,795,-3,-393,3928,-0.47,0.72,36.99,-0.03,-3.93,39.28,-4.79,1.39,19.91,1.74,-0.98,-16.84
-10,12,823,-67,-371,3897,-0.48,0.72,38.31,-0.67,-3.71,38.97,-4.80,1.39,19.76,1.89,-0.86,-17.38
-8,19,828,-22,-413,3922,-0.48,0.76,39.53,-0.22,-4.13,39.22,-4.82,1.40,19.60,1.86,-0.98,-17.70
-22,8,831,-11,-467,3883,-0.57,0.73,40.64,-0.11,-4.67,38.83,-4.83,1.40,19.44,2.10,-0.81,-17.98
3,23,828,-13,-480,3904,-0.49,0.80,41.63,-0.13,-4.80,39.04,-4.84,1.41,19.27,1.70,-1.06,-18.17
-11,12,819,47,-521,3925,-0.51,0.79,42.46,0.47,-5.21,39.25,-4.86,1.42,19.10,1.93,-0.89,-18.28
-15,5,813,44,-509,3876,-0.55,0.75,43.18,0.44,-5.09,38.76,-4.87,1.42,18.93,2.00,-0.77,-18.39
-9,7,789,38,-550,3915,-0.55,0.71,43.67,0.38,-5.50,39.15,-4.88,1.43,18.76,1.92,-0.80,-18.29
-11,3,767,44,-532,3871,-0.56,0.66,43.98,0.44,-5.32,38.71,-4.89,1.44,18.59,1.96,-0.72,-18.16
-1,0,733,11,-491,3877,-0.51,0.59,44.06,0.11,-4.91,38.77,-4.91,1.45,18.41,1.79,-0.66,-17.88
-10,-1,727,-18,-452,3895,-0.52,0.53,44.08,-0.18,-4.52,38.95,-4.92,1.45,18.23,1.94,-0.63,-17.82
-9,1,675,-7,-357,3941,-0.53,0.48,43.79,-0.07,-3.57,39.41,-4.92,1.45,18.06,1.92,-0.64,-17.30
-8,-6,657,-3,-405,3905,-0.52,0.40,43.42,-0.03,-4.05,39.05,-4.93,1.45,17.89,1.91,-0.51,-17.05
-14,-7,630,-104,-290,3865,-0.55,0.31,42.92,-1.04,-2.90,38.65,-4.91,1.47,17.72,2.00,-0.48,-16.69
-9,-4,628,-162,-320,3909,-0.55,0.26,42.46,-1.62,-3.20,39.09,-4.90,1.51,17.55,1.92,-0.51,-16.55
-8,-1,608,-133,-287,3914,-0.55,0.23,41.92,-1.33,-2.87,39.14,-4.88,1.53,17.38,1.90,-0.56,-16.25
-7,6,598,-139,-301,3898,-0.54,0.24,41.38,-1.39,-3.01,38.98,-4.87,1.56,17.21,1.88,-0.68,-16.02
-20,-6,557,-151,-271,3854,-0.60,0.18,40.64,-1.51,-2.71,38.54,-4.85,1.58,17.05,2.09,-0.49,-15.49
-16,-7,536,-123,-314,3942,-0.64,0.12,39.84,-1.23,-3.14,39.42,-4.84,1.61,16.89,2.04,-0.46,-15.11
-9,-4,428,-103,-364,3913,-0.63,0.08,38.47,-1.03,-3.64,39.13,-4.85,1.62,16.74,1.93,-0.50,-13.86
-7,-8,404,-143,-349,3894,-0.61,0.03,37.09,-1.43,-3.49,38.94,-4.86,1.65,16.59,1.90,-0.43,-13.32
-1,0,344,-176,-356,3881,-0.56,0.02,35.48,-1.76,-3.56,38.81,-4.86,1.68,16.45,1.79,-0.56,-12.43
1,4,330,-195,-351,3892,-0.49,0.05,33.94,-1.95,-3.51,38.92,-4.87,1.71,16.32,1.74,-0.64,-11.94
-1,12,280,-222,-312,3912,-0.45,0.11,32.26,-2.22,-3.12,39.12,-4.86,1.73,16.19,1.76,-0.79,-11.11
-1,12,259,-209,-292,3909,-0.41,0.18,30.61,-2.09,-2.92,39.09,-4.85,1.76,16.06,1.74,-0.82,-10.53
-3,15,208,-148,-290,3887,-0.39,0.25,28.82,-1.48,-2.90,38.87,-4.84,1.78,15.95,1.76,-0.89,-9.67
-2,10,204,-137,-304,3918,-0.36,0.29,27.18,-1.37,-3.04,39.18,-4.82,1.80,15.84,1.73,-0.83,-9.24
-6,12,205,-59,-311,3922,-0.36,0.33,25.71,-0.59,-3.11,39.22,-4.81,1.79,15.74,1.79,-0.88,-8.90
-2,11,196,-61,-279,3945,-0.34,0.36,24.34,-0.61,-2.79,39.45,-4.80,1.79,15.64,1.72,-0.87,-8.49
-4,10,195,-73,-337,3905,-0.33,0.39,23.09,-0.73,-3.37,39.05,-4.80,1.78,15.55,1.75,-0.86,-8.18
-4,13,202,-69,-338,3902,-0.32,0.43,22.02,-0.69,-3.38,39.02,-4.80,1.77,15.46,1.74,-0.91,-7.98
-3,15,259,-81,-305,3896,-0.31,0.48,21.39,-0.81,-3.05,38.96,-4.79,1.77,15.38,1.72,-0.96,-8.31
-11,18,277,-93,-266,3839,-0.34,0.54,20.94,-0.93,-2.66,38.39,-4.77,1.77,15.29,1.85,-1.02,-8.35
-5,17,195,-74,-328,3923,-0.34,0.59,20.04,-0.74,-3.28,39.23,-4.77,1.76,15.21,1.75,-1.02,-7.44
3,14,184,-73,-357,3899,-0.29,0.62,19.16,-0.73,-3.57,38.99,-4.78,1.75,15.14,1.62,-0.98,-7.13
0,10,199,-8,-409,3912,-0.26,0.62,18.46,-0.08,-4.09,39.12,-4.79,1.75,15.06,1.66,-0.92,-7.09
-2,9,208,-32,-400,3890,-0.24,0.61,17.88,-0.32,-4.00,38.90,-4.80,1.74,14.99,1.69,-0.90,-7.02
-1,6,216,-19,-394,3938,-0.23,0.58,17.41,-0.19,-3.94,39.38,-4.81,1.73,14.92,1.67,-0.84,-6.98
-2,2,206,17,-371,3928,-0.22,0.54,16.92,0.17,-3.71,39.28,-4.81,1.72,14.86,1.68,-0.76,-6.77
-4,5,242,25,-359,3905,-0.22,0.51,16.71,0.25,-3.59,39.05,-4.82,1.71,14.79,1.72,-0.80,-7.02
-5,6,262,3,-362,3898,-0.23,0.50,16.64,0.03,-3.62,38.98,-4.82,1.70,14.72,1.74,-0.81,-7.17
-7,10,310,-65,-330,3919,-0.25,0.51,16.86,-0.65,-3.30,39.19,-4.82,1.69,14.66,1.77,-0.87,-7.63
-7,14,320,-81,-334,3872,-0.27,0.55,17.13,-0.81,-3.34,38.72,-4.82,1.68,14.59,1.78,-0.94,-7.77
-5,12,410,-65,-322,3900,-0.27,0.56,17.92,-0.65,-3.22,39.00,-4.82,1.67,14.52,1.75,-0.91,-8.71
10,20,428,-92,-312,3919,-0.18,0.63,18.74,-0.92,-3.12,39.19,-4.81,1.67,14.44,1.49,-1.05,-9.05
2,10,464,44,-315,3929,-0.15,0.63,19.69,0.44,-3.15,39.29,-4.80,1.66,14.36,1.60,-0.89,-9.58
0,11,468,10,-319,3917,-0.14,0.63,20.58,0.10,-3.19,39.17,-4.80,1.65,14.28,1.63,-0.90,-9.81
-8,11,441,-52,-368,3946,-0.17,0.64,21.21,-0.52,-3.68,39.46,-4.81,1.64,14.20,1.76,-0.90,-9.73
-12,10,443,-24,-269,3896,-0.23,0.63,21.79,-0.24,-2.69,38.96,-4.79,1.64,14.11,1.83,-0.89,-9.88
-4,14,484,-61,-328,3890,-0.23,0.66,22.57,-0.61,-3.28,38.90,-4.79,1.63,14.02,1.71,-0.95,-10.40
-5,12,488,-118,-327,3926,-0.24,0.66,23.29,-1.18,-3.27,39.26,-4.79,1.66,13.93,1.73,-0.93,-10.60
-2,21,520,-78,-316,3855,-0.23,0.72,24.13,-0.78,-3.16,38.55,-4.78,1.65,13.83,1.68,-1.09,-11.06
-12,15,537,-69,-388,3835,-0.28,0.74,24.99,-0.69,-3.88,38.35,-4.79,1.65,13.73,1.85,-1.00,-11.40
2,4,531,-44,-383,3922,-0.24,0.69,25.73,-0.44,-3.83,39.22,-4.80,1.65,13.63,1.63,-0.82,-11.52
7,9,531,-11,-423,3906,-0.17,0.68,26.40,-0.11,-4.23,39.06,-4.81,1.65,13.53,1.53,-0.89,-11.67
-8,-2,532,-20,-533,3922,-0.20,0.60,27.00,-0.20,-5.33,39.22,-4.83,1.65,13.42,1.78,-0.70,-11.81
3,0,535,7,-530,3913,-0.16,0.54,27.57,0.07,-5.30,39.13,-4.84,1.65,13.31,1.60,-0.71,-11.96
-10,-1,569,-16,-578,3927,-0.21,0.48,28.28,-0.16,-5.78,39.27,-4.86,1.66,13.20,1.82,-0.68,-12.41
-13,-4,590,-4,-528,3936,-0.27,0.41,29.05,-0.04,-5.28,39.36,-4.87,1.66,13.08,1.89,-0.61,-12.76
-16,-7,627,-52,-493,3886,-0.34,0.32,29.97,-0.52,-4.93,38.86,-4.88,1.66,12.96,1.96,-0.54,-13.28
-6,-6,638,-65,-428,3942,-0.34,0.25,30.87,-0.65,-4.28,39.42,-4.90,1.67,12.84,1.81,-0.54,-13.58
-8,-4,678,-127,-366,3920,-0.35,0.20,31.91,-1.27,-3.66,39.20,-4.91,1.69,12.72,1.85,-0.56,-14.15
-10,-8,677,-111,-339,3915,-0.38,0.14,32.85,-1.11,-3.39,39.15,-4.92,1.68,12.59,1.89,-0.47,-14.36
0,14,656,-264,-285,3914,-0.34,0.21,33.57,-2.64,-2.85,39.14,-4.91,1.71,12.45,1.72,-0.84,-14.34
-8,-1,623,-256,-277,3921,-0.36,0.18,34.01,-2.56,-2.77,39.21,-4.90,1.74,12.32,1.85,-0.61,-14.15
-4,3,472,-165,-299,3898,-0.35,0.18,33.49,-1.65,-2.99,38.98,-4.89,1.77,12.18,1.78,-0.68,-12.74
-3,10,444,-157,-217,3907,-0.33,0.22,32.85,-1.57,-2.17,39.07,-4.87,1.78,12.05,1.75,-0.81,-12.35
-8,9,370,-160,-325,3864,-0.35,0.26,31.82,-1.60,-3.25,38.64,-4.86,1.81,11.92,1.83,-0.81,-11.47
2,18,326,-221,-369,3935,-0.30,0.34,30.63,-2.21,-3.69,39.35,-4.87,1.84,11.80,1.67,-0.99,-10.80
-3,11,231,-17,-276,3911,-0.29,0.37,28.97,-0.17,-2.76,39.11,-4.85,1.84,11.69,1.74,-0.89,-9.60
-7,6,214,-21,-320,3905,-0.30,0.37,27.38,-0.21,-3.20,39.05,-4.85,1.83,11.58,1.80,-0.81,-9.08
-9,-2,235,-65,-320,3857,-0.33,0.32,26.08,-0.65,-3.20,38.57,-4.85,1.82,11.47,1.84,-0.67,-8.94
-4,6,230,-110,-376,3908,-0.32,0.33,24.87,-1.10,-3.76,39.08,-4.86,1.83,11.37,1.76,-0.79,-8.61
-1,4,191,-70,-405,3931,-0.29,0.32,23.55,-0.70,-4.05,39.31,-4.87,1.82,11.28,1.71,-0.76,-7.96
-2,8,185,-55,-411,3919,-0.27,0.34,22.32,-0.55,-4.11,39.19,-4.89,1.82,11.19,1.73,-0.83,-7.61
-1,3,158,-35,-355,3882,-0.25,0.32,21.06,-0.35,-3.55,38.82,-4.89,1.81,11.11,1.71,-0.74,-7.08
-1,4,155,-2,-347,3928,-0.23,0.31,19.90,-0.02,-3.47,39.28,-4.89,1.80,11.03,1.70,-0.75,-6.77
-5,2,137,0,-316,3911,-0.24,0.29,18.74,0.00,-3.16,39.11,-4.88,1.79,10.95,1.76,-0.71,-6.34
-7,-3,119,33,-346,3894,-0.26,0.25,17.59,0.33,-3.46,38.94,-4.88,1.78,10.88,1.80,-0.62,-5.92
-1,-5,84,-39,-329,3903,-0.24,0.19,16.35,-0.39,-3.29,39.03,-4.88,1.77,10.82,1.70,-0.57,-5.32
2,-3,76,-57,-357,3891,-0.20,0.15,15.18,-0.57,-3.57,38.91,-4.89,1.76,10.76,1.64,-0.58,-4.97
-3,-1,73,-70,-391,3923,-0.20,0.13,14.10,-0.70,-3.91,39.23,-4.90,1.75,10.70,1.72,-0.60,-4.69
0,0,68,-69,-397,3945,-0.18,0.12,13.11,-0.69,-3.97,39.45,-4.91,1.74,10.65,1.68,-0.61,-4.41
-4,-2,51,-136,-303,3895,-0.19,0.09,12.11,-1.36,-3.03,38.95,-4.90,1.76,10.60,1.73,-0.58,-4.03
-4,-3,43,-150,-278,3935,-0.19,0.07,11.16,-1.50,-2.78,39.35,-4.88,1.77,10.56,1.73,-0.56,-3.73
-7,-10,-12,-43,-372,3979,-0.22,-0.00,9.97,-0.43,-3.72,39.79,-4.89,1.75,10.52,1.79,-0.43,-2.98
-11,-44,-24,-115,-325,3998,-0.26,-0.27,8.83,-1.15,-3.25,39.98,-4.87,1.75,10.48,1.85,0.18,-2.61
-5,-50,-27,-15,-417,3837,-0.27,-0.55,7.78,-0.15,-4.17,38.37,-4.88,1.73,10.45,1.77,0.36,-2.34
-7,-19,-8,-61,-372,3885,-0.28,-0.61,6.95,-0.61,-3.72,38.85,-4.89,1.72,10.42,1.81,-0.09,-2.30
-2,-7,-3,-68,-373,3895,-0.27,-0.59,6.24,-0.68,-3.73,38.95,-4.90,1.70,10.40,1.73,-0.28,-2.17
-1,-5,-1,-43,-371,3885,-0.25,-0.56,5.61,-0.43,-3.71,38.85,-4.91,1.69,10.38,1.71,-0.31,-2.04
1,1,1,-59,-380,3919,-0.22,-0.50,5.05,-0.59,-3.80,39.19,-4.92,1.67,10.36,1.68,-0.41,-1.92
0,3,1,-50,-363,3908,-0.19,-0.43,4.56,-0.50,-3.63,39.08,-4.93,1.66,10.34,1.69,-0.46,-1.81
2,2,5,-76,-378,3904,-0.16,-0.38,4.13,-0.76,-3.78,39.04,-4.95,1.64,10.32,1.65,-0.46,-1.74
2,3,5,-51,-392,3891,-0.13,-0.32,3.75,-0.51,-3.92,38.91,-4.96,1.63,10.31,1.65,-0.49,-1.65
1,3,3,-62,-375,3904,-0.11,-0.27,3.39,-0.62,-3.75,39.04,-4.97,1.62,10.29,1.66,-0.50,-1.55
0,2,3,-53,-402,3887,-0.10,-0.23,3.07,-0.53,-4.02,38.87,-4.98,1.60,10.28,1.68,-0.49,-1.47
0,0,0,-60,-381,3904,-0.09,-0.21,2.76,-0.60,-3.81,39.04,-4.99,1.59,10.27,1.68,-0.46,-1.37
0,1,0,-62,-363,3907,-0.08,-0.18,2.49,-0.62,-3.63,39.07,-5.00,1.57,10.26,1.68,-0.48,-1.30
0,1,0,-63,-376,3906,-0.07,-0.16,2.24,-0.63,-3.76,39.06,-5.01,1.56,10.25,1.68,-0.48,-1.25
0,0,0,-56,-385,3903,-0.07,-0.14,2.01,-0.56,-3.85,39.03,-5.02,1.54,10.25,1.68,-0.47,-1.19
-1,0,0,-55,-378,3912,-0.07,-0.13,1.81,-0.55,-3.78,39.12,-5.03,1.53,10.24,1.70,-0.47,-1.14
-1,0,1,-56,-363,3903,-0.07,-0.11,1.64,-0.56,-3.63,39.03,-5.04,1.51,10.23,1.70,-0.46,-1.11
0,0,0,-65,-369,3911,-0.06,-0.10,1.47,-0.65,-3.69,39.11,-5.05,1.50,10.23,1.69,-0.46,-1.06
0,0,0,-55,-371,3910,-0.05,-0.09,1.33,-0.55,-3.71,39.10,-5.06,1.48,10.22,1.69,-0.46,-1.03
0,0,0,-53,-370,3905,-0.05,-0.08,1.19,-0.53,-3.70,39.05,-5.07,1.46,10.22,1.69,-0.46,-1.00
0,0,0,-64,-366,3910,-0.04,-0.07,1.07,-0.64,-3.66,39.10,-5.08,1.45,10.21,1.69,-0.46,-0.97
0,0,0,-64,-359,3910,-0.04,-0.07,0.97,-0.64,-3.59,39.10,-5.08,1.43,10.21,1.69,-0.45,-0.94
0,0,0,-57,-365,3907,-0.04,-0.06,0.87,-0.57,-3.65,39.07,-5.09,1.41,10.21,1.69,-0.45,-0.92
0,1,0,-60,-370,3915,-0.03,-0.05,0.78,-0.60,-3.70,39.15,-5.10,1.40,10.20,1.69,-0.46,-0.90
0,1,1,-61,-370,3906,-0.03,-0.04,0.71,-0.61,-3.70,39.06,-5.11,1.38,10.20,1.69,-0.46,-0.89
-1,0,0,-59,-366,3903,-0.03,-0.03,0.64,-0.59,-3.66,39.03,-5.12,1.37,10.20,1.71,-0.44,-0.86
-1,-1,1,-53,-370,3900,-0.03,-0.04,0.58,-0.53,-3.70,39.00,-5.13,1.35,10.20,1.72,-0.42,-0.86
0,1,1,-54,-372,3906,-0.03,-0.03,0.53,-0.54,-3.72,39.06,-5.13,1.33,10.19,1.70,-0.45,-0.85
0,0,1,-56,-366,3901,-0.03,-0.02,0.48,-0.56,-3.66,39.01,-5.14,1.32,10.19,1.71,-0.43,-0.84
0,0,0,-54,-377,3899,-0.03,-0.02,0.43,-0.54,-3.77,38.99,-5.15,1.30,10.19,1.71,-0.42,-0.82
1,-1,0,-60,-375,3912,-0.02,-0.03,0.39,-0.60,-3.75,39.12,-5.16,1.29,10.19,1.69,-0.40,-0.81
0,1,0,-60,-362,3910,-0.01,-0.02,0.35,-0.60,-3.62,39.10,-5.17,1.27,10.19,1.71,-0.43,-0.80
0,0,0,-58,-365,3902,-0.01,-0.02,0.32,-0.58,-3.65,39.02,-5.18,1.25,10.19,1.71,-0.41,-0.79
0,0,0,-51,-375,3917,-0.01,-0.01,0.29,-0.51,-3.75,39.17,-5.18,1.24,10.19,1.71,-0.40,-0.78
0,0,0,-55,-375,3912,-0.01,-0.01,0.26,-0.55,-3.75,39.12,-5.20,1.22,10.19,1.72,-0.40,-0.77
-1,0,0,-52,-373,3901,-0.02,-0.01,0.23,-0.52,-3.73,39.01,-5.20,1.21,10.18,1.74,-0.39,-0.77
-1,1,0,-53,-371,3904,-0.02,-0.00,0.21,-0.53,-3.71,39.04,-5.21,1.19,10.18,1.74,-0.41,-0.76
0,0,0,-56,-364,3909,-0.02,-0.00,0.19,-0.56,-3.64,39.09,-5.22,1.17,10.18,1.73,-0.39,-0.76
0,0,0,-57,-369,3928,-0.02,-0.00,0.17,-0.57,-3.69,39.28,-5.23,1.16,10.18,1.73,-0.38,-0.75
0,0,0,-61,-375,3909,-0.01,-0.00,0.15,-0.61,-3.75,39.09,-5.24,1.14,10.18,1.73,-0.38,-0.75
1,0,1,-59,-368,3909,-0.01,-0.00,0.14,-0.59,-3.68,39.09,-5.25,1.13,10.18,1.72,-0.37,-0.75
0,0,0,-57,-369,3908,-0.01,-0.00,0.13,-0.57,-3.69,39.08,-5.25,1.11,10.18,1.74,-0.37,-0.74
0,0,0,-56,-367,3893,-0.01,-0.00,0.12,-0.56,-3.67,38.93,-5.26,1.09,10.18,1.74,-0.36,-0.74
0,0,1,-58,-374,3905,-0.01,-0.00,0.11,-0.58,-3.74,39.05,-5.27,1.08,10.18,1.74,-0.36,-0.75
0,0,0,-59,-371,3907,-0.00,-0.00,0.10,-0.59,-3.71,39.07,-5.28,1.06,10.18,1.75,-0.35,-0.74
1,0,1,-63,-363,3907,0.00,-0.00,0.10,-0.63,-3.63,39.07,-5.29,1.05,10.18,1.73,-0.34,-0.74
1,0,1,-69,-366,3915,0.01,-0.00,0.09,-0.69,-3.66,39.15,-5.30,1.04,10.18,1.73,-0.34,-0.74
0,0,1,-58,-371,3905,0.01,-0.00,0.09,-0.58,-3.71,39.05,-5.31,1.02,10.18,1.75,-0.34,-0.74
1,1,1,-61,-368,3910,0.01,0.01,0.09,-0.61,-3.68,39.10,-5.32,1.00,10.18,1.74,-0.35,-0.74
1,1,0,-58,-368,3917,0.02,0.01,0.08,-0.58,-3.68,39.17,-5.32,0.99,10.18,1.74,-0.34,-0.73
1,1,0,-56,-367,3912,0.02,0.02,0.07,-0.56,-3.67,39.12,-5.33,0.97,10.18,1.74,-0.34,-0.73
0,-1,1,-55,-377,3915,0.02,0.01,0.07,-0.55,-3.77,39.15,-5.34,0.96,10.18,1.76,-0.30,-0.74
0,1,1,-58,-375,3920,0.02,0.01,0.07,-0.58,-3.75,39.20,-5.36,0.94,10.18,1.76,-0.33,-0.74
0,1,1,-54,-372,3910,0.02,0.02,0.07,-0.54,-3.72,39.10,-5.36,0.93,10.18,1.77,-0.33,-0.74
0,1,1,-54,-369,3902,0.01,0.02,0.07,-0.54,-3.69,39.02,-5.37,0.91,10.18,1.77,-0.32,-0.74
0,1,1,-60,-371,3914,0.01,0.03,0.07,-0.60,-3.71,39.14,-5.38,0.90,10.18,1.77,-0.32,-0.74
0,1,0,-64,-374,3920,0.01,0.03,0.06,-0.64,-3.74,39.20,-5.40,0.91,10.18,1.78,-0.32,-0.73
1,0,1,-60,-373,3905,0.02,0.03,0.06,-0.60,-3.73,39.05,-5.42,0.90,10.18,1.77,-0.30,-0.74
0,0,0,-58,-370,3896,0.01,0.02,0.05,-0.58,-3.70,38.96,-5.42,0.88,10.18,1.78,-0.30,-0.73
0,0,1,-48,-367,3911,0.01,0.02,0.05,-0.48,-3.67,39.11,-5.41,0.86,10.18,1.78,-0.29,-0.73
0,1,1,-57,-367,3903,0.01,0.03,0.06,-0.57,-3.67,39.03,-5.40,0.85,10.18,1.78,-0.30,-0.73
0,1,1,-60,-365,3907,0.01,0.03,0.06,-0.60,-3.65,39.07,-5.38,0.86,10.18,1.77,-0.31,-0.73
0,0,0,-57,-374,3915,0.01,0.03,0.05,-0.57,-3.74,39.15,-5.40,0.85,10.18,1.78,-0.29,-0.72
0,1,0,-56,-374,3903,0.01,0.03,0.05,-0.56,-3.74,39.03,-5.41,0.85,10.18,1.78,-0.30,-0.72
0,1,0,-54,-368,3908,0.01,0.03,0.04,-0.54,-3.68,39.08,-5.41,0.83,10.18,1.78,-0.30,-0.72
-1,1,0,-63,-372,3913,0.00,0.04,0.04,-0.63,-3.72,39.13,-5.41,0.85,10.18,1.80,-0.31,-0.72
-1,1,0,-57,-369,3910,-0.01,0.04,0.03,-0.57,-3.69,39.10,-5.40,0.84,10.18,1.80,-0.30,-0.72
0,0,1,-57,-364,3894,-0.00,0.03,0.04,-0.57,-3.64,38.94,-5.38,0.84,10.18,1.78,-0.29,-0.73
0,1,1,-57,-365,3899,-0.00,0.04,0.04,-0.57,-3.65,38.99,-5.36,0.83,10.18,1.77,-0.30,-0.73
0,1,0,-62,-370,3912,-0.00,0.04,0.03,-0.62,-3.70,39.12,-5.37,0.85,10.18,1.77,-0.31,-0.72
0,1,0,-58,-364,3905,-0.00,0.04,0.03,-0.58,-3.64,39.05,-5.35,0.85,10.18,1.77,-0.31,-0.72
0,0,0,-57,-372,3914,-0.00,0.04,0.03,-0.57,-3.72,39.14,-5.37,0.85,10.18,1.77,-0.29,-0.72
0,0,0,-60,-373,3914,-0.00,0.03,0.03,-0.60,-3.73,39.14,-5.39,0.85,10.18,1.78,-0.29,-0.72
1,1,0,-61,-372,3907,0.00,0.04,0.02,-0.61,-3.72,39.07,-5.40,0.86,10.18,1.77,-0.31,-0.72
1,0,1,-59,-372,3903,0.01,0.03,0.03,-0.59,-3.72,39.03,-5.42,0.86,10.18,1.77,-0.29,-0.73
0,1,-1,-65,-372,3923,0.01,0.04,0.02,-0.65,-3.72,39.23,-5.42,0.88,10.18,1.79,-0.32,-0.71
0,0,0,-64,-371,3909,0.01,0.03,0.02,-0.64,-3.71,39.09,-5.42,0.90,10.18,1.79,-0.31,-0.72
0,-1,0,-67,-371,3916,0.01,0.02,0.01,-0.67,-3.71,39.16,-5.42,0.92,10.18,1.79,-0.29,-0.72
0,-1,0,-58,-365,3909,0.01,0.01,0.01,-0.58,-3.65,39.09,-5.40,0.91,10.18,1.78,-0.29,-0.72
0,0,0,-59,-368,3909,0.01,0.01,0.01,-0.59,-3.68,39.09,-5.39,0.89,10.18,1.78,-0.30,-0.72
1,0,0,-60,-366,3912,0.01,0.01,0.01,-0.60,-3.66,39.12,-5.38,0.88,10.18,1.76,-0.30,-0.71
0,1,0,-63,-367,3912,0.01,0.02,0.01,-0.63,-3.67,39.12,-5.37,0.90,10.18,1.77,-0.32,-0.71
0,1,0,-55,-365,3906,0.01,0.02,0.01,-0.55,-3.65,39.06,-5.36,0.88,10.18,1.77,-0.31,-0.71
1,0,0,-62,-374,3903,0.01,0.02,0.01,-0.62,-3.74,39.03,-5.38,0.89,10.18,1.76,-0.30,-0.71
1,0,0,-65,-372,3897,0.02,0.02,0.01,-0.65,-3.72,38.97,-5.39,0.90,10.18,1.76,-0.30,-0.71
0,1,-1,-55,-368,3904,0.02,0.02,0.00,-0.55,-3.68,39.04,-5.39,0.88,10.18,1.77,-0.31,-0.70
0,1,0,-54,-368,3899,0.02,0.03,0.00,-0.54,-3.68,38.99,-5.39,0.86,10.18,1.77,-0.31,-0.71
0,0,1,-65,-372,3904,0.01,0.02,0.01,-0.65,-3.72,39.04,-5.40,0.88,10.18,1.78,-0.30,-0.72
1,0,1,-64,-371,3908,0.02,0.02,0.01,-0.64,-3.71,39.08,-5.41,0.90,10.18,1.76,-0.30,-0.72
0,0,0,-56,-373,3904,0.02,0.02,0.01,-0.56,-3.73,39.04,-5.42,0.88,10.18,1.78,-0.30,-0.71
-1,0,1,-59,-373,3913,0.01,0.02,0.02,-0.59,-3.73,39.13,-5.43,0.87,10.18,1.81,-0.29,-0.72
-1,0,-1,-52,-366,3909,0.00,0.01,0.01,-0.52,-3.66,39.09,-5.42,0.86,10.18,1.80,-0.29,-0.71
0,0,0,-53,-367,3901,0.00,0.01,0.01,-0.53,-3.67,39.01,-5.41,0.84,10.18,1.79,-0.28,-0.71
0,0,0,-56,-376,3911,0.00,0.01,0.01,-0.56,-3.76,39.11,-5.43,0.83,10.18,1.79,-0.28,-0.71
0,0,0,-58,-375,3914,0.00,0.01,0.01,-0.58,-3.75,39.14,-5.45,0.84,10.18,1.80,-0.28,-0.71
0,0,0,-56,-371,3907,0.00,0.01,0.01,-0.56,-3.71,39.07,-5.43,0.83,10.18,1.79,-0.28,-0.71
0,0,0,-60,-370,3908,0.00,0.01,0.00,-0.60,-3.70,39.08,-5.43,0.84,10.18,1.79,-0.28,-0.71
0,0,1,-47,-367,3906,0.00,0.01,0.01,-0.47,-3.67,39.06,-5.42,0.83,10.18,1.79,-0.27,-0.72
0,0,1,-48,-368,3905,0.00,0.01,0.02,-0.48,-3.68,39.05,-5.41,0.81,10.18,1.79,-0.27,-0.72
0,0,1,-56,-367,3908,0.00,0.01,0.02,-0.56,-3.67,39.08,-5.40,0.81,10.18,1.78,-0.27,-0.73
0,0,1,-58,-367,3905,0.00,0.01,0.02,-0.58,-3.67,39.05,-5.39,0.83,10.18,1.78,-0.27,-0.73
0,1,1,-51,-368,3908,0.00,0.01,0.03,-0.51,-3.68,39.08,-5.38,0.81,10.18,1.78,-0.29,-0.73
0,0,1,-53,-370,3896,0.00,0.01,0.03,-0.53,-3.70,38.96,-5.40,0.80,10.18,1.78,-0.27,-0.73
0,0,1,-61,-378,3911,0.00,0.01,0.03,-0.61,-3.78,39.11,-5.41,0.81,10.18,1.79,-0.27,-0.73
0,0,1,-65,-373,3910,0.00,0.01,0.04,-0.65,-3.73,39.10,-5.42,0.83,10.18,1.79,-0.27,-0.73
0,0,0,-62,-376,3907,0.00,0.01,0.03,-0.62,-3.76,39.07,-5.43,0.84,10.18,1.79,-0.28,-0.72
0,0,0,-57,-373,3913,0.00,0.01,0.03,-0.57,-3.73,39.13,-5.45,0.83,10.18,1.80,-0.28,-0.72
-1,1,0,-61,-367,3905,-0.01,0.01,0.03,-0.61,-3.67,39.05,-5.43,0.84,10.18,1.81,-0.30,-0.72
-1,0,0,-62,-364,3902,-0.01,0.01,0.02,-0.62,-3.64,39.02,-5.42,0.85,10.18,1.81,-0.28,-0.72
-19,43,-188,737,298,3939,-0.13,0.27,-1.13,7.37,2.98,39.39,-5.41,0.84,10.18,2.11,-1.02,1.15
-13,27,-352,1037,542,3907,-0.19,0.41,-3.16,10.37,5.42,39.07,-5.39,0.82,10.19,2.04,-0.81,3.01
29,-45,-722,375,-605,3867,0.00,0.09,-7.25,3.75,-6.05,38.67,-5.40,0.81,10.22,1.34,0.39,7.11
3,-21,-397,-38,-994,3905,0.02,-0.04,-8.94,-0.38,-9.94,39.05,-5.42,0.80,10.26,1.74,0.07,4.75
-5,8,147,-39,-582,3913,-0.01,0.01,-7.15,-0.39,-5.82,39.13,-5.44,0.80,10.29,1.88,-0.39,-0.28
-3,8,198,-18,-380,3954,-0.03,0.06,-5.23,-0.18,-3.80,39.54,-5.44,0.78,10.31,1.85,-0.40,-1.17
-4,7,411,-343,-402,3799,-0.05,0.09,-2.20,-3.43,-4.02,37.99,-5.45,0.80,10.32,1.87,-0.40,-3.69
-7,5,472,-375,-394,3946,-0.09,0.12,0.90,-3.75,-3.94,39.46,-5.45,0.81,10.31,1.93,-0.38,-4.93
-18,0,658,-435,-487,3885,-0.19,0.10,4.82,-4.35,-4.87,38.85,-5.45,0.83,10.29,2.13,-0.31,-7.43
-4,9,696,-420,-492,3932,-0.19,0.15,8.59,-4.20,-4.92,39.32,-5.46,0.86,10.26,1.92,-0.46,-8.64
-10,15,824,-200,-453,3886,-0.24,0.23,12.75,-2.00,-4.53,38.86,-5.47,0.88,10.21,2.03,-0.59,-10.70
-25,10,822,-225,-455,3994,-0.36,0.26,16.49,-2.25,-4.55,39.94,-5.48,0.90,10.14,2.30,-0.53,-11.56
4,6,774,-267,-463,4031,-0.30,0.27,19.56,-2.67,-4.63,40.31,-5.48,0.93,10.07,1.84,-0.48,-11.87
-10,14,684,-371,-494,3815,-0.33,0.33,21.78,-3.71,-4.94,38.15,-5.49,0.95,9.98,2.07,-0.63,-11.63
7,7,603,-371,-541,3829,-0.26,0.34,23.28,-3.71,-5.41,38.29,-5.50,0.98,9.89,1.79,-0.53,-11.29
-30,-8,592,-207,-627,3938,-0.42,0.26,24.56,-2.07,-6.27,39.38,-5.51,1.00,9.79,2.40,-0.29,-11.49
5,6,555,-124,-563,3982,-0.34,0.27,25.49,-1.24,-5.63,39.82,-5.53,1.02,9.69,1.85,-0.51,-11.39
-16,-2,546,-34,-612,3917,-0.41,0.23,26.27,-0.34,-6.12,39.17,-5.55,1.02,9.58,2.20,-0.38,-11.49
1,27,651,124,-517,3856,-0.36,0.37,27.62,1.24,-5.17,38.56,-5.56,1.02,9.47,1.93,-0.86,-12.69
-1,11,677,172,-486,4074,-0.33,0.40,28.99,1.72,-4.86,40.74,-5.56,1.02,9.36,1.95,-0.63,-13.22
-21,31,753,30,-355,3957,-0.43,0.55,30.68,0.30,-3.55,39.57,-5.56,1.01,9.24,2.28,-0.98,-14.25
-9,30,770,53,-381,3931,-0.44,0.68,32.31,0.53,-3.81,39.31,-5.56,1.01,9.11,2.11,-1.00,-14.77
-17,18,785,-3,-178,3851,-0.50,0.72,33.87,-0.03,-1.78,38.51,-5.54,1.02,8.97,2.24,-0.83,-15.26
-11,20,775,-40,-302,3902,-0.51,0.77,35.21,-0.40,-3.02,39.02,-5.52,1.03,8.83,2.15,-0.88,-15.48
2,24,668,-406,-373,3947,-0.45,0.84,35.76,-4.06,-3.73,39.47,-5.52,1.07,8.69,1.93,-0.97,-14.69
-10,20,736,-248,-340,3853,-0.47,0.88,36.68,-2.48,-3.40,38.53,-5.52,1.10,8.55,2.12,-0.94,-15.47
-18,30,769,50,-453,3893,-0.53,0.97,37.70,0.50,-4.53,38.93,-5.53,1.10,8.40,2.26,-1.12,-15.99
-17,10,729,-36,-362,3945,-0.58,0.94,38.38,-0.36,-3.62,39.45,-5.52,1.11,8.24,2.26,-0.80,-15.80
-18,19,783,49,-412,3847,-0.63,0.96,39.31,0.49,-4.12,38.47,-5.52,1.11,8.09,2.29,-0.95,-16.46
-10,16,777,-40,-290,3928,-0.63,0.96,40.12,-0.40,-2.90,39.28,-5.51,1.12,7.93,2.16,-0.91,-16.59
0,-8,838,112,-94,4103,-0.57,0.82,41.22,1.12,-0.94,41.03,-5.49,1.13,7.76,1.98,-0.50,-17.36
-18,9,812,-34,-214,3702,-0.62,0.79,42.05,-0.34,-2.14,37.02,-5.47,1.14,7.60,2.27,-0.76,-17.32
-3,21,1022,-37,-269,3800,-0.58,0.84,44.08,-0.37,-2.69,38.00,-5.45,1.16,7.42,2.02,-0.96,-19.56
-23,13,1062,-1,-198,4083,-0.66,0.83,46.15,-0.01,-1.98,40.83,-5.43,1.17,7.24,2.35,-0.84,-20.38
-31,5,1059,-67,-374,3972,-0.78,0.78,48.00,-0.67,-3.74,39.72,-5.43,1.17,7.05,2.50,-0.70,-20.77
-4,21,1065,-133,-372,3845,-0.73,0.83,49.69,-1.33,-3.72,38.45,-5.43,1.21,6.85,2.08,-0.97,-21.21
-20,15,1042,-103,-506,3808,-0.78,0.84,51.08,-1.03,-5.06,38.08,-5.45,1.24,6.64,2.34,-0.89,-21.33
-23,22,1020,-29,-454,3900,-0.84,0.89,52.19,-0.29,-4.54,39.00,-5.46,1.25,6.44,2.41,-1.02,-21.39
3,15,1006,-156,-379,3969,-0.74,0.89,53.11,-1.56,-3.79,39.69,-5.46,1.30,6.23,1.98,-0.93,-21.47
-22,29,1015,-235,-531,3864,-0.80,0.98,53.99,-2.35,-5.31,38.64,-5.47,1.33,6.01,2.38,-1.18,-21.74
-32,16,940,-201,-338,3807,-0.91,0.98,54.33,-2.01,-3.38,38.07,-5.47,1.37,5.80,2.57,-1.00,-21.17
-2,7,925,-34,-377,3913,-0.83,0.92,54.54,-0.34,-3.77,39.13,-5.46,1.38,5.58,2.09,-0.84,-21.08
-8,30,972,-160,-551,3841,-0.80,1.01,55.01,-1.60,-5.51,38.41,-5.48,1.41,5.36,2.17,-1.23,-21.57
-4,39,971,-71,-357,3980,-0.74,1.15,55.43,-0.71,-3.57,39.80,-5.46,1.42,5.14,2.09,-1.42,-21.65
-7,42,925,-43,-353,3965,-0.71,1.29,55.53,-0.43,-3.53,39.65,-5.45,1.43,4.92,2.12,-1.51,-21.27
-16,23,925,-5,-284,3874,-0.74,1.30,55.62,-0.05,-2.84,38.74,-5.44,1.45,4.70,2.26,-1.23,-21.27
-9,28,939,-57,-364,3843,-0.72,1.34,55.79,-0.57,-3.64,38.43,-5.44,1.45,4.48,2.15,-1.32,-21.41
-13,21,947,-27,-309,3893,-0.73,1.34,55.99,-0.27,-3.09,38.93,-5.42,1.47,4.25,2.21,-1.21,-21.51
-14,21,986,-93,-399,3909,-0.74,1.33,56.40,-0.93,-3.99,39.09,-5.44,1.49,4.03,2.23,-1.22,-21.92
-10,21,1001,-86,-378,3937,-0.73,1.33,56.87,-0.86,-3.78,39.37,-5.44,1.50,3.80,2.17,-1.22,-22.15
-12,25,963,-49,-427,3920,-0.73,1.35,57.06,-0.49,-4.27,39.20,-5.45,1.51,3.58,2.20,-1.29,-21.85
-15,15,947,19,-480,3840,-0.75,1.30,57.13,0.19,-4.80,38.40,-5.46,1.53,3.35,2.26,-1.13,-21.72
-22,16,913,-16,-447,3846,-0.81,1.27,56.98,-0.16,-4.47,38.46,-5.47,1.54,3.12,2.39,-1.14,-21.38
-18,7,948,18,-461,3917,-0.83,1.19,57.07,0.18,-4.61,39.17,-5.47,1.55,2.90,2.34,-0.98,-21.68
-25,13,991,-31,-379,3839,-0.90,1.15,57.41,-0.31,-3.79,38.39,-5.47,1.56,2.67,2.46,-1.06,-22.11
-35,8,1000,-28,-324,3872,-1.03,1.08,57.77,-0.28,-3.24,38.72,-5.46,1.57,2.44,2.65,-0.97,-22.25
-1,16,1009,-94,-282,3857,-0.93,1.07,58.14,-0.94,-2.82,38.57,-5.44,1.59,2.21,2.09,-1.10,-22.40
-5,24,1002,-86,-380,3930,-0.87,1.11,58.44,-0.86,-3.80,39.30,-5.44,1.60,1.98,2.14,-1.23,-22.40
-18,21,987,-86,-492,3909,-0.89,1.13,58.62,-0.86,-4.92,39.09,-5.46,1.62,1.74,2.35,-1.20,-22.30
-24,27,975,-108,-528,3916,-0.95,1.18,58.70,-1.08,-5.28,39.16,-5.47,1.65,1.51,2.46,-1.32,-22.20
-7,26,901,22,-362,3899,-0.90,1.22,58.33,0.22,-3.62,38.99,-5.47,1.66,1.28,2.18,-1.32,-21.47
-26,27,886,-45,-362,3905,-0.97,1.26,57.90,-0.45,-3.62,39.05,-5.46,1.67,1.05,2.49,-1.35,-21.22
0,38,788,-162,-408,3879,-0.87,1.37,56.92,-1.62,-4.08,38.79,-5.47,1.71,0.82,2.07,-1.56,-20.14
-8,24,790,-95,-407,3888,-0.83,1.38,56.05,-0.95,-4.07,38.88,-5.48,1.73,0.60,2.18,-1.36,-19.94
-23,16,735,-74,-456,3950,-0.89,1.34,54.92,-0.74,-4.56,39.50,-5.49,1.74,0.38,2.44,-1.23,-19.19
-7,14,747,-57,-455,3938,-0.84,1.29,53.99,-0.57,-4.55,39.38,-5.51,1.76,0.17,2.18,-1.19,-19.06
-19,8,735,-54,-384,3952,-0.87,1.21,53.07,-0.54,-3.84,39.52,-5.50,1.77,-0.04,2.37,-1.07,-18.73
-14,14,740,-95,-418,3838,-0.87,1.17,52.28,-0.95,-4.18,38.38,-5.52,1.78,-0.25,2.30,-1.16,-18.57
-24,-2,762,-4,-365,3923,-0.93,1.04,51.70,-0.04,-3.65,39.23,-5.51,1.79,-0.46,2.47,-0.88,-18.61
-1,23,763,-31,-355,3856,-0.84,1.08,51.18,-0.31,-3.55,38.56,-5.51,1.79,-0.66,2.09,-1.27,-18.48
-14,24,802,-75,-339,3839,-0.84,1.12,50.96,-0.75,-3.39,38.39,-5.49,1.80,-0.86,2.28,-1.30,-18.74
-26,13,775,-10,-139,3940,-0.92,1.09,50.59,-0.10,-1.39,39.40,-5.47,1.82,-1.06,2.48,-1.13,-18.41
-1,23,717,-124,-417,3869,-0.83,1.12,49.90,-1.24,-4.17,38.69,-5.49,1.84,-1.26,2.08,-1.30,-17.74
-12,44,717,-71,-474,3858,-0.82,1.27,49.29,-0.71,-4.74,38.58,-5.50,1.86,-1.46,2.25,-1.67,-17.59
-8,39,732,-96,-493,3938,-0.79,1.38,48.82,-0.96,-4.93,39.38,-5.52,1.88,-1.65,2.18,-1.64,-17.59
-8,28,713,-123,-469,3882,-0.76,1.42,48.29,-1.23,-4.69,38.82,-5.53,1.90,-1.84,2.18,-1.49,-17.29
-9,18,684,-76,-651,3832,-0.74,1.39,47.63,-0.76,-6.51,38.32,-5.55,1.92,-2.03,2.19,-1.33,-16.88
-10,34,682,-27,-596,3871,-0.73,1.45,47.03,-0.27,-5.96,38.71,-5.56,1.94,-2.22,2.21,-1.60,-16.70
-3,65,638,-30,-431,3903,-0.67,1.71,46.22,-0.30,-4.31,39.03,-5.56,1.95,-2.40,2.09,-2.15,-16.13
-5,40,621,-14,-344,3996,-0.63,1.78,45.39,-0.14,-3.44,39.96,-5.55,1.95,-2.58,2.10,-1.80,-15.77
-9,38,598,-67,-438,3890,-0.63,1.83,44.50,-0.67,-4.38,38.90,-5.56,1.96,-2.76,2.16,-1.79,-15.36
-9,37,595,-20,-350,3909,-0.62,1.87,43.68,-0.20,-3.50,39.09,-5.55,1.97,-2.93,2.16,-1.79,-15.13
-6,36,551,-97,-317,4017,-0.59,1.91,42.67,-0.97,-3.17,40.17,-5.53,1.99,-3.10,2.10,-1.79,-14.50
-6,24,554,-124,-337,3900,-0.57,1.86,41.78,-1.24,-3.37,39.00,-5.51,2.00,-3.27,2.09,-1.60,-14.31
-11,10,545,-160,-375,3960,-0.58,1.74,40.93,-1.60,-3.75,39.60,-5.50,2.04,-3.43,2.16,-1.36,-14.02
1,14,531,-70,-349,3862,-0.52,1.65,40.07,-0.70,-3.49,38.62,-5.49,2.05,-3.59,1.96,-1.39,-13.69
-6,16,560,-84,-386,3872,-0.50,1.58,39.48,-0.84,-3.86,38.72,-5.50,2.05,-3.74,2.06,-1.40,-13.78
-4,20,558,-82,-343,3972,-0.48,1.55,38.94,-0.82,-3.43,39.72,-5.48,2.06,-3.90,2.02,-1.46,-13.63
1,23,589,-114,-224,3835,-0.42,1.53,38.64,-1.14,-2.24,38.35,-5.46,2.08,-4.05,1.92,-1.50,-13.81
1,19,593,-78,-254,3896,-0.37,1.49,38.39,-0.78,-2.54,38.96,-5.44,2.09,-4.21,1.89,-1.44,-13.77
5,24,651,-111,-374,3971,-0.31,1.49,38.52,-1.11,-3.74,39.71,-5.43,2.09,-4.36,1.81,-1.51,-14.29
-6,16,625,-138,-492,3938,-0.31,1.44,38.48,-1.38,-4.92,39.38,-5.45,2.11,-4.51,1.98,-1.38,-14.05
-14,8,544,-169,-528,3901,-0.37,1.34,37.95,-1.69,-5.28,39.01,-5.46,2.13,-4.66,2.13,-1.24,-13.22
-15,18,557,-137,-389,3939,-0.42,1.32,37.56,-1.37,-3.89,39.39,-5.47,2.14,-4.81,2.16,-1.38,-13.23
3,22,572,-116,-351,3959,-0.36,1.32,37.29,-1.16,-3.51,39.59,-5.46,2.15,-4.96,1.86,-1.45,-13.28
-7,19,594,-140,-470,3873,-0.37,1.31,37.18,-1.40,-4.70,38.73,-5.47,2.16,-5.11,2.02,-1.40,-13.44
-14,19,592,-111,-424,3859,-0.42,1.29,37.08,-1.11,-4.24,38.59,-5.48,2.17,-5.25,2.15,-1.40,-13.38
-7,32,618,-96,-351,3714,-0.42,1.36,37.14,-0.96,-3.51,37.14,-5.47,2.17,-5.40,2.04,-1.62,-13.61
-17,18,660,-86,-481,3820,-0.48,1.33,37.45,-0.86,-4.81,38.20,-5.49,2.19,-5.55,2.22,-1.40,-14.03
-9,37,646,-182,-429,4020,-0.49,1.42,37.65,-1.82,-4.29,40.20,-5.50,2.22,-5.70,2.10,-1.73,-13.94
-17,13,624,-138,-527,3950,-0.54,1.36,37.69,-1.38,-5.27,39.50,-5.51,2.23,-5.85,2.24,-1.35,-13.76
-3,10,635,-23,-441,3791,-0.51,1.29,37.79,-0.23,-4.41,37.91,-5.52,2.24,-6.00,2.02,-1.28,-13.86
-16,1,601,-62,-451,3852,-0.55,1.16,37.68,-0.62,-4.51,38.52,-5.53,2.24,-6.14,2.24,-1.11,-13.54
-7,7,625,-158,-535,3927,-0.54,1.09,37.72,-1.58,-5.35,39.27,-5.54,2.26,-6.29,2.10,-1.19,-13.74
-7,7,596,-3,-407,3984,-0.53,1.02,37.59,-0.03,-4.07,39.84,-5.54,2.26,-6.44,2.10,-1.17,-13.45
1,0,581,-12,-431,3940,-0.47,0.92,37.37,-0.12,-4.31,39.40,-5.54,2.26,-6.59,1.96,-1.03,-13.27
-6,0,498,-99,-353,3820,-0.46,0.83,36.67,-0.99,-3.53,38.20,-5.53,2.26,-6.74,2.06,-1.00,-12.39
-11,-2,493,-74,-411,3867,-0.48,0.73,36.01,-0.74,-4.11,38.67,-5.54,2.26,-6.88,2.14,-0.94,-12.18
-11,5,464,-98,-429,3894,-0.50,0.69,35.24,-0.98,-4.29,38.94,-5.54,2.27,-7.02,2.15,-1.04,-11.74
-9,10,489,-121,-510,3900,-0.50,0.68,34.70,-1.21,-5.10,39.00,-5.56,2.28,-7.16,2.13,-1.11,-11.82
8,-29,411,95,63,4010,-0.41,0.44,33.74,0.95,0.63,40.10,-5.54,2.28,-7.29,1.83,-0.44,-10.92
2,-31,296,78,-195,3820,-0.35,0.20,32.17,0.78,-1.95,38.20,-5.52,2.28,-7.42,1.90,-0.34,-9.57
-1,-28,208,-50,-344,3771,-0.32,0.01,30.22,-0.50,-3.44,37.71,-5.52,2.28,-7.54,1.93,-0.33,-8.35
-23,16,267,-258,-895,3923,-0.43,0.11,28.83,-2.58,-8.95,39.23,-5.53,2.29,-7.66,2.31,-1.03,-8.52
-5,36,597,-130,-396,3991,-0.42,0.32,29.59,-1.30,-3.96,39.91,-5.54,2.29,-7.77,2.03,-1.40,-11.48
-9,27,586,-166,-255,4002,-0.43,0.45,30.20,-1.66,-2.55,40.02,-5.51,2.30,-7.89,2.09,-1.31,-11.53
-4,1,461,87,-367,3876,-0.41,0.41,29.99,0.87,-3.67,38.76,-5.51,2.29,-8.01,2.01,-0.90,-10.41
-10,10,455,-11,-497,3879,-0.43,0.43,29.77,-0.11,-4.97,38.79,-5.52,2.29,-8.13,2.11,-1.04,-10.30
-2,16,497,-20,-434,3928,-0.40,0.49,29.83,-0.20,-4.34,39.28,-5.52,2.29,-8.25,1.98,-1.15,-10.66
-12,6,487,-80,-453,3918,-0.43,0.47,29.81,-0.80,-4.53,39.18,-5.53,2.29,-8.37,2.14,-0.99,-10.56
-4,7,434,-22,-407,3996,-0.42,0.47,29.48,-0.22,-4.07,39.96,-5.53,2.29,-8.48,2.01,-1.00,-10.03
-2,-2,433,-20,-423,3900,-0.39,0.41,29.17,-0.20,-4.23,39.00,-5.53,2.28,-8.60,1.97,-0.85,-9.94
-12,11,508,-92,-490,3899,-0.42,0.44,29.35,-0.92,-4.90,38.99,-5.55,2.28,-8.72,2.14,-1.06,-10.61
-4,14,534,34,-432,3916,-0.40,0.48,29.68,0.34,-4.32,39.16,-5.55,2.28,-8.83,2.02,-1.11,-10.90
-6,-6,510,20,-427,4047,-0.40,0.39,29.82,0.20,-4.27,40.47,-5.55,2.28,-8.95,2.04,-0.78,-10.72
-5,-14,495,71,-353,3851,-0.39,0.27,29.86,0.71,-3.53,38.51,-5.54,2.27,-9.07,2.02,-0.62,-10.59
-3,-6,597,-45,-470,3860,-0.37,0.21,30.51,-0.45,-4.70,38.60,-5.55,2.27,-9.19,1.99,-0.72,-11.60
-12,9,617,-146,-600,3844,-0.41,0.24,31.23,-1.46,-6.00,38.44,-5.57,2.28,-9.32,2.14,-0.96,-11.93
-16,-8,625,-159,-390,3811,-0.46,0.17,31.92,-1.59,-3.90,38.11,-5.58,2.30,-9.44,2.23,-0.69,-12.15
0,12,651,-227,-533,3937,-0.42,0.22,32.70,-2.27,-5.33,39.37,-5.59,2.32,-9.57,1.97,-1.02,-12.55
-14,5,639,-55,-528,3886,-0.46,0.23,33.32,-0.55,-5.28,38.86,-5.61,2.32,-9.70,2.20,-0.91,-12.59
-6,9,638,-183,-474,3961,-0.45,0.26,33.88,-1.83,-4.74,39.61,-5.62,2.34,-9.84,2.08,-0.99,-12.70
-8,25,614,-177,-520,3869,-0.45,0.39,34.24,-1.77,-5.20,38.69,-5.63,2.36,-9.97,2.12,-1.28,-12.57
2,22,621,-150,-435,3921,-0.40,0.48,34.60,-1.50,-4.35,39.21,-5.65,2.37,-10.11,1.95,-1.27,-12.71
-15,12,597,-76,-380,3850,-0.45,0.51,34.79,-0.76,-3.80,38.50,-5.64,2.37,-10.25,2.23,-1.12,-12.54
-11,13,587,-105,-328,3938,-0.47,0.54,34.89,-1.05,-3.28,39.38,-5.63,2.37,-10.39,2.17,-1.15,-12.47
-15,9,566,-158,-461,3875,-0.52,0.54,34.85,-1.58,-4.61,38.75,-5.64,2.39,-10.53,2.25,-1.09,-12.27
-11,15,567,-17,-397,3776,-0.53,0.58,34.82,-0.17,-3.97,37.76,-5.64,2.39,-10.67,2.19,-1.19,-12.26
-10,19,543,-66,-475,3810,-0.54,0.63,34.65,-0.66,-4.75,38.10,-5.65,2.39,-10.80,2.18,-1.27,-12.01
0,12,538,-35,-437,4035,-0.48,0.64,34.47,-0.35,-4.37,40.35,-5.65,2.39,-10.94,2.01,-1.17,-11.91
-16,-1,560,-52,-531,3905,-0.53,0.57,34.44,-0.52,-5.31,39.05,-5.66,2.39,-11.08,2.28,-0.95,-12.08
-9,13,541,-31,-404,3966,-0.54,0.60,34.30,-0.31,-4.04,39.66,-5.66,2.39,-11.21,2.17,-1.17,-11.88
-8,9,536,-126,-458,3892,-0.53,0.59,34.14,-1.26,-4.58,38.92,-5.67,2.40,-11.35,2.16,-1.11,-11.79
-5,13,546,-43,-481,3878,-0.51,0.61,34.05,-0.43,-4.81,38.78,-5.68,2.40,-11.48,2.11,-1.18,-11.85
-12,3,480,-113,-394,3882,-0.53,0.57,33.58,-1.13,-3.94,38.82,-5.68,2.40,-11.62,2.22,-1.01,-11.16
-12,7,485,-62,-458,3859,-0.55,0.55,33.18,-0.62,-4.58,38.59,-5.69,2.40,-11.75,2.23,-1.07,-11.10
-8,6,515,-117,-460,3919,-0.54,0.54,33.00,-1.17,-4.60,39.19,-5.70,2.40,-11.88,2.17,-1.05,-11.31
-11,2,508,-15,-409,3862,-0.56,0.49,32.80,-0.15,-4.09,38.62,-5.70,2.40,-12.01,2.22,-0.97,-11.19
-5,4,480,-61,-505,3869,-0.53,0.47,32.45,-0.61,-5.05,38.69,-5.71,2.40,-12.14,2.12,-1.00,-10.86
-6,-1,471,-76,-429,3982,-0.52,0.42,32.08,-0.76,-4.29,39.82,-5.71,2.40,-12.26,2.13,-0.90,-10.69
-3,7,478,-118,-380,3950,-0.48,0.42,31.78,-1.18,-3.80,39.50,-5.70,2.39,-12.39,2.08,-1.02,-10.67
-9,-9,452,3,-344,3962,-0.49,0.32,31.36,0.03,-3.44,39.62,-5.70,2.39,-12.52,2.17,-0.75,-10.34
-10,14,496,23,-502,3982,-0.50,0.37,31.25,0.23,-5.02,39.82,-5.70,2.39,-12.64,2.19,-1.12,-10.68
-8,24,494,-7,-453,3851,-0.50,0.48,31.14,-0.07,-4.53,38.51,-5.71,2.39,-12.76,2.16,-1.30,-10.63
5,15,457,-49,-397,3836,-0.42,0.53,30.81,-0.49,-3.97,38.36,-5.70,2.38,-12.89,1.93,-1.18,-10.23
-3,19,453,-101,-436,3926,-0.40,0.59,30.50,-1.01,-4.36,39.26,-5.71,2.38,-13.01,2.05,-1.26,-10.11
5,15,480,-31,-394,3989,-0.33,0.62,30.37,-0.31,-3.94,39.89,-5.71,2.38,-13.13,1.91,-1.20,-10.30
-11,5,490,-211,-571,3942,-0.36,0.59,30.33,-2.11,-5.71,39.42,-5.72,2.40,-13.25,2.17,-1.05,-10.37
-15,3,504,-49,-431,3866,-0.42,0.55,30.37,-0.49,-4.31,38.66,-5.72,2.39,-13.37,2.24,-1.00,-10.49
-5,23,525,-202,-544,3894,-0.40,0.63,30.53,-2.02,-5.44,38.94,-5.74,2.41,-13.49,2.09,-1.34,-10.70
-15,18,589,-89,-431,3983,-0.46,0.68,31.07,-0.89,-4.31,39.83,-5.74,2.41,-13.61,2.26,-1.28,-11.36
-1,26,594,-119,-449,3908,-0.42,0.77,31.59,-1.19,-4.49,39.08,-5.75,2.42,-13.74,2.04,-1.43,-11.51
-4,18,544,-37,-474,3915,-0.40,0.80,31.75,-0.37,-4.74,39.15,-5.76,2.42,-13.86,2.08,-1.32,-11.12
-9,13,549,-30,-415,3857,-0.41,0.80,31.92,-0.30,-4.15,38.57,-5.76,2.41,-13.99,2.16,-1.24,-11.19
-4,11,573,-63,-431,3870,-0.40,0.79,32.23,-0.63,-4.31,38.70,-5.76,2.41,-14.12,2.08,-1.21,-11.46
-4,16,582,-91,-372,3902,-0.38,0.81,32.55,-0.91,-3.72,39.02,-5.75,2.41,-14.25,2.08,-1.29,-11.60
-11,17,612,-127,-440,3893,-0.41,0.83,33.03,-1.27,-4.40,38.93,-5.76,2.42,-14.38,2.19,-1.31,-11.96
-6,12,601,-40,-394,3818,-0.41,0.82,33.39,-0.40,-3.94,38.18,-5.76,2.42,-14.51,2.12,-1.23,-11.94
4,1,614,-116,-379,3805,-0.34,0.75,33.80,-1.16,-3.79,38.05,-5.75,2.41,-14.64,1.94,-1.04,-12.14
-6,16,643,-70,-413,3942,-0.34,0.77,34.34,-0.70,-4.13,39.42,-5.75,2.41,-14.78,2.09,-1.27,-12.50
-5,30,806,-70,-423,3890,-0.34,0.87,35.82,-0.70,-4.23,38.90,-5.75,2.41,-14.92,2.08,-1.52,-14.22
-17,21,832,-98,-485,3832,-0.41,0.92,37.32,-0.98,-4.85,38.32,-5.76,2.42,-15.07,2.29,-1.40,-14.79
-31,2,856,-275,-358,3783,-0.56,0.84,38.81,-2.75,-3.58,37.83,-5.76,2.46,-15.22,2.54,-1.10,-15.33
-23,12,876,-245,-453,3926,-0.64,0.83,40.27,-2.45,-4.53,39.26,-5.76,2.49,-15.38,2.45,-1.26,-15.83
-19,26,807,109,-680,3986,-0.69,0.90,41.17,1.09,-6.80,39.86,-5.77,2.50,-15.55,2.41,-1.50,-15.45
-8,34,828,51,-506,3913,-0.67,1.02,42.10,0.51,-5.06,39.13,-5.77,2.50,-15.71,2.23,-1.66,-15.83
-27,8,795,89,-720,3828,-0.77,0.97,42.74,0.89,-7.20,38.28,-5.78,2.51,-15.88,2.56,-1.25,-15.69
9,39,783,245,-551,3943,-0.64,1.11,43.24,2.45,-5.51,39.43,-5.79,2.52,-16.05,1.97,-1.76,-15.70
-13,15,718,-131,-551,3917,-0.65,1.09,43.30,-1.31,-5.51,39.17,-5.80,2.53,-16.23,2.31,-1.40,-15.15
-14,5,685,-109,-422,3897,-0.67,1.01,43.15,-1.09,-4.22,38.97,-5.80,2.54,-16.40,2.33,-1.22,-14.82
-8,2,601,-40,-447,3967,-0.66,0.92,42.50,-0.40,-4.47,39.67,-5.80,2.54,-16.57,2.24,-1.15,-13.95
-20,1,591,-37,-492,3814,-0.71,0.83,41.85,-0.37,-4.92,38.14,-5.81,2.55,-16.73,2.44,-1.11,-13.70
-3,16,611,-42,-412,3870,-0.66,0.85,41.39,-0.42,-4.12,38.70,-5.81,2.55,-16.90,2.16,-1.34,-13.75
-15,5,589,7,-414,3856,-0.68,0.79,40.85,0.07,-4.14,38.56,-5.80,2.55,-17.06,2.35,-1.16,-13.42
-1,17,567,212,-357,3858,-0.62,0.82,40.22,2.12,-3.57,38.58,-5.80,2.55,-17.22,2.12,-1.35,-13.08
-1,50,539,30,-448,3774,-0.57,1.04,39.49,0.30,-4.48,37.74,-5.80,2.56,-17.37,2.10,-1.92,-12.65
2,37,577,-205,-475,3813,-0.50,1.16,39.06,-2.05,-4.75,38.13,-5.81,2.58,-17.53,2.04,-1.77,-12.86
-6,16,572,-153,-536,3931,-0.48,1.14,38.64,-1.53,-5.36,39.31,-5.82,2.60,-17.68,2.16,-1.45,-12.71
-19,-22,539,-122,-389,3966,-0.55,0.90,38.07,-1.22,-3.89,39.66,-5.81,2.60,-17.83,2.38,-0.80,-12.29
-2,-11,531,-132,-450,3861,-0.51,0.74,37.50,-1.32,-4.50,38.61,-5.82,2.61,-17.98,2.11,-0.92,-12.08
-4,11,576,207,-490,3885,-0.48,0.73,37.26,2.07,-4.90,38.85,-5.82,2.61,-18.13,2.13,-1.25,-12.39
-3,22,579,154,-387,3993,-0.45,0.79,37.07,1.54,-3.87,39.93,-5.82,2.61,-18.28,2.10,-1.44,-12.36
-17,13,562,-214,-587,3888,-0.51,0.79,36.79,-2.14,-5.87,38.88,-5.83,2.63,-18.42,2.34,-1.31,-12.14
-14,4,592,-184,-513,3925,-0.55,0.74,36.72,-1.84,-5.13,39.25,-5.84,2.65,-18.57,2.31,-1.16,-12.37
-15,-13,533,-190,-351,3847,-0.58,0.59,36.30,-1.90,-3.51,38.47,-5.82,2.67,-18.71,2.33,-0.86,-11.76
-12,-2,533,-133,-470,3842,-0.60,0.51,35.92,-1.33,-4.70,38.42,-5.83,2.68,-18.85,2.29,-1.01,-11.66
-8,9,631,-24,-624,3842,-0.59,0.52,36.18,-0.24,-6.24,38.42,-5.84,2.68,-19.00,2.23,-1.18,-12.54
-18,7,646,58,-473,3930,-0.64,0.51,36.50,0.58,-4.73,39.30,-5.84,2.68,-19.14,2.40,-1.15,-12.73
-25,-3,643,-32,-526,3877,-0.73,0.44,36.77,-0.32,-5.26,38.77,-5.85,2.68,-19.29,2.53,-0.97,-12.76
7,15,637,-160,-322,4038,-0.61,0.49,36.98,-1.60,-3.22,40.38,-5.83,2.70,-19.44,2.00,-1.27,-12.75
-9,-6,580,-114,-386,3949,-0.60,0.40,36.82,-1.14,-3.86,39.49,-5.82,2.70,-19.58,2.24,-0.92,-12.22
-5,15,600,-133,-525,3748,-0.57,0.45,36.80,-1.33,-5.25,37.48,-5.83,2.71,-19.73,2.18,-1.26,-12.37
2,20,652,-123,-411,3753,-0.50,0.53,37.10,-1.23,-4.11,37.53,-5.84,2.71,-19.88,2.05,-1.36,-12.87
-18,9,638,-81,-362,4014,-0.56,0.53,37.28,-0.81,-3.62,40.14,-5.83,2.71,-20.02,2.37,-1.19,-12.79
-14,3,595,-181,-471,3901,-0.59,0.50,37.18,-1.81,-4.71,39.01,-5.84,2.72,-20.17,2.32,-1.10,-12.39
-7,10,612,-101,-514,3903,-0.58,0.51,37.20,-1.01,-5.14,39.03,-5.85,2.73,-20.32,2.21,-1.21,-12.53
-11,4,652,-22,-394,4001,-0.59,0.48,37.45,-0.22,-3.94,40.01,-5.84,2.73,-20.47,2.27,-1.11,-12.92
-15,-5,639,20,-442,3864,-0.62,0.40,37.61,0.20,-4.42,38.64,-5.84,2.73,-20.62,2.35,-0.95,-12.83
4,22,631,-28,-538,3813,-0.53,0.50,37.69,-0.28,-5.38,38.13,-5.85,2.73,-20.77,2.03,-1.39,-12.77
-1,-10,630,62,-440,3977,-0.49,0.39,37.77,0.62,-4.40,39.77,-5.85,2.73,-20.92,2.09,-0.87,-12.77
-23,4,646,-56,-631,3810,-0.58,0.37,37.93,-0.56,-6.31,38.10,-5.86,2.74,-21.07,2.46,-1.08,-12.94
-9,9,660,53,-425,3879,-0.57,0.39,38.16,0.53,-4.25,38.79,-5.86,2.74,-21.22,2.24,-1.16,-13.10
-4,17,652,-84,-444,3744,-0.54,0.45,38.33,-0.84,-4.44,37.44,-5.86,2.74,-21.37,2.16,-1.30,-13.06
-17,-1,643,-33,-458,3990,-0.59,0.40,38.42,-0.33,-4.58,39.90,-5.86,2.74,-21.52,2.37,-1.01,-12.99
-6,6,622,-67,-397,3942,-0.57,0.40,38.37,-0.67,-3.97,39.42,-5.85,2.74,-21.68,2.20,-1.12,-12.79
-7,17,620,-9,-396,3874,-0.55,0.46,38.31,-0.09,-3.96,38.74,-5.85,2.74,-21.83,2.21,-1.30,-12.75
-5,17,601,9,-422,3891,-0.53,0.52,38.15,0.09,-4.22,38.91,-5.85,2.74,-21.98,2.17,-1.32,-12.54
-13,9,602,-48,-467,3910,-0.56,0.52,38.01,-0.48,-4.67,39.10,-5.85,2.74,-22.13,2.30,-1.20,-12.51
-1,20,563,-172,-433,3858,-0.51,0.59,37.64,-1.72,-4.33,38.58,-5.86,2.75,-22.28,2.10,-1.39,-12.08
-13,18,560,-74,-392,3901,-0.53,0.64,37.29,-0.74,-3.92,39.01,-5.85,2.75,-22.43,2.29,-1.38,-11.96
-7,18,518,-152,-404,3846,-0.52,0.69,36.72,-1.52,-4.04,38.46,-5.85,2.75,-22.57,2.20,-1.39,-11.46
-15,8,526,-143,-337,3920,-0.56,0.67,36.26,-1.43,-3.37,39.20,-5.84,2.76,-22.72,2.33,-1.24,-11.41
-4,7,532,-41,-268,3972,-0.53,0.64,35.88,-0.41,-2.68,39.72,-5.82,2.76,-22.86,2.14,-1.21,-11.36
-6,17,529,-104,-398,3805,-0.51,0.68,35.52,-1.04,-3.98,38.05,-5.82,2.76,-23.00,2.17,-1.38,-11.24
-11,-6,455,-122,-508,3797,-0.53,0.58,34.74,-1.22,-5.08,37.97,-5.83,2.77,-23.14,2.25,-1.00,-10.42
-7,17,456,-147,-629,3893,-0.52,0.62,34.05,-1.47,-6.29,38.93,-5.84,2.78,-23.28,2.19,-1.37,-10.26
10,30,404,128,-440,3919,-0.41,0.75,33.11,1.28,-4.40,39.19,-5.84,2.78,-23.41,1.90,-1.60,-9.58
-2,-2,377,135,-524,4061,-0.38,0.66,32.10,1.35,-5.24,40.61,-5.84,2.78,-23.53,2.07,-1.09,-9.11
-3,15,368,154,-601,3958,-0.36,0.68,31.13,1.54,-6.01,39.58,-5.84,2.78,-23.66,2.08,-1.35,-8.80
0,19,367,117,-576,3786,-0.32,0.73,30.26,1.17,-5.76,37.86,-5.85,2.77,-23.78,2.03,-1.43,-8.57
-8,12,386,-70,-494,3860,-0.34,0.73,29.59,-0.70,-4.94,38.60,-5.86,2.78,-23.89,2.16,-1.32,-8.57
-5,9,394,-102,-444,3958,-0.34,0.71,29.03,-1.02,-4.44,39.58,-5.86,2.77,-24.01,2.11,-1.27,-8.50
-7,3,404,-189,-417,3999,-0.35,0.66,28.59,-1.89,-4.17,39.99,-5.87,2.78,-24.12,2.15,-1.16,-8.47
-8,1,380,-121,-345,3812,-0.36,0.60,28.05,-1.21,-3.45,38.12,-5.85,2.77,-24.23,2.16,-1.11,-8.13
-4,-9,315,-110,-247,3804,-0.35,0.49,27.17,-1.10,-2.47,38.04,-5.83,2.78,-24.34,2.09,-0.93,-7.37
-7,2,298,-153,-472,3953,-0.36,0.45,26.27,-1.53,-4.72,39.53,-5.85,2.78,-24.45,2.14,-1.09,-7.00
-8,16,348,-169,-584,3702,-0.37,0.50,25.76,-1.69,-5.84,37.02,-5.86,2.79,-24.55,2.17,-1.32,-7.30
2,31,379,-26,-617,3914,-0.32,0.64,25.50,-0.26,-6.17,39.14,-5.87,2.80,-24.65,2.00,-1.59,-7.49
0,-5,168,-62,-276,3953,-0.29,0.55,23.97,-0.62,-2.76,39.53,-5.86,2.79,-24.75,2.02,-1.01,-5.34
-7,-18,139,-68,-499,3922,-0.30,0.38,22.43,-0.68,-4.99,39.22,-5.86,2.79,-24.83,2.13,-0.76,-4.72
-10,23,428,15,-902,3832,-0.33,0.48,22.79,0.15,-9.02,38.32,-5.88,2.80,-24.92,2.19,-1.42,-7.25
-11,14,465,156,-648,3921,-0.37,0.52,23.35,1.56,-6.48,39.21,-5.88,2.79,-25.02,2.22,-1.29,-7.69
-5,5,498,-44,-464,4128,-0.36,0.50,24.05,-0.44,-4.64,41.28,-5.89,2.79,-25.11,2.13,-1.15,-8.13
-14,7,515,-141,-370,3770,-0.41,0.49,24.79,-1.41,-3.70,37.70,-5.88,2.78,-25.21,2.28,-1.17,-8.44
-1,0,466,24,-376,3842,-0.37,0.44,25.15,0.24,-3.76,38.42,-5.87,2.78,-25.31,2.07,-1.05,-8.10
-8,10,451,-3,-466,3797,-0.39,0.46,25.39,-0.03,-4.66,37.97,-5.87,2.77,-25.41,2.18,-1.21,-8.02
-6,-9,454,37,-196,4013,-0.38,0.36,25.62,0.37,-1.96,40.13,-5.86,2.77,-25.51,2.14,-0.89,-8.10
0,-11,408,-84,-112,3942,-0.35,0.26,25.55,-0.84,-1.12,39.42,-5.84,2.77,-25.62,2.03,-0.83,-7.68
-20,-4,423,114,-562,3960,-0.43,0.21,25.57,1.14,-5.62,39.60,-5.84,2.77,-25.72,2.37,-0.92,-7.81
-6,15,438,46,-406,3837,-0.43,0.28,25.69,0.46,-4.06,38.37,-5.84,2.76,-25.82,2.15,-1.22,-7.96
-2,13,395,24,-446,3934,-0.40,0.33,25.53,0.24,-4.46,39.34,-5.84,2.76,-25.92,2.08,-1.21,-7.55
-14,0,402,123,-446,3977,-0.44,0.30,25.43,1.23,-4.46,39.77,-5.84,2.75,-26.02,2.28,-1.00,-7.58
-2,15,414,11,-482,3927,-0.41,0.36,25.41,0.11,-4.82,39.27,-5.84,2.74,-26.12,2.08,-1.24,-7.67
-3,19,394,-16,-449,3852,-0.39,0.44,25.27,-0.16,-4.49,38.52,-5.85,2.74,-26.22,2.09,-1.33,-7.46
-14,17,392,-74,-555,3947,-0.43,0.50,25.14,-0.74,-5.55,39.47,-5.86,2.74,-26.32,2.28,-1.32,-7.40
-8,9,407,-86,-525,3872,-0.44,0.50,25.11,-0.86,-5.25,38.72,-5.87,2.74,-26.42,2.19,-1.20,-7.51
-3,6,421,20,-403,3949,-0.41,0.49,25.16,0.20,-4.03,39.49,-5.87,2.73,-26.52,2.11,-1.14,-7.64
-1,22,421,15,-482,3824,-0.38,0.57,25.21,0.15,-4.82,38.24,-5.87,2.73,-26.62,2.07,-1.41,-7.64
-5,23,360,6,-430,3663,-0.37,0.66,24.89,0.06,-4.30,36.63,-5.87,2.73,-26.72,2.13,-1.45,-7.04
-3,32,376,-3,-444,3997,-0.35,0.79,24.69,-0.03,-4.44,39.97,-5.87,2.72,-26.82,2.09,-1.63,-7.13
-8,24,461,-113,-390,3959,-0.37,0.85,25.04,-1.13,-3.90,39.59,-5.86,2.72,-26.92,2.17,-1.52,-7.92
0,12,445,-100,-447,3915,-0.33,0.84,25.25,-1.00,-4.47,39.15,-5.87,2.71,-27.02,2.04,-1.34,-7.83
-1,18,462,-131,-348,3912,-0.30,0.87,25.54,-1.31,-3.48,39.12,-5.85,2.71,-27.12,2.04,-1.44,-8.03
-2,31,465,39,-320,3941,-0.28,0.97,25.82,0.39,-3.20,39.41,-5.84,2.71,-27.22,2.05,-1.66,-8.12
-3,35,551,-103,-715,3726,-0.27,1.09,26.60,-1.03,-7.15,37.26,-5.86,2.72,-27.33,2.06,-1.76,-9.02
-15,7,517,-120,-592,3832,-0.34,1.02,27.10,-1.20,-5.92,38.32,-5.87,2.73,-27.43,2.27,-1.32,-8.84
-6,5,398,13,-440,3998,-0.34,0.95,26.81,0.13,-4.40,39.98,-5.87,2.73,-27.54,2.13,-1.27,-7.76
-3,13,412,159,-347,4011,-0.33,0.93,26.65,1.59,-3.47,40.11,-5.86,2.73,-27.65,2.08,-1.38,-7.83
-11,-4,412,-74,-612,3876,-0.36,0.82,26.49,-0.74,-6.12,38.76,-5.87,2.73,-27.75,2.22,-1.09,-7.79
-10,-12,385,-38,-510,3868,-0.38,0.66,26.19,-0.38,-5.10,38.68,-5.88,2.73,-27.85,2.21,-0.92,-7.48
-3,8,404,50,-398,3791,-0.36,0.64,26.04,0.50,-3.98,37.91,-5.88,2.72,-27.96,2.10,-1.22,-7.60
-6,3,422,-51,-499,3919,-0.36,0.60,26.01,-0.51,-4.99,39.19,-5.89,2.72,-28.06,2.15,-1.13,-7.74
-1,35,416,113,-442,3956,-0.33,0.75,25.95,1.13,-4.42,39.56,-5.89,2.72,-28.16,2.06,-1.66,-7.67
10,24,477,-66,-479,3910,-0.24,0.82,26.26,-0.66,-4.79,39.10,-5.89,2.72,-28.27,1.86,-1.51,-8.25
-10,-11,391,-136,-455,3961,-0.28,0.67,26.02,-1.36,-4.55,39.61,-5.90,2.72,-28.37,2.18,-0.93,-7.46
-14,-8,398,-180,-461,3899,-0.33,0.56,25.85,-1.80,-4.61,38.99,-5.91,2.73,-28.47,2.27,-0.95,-7.47
-15,7,389,22,-452,3910,-0.39,0.54,25.63,0.22,-4.52,39.10,-5.91,2.72,-28.57,2.30,-1.17,-7.34
-9,10,394,45,-558,3868,-0.41,0.55,25.47,0.45,-5.58,38.68,-5.92,2.72,-28.67,2.22,-1.22,-7.33
-6,3,389,23,-466,3920,-0.40,0.51,25.30,0.23,-4.66,39.20,-5.92,2.71,-28.77,2.17,-1.10,-7.24
-12,-1,372,-67,-462,3926,-0.44,0.46,25.04,-0.67,-4.62,39.26,-5.93,2.71,-28.87,2.27,-1.02,-7.03
-2,3,422,-36,-336,3995,-0.41,0.43,25.11,-0.36,-3.36,39.95,-5.92,2.71,-28.97,2.11,-1.07,-7.46
-7,-6,369,-20,-294,3724,-0.41,0.35,24.85,-0.20,-2.94,37.24,-5.90,2.70,-29.07,2.18,-0.91,-6.95
0,49,485,69,-547,3889,-0.37,0.61,25.32,0.69,-5.47,38.89,-5.91,2.70,-29.17,2.06,-1.83,-8.03
-8,36,510,-6,-616,3889,-0.38,0.77,25.90,-0.06,-6.16,38.89,-5.92,2.70,-29.28,2.19,-1.68,-8.37
-5,22,488,-205,-622,3933,-0.37,0.83,26.29,-2.05,-6.22,39.33,-5.94,2.72,-29.38,2.15,-1.48,-8.27
-11,12,486,-115,-572,3907,-0.40,0.82,26.62,-1.15,-5.72,39.07,-5.95,2.72,-29.48,2.25,-1.33,-8.33
-8,-10,411,0,-426,3833,-0.41,0.68,26.47,0.00,-4.26,38.33,-5.95,2.72,-29.59,2.21,-0.95,-7.65
-7,1,417,-145,-496,3888,-0.41,0.61,26.37,-1.45,-4.96,38.88,-5.96,2.72,-29.69,2.20,-1.10,-7.67
-16,-7,407,-29,-449,3901,-0.47,0.51,26.21,-0.29,-4.49,39.01,-5.96,2.72,-29.80,2.35,-0.95,-7.54
-8,-7,392,17,-372,3945,-0.47,0.42,25.98,0.17,-3.72,39.45,-5.96,2.71,-29.90,2.23,-0.92,-7.35
-14,-33,366,45,-190,4005,-0.51,0.17,25.62,0.45,-1.90,40.05,-5.94,2.71,-30.00,2.33,-0.44,-7.04
0,3,345,-132,-463,3637,-0.46,0.17,25.16,-1.32,-4.63,36.37,-5.95,2.72,-30.10,2.10,-1.00,-6.74
-15,4,419,-134,-567,3709,-0.50,0.18,25.20,-1.34,-5.67,37.09,-5.97,2.72,-30.20,2.35,-1.01,-7.37
-18,-11,435,121,-449,4239,-0.56,0.10,25.33,1.21,-4.49,42.39,-5.97,2.71,-30.30,2.42,-0.76,-7.53
-5,12,427,2,-614,3979,-0.54,0.16,25.40,0.02,-6.14,39.79,-5.98,2.71,-30.40,2.21,-1.13,-7.47
-5,-2,430,86,-519,3893,-0.51,0.13,25.49,0.86,-5.19,38.93,-5.98,2.71,-30.50,2.21,-0.90,-7.51
-7,8,442,-56,-563,3851,-0.51,0.17,25.63,-0.56,-5.63,38.51,-5.99,2.71,-30.61,2.24,-1.07,-7.64
-13,11,449,-39,-495,3860,-0.53,0.22,25.81,-0.39,-4.95,38.60,-6.00,2.70,-30.71,2.34,-1.13,-7.74
-11,10,464,0,-426,4013,-0.55,0.26,26.06,0.00,-4.26,40.13,-6.00,2.70,-30.81,2.31,-1.12,-7.91
-3,8,450,-131,-500,3874,-0.51,0.28,26.20,-1.31,-5.00,38.74,-6.01,2.70,-30.91,2.19,-1.10,-7.82
10,-18,398,-183,-279,3734,-0.40,0.14,26.01,-1.83,-2.79,37.34,-5.99,2.71,-31.02,1.95,-0.66,-7.33
-16,4,392,-148,-584,3599,-0.46,0.15,25.80,-1.48,-5.84,35.99,-6.00,2.72,-31.12,2.37,-1.01,-7.22
-9,14,434,-11,-549,3758,-0.47,0.22,25.86,-0.11,-5.49,37.58,-6.01,2.72,-31.22,2.26,-1.18,-7.59
-16,-7,431,-54,-440,4007,-0.52,0.16,25.91,-0.54,-4.40,40.07,-6.01,2.71,-31.33,2.39,-0.84,-7.56
-8,5,433,-4,-453,3935,-0.51,0.17,25.96,-0.04,-4.53,39.35,-6.01,2.71,-31.43,2.26,-1.02,-7.58
1,5,428,50,-479,3873,-0.46,0.19,25.97,0.50,-4.79,38.73,-6.02,2.70,-31.53,2.11,-1.02,-7.54
-7,2,405,135,-465,3854,-0.45,0.18,25.85,1.35,-4.65,38.54,-6.02,2.69,-31.63,2.23,-0.97,-7.31
-4,17,411,16,-617,3801,-0.43,0.27,25.77,0.16,-6.17,38.01,-6.03,2.69,-31.74,2.18,-1.23,-7.33
-3,17,425,68,-385,3785,-0.41,0.34,25.78,0.68,-3.85,37.85,-6.02,2.69,-31.84,2.16,-1.25,-7.45
-2,18,436,12,-454,4009,-0.38,0.42,25.87,0.12,-4.54,40.09,-6.02,2.68,-31.94,2.13,-1.29,-7.55
-11,28,464,25,-370,4077,-0.41,0.55,26.11,0.25,-3.70,40.77,-6.01,2.68,-32.05,2.28,-1.48,-7.84
-2,28,458,-66,-433,3821,-0.38,0.66,26.29,-0.66,-4.33,38.21,-6.02,2.67,-32.15,2.13,-1.51,-7.82
5,11,415,-73,-351,3955,-0.31,0.66,26.19,-0.73,-3.51,39.55,-6.00,2.67,-32.25,2.00,-1.25,-7.43
1,19,419,-142,-375,3940,-0.27,0.71,26.13,-1.42,-3.75,39.40,-5.99,2.67,-32.36,2.04,-1.39,-7.44
-14,1,396,-80,-425,3987,-0.33,0.65,25.93,-0.80,-4.25,39.87,-5.98,2.67,-32.46,2.29,-1.09,-7.19
-8,10,384,-67,-353,3876,-0.35,0.64,25.68,-0.67,-3.53,38.76,-5.97,2.66,-32.56,2.20,-1.23,-7.02
-8,-6,342,-84,-528,3908,-0.36,0.54,25.20,-0.84,-5.28,39.08,-5.98,2.66,-32.66,2.21,-0.95,-6.55
-2,-5,347,52,-496,3873,-0.34,0.46,24.80,0.52,-4.96,38.73,-5.99,2.66,-32.76,2.11,-0.94,-6.49
-5,-1,327,101,-492,3812,-0.33,0.41,24.31,1.01,-4.92,38.12,-5.99,2.65,-32.86,2.16,-0.98,-6.20
