gyroADC_X,gyroADC_Y,gyroADC_Z,accADC_X,accADC_Y,accADC_Z,GyroX,GyroY,GyroZ,AccX,AccY,AccZ,roll_IMU,pitch_IMU,yaw_IMU,roll_PID,pitch_PID,yaw_PID
0,0,-1,-66,-368,3916,-0.00,-0.02,-0.04,-0.66,-3.68,39.16,-5.57,0.91,-0.13,83.59,-21.71,0.02
-1,0,-1,-74,-354,3894,-0.01,-0.01,-0.04,-0.74,-3.54,38.94,-5.55,0.92,-0.13,114.87,-21.04,0.02
-1,0,0,-69,-386,3906,-0.01,-0.01,-0.04,-0.69,-3.86,39.06,-5.56,0.93,-0.13,112.49,-20.52,0.01
-1,0,0,-73,-369,3899,-0.02,-0.01,-0.03,-0.73,-3.69,38.99,-5.55,0.94,-0.13,109.95,-20.06,0.01
-1,1,1,-73,-374,3890,-0.02,-0.00,-0.02,-0.73,-3.74,38.90,-5.54,0.96,-0.13,107.75,-51.17,-0.00
0,1,1,-68,-394,3874,-0.02,0.00,-0.02,-0.68,-3.94,38.74,-5.56,0.96,-0.13,74.72,-48.02,-0.00
1,0,1,-72,-393,3901,-0.01,0.00,-0.01,-0.72,-3.93,39.01,-5.58,0.97,-0.13,44.52,-13.84,-0.00
0,0,-1,-67,-391,3894,-0.01,0.00,-0.01,-0.67,-3.91,38.94,-5.60,0.97,-0.13,79.78,-13.95,0.01
1,-1,-1,-50,-369,3894,-0.00,-0.00,-0.02,-0.50,-3.69,38.94,-5.58,0.96,-0.13,48.72,17.62,0.01
4,-2,-1,-62,-366,3910,0.02,-0.02,-0.02,-0.62,-3.66,39.10,-5.57,0.95,-0.13,-42.69,46.36,0.01
3,-3,-1,-73,-375,3908,0.04,-0.03,-0.03,-0.73,-3.75,39.08,-5.56,0.97,-0.13,-0.57,72.42,0.02
3,-2,0,-70,-393,3897,0.05,-0.04,-0.02,-0.70,-3.93,38.97,-5.57,0.97,-0.13,6.79,33.61,0.01
3,-2,-1,-72,-391,3914,0.07,-0.05,-0.03,-0.72,-3.91,39.14,-5.59,0.98,-0.12,13.41,29.57,0.02
1,0,-1,-62,-398,3918,0.06,-0.04,-0.03,-0.62,-3.98,39.18,-5.60,0.97,-0.12,82.27,-36.69,0.02
0,0,-1,-63,-404,3918,0.06,-0.04,-0.03,-0.63,-4.04,39.18,-5.62,0.97,-0.12,113.78,-34.44,0.02
-1,-1,-1,-79,-390,3908,0.05,-0.04,-0.04,-0.79,-3.90,39.08,-5.63,0.99,-0.12,142.48,-1.30,0.02
0,0,-1,-66,-391,3907,0.04,-0.04,-0.04,-0.66,-3.91,39.07,-5.65,0.98,-0.12,106.10,-33.55,0.02
0,0,-1,-56,-368,3902,0.04,-0.03,-0.04,-0.56,-3.68,39.02,-5.63,0.97,-0.12,103.83,-31.54,0.02
-1,-1,-1,-65,-359,3896,0.03,-0.04,-0.04,-0.65,-3.59,38.96,-5.61,0.97,-0.12,133.16,1.58,0.02
0,2,0,-66,-365,3898,0.02,-0.02,-0.04,-0.66,-3.65,38.98,-5.59,0.97,-0.12,97.14,-93.85,0.01
0,1,-1,-56,-374,3897,0.02,-0.01,-0.04,-0.56,-3.74,38.97,-5.58,0.96,-0.12,95.76,-55.23,0.02
-1,0,0,-59,-386,3902,0.01,-0.01,-0.04,-0.59,-3.86,39.02,-5.59,0.94,-0.12,126.26,-19.97,0.01
-1,1,0,-60,-385,3912,0.01,-0.00,-0.03,-0.60,-3.85,39.12,-5.60,0.92,-0.12,122.71,-50.57,0.01
0,0,-1,-66,-384,3901,0.01,-0.00,-0.04,-0.66,-3.84,39.01,-5.61,0.94,-0.12,88.12,-16.21,0.02
0,-1,-1,-72,-390,3900,0.01,-0.01,-0.04,-0.72,-3.90,39.00,-5.62,0.95,-0.12,88.02,15.20,0.02
1,0,0,-70,-380,3908,0.01,-0.01,-0.03,-0.70,-3.80,39.08,-5.61,0.97,-0.12,56.14,-18.92,0.01
0,-1,0,-67,-374,3916,0.01,-0.01,-0.03,-0.67,-3.74,39.16,-5.59,0.97,-0.12,89.73,12.91,0.01
0,-1,0,-64,-380,3906,0.01,-0.02,-0.03,-0.64,-3.80,39.06,-5.58,0.95,-0.12,89.05,10.82,0.01
0,-1,0,-65,-382,3905,0.01,-0.02,-0.03,-0.65,-3.82,39.05,-5.59,0.95,-0.12,88.87,8.88,0.01
0,0,-1,-59,-381,3904,0.01,-0.02,-0.03,-0.59,-3.81,39.04,-5.59,0.93,-0.12,88.42,-24.13,0.02
1,0,-1,-66,-383,3910,0.01,-0.02,-0.03,-0.66,-3.83,39.10,-5.59,0.95,-0.12,56.69,-23.40,0.02
0,1,-1,-63,-391,3900,0.01,-0.01,-0.03,-0.63,-3.91,39.00,-5.61,0.94,-0.12,90.75,-53.87,0.02
-1,0,0,-60,-382,3906,0.00,-0.01,-0.03,-0.60,-3.82,39.06,-5.60,0.93,-0.12,121.53,-18.70,0.01
0,0,0,-73,-383,3918,0.00,-0.01,-0.03,-0.73,-3.83,39.18,-5.60,0.94,-0.12,86.90,-18.51,0.01
0,0,0,-67,-380,3908,0.00,-0.01,-0.03,-0.67,-3.80,39.08,-5.59,0.95,-0.12,86.50,-18.25,0.01
0,-1,-1,-65,-375,3912,0.00,-0.01,-0.03,-0.65,-3.75,39.12,-5.57,0.95,-0.12,86.06,13.56,0.02
0,0,-1,-73,-379,3907,0.00,-0.01,-0.03,-0.73,-3.79,39.07,-5.56,0.97,-0.12,85.85,-20.47,0.02
1,0,-1,-71,-379,3903,0.01,-0.01,-0.04,-0.71,-3.79,39.03,-5.56,0.99,-0.12,54.23,-20.17,0.02
0,-1,-1,-60,-377,3906,0.01,-0.02,-0.04,-0.60,-3.77,39.06,-5.55,0.97,-0.12,88.11,12.03,0.02
0,-1,0,-67,-378,3907,0.01,-0.02,-0.03,-0.67,-3.78,39.07,-5.53,0.98,-0.12,87.47,9.75,0.01
0,0,0,-68,-390,3919,0.01,-0.02,-0.03,-0.68,-3.90,39.19,-5.55,0.98,-0.12,87.41,-23.69,0.01
0,1,0,-63,-385,3901,0.01,-0.01,-0.03,-0.63,-3.85,39.01,-5.57,0.97,-0.12,87.34,-54.07,0.01
0,1,0,-69,-386,3906,0.01,-0.00,-0.02,-0.69,-3.86,39.06,-5.58,0.98,-0.12,87.31,-50.73,0.01
-1,0,-1,-68,-380,3897,-0.00,-0.00,-0.03,-0.68,-3.80,38.97,-5.57,0.99,-0.12,118.33,-16.41,0.02
0,0,-1,-69,-378,3896,-0.00,-0.00,-0.03,-0.69,-3.78,38.96,-5.56,1.00,-0.12,83.77,-16.42,0.02
0,0,0,-72,-377,3897,-0.00,-0.00,-0.03,-0.72,-3.77,38.97,-5.55,1.02,-0.12,83.70,-16.54,0.01
0,0,0,-62,-382,3893,-0.00,-0.00,-0.03,-0.62,-3.82,38.93,-5.56,1.00,-0.12,83.89,-16.18,0.01
0,-1,-1,-57,-388,3893,-0.00,-0.01,-0.03,-0.57,-3.88,38.93,-5.57,0.99,-0.12,84.13,15.56,0.02
0,-1,-1,-61,-383,3901,-0.00,-0.01,-0.03,-0.61,-3.83,39.01,-5.58,0.97,-0.12,84.29,13.23,0.02
-1,0,-1,-55,-382,3896,-0.01,-0.01,-0.04,-0.55,-3.82,38.96,-5.58,0.95,-0.12,115.80,-20.24,0.02
0,0,-1,-51,-382,3898,-0.01,-0.01,-0.04,-0.51,-3.82,38.98,-5.58,0.93,-0.12,81.77,-19.38,0.02
0,0,-1,-67,-382,3914,-0.01,-0.01,-0.04,-0.67,-3.82,39.14,-5.58,0.95,-0.12,82.04,-19.14,0.02
0,0,-1,-61,-383,3914,-0.01,-0.01,-0.04,-0.61,-3.83,39.14,-5.58,0.93,-0.12,82.36,-18.39,0.02
0,0,-2,-62,-379,3901,-0.00,-0.01,-0.05,-0.62,-3.79,39.01,-5.57,0.92,-0.12,82.39,-17.80,0.03
1,0,0,-57,-378,3893,0.00,-0.01,-0.05,-0.57,-3.78,38.93,-5.56,0.90,-0.12,51.12,-17.14,0.01
1,0,0,-65,-378,3910,0.01,-0.01,-0.04,-0.65,-3.78,39.10,-5.55,0.92,-0.12,53.81,-17.01,0.01
1,0,0,-72,-372,3905,0.01,-0.01,-0.04,-0.72,-3.72,39.05,-5.54,0.93,-0.12,56.22,-16.92,0.01
1,-1,0,-70,-387,3904,0.02,-0.01,-0.03,-0.70,-3.87,39.04,-5.55,0.94,-0.12,58.77,14.62,0.01
0,-1,0,-62,-389,3896,0.02,-0.02,-0.03,-0.62,-3.89,38.96,-5.57,0.94,-0.12,92.56,12.26,0.01
0,0,-1,-62,-381,3909,0.01,-0.01,-0.03,-0.62,-3.81,39.09,-5.57,0.92,-0.12,91.74,-21.07,0.02
1,0,-1,-67,-378,3909,0.02,-0.01,-0.04,-0.67,-3.78,39.09,-5.56,0.93,-0.12,59.43,-20.58,0.02
1,0,-1,-69,-379,3906,0.02,-0.01,-0.04,-0.69,-3.79,39.06,-5.55,0.95,-0.12,61.41,-20.21,0.02
0,0,0,-72,-381,3904,0.02,-0.01,-0.03,-0.72,-3.81,39.04,-5.56,0.97,-0.12,94.72,-19.91,0.01
0,0,-1,-64,-379,3901,0.02,-0.01,-0.04,-0.64,-3.79,39.01,-5.55,0.95,-0.12,93.63,-19.12,0.02
0,0,-1,-58,-382,3904,0.02,-0.01,-0.04,-0.58,-3.82,39.04,-5.56,0.93,-0.12,92.80,-18.39,0.02
0,0,0,-66,-385,3908,0.02,-0.01,-0.04,-0.66,-3.85,39.08,-5.58,0.94,-0.12,92.22,-18.08,0.01
0,0,0,-62,-384,3900,0.01,-0.01,-0.03,-0.62,-3.84,39.00,-5.59,0.93,-0.12,91.70,-17.54,0.01
0,1,-1,-72,-384,3904,0.01,-0.00,-0.03,-0.72,-3.84,39.04,-5.59,0.95,-0.12,91.09,-48.89,0.02
0,0,0,-74,-384,3915,0.01,-0.00,-0.03,-0.74,-3.84,39.15,-5.60,0.97,-0.12,90.50,-14.77,0.01
0,0,-1,-68,-385,3902,0.01,-0.00,-0.03,-0.68,-3.85,39.02,-5.61,0.98,-0.12,90.18,-14.92,0.02
0,0,0,-66,-391,3902,0.01,-0.00,-0.03,-0.66,-3.91,39.02,-5.63,0.97,-0.12,89.97,-14.88,0.01
0,0,0,-70,-382,3903,0.01,-0.00,-0.03,-0.70,-3.82,39.03,-5.62,0.99,-0.12,89.35,-15.09,0.01
0,0,1,-60,-380,3902,0.01,-0.00,-0.02,-0.60,-3.80,39.02,-5.61,0.97,-0.12,88.83,-14.83,-0.00
1,-1,0,-58,-381,3903,0.01,-0.01,-0.02,-0.58,-3.81,39.03,-5.60,0.95,-0.12,56.97,16.87,0.01
0,0,0,-68,-383,3902,0.01,-0.01,-0.02,-0.68,-3.83,39.02,-5.60,0.97,-0.12,90.76,-17.51,0.00
0,1,-1,-62,-382,3893,0.01,0.00,-0.02,-0.62,-3.82,38.93,-5.60,0.95,-0.12,90.20,-48.38,0.01
1,-1,0,-64,-378,3890,0.02,-0.01,-0.02,-0.64,-3.78,38.90,-5.59,0.95,-0.12,58.01,17.47,0.01
0,0,-1,-73,-370,3909,0.01,-0.00,-0.02,-0.73,-3.70,39.09,-5.57,0.96,-0.12,91.42,-16.83,0.01
1,0,-1,-77,-374,3909,0.02,-0.00,-0.03,-0.77,-3.74,39.09,-5.56,0.97,-0.12,59.17,-16.84,0.01
0,0,1,-61,-375,3904,0.02,-0.00,-0.02,-0.61,-3.75,39.04,-5.55,0.96,-0.12,92.48,-16.43,-0.00
0,0,1,-63,-387,3909,0.02,-0.00,-0.01,-0.63,-3.87,39.09,-5.57,0.95,-0.12,91.92,-16.14,-0.00
0,0,0,-55,-391,3910,0.01,-0.00,-0.01,-0.55,-3.91,39.10,-5.58,0.94,-0.12,91.38,-15.77,0.00
1,-1,0,-51,-387,3915,0.02,-0.01,-0.01,-0.51,-3.87,39.15,-5.58,0.92,-0.12,59.39,16.06,0.00
0,0,0,-68,-372,3907,0.02,-0.01,-0.01,-0.68,-3.72,39.07,-5.57,0.93,-0.12,92.64,-18.02,0.00
1,0,-1,-66,-372,3904,0.02,-0.01,-0.01,-0.66,-3.72,39.04,-5.55,0.94,-0.12,60.15,-17.71,0.01
0,-1,0,-60,-379,3905,0.02,-0.01,-0.01,-0.60,-3.79,39.05,-5.55,0.92,-0.12,93.49,14.35,0.00
0,0,0,-68,-386,3917,0.02,-0.01,-0.01,-0.68,-3.86,39.17,-5.56,0.93,-0.12,92.78,-19.63,0.00
0,0,-1,-58,-382,3913,0.02,-0.01,-0.02,-0.58,-3.82,39.13,-5.56,0.91,-0.12,92.00,-18.80,0.01
0,0,-1,-62,-380,3903,0.01,-0.01,-0.02,-0.62,-3.80,39.03,-5.55,0.90,-0.12,91.11,-18.07,0.01
1,-1,-1,-77,-384,3914,0.02,-0.01,-0.02,-0.77,-3.84,39.14,-5.56,0.91,-0.12,59.07,13.53,0.01
0,-1,-1,-72,-390,3898,0.02,-0.02,-0.03,-0.72,-3.90,38.98,-5.57,0.93,-0.12,92.78,11.07,0.01
-1,0,0,-64,-375,3899,0.01,-0.02,-0.02,-0.64,-3.75,38.99,-5.55,0.93,-0.12,123.12,-22.44,0.01
0,1,0,-70,-381,3911,0.01,-0.01,-0.02,-0.70,-3.81,39.11,-5.56,0.95,-0.12,88.32,-53.31,0.01
0,1,-1,-53,-382,3900,0.01,-0.00,-0.03,-0.53,-3.82,39.00,-5.56,0.93,-0.12,88.00,-49.61,0.01
0,0,0,-57,-381,3895,0.01,-0.00,-0.02,-0.57,-3.81,38.95,-5.56,0.91,-0.12,87.72,-14.83,0.01
0,0,0,-76,-383,3883,0.01,-0.00,-0.02,-0.76,-3.83,38.83,-5.57,0.93,-0.12,87.50,-15.00,0.01
0,0,0,-64,-385,3910,0.01,-0.00,-0.02,-0.64,-3.85,39.10,-5.59,0.93,-0.12,87.49,-14.94,0.01
-1,-1,0,-64,-385,3910,-0.00,-0.01,-0.02,-0.64,-3.85,39.10,-5.61,0.93,-0.11,118.94,16.54,0.01
0,0,-1,-69,-384,3908,-0.00,-0.01,-0.02,-0.69,-3.84,39.08,-5.61,0.95,-0.11,84.63,-17.76,0.01
0,0,-1,-64,-385,3909,-0.00,-0.01,-0.03,-0.64,-3.85,39.09,-5.62,0.94,-0.11,84.89,-17.23,0.01
0,1,0,-57,-378,3890,-0.00,0.00,-0.02,-0.57,-3.78,38.90,-5.61,0.92,-0.11,84.78,-48.13,0.01
-1,-1,0,-66,-386,3896,-0.01,-0.01,-0.02,-0.66,-3.86,38.96,-5.62,0.93,-0.11,116.47,17.47,0.01
0,0,0,-57,-387,3894,-0.01,-0.01,-0.02,-0.57,-3.87,38.94,-5.63,0.92,-0.11,82.54,-16.40,0.01
0,-1,-1,-67,-378,3914,-0.01,-0.01,-0.02,-0.67,-3.78,39.14,-5.62,0.93,-0.11,82.60,15.14,0.01
1,0,-1,-66,-382,3904,0.00,-0.01,-0.03,-0.66,-3.82,39.04,-5.61,0.94,-0.11,51.28,-18.96,0.01
1,1,-1,-62,-385,3895,0.01,-0.00,-0.03,-0.62,-3.85,38.95,-5.62,0.93,-0.11,54.42,-49.74,0.02
0,-1,0,-68,-381,3915,0.01,-0.01,-0.03,-0.68,-3.81,39.15,-5.61,0.94,-0.11,88.28,16.01,0.01
1,0,-1,-59,-386,3910,0.01,-0.01,-0.03,-0.59,-3.86,39.10,-5.61,0.92,-0.11,56.65,-17.72,0.02
0,1,-1,-53,-386,3898,0.01,-0.00,-0.03,-0.53,-3.86,38.98,-5.62,0.91,-0.11,90.55,-48.51,0.02
0,0,-1,-58,-390,3897,0.01,-0.00,-0.04,-0.58,-3.90,38.97,-5.63,0.90,-0.11,90.27,-13.94,0.02
1,0,-1,-64,-388,3903,0.01,-0.00,-0.04,-0.64,-3.88,39.03,-5.65,0.91,-0.11,58.59,-14.09,0.02
0,0,0,-66,-385,3898,0.01,-0.00,-0.03,-0.66,-3.85,38.98,-5.65,0.93,-0.11,92.24,-14.34,0.01
0,0,-1,-64,-372,3899,0.01,-0.00,-0.04,-0.64,-3.72,38.99,-5.63,0.93,-0.11,91.32,-14.33,0.02
1,1,0,-69,-379,3905,0.02,0.01,-0.03,-0.69,-3.79,39.05,-5.61,0.94,-0.11,59.11,-45.92,0.01
1,0,0,-65,-380,3905,0.02,0.01,-0.03,-0.65,-3.80,39.05,-5.60,0.94,-0.11,60.99,-11.84,0.01
1,0,-1,-62,-383,3895,0.03,0.00,-0.03,-0.62,-3.83,38.95,-5.60,0.93,-0.11,63.06,-11.85,0.02
0,0,-1,-61,-387,3902,0.02,0.00,-0.04,-0.61,-3.87,39.02,-5.62,0.92,-0.11,96.47,-11.93,0.02
0,0,-2,-56,-394,3919,0.02,0.00,-0.04,-0.56,-3.94,39.19,-5.63,0.91,-0.11,95.57,-11.95,0.03
0,-1,-1,-64,-388,3895,0.02,-0.00,-0.05,-0.64,-3.88,38.95,-5.65,0.92,-0.11,94.82,19.16,0.02
0,0,-1,-69,-379,3900,0.02,-0.00,-0.05,-0.69,-3.79,39.00,-5.64,0.93,-0.11,93.72,-15.30,0.02
1,0,-1,-66,-380,3903,0.02,-0.00,-0.05,-0.66,-3.80,39.03,-5.62,0.94,-0.11,61.24,-15.30,0.02
0,0,0,-60,-374,3906,0.02,-0.00,-0.04,-0.60,-3.74,39.06,-5.60,0.93,-0.11,94.36,-15.09,0.01
0,1,1,-63,-375,3896,0.02,0.00,-0.03,-0.63,-3.75,38.96,-5.58,0.93,-0.11,93.16,-46.40,-0.00
0,0,0,-63,-384,3900,0.02,0.00,-0.03,-0.63,-3.84,39.00,-5.60,0.92,-0.11,92.60,-12.17,0.01
0,-1,0,-66,-386,3915,0.01,-0.00,-0.03,-0.66,-3.86,39.15,-5.61,0.94,-0.11,92.03,18.85,0.01
0,0,1,-62,-386,3908,0.01,-0.00,-0.02,-0.62,-3.86,39.08,-5.62,0.92,-0.11,91.53,-15.20,-0.00
1,0,0,-56,-385,3912,0.02,-0.00,-0.02,-0.56,-3.85,39.12,-5.62,0.91,-0.11,59.49,-14.81,0.00
0,0,0,-64,-381,3916,0.02,-0.00,-0.01,-0.64,-3.81,39.16,-5.61,0.91,-0.11,92.79,-14.80,0.00
1,0,0,-63,-376,3910,0.02,-0.00,-0.01,-0.63,-3.76,39.10,-5.59,0.91,-0.11,60.33,-14.72,0.00
0,0,-1,-51,-372,3908,0.02,-0.00,-0.02,-0.51,-3.72,39.08,-5.58,0.90,-0.11,93.56,-14.43,0.01
-1,-1,-1,-55,-376,3914,0.01,-0.01,-0.02,-0.55,-3.76,39.14,-5.56,0.89,-0.11,123.92,17.28,0.01
1,-1,-1,-69,-380,3896,0.02,-0.01,-0.03,-0.69,-3.80,38.96,-5.57,0.90,-0.11,57.62,14.39,0.01
1,-1,-1,-64,-382,3896,0.02,-0.02,-0.03,-0.64,-3.82,38.96,-5.58,0.92,-0.11,60.05,11.86,0.02
-1,-1,-1,-62,-374,3895,0.01,-0.02,-0.03,-0.62,-3.74,38.95,-5.56,0.92,-0.11,124.63,9.78,0.02
0,0,0,-55,-373,3908,0.01,-0.02,-0.03,-0.55,-3.73,39.08,-5.55,0.90,-0.11,89.47,-23.35,0.01
0,1,1,-49,-360,3910,0.01,-0.01,-0.02,-0.49,-3.60,39.10,-5.53,0.89,-0.11,88.72,-53.66,-0.00
0,0,1,-57,-348,3902,0.01,-0.01,-0.01,-0.57,-3.48,39.02,-5.51,0.89,-0.11,87.98,-18.65,-0.00
0,0,2,-44,-319,3903,0.01,-0.01,0.00,-0.44,-3.19,39.03,-5.50,0.88,-0.11,87.30,-18.06,-0.01
1,0,3,-35,-329,3911,0.01,-0.01,0.02,-0.35,-3.29,39.11,-5.48,0.88,-0.11,55.25,-17.47,-0.03
2,0,5,-52,-375,3920,0.02,-0.01,0.05,-0.52,-3.75,39.20,-5.48,0.86,-0.11,26.12,-16.77,-0.05
2,1,5,-67,-412,3918,0.03,-0.00,0.07,-0.67,-4.12,39.18,-5.50,0.86,-0.11,31.17,-47.89,-0.05
1,1,2,-85,-508,3913,0.04,0.01,0.08,-0.85,-5.08,39.13,-5.51,0.86,-0.11,67.17,-44.93,-0.02
1,-1,0,-100,-522,3905,0.04,-0.00,0.07,-1.00,-5.22,39.05,-5.53,0.87,-0.11,68.63,20.56,-0.01
-1,0,-5,-102,-434,3906,0.03,-0.00,0.03,-1.02,-4.34,39.06,-5.55,0.88,-0.11,132.77,-13.95,0.04
-2,0,-7,-92,-406,3909,0.01,-0.00,-0.01,-0.92,-4.06,39.09,-5.56,0.89,-0.11,160.00,-14.10,0.06
-2,0,-7,-66,-302,3902,0.00,-0.00,-0.05,-0.66,-3.02,39.02,-5.54,0.90,-0.11,153.10,-14.07,0.07
-3,0,-5,-47,-283,3903,-0.02,-0.00,-0.08,-0.47,-2.83,39.03,-5.52,0.89,-0.11,178.30,-13.98,0.06
-3,0,8,-28,-341,3898,-0.03,-0.00,-0.02,-0.28,-3.41,38.98,-5.51,0.88,-0.11,170.06,-13.75,-0.06
-2,-2,5,-66,-300,3948,-0.04,-0.01,0.01,-0.66,-3.00,39.48,-5.49,0.88,-0.11,131.13,49.12,-0.04
-2,0,3,-34,-391,3909,-0.05,-0.01,0.03,-0.34,-3.91,39.09,-5.50,0.87,-0.11,127.44,-18.81,-0.03
5,2,1,-55,-376,3899,-0.02,0.00,0.03,-0.55,-3.76,38.99,-5.50,0.85,-0.11,-95.94,-80.82,-0.01
6,1,-5,-78,-430,3905,0.02,0.01,-0.00,-0.78,-4.30,39.05,-5.52,0.85,-0.11,-111.49,-43.64,0.05
-5,0,2,-103,-408,3926,-0.01,0.01,0.01,-1.03,-4.08,39.26,-5.53,0.87,-0.11,251.07,-9.85,-0.02
-5,0,-3,-71,-333,3903,-0.04,0.01,-0.01,-0.71,-3.33,39.03,-5.51,0.87,-0.11,236.44,-10.25,0.03
0,0,0,-52,-316,3884,-0.04,0.01,-0.01,-0.52,-3.16,38.84,-5.49,0.87,-0.11,66.11,-10.52,0.00
2,0,0,-45,-327,3899,-0.02,0.01,-0.01,-0.45,-3.27,38.99,-5.48,0.87,-0.11,4.73,-10.72,0.00
-1,-2,2,-58,-366,3895,-0.02,-0.01,0.01,-0.58,-3.66,38.95,-5.46,0.86,-0.11,105.65,51.93,-0.01
41,48,9,158,-102,3564,0.23,0.29,0.06,1.58,-1.02,35.64,-5.44,0.85,-0.11,-1216.25,-1524.76,-0.08
9,53,27,100,179,3383,0.26,0.58,0.22,1.00,1.79,33.83,-5.42,0.85,-0.11,-100.21,-1553.14,-0.25
27,87,97,14,181,3987,0.40,1.05,0.79,0.14,1.81,39.87,-5.40,0.85,-0.12,-652.12,-2492.44,-0.92
1,72,146,-7,17,3955,0.37,1.39,1.60,-0.07,0.17,39.55,-5.39,0.86,-0.12,225.44,-1813.90,-1.44
-12,17,367,-56,-497,3948,0.26,1.35,3.68,-0.56,-4.97,39.48,-5.40,0.86,-0.14,619.40,60.80,-3.58
-1,5,406,-177,-504,3965,0.22,1.25,5.79,-1.77,-5.04,39.65,-5.41,0.88,-0.16,225.80,422.26,-4.18
-18,-12,462,-296,-365,3975,0.09,1.05,8.03,-2.96,-3.65,39.75,-5.41,0.91,-0.19,746.13,910.20,-4.94
-1,-12,481,-312,-303,3890,0.08,0.87,10.16,-3.12,-3.03,38.90,-5.41,0.93,-0.23,153.85,823.04,-5.38
-15,-17,554,-399,-342,3910,-0.02,0.68,12.52,-3.99,-3.42,39.10,-5.40,0.96,-0.28,587.08,901.68,-6.30
-14,-11,552,-486,-387,3802,-0.11,0.55,14.64,-4.86,-3.87,38.02,-5.41,0.98,-0.34,512.19,629.07,-6.55
-8,-25,519,-256,-460,3894,-0.14,0.34,16.34,-2.56,-4.60,38.94,-5.41,1.01,-0.40,287.30,1009.41,-6.49
-5,-60,500,-151,-544,4007,-0.16,-0.06,17.76,-1.51,-5.44,40.07,-5.43,1.02,-0.48,176.51,2018.32,-6.51
-1,-28,454,161,-517,3923,-0.15,-0.23,18.75,1.61,-5.17,39.23,-5.44,1.01,-0.55,43.88,837.55,-6.24
2,-14,435,172,-521,3898,-0.12,-0.29,19.53,1.72,-5.21,38.98,-5.45,1.00,-0.63,-45.92,325.55,-6.18
-18,-21,299,192,-511,3946,-0.22,-0.39,19.40,1.92,-5.11,39.46,-5.45,0.99,-0.70,594.65,518.16,-5.01
-7,-12,227,215,-366,3863,-0.24,-0.42,18.84,2.15,-3.66,38.63,-5.45,0.98,-0.78,206.22,192.03,-4.33
6,-6,139,154,-260,3903,-0.18,-0.42,17.81,1.54,-2.60,39.03,-5.45,0.97,-0.85,-211.51,-11.42,-3.45
-13,-1,126,146,-286,3871,-0.24,-0.38,16.80,1.46,-2.86,38.71,-5.44,0.96,-0.92,412.10,-165.89,-3.20
1,4,61,2,-432,3947,-0.21,-0.32,15.49,0.02,-4.32,39.47,-5.45,0.95,-0.98,-54.55,-307.27,-2.48
-2,-2,48,-67,-478,3954,-0.20,-0.30,14.23,-0.67,-4.78,39.54,-5.47,0.95,-1.04,53.28,-91.37,-2.21
-3,0,5,-91,-595,3887,-0.20,-0.27,12.84,-0.91,-5.95,38.87,-5.49,0.96,-1.09,88.90,-145.68,-1.67
0,1,-3,-125,-635,3921,-0.18,-0.24,11.54,-1.25,-6.35,39.21,-5.50,0.97,-1.13,-4.26,-164.11,-1.43
0,-1,-38,-211,-632,3875,-0.16,-0.22,10.15,-2.11,-6.32,38.75,-5.52,0.98,-1.17,4.78,-86.97,-0.95
-3,-2,-39,-144,-566,3878,-0.16,-0.21,8.90,-1.44,-5.66,38.78,-5.54,0.99,-1.21,107.22,-48.00,-0.78
-2,1,-9,-138,-361,3903,-0.16,-0.18,7.95,-1.38,-3.61,39.03,-5.53,1.01,-1.24,74.83,-138.35,-0.92
1,1,-7,-65,-399,3889,-0.14,-0.16,7.12,-0.65,-3.99,38.89,-5.55,1.01,-1.27,-17.31,-126.50,-0.82
1,0,-2,-71,-400,3914,-0.12,-0.14,6.39,-0.71,-4.00,39.14,-5.57,1.01,-1.29,-7.33,-84.48,-0.77
0,1,-1,-91,-386,3909,-0.11,-0.12,5.75,-0.91,-3.86,39.09,-5.57,1.03,-1.32,32.88,-109.29,-0.70
-1,1,0,-71,-374,3909,-0.10,-0.10,5.17,-0.71,-3.74,39.09,-5.55,1.03,-1.34,69.21,-100.43,-0.63
1,1,0,-64,-377,3923,-0.09,-0.09,4.65,-0.64,-3.77,39.23,-5.54,1.02,-1.36,8.20,-92.22,-0.56
1,0,-2,-43,-387,3900,-0.07,-0.08,4.18,-0.43,-3.87,39.00,-5.55,1.00,-1.37,15.42,-53.34,-0.49
1,-1,-2,-50,-397,3897,-0.06,-0.08,3.75,-0.50,-3.97,38.97,-5.56,0.99,-1.39,22.04,-17.92,-0.43
1,-1,0,-57,-391,3919,-0.05,-0.07,3.37,-0.57,-3.91,39.19,-5.57,0.98,-1.40,28.01,-16.97,-0.40
0,1,1,-70,-381,3907,-0.04,-0.06,3.04,-0.70,-3.81,39.07,-5.57,1.00,-1.41,64.61,-79.43,-0.36
0,1,1,-69,-374,3893,-0.04,-0.05,2.74,-0.69,-3.74,38.93,-5.55,1.00,-1.42,66.34,-73.53,-0.33
2,-1,0,-71,-388,3893,-0.02,-0.05,2.47,-0.71,-3.88,38.93,-5.57,1.01,-1.43,5.56,-5.40,-0.28
-7,-25,25,-48,-132,3749,-0.06,-0.20,2.37,-0.48,-1.32,37.49,-5.55,1.00,-1.44,295.10,748.31,-0.48
-10,-27,53,-23,83,3851,-0.12,-0.34,2.46,-0.23,0.83,38.51,-5.54,1.00,-1.45,371.31,746.55,-0.73
-4,13,229,-91,308,3837,-0.13,-0.23,3.61,-0.91,3.08,38.37,-5.52,1.00,-1.47,158.45,-574.04,-2.37
-2,8,271,-131,227,4034,-0.13,-0.16,4.90,-1.31,2.27,40.34,-5.50,1.01,-1.49,89.74,-367.16,-2.89
15,111,338,-172,-177,3799,-0.02,0.54,6.47,-1.72,-1.77,37.99,-5.48,1.02,-1.51,-444.42,-3572.78,-3.66
16,277,350,-135,-347,3681,0.08,2.17,7.96,-1.35,-3.47,36.81,-5.48,1.05,-1.55,-430.13,-8486.15,-3.95
13,79,361,-127,-754,3720,0.15,2.44,9.37,-1.27,-7.54,37.20,-5.50,1.07,-1.58,-291.75,-1546.78,-4.22
-8,57,350,-70,-899,4051,0.08,2.54,10.57,-0.70,-8.99,40.51,-5.52,1.08,-1.62,399.90,-739.56,-4.28
18,9,231,502,-957,3840,0.19,2.34,10.92,5.02,-9.57,38.40,-5.53,1.08,-1.66,-444.86,814.49,-3.32
23,1,122,627,-699,3844,0.31,2.11,10.57,6.27,-6.99,38.44,-5.53,1.08,-1.71,-557.44,978.65,-2.35
4,-2,-34,549,-591,3963,0.30,1.89,9.31,5.49,-5.91,39.63,-5.54,1.07,-1.74,93.09,973.06,-0.87
-9,-20,-62,415,-674,4038,0.22,1.58,8.00,4.15,-6.74,40.38,-5.54,1.06,-1.77,498.97,1440.82,-0.46
-30,-58,-148,-88,-706,3899,0.01,1.07,6.30,-0.88,-7.06,38.99,-5.56,1.07,-1.80,1121.93,2498.55,0.49
-15,-62,-168,-138,-669,3920,-0.08,0.58,4.64,-1.38,-6.69,39.20,-5.58,1.08,-1.81,561.12,2399.81,0.87
-13,-172,-231,-398,-470,3826,-0.15,-0.53,2.77,-3.98,-4.70,38.26,-5.58,1.10,-1.83,457.74,5643.79,1.65
-21,-114,-223,-451,-365,3842,-0.27,-1.17,1.13,-4.51,-3.65,38.42,-5.59,1.11,-1.83,677.96,3335.38,1.79
-19,-41,-211,-542,-453,3819,-0.35,-1.30,-0.27,-5.42,-4.53,38.19,-5.59,1.12,-1.83,565.70,759.26,1.87
-3,-19,-212,-506,-435,3858,-0.34,-1.29,-1.54,-5.06,-4.35,38.58,-5.59,1.14,-1.82,23.77,9.27,2.04
-1,-2,-247,-279,-447,3881,-0.31,-1.17,-2.89,-2.79,-4.47,38.81,-5.60,1.15,-1.81,-31.44,-518.90,2.51
8,4,-288,-185,-395,3878,-0.23,-1.03,-4.36,-1.85,-3.95,38.78,-5.60,1.16,-1.80,-302.09,-656.56,3.05
10,3,-417,-32,-349,3934,-0.15,-0.91,-6.46,-0.32,-3.49,39.34,-5.59,1.14,-1.77,-330.11,-562.80,4.41
12,-6,-449,-18,-365,3904,-0.06,-0.85,-8.56,-0.18,-3.65,39.04,-5.59,1.11,-1.74,-356.19,-226.45,4.95
15,-6,-584,-69,-320,3921,0.04,-0.81,-11.26,-0.69,-3.20,39.21,-5.57,1.10,-1.69,-412.24,-202.54,6.44
14,-12,-637,-108,-344,3951,0.12,-0.80,-14.02,-1.08,-3.44,39.51,-5.56,1.11,-1.64,-338.35,7.36,7.24
11,-12,-847,-98,-516,3890,0.18,-0.79,-17.79,-0.98,-5.16,38.90,-5.58,1.10,-1.57,-208.06,10.67,9.50
18,-19,-902,-65,-575,3899,0.27,-0.83,-21.51,-0.65,-5.75,38.99,-5.60,1.09,-1.48,-403.62,233.72,10.45
25,-34,-1137,-13,-610,3958,0.39,-0.95,-26.30,-0.13,-6.10,39.58,-5.61,1.07,-1.38,-582.89,689.27,13.05
4,-25,-1207,-20,-562,3850,0.38,-1.01,-31.03,-0.20,-5.62,38.50,-5.63,1.05,-1.25,132.45,352.13,14.25
33,-39,-1437,19,-529,3892,0.54,-1.15,-36.69,0.19,-5.29,38.92,-5.65,1.02,-1.11,-785.21,767.43,16.92
9,-44,-1528,-12,-508,3923,0.54,-1.30,-42.34,-0.12,-5.08,39.23,-5.67,0.99,-0.94,40.92,864.98,18.41
18,-39,-1657,-203,-386,3896,0.60,-1.41,-48.22,-2.03,-3.86,38.96,-5.67,0.98,-0.75,-241.59,640.55,20.26
33,-44,-1681,-192,-324,3993,0.74,-1.54,-53.65,-1.92,-3.24,39.93,-5.66,0.97,-0.54,-688.76,750.57,21.16
33,-40,-1759,-176,-199,3960,0.87,-1.63,-59.01,-1.76,-1.99,39.60,-5.64,0.95,-0.30,-626.97,569.25,22.50
30,-34,-1770,-163,-206,3869,0.96,-1.67,-63.91,-1.63,-2.06,38.69,-5.63,0.93,-0.05,-477.11,341.40,23.22
29,-59,-1812,-73,-163,3833,1.04,-1.86,-68.57,-0.73,-1.63,38.33,-5.61,0.89,0.22,-403.74,1107.92,24.17
26,-44,-1825,-42,-204,4002,1.10,-1.95,-72.85,-0.42,-2.04,40.02,-5.59,0.86,0.51,-274.42,552.59,24.82
37,-36,-1756,98,-245,3916,1.21,-1.97,-76.27,0.98,-2.45,39.16,-5.58,0.80,0.82,-596.53,266.01,24.67
41,-28,-1729,96,-274,3902,1.34,-1.94,-79.19,0.96,-2.74,39.02,-5.57,0.75,1.13,-671.60,4.45,24.81
50,-25,-1608,57,-406,3936,1.51,-1.90,-81.08,0.57,-4.06,39.36,-5.57,0.69,1.45,-897.98,-77.44,24.02
23,-29,-1537,33,-458,3922,1.50,-1.89,-82.35,0.33,-4.58,39.22,-5.58,0.64,1.78,25.52,67.46,23.57
26,-7,-1365,-32,-394,3869,1.51,-1.74,-82.44,-0.32,-3.94,38.69,-5.59,0.59,2.11,-73.41,-617.29,22.11
33,-20,-1298,19,-334,3953,1.56,-1.69,-82.12,0.19,-3.34,39.53,-5.58,0.54,2.43,-289.96,-143.85,21.50
15,-12,-1064,-50,-309,3881,1.50,-1.59,-80.39,-0.50,-3.09,38.81,-5.55,0.50,2.75,297.41,-371.81,19.29
10,-16,-1001,-87,-265,3916,1.41,-1.53,-78.46,-0.87,-2.65,39.16,-5.54,0.48,3.06,425.92,-203.63,18.50
16,-3,-820,-30,-167,4048,1.36,-1.40,-75.62,-0.30,-1.67,40.48,-5.51,0.44,3.37,198.18,-584.50,16.59
-1,-4,-775,-57,-251,3867,1.22,-1.28,-72.78,-0.57,-2.51,38.67,-5.49,0.41,3.65,713.17,-493.45,15.84
4,-11,-646,-67,-273,3823,1.12,-1.22,-69.45,-0.67,-2.73,38.23,-5.47,0.39,3.93,493.25,-222.51,14.31
14,-3,-620,-84,-332,3889,1.10,-1.12,-66.28,-0.84,-3.32,38.89,-5.46,0.37,4.19,135.92,-446.88,13.67
3,-16,-487,-129,-345,3911,1.01,-1.10,-62.62,-1.29,-3.45,39.11,-5.45,0.36,4.44,469.64,7.34,12.07
7,-6,-388,-161,-311,3949,0.95,-1.03,-58.73,-1.61,-3.11,39.49,-5.44,0.35,4.68,303.70,-300.56,10.72
2,-3,-150,-114,-316,3867,0.87,-0.95,-53.77,-1.14,-3.16,38.67,-5.43,0.34,4.89,435.28,-362.38,8.06
7,-5,-103,-53,-305,3898,0.82,-0.88,-49.02,-0.53,-3.05,38.98,-5.41,0.33,5.08,241.66,-262.19,7.05
0,-3,33,80,-380,3876,0.74,-0.81,-43.92,0.80,-3.80,38.76,-5.41,0.29,5.26,442.43,-296.40,5.24
2,0,50,92,-395,3907,0.68,-0.73,-39.22,0.92,-3.95,39.07,-5.42,0.26,5.41,343.59,-359.54,4.49
-4,2,121,105,-332,3918,0.59,-0.64,-34.56,1.05,-3.32,39.18,-5.41,0.22,5.55,504.97,-386.32,3.28
-4,-1,147,91,-326,3896,0.50,-0.59,-30.21,0.91,-3.26,38.96,-5.40,0.19,5.67,464.44,-254.22,2.50
2,11,199,-13,-177,4063,0.46,-0.46,-25.97,-0.13,-1.77,40.63,-5.38,0.18,5.78,239.22,-605.55,1.51
-1,7,198,-14,-173,3904,0.41,-0.37,-22.17,-0.14,-1.73,39.04,-5.36,0.17,5.86,316.52,-424.57,1.03
-2,6,189,-38,-228,3856,0.36,-0.30,-18.80,-0.38,-2.28,38.56,-5.34,0.17,5.94,324.62,-354.16,0.67
-2,8,179,-83,-303,3973,0.31,-0.22,-15.83,-0.83,-3.03,39.73,-5.33,0.17,6.00,301.00,-384.75,0.37
1,1,146,-77,-346,3946,0.29,-0.19,-13.35,-0.77,-3.46,39.46,-5.32,0.18,6.05,185.55,-130.48,0.33
-7,2,140,-90,-391,3944,0.21,-0.16,-11.16,-0.90,-3.91,39.44,-5.33,0.20,6.10,426.09,-149.80,0.10
-2,1,98,-103,-397,3927,0.18,-0.14,-9.45,-1.03,-3.97,39.27,-5.33,0.21,6.14,237.81,-104.83,0.23
0,-1,92,-88,-366,3878,0.16,-0.13,-7.94,-0.88,-3.66,38.78,-5.33,0.23,6.17,160.22,-32.51,0.09
-3,-1,81,-74,-355,3889,0.13,-0.12,-6.66,-0.74,-3.55,38.89,-5.33,0.24,6.19,246.54,-29.37,0.01
-1,-1,84,-47,-332,3915,0.11,-0.12,-5.48,-0.47,-3.32,39.15,-5.31,0.25,6.22,168.33,-26.48,-0.16
-2,2,97,-48,-392,3910,0.09,-0.09,-4.34,-0.48,-3.92,39.10,-5.33,0.26,6.23,191.65,-118.19,-0.42
-2,2,92,-48,-410,3902,0.07,-0.07,-3.34,-0.48,-4.10,39.02,-5.34,0.27,6.25,181.75,-107.84,-0.51
-1,2,54,-83,-390,3910,0.05,-0.05,-2.68,-0.83,-3.90,39.10,-5.35,0.29,6.26,141.30,-98.64,-0.27
-1,2,42,-71,-393,3909,0.04,-0.03,-2.16,-0.71,-3.93,39.09,-5.36,0.30,6.27,135.89,-90.38,-0.24
-1,0,35,-53,-367,3906,0.03,-0.03,-1.73,-0.53,-3.67,39.06,-5.36,0.32,6.27,130.92,-20.16,-0.23
-1,0,33,-60,-363,3913,0.02,-0.03,-1.35,-0.60,-3.63,39.13,-5.35,0.34,6.28,126.41,-18.89,-0.26
0,1,14,-72,-380,3907,0.02,-0.02,-1.13,-0.72,-3.80,39.07,-5.36,0.35,6.28,91.02,-49.20,-0.13
-1,0,7,-68,-367,3910,0.01,-0.02,-0.98,-0.68,-3.67,39.10,-5.36,0.37,6.29,121.49,-14.13,-0.09
1,0,4,-56,-355,3918,0.02,-0.02,-0.85,-0.56,-3.55,39.18,-5.35,0.39,6.29,55.00,-13.54,-0.08
1,0,3,-47,-349,3923,0.02,-0.01,-0.75,-0.47,-3.49,39.23,-5.34,0.40,6.29,56.98,-12.97,-0.09
2,0,2,-48,-359,3907,0.03,-0.01,-0.66,-0.48,-3.59,39.07,-5.33,0.42,6.30,27.42,-12.55,-0.09
1,-1,1,-61,-374,3909,0.03,-0.02,-0.59,-0.61,-3.74,39.09,-5.34,0.44,6.30,63.35,19.23,-0.09
0,0,0,-78,-393,3921,0.03,-0.02,-0.53,-0.78,-3.93,39.21,-5.35,0.45,6.30,96.22,-14.55,-0.09
1,-1,0,-69,-394,3917,0.03,-0.02,-0.48,-0.69,-3.94,39.17,-5.36,0.47,6.30,63.47,17.42,-0.10
0,-1,-1,-66,-384,3907,0.03,-0.02,-0.44,-0.66,-3.84,39.07,-5.37,0.48,6.30,96.35,15.19,-0.09
0,0,-1,-72,-376,3910,0.03,-0.02,-0.40,-0.72,-3.76,39.10,-5.37,0.50,6.31,94.93,-18.29,-0.10
-1,-1,-1,-41,-342,3904,0.02,-0.03,-0.37,-0.41,-3.42,39.04,-5.35,0.50,6.31,124.76,14.14,-0.10
0,-1,-1,-39,-345,3918,0.02,-0.03,-0.33,-0.39,-3.45,39.18,-5.34,0.51,6.31,89.19,12.38,-0.11
1,-1,0,-33,-349,3916,0.02,-0.03,-0.30,-0.33,-3.49,39.16,-5.32,0.51,6.31,56.68,10.87,-0.12
1,0,0,-31,-353,3899,0.03,-0.03,-0.27,-0.31,-3.53,38.99,-5.30,0.50,6.31,58.36,-21.85,-0.12
1,0,0,-52,-370,3884,0.03,-0.03,-0.24,-0.52,-3.70,38.84,-5.31,0.52,6.31,60.24,-20.66,-0.13
1,0,-1,-61,-371,3904,0.03,-0.02,-0.23,-0.61,-3.71,39.04,-5.31,0.53,6.31,61.90,-19.64,-0.12
1,1,0,-71,-376,3907,0.03,-0.02,-0.20,-0.71,-3.76,39.07,-5.32,0.55,6.31,63.41,-50.17,-0.13
1,0,-1,-78,-363,3906,0.04,-0.01,-0.19,-0.78,-3.63,39.06,-5.32,0.57,6.31,64.68,-15.31,-0.13
1,0,-1,-61,-348,3908,0.04,-0.01,-0.18,-0.61,-3.48,39.08,-5.31,0.58,6.31,65.67,-14.87,-0.13
0,0,-1,-44,-346,3899,0.04,-0.01,-0.16,-0.44,-3.46,38.99,-5.29,0.59,6.31,97.86,-14.33,-0.13
1,0,1,-43,-346,3908,0.04,-0.01,-0.14,-0.43,-3.46,39.08,-5.27,0.59,6.32,64.41,-13.84,-0.15
1,0,1,-50,-346,3921,0.04,-0.01,-0.12,-0.50,-3.46,39.21,-5.26,0.60,6.32,65.28,-13.49,-0.15
1,0,2,-52,-364,3925,0.04,-0.01,-0.10,-0.52,-3.64,39.25,-5.26,0.62,6.32,66.34,-13.32,-0.16
1,0,2,-59,-368,3910,0.04,-0.01,-0.08,-0.59,-3.68,39.10,-5.27,0.63,6.32,67.35,-13.18,-0.17
1,0,1,-65,-380,3926,0.05,-0.01,-0.06,-0.65,-3.80,39.26,-5.28,0.65,6.32,68.33,-13.04,-0.16
0,0,1,-65,-375,3915,0.04,-0.01,-0.05,-0.65,-3.75,39.15,-5.29,0.66,6.32,100.63,-12.95,-0.16
-1,-1,0,-64,-362,3898,0.03,-0.01,-0.04,-0.64,-3.62,38.98,-5.29,0.68,6.32,130.05,18.48,-0.15
0,1,0,-59,-362,3903,0.03,-0.00,-0.04,-0.59,-3.62,39.03,-5.29,0.70,6.32,94.14,-47.06,-0.15
0,0,0,-50,-354,3913,0.03,-0.00,-0.04,-0.50,-3.54,39.13,-5.27,0.70,6.32,92.50,-12.53,-0.15
1,0,0,-66,-351,3912,0.03,-0.00,-0.03,-0.66,-3.51,39.12,-5.26,0.72,6.32,59.70,-12.59,-0.15
0,1,1,-61,-368,3904,0.03,0.00,-0.02,-0.61,-3.68,39.04,-5.28,0.73,6.32,92.85,-44.07,-0.16
0,0,1,-48,-367,3906,0.02,0.00,-0.01,-0.48,-3.67,39.06,-5.29,0.73,6.32,91.84,-9.73,-0.16
1,0,1,-50,-364,3901,0.03,0.00,-0.01,-0.50,-3.64,39.01,-5.31,0.73,6.32,59.55,-9.88,-0.17
0,0,0,-52,-372,3897,0.02,0.00,-0.01,-0.52,-3.72,38.97,-5.33,0.73,6.32,92.89,-10.07,-0.16
0,0,0,-50,-369,3911,0.02,0.00,-0.01,-0.50,-3.69,39.11,-5.35,0.73,6.32,91.98,-10.15,-0.16
0,0,0,-50,-363,3905,0.02,0.00,-0.01,-0.50,-3.63,39.05,-5.33,0.73,6.32,90.63,-10.24,-0.16
0,1,0,-63,-366,3895,0.02,0.01,-0.00,-0.63,-3.66,38.95,-5.33,0.75,6.32,89.72,-42.02,-0.16
0,0,1,-43,-360,3894,0.02,0.01,0.00,-0.43,-3.60,38.94,-5.32,0.73,6.32,88.75,-7.75,-0.17
1,0,0,-63,-356,3904,0.02,0.01,0.00,-0.63,-3.56,39.04,-5.32,0.75,6.32,56.39,-8.32,-0.16
1,1,0,-51,-363,3906,0.02,0.01,0.00,-0.51,-3.63,39.06,-5.30,0.74,6.32,58.12,-39.91,-0.16
0,0,0,-44,-372,3900,0.02,0.01,0.00,-0.44,-3.72,39.00,-5.31,0.73,6.32,91.56,-5.94,-0.16
0,-1,0,-51,-372,3909,0.02,0.00,0.00,-0.51,-3.72,39.09,-5.33,0.73,6.32,90.75,24.94,-0.16
1,0,0,-59,-363,3907,0.02,0.00,0.00,-0.59,-3.63,39.07,-5.33,0.75,6.32,58.30,-9.90,-0.16
0,-1,0,-44,-367,3894,0.02,-0.00,0.00,-0.44,-3.67,38.94,-5.34,0.73,6.32,91.66,21.63,-0.16
0,-1,0,-51,-369,3912,0.02,-0.01,0.00,-0.51,-3.69,39.12,-5.36,0.74,6.32,90.88,18.76,-0.16
0,0,0,-59,-369,3900,0.02,-0.01,0.00,-0.59,-3.69,39.00,-5.36,0.75,6.32,90.03,-15.45,-0.16
0,0,-1,-59,-372,3901,0.02,-0.01,-0.01,-0.59,-3.72,39.01,-5.37,0.77,6.32,89.35,-15.27,-0.15
-1,0,-1,-64,-376,3905,0.01,-0.01,-0.01,-0.64,-3.76,39.05,-5.38,0.78,6.32,120.17,-15.13,-0.15
0,0,-1,-62,-369,3904,0.01,-0.01,-0.02,-0.62,-3.69,39.04,-5.39,0.80,6.32,85.42,-15.08,-0.15
-1,0,-1,-63,-367,3915,0.00,-0.01,-0.02,-0.63,-3.67,39.15,-5.38,0.82,6.32,116.42,-15.06,-0.15
-1,0,-2,-60,-350,3915,-0.01,-0.00,-0.03,-0.60,-3.50,39.15,-5.36,0.82,6.32,113.15,-14.85,-0.14
-1,0,-1,-54,-350,3910,-0.01,-0.00,-0.03,-0.54,-3.50,39.10,-5.35,0.82,6.32,110.18,-14.58,-0.15
-1,-3,-7,-44,-348,3906,-0.02,-0.02,-0.07,-0.44,-3.48,39.06,-5.33,0.81,6.32,107.53,80.07,-0.09
0,-2,-5,-46,-351,3897,-0.01,-0.03,-0.10,-0.46,-3.51,38.97,-5.32,0.80,6.32,73.70,40.98,-0.10
-2,1,-13,-91,-433,3924,-0.03,-0.02,-0.17,-0.91,-4.33,39.24,-5.33,0.81,6.32,137.51,-57.80,-0.03
-7,-7,-25,-85,-429,3968,-0.07,-0.06,-0.30,-0.85,-4.29,39.68,-5.35,0.81,6.32,290.18,197.57,0.09
-8,-13,-129,-241,-648,4001,-0.11,-0.14,-1.06,-2.41,-6.48,40.01,-5.36,0.82,6.33,304.24,368.27,1.07
2,-13,-170,-278,-670,3863,-0.08,-0.20,-1.99,-2.78,-6.70,38.63,-5.38,0.83,6.33,-28.31,336.14,1.54
16,-9,-275,-369,-625,3872,0.02,-0.24,-3.47,-3.69,-6.25,38.72,-5.39,0.84,6.35,-458.02,181.46,2.62
-1,-8,-304,-436,-634,3918,0.01,-0.26,-4.98,-4.36,-6.34,39.18,-5.40,0.86,6.37,122.89,134.64,3.06
7,-6,-399,-506,-571,3873,0.05,-0.27,-6.91,-5.06,-5.71,38.73,-5.41,0.87,6.40,-132.01,60.57,4.11
5,-4,-411,-442,-480,3928,0.08,-0.27,-8.73,-4.42,-4.80,39.28,-5.42,0.88,6.43,-50.93,-7.05,4.44
3,-10,-311,298,194,3988,0.09,-0.30,-9.75,2.98,1.94,39.88,-5.40,0.87,6.47,22.67,182.96,3.73
8,-14,-253,404,252,3896,0.13,-0.36,-10.32,4.04,2.52,38.96,-5.39,0.85,6.51,-130.14,293.98,3.31
10,-20,-138,776,336,3828,0.18,-0.44,-10.13,7.76,3.36,38.28,-5.37,0.83,6.55,-175.72,458.69,2.31
5,-8,-115,712,247,3830,0.19,-0.45,-9.82,7.12,2.47,38.30,-5.36,0.81,6.59,2.29,44.11,2.07
6,-4,-324,312,525,3884,0.21,-0.43,-10.81,3.12,5.25,38.84,-5.35,0.80,6.63,-23.81,-83.30,3.97
-7,1,-281,-292,330,4033,0.14,-0.38,-11.45,-2.92,3.30,40.33,-5.33,0.80,6.68,392.16,-231.44,3.69
2,1,-458,-737,214,3909,0.14,-0.34,-13.10,-7.37,2.14,39.09,-5.32,0.81,6.73,81.31,-210.10,5.40
28,-8,-571,-659,92,3963,0.30,-0.35,-15.27,-6.59,0.92,39.63,-5.30,0.82,6.79,-736.92,91.93,6.63
37,-21,-1128,-511,-70,3939,0.49,-0.44,-20.62,-5.11,-0.70,39.39,-5.29,0.82,6.87,-951.27,493.69,12.04
27,-8,-1278,-478,-51,3861,0.61,-0.45,-26.36,-4.78,-0.51,38.61,-5.28,0.82,6.97,-551.34,44.32,14.04
44,-3,-1697,-468,28,3802,0.82,-0.42,-34.07,-4.68,0.28,38.02,-5.27,0.82,7.11,-1035.27,-114.74,18.58
37,8,-1793,-509,18,3952,0.96,-0.33,-41.60,-5.09,0.18,39.52,-5.26,0.82,7.28,-724.55,-448.75,20.36
32,-7,-1939,-267,-114,4011,1.06,-0.34,-49.27,-2.67,-1.14,40.11,-5.24,0.81,7.47,-504.54,62.63,22.58
38,-22,-1892,-316,-32,3950,1.19,-0.44,-55.88,-3.16,-0.32,39.50,-5.22,0.80,7.69,-649.90,529.96,23.02
51,15,-1730,23,-256,3984,1.38,-0.30,-60.85,0.23,-2.56,39.84,-5.21,0.77,7.94,-1003.56,-676.19,22.28
28,9,-1680,-65,-346,3891,1.41,-0.22,-65.01,-0.65,-3.46,38.91,-5.19,0.76,8.19,-196.57,-428.07,22.39
24,5,-1537,-10,-340,3814,1.42,-0.17,-67.89,-0.10,-3.40,38.14,-5.19,0.72,8.46,-56.50,-264.27,21.54
25,-14,-1499,41,-400,4005,1.43,-0.24,-70.24,0.41,-4.00,40.05,-5.19,0.67,8.74,-85.56,356.48,21.52
32,-11,-1334,149,-557,3980,1.48,-0.28,-71.35,1.49,-5.57,39.80,-5.20,0.63,9.03,-300.64,232.69,20.25
10,-35,-1281,65,-595,3873,1.39,-0.46,-72.03,0.65,-5.95,38.73,-5.22,0.60,9.32,413.93,968.37,19.88
3,-16,-1119,-335,-489,3767,1.27,-0.52,-71.66,-3.35,-4.89,37.67,-5.22,0.59,9.60,595.86,290.10,18.46
7,-24,-1083,-366,-459,3875,1.19,-0.61,-71.10,-3.66,-4.59,38.75,-5.23,0.57,9.88,417.16,519.27,18.07
15,-13,-945,-70,-496,3886,1.16,-0.63,-69.75,-0.70,-4.96,38.86,-5.24,0.55,10.16,128.95,132.39,16.72
3,-13,-898,-166,-417,3946,1.06,-0.65,-68.25,-1.66,-4.17,39.46,-5.25,0.54,10.43,494.20,124.56,16.13
-1,-4,-753,-298,-390,3843,0.95,-0.61,-66.02,-2.98,-3.90,38.43,-5.25,0.53,10.70,577.07,-165.33,14.60
24,-5,-734,6,-332,3974,1.00,-0.58,-63.90,0.06,-3.32,39.74,-5.24,0.49,10.95,-258.03,-115.70,14.16
14,-9,-722,-122,-370,3824,0.99,-0.57,-61.91,-1.22,-3.70,38.24,-5.24,0.48,11.20,78.79,23.28,13.80
-6,-25,-716,-56,-211,4005,0.85,-0.67,-60.09,-0.56,-2.11,40.05,-5.22,0.46,11.44,700.54,527.57,13.51
8,-14,-637,29,-178,4024,0.82,-0.69,-57.97,0.29,-1.78,40.24,-5.20,0.43,11.67,200.98,140.58,12.56
0,-24,-624,10,-159,3892,0.73,-0.76,-55.97,0.10,-1.59,38.92,-5.18,0.41,11.89,436.16,447.09,12.19
-2,11,-653,-37,-200,3931,0.65,-0.62,-54.36,-0.37,-2.00,39.31,-5.16,0.38,12.11,462.98,-686.58,12.22
-14,12,-672,-125,-233,3923,0.50,-0.49,-53.02,-1.25,-2.33,39.23,-5.15,0.38,12.32,802.35,-654.94,12.20
-17,-17,-783,-249,-198,3927,0.34,-0.54,-52.50,-2.49,-1.98,39.27,-5.14,0.37,12.53,830.61,315.80,13.07
-41,-19,-805,-294,-177,3826,0.06,-0.60,-52.16,-2.94,-1.77,38.26,-5.13,0.36,12.73,1517.41,354.55,13.21
-93,-52,-871,-110,-212,4038,-0.51,-0.86,-52.26,-1.10,-2.12,40.38,-5.12,0.35,12.94,3026.61,1364.69,13.78
-138,-76,-899,56,-340,3833,-1.30,-1.24,-52.51,0.56,-3.40,38.33,-5.12,0.31,13.15,4189.51,2006.89,14.04
-342,-73,-897,-172,-382,4071,-3.26,-1.56,-52.73,-1.72,-3.82,40.71,-5.14,0.30,13.36,10254.06,1747.15,14.05
-416,-165,-904,-9,-487,4147,-5.47,-2.41,-52.98,-0.09,-4.87,41.47,-5.18,0.27,13.57,11722.73,4497.79,14.13
-696,-258,-870,140,-605,3894,-9.17,-3.74,-52.98,1.40,-6.05,38.94,-5.23,0.23,13.78,19553.13,7048.12,13.84
-796,-273,-844,154,-642,4222,-13.11,-5.03,-52.83,1.54,-6.42,42.22,-5.30,0.18,13.99,21075.27,6935.90,13.60
-961,-332,-633,140,-767,4263,-17.66,-6.56,-51.41,1.40,-7.67,42.63,-5.39,0.13,14.19,24535.11,8224.78,11.62
-1049,-413,-553,11,-750,3931,-22.29,-8.42,-49.64,0.11,-7.50,39.31,-5.50,0.07,14.38,25306.86,10103.86,10.71
-983,-314,-398,-120,-626,3770,-26.06,-9.49,-47.11,-1.20,-6.26,37.70,-5.62,0.02,14.57,21203.46,6176.34,9.07
-914,-238,-398,-114,-623,3905,-29.03,-9.99,-44.82,-1.14,-6.23,39.05,-5.75,-0.03,14.74,17385.56,3318.10,8.77
-698,-52,-396,11,-786,3900,-30.38,-9.31,-42.76,0.11,-7.86,39.00,-5.89,-0.08,14.91,9297.88,-2746.58,8.48
-493,112,-395,29,-872,3895,-30.35,-7.70,-40.89,0.29,-8.72,38.95,-6.03,-0.13,15.07,2263.71,-7600.54,8.23
-502,177,-364,-98,-1017,4082,-30.38,-5.85,-39.02,-0.98,-10.17,40.82,-6.17,-0.17,15.22,2562.29,-8934.85,7.72
-491,163,-335,-111,-968,3870,-30.34,-4.27,-37.16,-1.11,-9.68,38.70,-6.31,-0.20,15.37,2206.92,-7683.58,7.23
-548,157,-237,0,-1004,3850,-30.65,-2.88,-34.89,0.00,-10.04,38.50,-6.45,-0.22,15.50,4019.11,-6802.29,6.11
-531,196,-207,139,-1087,3945,-30.82,-1.40,-32.67,1.39,-10.87,39.45,-6.59,-0.25,15.63,3351.50,-7420.48,5.56
-301,390,62,102,-1182,3953,-29.57,1.12,-29.02,1.02,-11.82,39.53,-6.72,-0.26,15.75,-3950.86,-12866.26,2.81
-307,442,30,-16,-930,3963,-28.49,3.70,-25.94,-0.16,-9.30,39.63,-6.86,-0.25,15.85,-3214.06,-13396.05,2.69
-160,620,153,-11,-988,3823,-26.62,7.11,-22.41,-0.11,-9.88,38.23,-6.98,-0.23,15.95,-7356.17,-17857.08,1.19
-291,580,314,-57,-1002,3997,-25.73,9.94,-18.25,-0.57,-10.02,39.97,-7.10,-0.20,16.02,-2416.43,-15104.80,-0.71
-355,560,357,-20,-997,4003,-25.32,12.36,-14.25,-0.20,-9.97,40.03,-7.22,-0.16,16.09,-14.67,-13237.73,-1.59
-476,456,511,-122,-1172,4166,-25.69,13.91,-9.71,-1.22,-11.72,41.66,-7.34,-0.10,16.13,3968.34,-8908.47,-3.48
-456,442,555,-77,-1173,4218,-25.91,15.21,-5.35,-0.77,-11.73,42.18,-7.46,-0.04,16.16,3178.87,-7791.93,-4.42
-274,395,767,-161,-1232,4283,-24.99,16.10,-0.14,-1.61,-12.32,42.83,-7.58,0.02,16.17,-2631.85,-5743.66,-6.88
-184,377,834,-170,-1227,4224,-23.61,16.79,4.96,-1.70,-12.27,42.24,-7.69,0.10,16.16,-5055.47,-4789.74,-8.11
199,234,1097,-87,-1124,4227,-20.04,16.54,11.16,-0.87,-11.24,42.27,-7.79,0.17,16.12,-16486.64,5.32,-11.13
311,167,1165,-206,-1114,4082,-16.14,15.90,17.15,-2.06,-11.14,40.82,-7.87,0.25,16.06,-18437.76,1999.28,-12.48
707,-98,1347,-234,-963,4132,-10.21,13.72,23.65,-2.34,-9.63,41.32,-7.93,0.33,15.98,-29171.37,10047.44,-14.85
973,-154,1334,-291,-859,4161,-3.25,11.41,29.42,-2.91,-8.59,41.61,-7.95,0.40,15.87,-34932.09,10846.81,-15.48
1028,-155,1316,-291,-817,4130,3.34,9.32,34.51,-2.91,-8.17,41.30,-7.95,0.47,15.74,-33610.83,9863.99,-15.98
1185,-212,1242,-220,-761,4027,10.24,7.09,38.63,-2.20,-7.61,40.27,-7.92,0.53,15.59,-35653.29,10739.78,-15.88
1214,-243,1214,-210,-798,4049,16.62,4.90,42.18,-2.10,-7.98,40.49,-7.87,0.59,15.42,-33542.94,10737.64,-16.10
1164,-309,1217,-142,-873,4025,22.06,2.53,45.38,-1.42,-8.73,40.25,-7.80,0.63,15.25,-29174.94,11850.26,-16.53
1122,-335,1237,-108,-858,4015,26.70,0.23,48.39,-1.08,-8.58,40.15,-7.70,0.66,15.05,-25472.13,11625.57,-17.08
857,-450,1366,-58,-747,3934,29.25,-2.54,51.88,-0.58,-7.47,39.34,-7.60,0.68,14.85,-15112.28,14232.55,-18.62
769,-486,1403,-62,-712,3896,31.02,-5.25,55.25,-0.62,-7.12,38.96,-7.49,0.68,14.63,-11226.97,14150.15,-19.36
443,-548,1472,-85,-629,3758,30.62,-8.07,58.71,-0.85,-6.29,37.58,-7.39,0.69,14.39,-209.80,14910.00,-20.38
363,-541,1469,-91,-607,3717,29.77,-10.56,61.80,-0.91,-6.07,37.17,-7.28,0.68,14.14,2127.44,13454.63,-20.75
125,-442,1368,-23,-507,3673,27.56,-12.20,63.96,-0.23,-5.07,36.73,-7.18,0.66,13.88,9233.64,9250.68,-20.16
70,-395,1329,-53,-465,3693,25.23,-13.39,65.67,-0.53,-4.65,36.93,-7.08,0.66,13.61,9989.49,7054.59,-20.05
-105,-210,1187,75,-402,3752,22.07,-13.33,66.35,0.75,-4.02,37.52,-6.98,0.62,13.34,14466.50,719.89,-18.92
-170,-150,1135,158,-367,3830,18.82,-12.91,66.64,1.58,-3.67,38.30,-6.89,0.58,13.07,15120.98,-1139.73,-18.51
-301,-100,1076,131,-488,3920,15.10,-12.23,66.54,1.31,-4.88,39.20,-6.83,0.55,12.80,17814.80,-2527.16,-17.99
-312,-115,1068,100,-505,3912,11.69,-11.71,66.40,1.00,-5.05,39.12,-6.79,0.52,12.53,16529.65,-1756.57,-17.90
-209,-166,1087,186,-676,3987,9.25,-11.55,66.39,1.86,-6.76,39.87,-6.76,0.49,12.26,11795.82,75.29,-18.05
-168,-190,1096,131,-697,4028,7.30,-11.56,66.43,1.31,-6.97,40.28,-6.74,0.46,11.99,9435.67,899.35,-18.13
77,-274,1166,79,-542,3942,7.04,-12.07,66.90,0.79,-5.42,39.42,-6.72,0.43,11.72,881.40,3537.92,-18.78
143,-299,1190,157,-529,3998,7.21,-12.69,67.47,1.57,-5.29,39.98,-6.70,0.40,11.45,-1307.06,4097.97,-19.05
336,-387,1206,176,-565,3983,8.53,-13.78,68.08,1.76,-5.65,39.83,-6.67,0.36,11.17,-7298.72,6593.64,-19.25
389,-397,1201,145,-480,4030,10.05,-14.82,68.60,1.45,-4.80,40.30,-6.63,0.31,10.89,-8382.23,6429.89,-19.27
536,-453,1211,214,-400,3962,12.32,-16.10,69.13,2.14,-4.00,39.62,-6.57,0.26,10.61,-12336.50,7732.92,-19.42
592,-493,1214,218,-355,3984,14.70,-17.50,69.62,2.18,-3.55,39.84,-6.51,0.21,10.32,-13104.70,8429.21,-19.50
612,-562,1217,225,-214,3928,16.96,-19.18,70.08,2.25,-2.14,39.28,-6.42,0.15,10.04,-12691.28,9986.07,-19.57
605,-573,1210,228,-212,3889,18.96,-20.76,70.45,2.28,-2.12,38.89,-6.34,0.08,9.75,-11480.33,9597.04,-19.56
557,-599,1104,190,-164,3775,20.46,-22.34,70.14,1.90,-1.64,37.75,-6.24,0.01,9.46,-9098.98,9723.63,-18.61
541,-587,1063,198,-166,3743,21.71,-23.68,69.61,1.98,-1.66,37.43,-6.14,-0.06,9.17,-7939.13,8655.77,-18.19
458,-489,877,313,-308,3735,22.33,-24.30,68.00,3.13,-3.08,37.35,-6.04,-0.15,8.89,-4782.29,4986.71,-16.40
431,-453,840,341,-325,3701,22.73,-24.63,66.33,3.41,-3.25,37.01,-5.95,-0.24,8.62,-3662.26,3587.25,-15.86
259,-389,852,424,-375,3642,22.04,-24.54,64.89,4.24,-3.75,36.42,-5.86,-0.32,8.35,1915.11,1431.10,-15.77
198,-377,885,446,-389,3652,21.04,-24.39,63.80,4.46,-3.89,36.52,-5.78,-0.41,8.09,3526.96,1094.88,-15.91
-67,-308,1109,453,-286,3624,18.53,-23.83,64.18,4.53,-2.86,36.24,-5.71,-0.50,7.82,11417.01,-1004.50,-17.85
-176,-259,1210,461,-300,3533,15.60,-23.02,65.15,4.61,-3.00,35.33,-5.64,-0.59,7.55,13739.82,-2297.66,-18.82
-369,-24,1324,371,-288,3471,11.79,-20.87,66.71,3.71,-2.88,34.71,-5.60,-0.66,7.28,18521.28,-9329.63,-19.98
-407,52,1329,368,-298,3421,8.13,-18.46,68.14,3.68,-2.98,34.21,-5.57,-0.73,7.00,18044.14,-10771.79,-20.20
-474,353,1300,369,-301,3501,4.42,-14.46,69.26,3.69,-3.01,35.01,-5.55,-0.77,6.72,18544.03,-19176.27,-20.09
-486,427,1297,367,-302,3481,1.02,-10.41,70.25,3.67,-3.02,34.81,-5.55,-0.81,6.43,17297.08,-19747.76,-20.18
-546,646,1377,299,-380,3617,-2.41,-5.43,71.62,2.99,-3.80,36.17,-5.56,-0.82,6.15,17689.15,-24853.74,-21.03
-578,672,1414,272,-386,3604,-5.70,-0.79,73.08,2.72,-3.86,36.04,-5.59,-0.81,5.86,17190.43,-23486.78,-21.53
-664,699,1548,200,-220,3623,-9.18,3.55,75.22,2.00,-2.20,36.23,-5.62,-0.78,5.56,18453.57,-22300.48,-22.93
-739,732,1679,119,81,3657,-12.77,7.66,77.94,1.19,0.81,36.57,-5.66,-0.72,5.25,19285.16,-21434.47,-24.38
-746,760,1687,102,156,3699,-16.04,11.53,80.44,1.02,1.56,36.99,-5.71,-0.65,4.94,17932.01,-20513.75,-24.76
-661,905,1489,-35,257,3790,-18.47,15.90,81.47,-0.35,2.57,37.90,-5.77,-0.55,4.62,13826.50,-23375.46,-23.21
-613,928,1322,-6,194,3771,-20.36,19.97,81.39,-0.06,1.94,37.71,-5.83,-0.44,4.30,11254.69,-22185.36,-21.78
-334,941,1080,-23,-264,3816,-20.36,23.71,79.84,-0.23,-2.64,38.16,-5.90,-0.30,3.99,1658.34,-20811.26,-19.52
-251,921,1010,-23,-227,3871,-19.86,26.96,78.02,-0.23,-2.27,38.71,-5.96,-0.16,3.70,-949.50,-18543.95,-18.68
-48,782,738,-35,-451,4098,-18.17,29.04,74.72,-0.35,-4.51,40.98,-6.04,0.01,3.41,-7106.16,-12754.87,-15.95
23,762,687,-7,-554,4143,-16.21,30.78,71.44,-0.07,-5.54,41.43,-6.13,0.16,3.14,-8593.85,-11219.37,-15.09
176,507,666,59,-959,4199,-13.51,30.79,68.36,0.59,-9.59,41.99,-6.20,0.31,2.88,-12542.98,-2443.18,-14.51
192,412,776,72,-1208,4241,-10.99,30.23,66.25,0.72,-12.08,42.41,-6.26,0.45,2.63,-11863.57,546.49,-15.16
161,79,1112,43,-692,4107,-8.91,27.69,66.41,0.43,-6.92,41.07,-6.31,0.59,2.38,-9782.63,10760.97,-18.02
177,24,1204,-35,-787,4042,-6.94,25.07,67.11,-0.35,-7.87,40.42,-6.35,0.72,2.12,-9372.32,11373.45,-18.89
181,-92,1630,-40,-713,3899,-5.14,22.00,70.35,-0.40,-7.13,38.99,-6.39,0.84,1.85,-8633.48,13867.36,-22.90
202,-69,1697,-33,-690,3808,-3.40,19.38,73.66,-0.33,-6.90,38.08,-6.41,0.94,1.57,-8504.70,11798.00,-23.89
284,69,1803,-145,-541,3728,-1.32,17.86,77.30,-1.45,-5.41,37.28,-6.43,1.06,1.27,-10315.74,6310.57,-25.25
298,116,1796,-116,-480,3716,0.63,16.78,80.52,-1.16,-4.80,37.16,-6.44,1.17,0.96,-9847.25,4166.85,-25.60
249,271,1707,-132,-421,3793,2.08,16.76,82.88,-1.32,-4.21,37.93,-6.42,1.30,0.64,-7452.68,-1178.78,-25.14
220,301,1674,-144,-434,3807,3.22,16.92,84.81,-1.44,-4.34,38.07,-6.40,1.42,0.31,-5903.19,-2134.41,-25.10
113,378,1566,-185,-560,3894,3.58,17.53,85.88,-1.85,-5.60,38.94,-6.39,1.54,-0.03,-2043.73,-4485.65,-24.31
83,389,1562,-186,-575,3906,3.73,18.15,86.82,-1.86,-5.75,39.06,-6.38,1.66,-0.36,-939.91,-4563.91,-24.39
4,439,1646,-251,-501,4037,3.38,19.01,88.18,-2.51,-5.01,40.37,-6.36,1.79,-0.71,1607.29,-5865.48,-25.27
-21,432,1693,-246,-449,4070,2.92,19.75,89.69,-2.46,-4.49,40.70,-6.34,1.93,-1.05,2239.64,-5269.30,-25.85
-118,406,1831,-294,-152,4124,1.91,20.25,91.89,-2.94,-1.52,41.24,-6.30,2.05,-1.41,5082.89,-4132.47,-27.30
-143,394,1832,-306,-96,4088,0.84,20.63,93.87,-3.06,-0.96,40.88,-6.27,2.19,-1.78,5424.57,-3537.33,-27.55
-190,357,1678,-301,-125,4098,-0.40,20.74,94.72,-3.01,-1.25,40.98,-6.24,2.32,-2.14,6435.17,-2210.64,-26.35
-184,348,1585,-341,-141,4050,-1.48,20.79,94.92,-3.41,-1.41,40.50,-6.22,2.45,-2.51,5701.17,-1879.46,-25.57
-150,283,1268,-322,-599,4236,-2.25,20.44,93.16,-3.22,-5.99,42.36,-6.22,2.58,-2.88,4158.27,182.45,-22.65
-149,243,1230,-270,-658,4232,-2.93,19.88,91.35,-2.70,-6.58,42.32,-6.23,2.71,-3.23,3790.90,1282.89,-22.09
-168,70,1263,-235,-721,4336,-3.67,18.32,89.92,-2.35,-7.21,43.36,-6.25,2.82,-3.58,4088.38,6471.62,-22.18
-183,11,1326,-299,-675,4285,-4.41,16.55,89.01,-2.99,-6.75,42.85,-6.27,2.94,-3.92,4239.35,7639.81,-22.58
-290,-195,1616,-310,-519,4252,-5.74,13.71,89.97,-3.10,-5.19,42.52,-6.28,3.05,-4.28,7273.39,13338.25,-25.16
-353,-249,1671,-302,-479,4261,-7.32,10.82,91.17,-3.02,-4.79,42.61,-6.29,3.15,-4.63,8671.40,13786.56,-25.77
-702,-448,1663,-289,-239,4165,-10.87,7.00,92.19,-2.89,-2.39,41.65,-6.30,3.22,-5.00,18946.78,18772.32,-25.82
-786,-487,1615,-275,-209,4165,-14.58,3.33,92.83,-2.75,-2.09,41.65,-6.32,3.28,-5.37,20030.44,18324.70,-25.49
-1035,-606,1356,-186,-163,3968,-19.43,-0.70,91.82,-1.86,-1.63,39.68,-6.36,3.31,-5.74,26230.63,20454.41,-23.15
-1139,-639,1012,-268,-220,3893,-24.44,-4.53,88.81,-2.68,-2.20,38.93,-6.42,3.34,-6.09,27371.02,19724.35,-19.84
-1157,-623,913,-290,-377,3837,-29.05,-7.87,85.50,-2.90,-3.77,38.37,-6.50,3.36,-6.44,25743.95,17542.91,-18.57
-1375,-557,775,-148,-503,3864,-34.54,-10.48,81.67,-1.48,-5.03,38.64,-6.63,3.34,-6.77,30573.97,14001.42,-16.90
-1475,-555,756,-111,-583,3837,-40.08,-12.82,78.12,-1.11,-5.83,38.37,-6.79,3.31,-7.08,31315.42,12794.56,-16.27
-1972,-661,668,-26,-742,3827,-48.10,-15.57,74.38,-0.26,-7.42,38.27,-6.98,3.28,-7.39,44506.31,15101.62,-15.04
-2497,-746,577,15,-857,3794,-58.52,-18.56,70.46,0.15,-8.57,37.94,-7.21,3.23,-7.67,57491.71,16567.91,-13.76
-2611,-743,543,27,-921,3800,-68.60,-21.24,66.73,0.27,-9.21,38.00,-7.49,3.17,-7.95,56509.39,15162.13,-12.98
-2935,-672,382,118,-1089,3693,-79.64,-23.22,62.39,1.18,-10.89,36.93,-7.81,3.10,-8.21,62279.23,11758.81,-11.05
-2955,-651,350,81,-1125,3649,-89.70,-24.87,58.28,0.81,-11.25,36.49,-8.17,3.03,-8.45,58071.45,10234.04,-10.25
-2821,-541,250,133,-1256,3558,-97.94,-25.68,53.98,1.33,-12.56,35.58,-8.56,2.95,-8.68,49455.31,6055.21,-8.84
-2753,-506,236,168,-1281,3559,-104.94,-26.20,50.02,1.68,-12.81,35.59,-8.99,2.87,-8.89,43713.22,4599.85,-8.21
-2435,-433,170,217,-1434,3576,-109.30,-26.22,46.06,2.17,-14.34,35.76,-9.43,2.79,-9.09,30657.97,2079.60,-7.14
-2132,-391,57,178,-1449,3773,-111.37,-25.98,41.80,1.78,-14.49,37.73,-9.89,2.70,-9.27,19231.56,751.52,-5.63
-2123,-416,49,230,-1587,3798,-113.19,-25.92,37.92,2.30,-15.87,37.98,-10.35,2.62,-9.44,18045.91,1642.24,-5.06
-2049,-494,-93,250,-1686,3779,-114.37,-26.34,33.56,2.50,-16.86,37.79,-10.82,2.54,-9.59,14932.70,4121.34,-3.29
-1890,-443,-130,290,-1728,3566,-114.46,-26.41,29.41,2.90,-17.28,35.66,-11.28,2.45,-9.73,9425.74,2335.28,-2.44
-1489,-503,-219,303,-1905,3742,-112.10,-26.84,25.13,3.03,-19.05,37.42,-11.74,2.35,-9.85,-3209.45,4192.41,-1.13
-1388,-560,-255,248,-1874,3706,-109.35,-27.57,21.06,2.48,-18.74,37.06,-12.19,2.26,-9.95,-5340.63,5797.85,-0.30
-1087,-563,-336,372,-1987,3761,-105.05,-28.25,16.91,3.72,-19.87,37.61,-12.63,2.15,-10.04,-13590.68,5572.70,0.92
-1014,-564,-345,302,-2026,3795,-100.73,-28.86,13.11,3.02,-20.26,37.95,-13.04,2.05,-10.12,-13991.18,5308.83,1.49
-751,-612,-380,301,-2034,3666,-95.24,-29.71,9.48,3.01,-20.34,36.66,-13.44,1.93,-10.18,-20356.38,6549.08,2.25
-496,-865,-431,390,-2107,3432,-88.74,-32.02,5.91,3.90,-21.07,34.32,-13.81,1.81,-10.23,-25956.62,14130.41,3.15
-432,-935,-454,408,-2142,3361,-82.50,-34.52,2.55,4.08,-21.42,33.61,-14.15,1.67,-10.27,-25113.73,15321.56,3.78
-183,-1061,-551,477,-2298,3122,-75.37,-37.54,-1.07,4.77,-22.98,31.22,-14.47,1.52,-10.31,-30198.76,18186.64,5.06
-124,-1054,-580,477,-2336,3110,-68.59,-40.21,-4.50,4.77,-23.36,31.10,-14.76,1.35,-10.33,-28920.90,16645.01,5.75
35,-856,-670,534,-2282,3129,-61.51,-41.41,-8.14,5.34,-22.82,31.29,-15.02,1.17,-10.34,-30941.01,9252.35,6.98
72,-624,-701,538,-2236,3055,-54.92,-41.08,-11.60,5.38,-22.36,30.55,-15.26,1.00,-10.34,-28999.62,1438.08,7.69
50,-529,-732,495,-2389,3112,-49.13,-40.20,-14.91,4.95,-23.89,31.12,-15.47,0.82,-10.32,-25415.56,-1397.81,8.38
-41,-394,-797,543,-2456,3031,-44.46,-38.58,-18.28,5.43,-24.56,30.31,-15.67,0.64,-10.29,-20011.19,-5251.39,9.36
-85,-377,-804,535,-2420,3109,-40.54,-37.02,-21.35,5.35,-24.20,31.09,-15.85,0.47,-10.25,-16581.61,-5074.38,9.81
-282,-329,-694,542,-2199,3080,-38.20,-35.33,-23.45,5.42,-21.99,30.80,-16.02,0.30,-10.20,-8666.10,-5897.00,9.15
-439,-307,-537,487,-2258,3082,-37.06,-33.67,-24.38,4.87,-22.58,30.82,-16.18,0.14,-10.14,-2706.76,-5842.60,7.94
-455,-299,-507,490,-2228,3067,-36.13,-32.12,-25.04,4.90,-22.28,30.67,-16.34,-0.02,-10.08,-1700.68,-5363.81,7.77
-480,-292,-489,459,-2120,3122,-35.44,-30.69,-25.52,4.59,-21.20,31.22,-16.50,-0.17,-10.02,-504.67,-4905.05,7.68
-428,-289,-648,451,-2131,3175,-34.51,-29.39,-26.92,4.51,-21.31,31.75,-16.66,-0.32,-9.95,-1836.17,-4369.56,9.20
-407,-295,-707,451,-2147,3175,-33.54,-28.25,-28.54,4.51,-21.47,31.75,-16.81,-0.47,-9.87,-2084.47,-3606.01,9.91
-321,-358,-902,424,-2150,3267,-32.15,-27.61,-31.19,4.24,-21.50,32.67,-16.95,-0.62,-9.79,-4360.33,-1124.50,11.90
-292,-406,-960,413,-2194,3278,-30.71,-27.32,-33.92,4.13,-21.94,32.78,-17.09,-0.77,-9.69,-4657.47,667.23,12.74
-243,-523,-1083,397,-2450,3272,-29.12,-27.78,-37.14,3.97,-24.50,32.72,-17.22,-0.92,-9.58,-5566.88,4470.93,14.19
-233,-547,-1113,398,-2524,3272,-27.63,-28.34,-40.21,3.98,-25.24,32.72,-17.35,-1.08,-9.46,-5182.57,5026.77,14.84
-201,-620,-1154,427,-2676,3155,-26.10,-29.29,-43.23,4.27,-26.76,31.55,-17.47,-1.25,-9.33,-5532.67,7078.48,15.57
-163,-634,-1068,283,-2693,3077,-24.48,-30.23,-45.42,2.83,-26.93,30.77,-17.58,-1.42,-9.19,-6051.20,7105.41,15.12
-165,-629,-1037,322,-2634,3076,-23.04,-31.04,-47.21,3.22,-26.34,30.76,-17.68,-1.60,-9.05,-5278.58,6539.47,15.08
-224,-633,-919,395,-2575,3002,-22.10,-31.80,-48.09,3.95,-25.75,30.02,-17.79,-1.78,-8.91,-2790.92,6310.95,14.19
-384,-642,-910,334,-2602,3103,-22.23,-32.53,-48.83,3.34,-26.02,31.03,-17.89,-1.97,-8.76,2649.74,6264.62,14.21
-432,-633,-924,341,-2611,3127,-22.65,-33.14,-49.59,3.41,-26.11,31.27,-17.99,-2.16,-8.62,4101.76,5661.79,14.42
-569,-574,-1004,350,-2593,3147,-23.85,-33.33,-50.75,3.50,-25.93,31.47,-18.10,-2.35,-8.46,8228.16,3544.09,15.25
-602,-563,-1013,344,-2562,3123,-25.14,-33.43,-51.86,3.44,-25.62,31.23,-18.21,-2.54,-8.31,8738.01,3119.28,15.46
-553,-555,-1022,340,-2701,3135,-26.00,-33.47,-52.90,3.40,-27.01,31.35,-18.32,-2.74,-8.15,6635.64,2826.40,15.67
-518,-554,-1035,330,-2760,3120,-26.56,-33.51,-53.93,3.30,-27.60,31.20,-18.44,-2.93,-7.99,5160.72,2779.36,15.90
-325,-537,-1078,292,-2882,3110,-25.88,-33.43,-55.11,2.92,-28.82,31.10,-18.55,-3.13,-7.82,-1148.24,2234.05,16.42
-68,-493,-1111,518,-3028,3026,-23.71,-33.09,-56.38,5.18,-30.28,30.26,-18.65,-3.33,-7.65,-8927.91,887.16,16.85
60,-437,-1133,422,-3072,2988,-20.97,-32.45,-57.65,4.22,-30.72,29.88,-18.74,-3.53,-7.48,-11996.04,-722.48,17.20
372,-289,-1167,254,-3020,2987,-16.61,-30.97,-59.00,2.54,-30.20,29.87,-18.82,-3.72,-7.29,-20599.76,-5088.31,17.66
461,-117,-1051,381,-2819,3119,-12.13,-28.59,-59.51,3.81,-28.19,31.19,-18.87,-3.91,-7.11,-21481.45,-9840.89,16.74
468,-67,-996,356,-2776,3142,-8.07,-26.14,-59.64,3.56,-27.76,31.42,-18.91,-4.09,-6.92,-19739.91,-10364.67,16.28
611,-28,-835,241,-2605,3172,-3.53,-23.69,-58.77,2.41,-26.05,31.72,-18.92,-4.25,-6.72,-22449.93,-10513.71,14.80
569,-69,-776,282,-2519,3475,0.29,-21.74,-57.63,2.82,-25.19,34.75,-18.93,-4.41,-6.54,-19142.35,-8151.93,14.15
354,-329,-794,264,-2638,3517,2.42,-21.58,-56.71,2.64,-26.38,35.17,-18.92,-4.56,-6.35,-10709.35,875.31,14.18
298,-415,-833,213,-2669,3610,4.00,-21.95,-56.12,2.13,-26.69,36.10,-18.90,-4.72,-6.17,-8015.77,3653.73,14.43
106,-706,-996,141,-2754,3679,4.24,-24.06,-56.58,1.41,-27.54,36.79,-18.89,-4.88,-5.98,-1291.48,12637.19,15.86
83,-776,-1027,144,-2766,3668,4.33,-26.39,-57.19,1.44,-27.66,36.68,-18.87,-5.05,-5.80,-460.70,13913.87,16.20
93,-981,-1060,141,-2802,3591,4.46,-29.73,-57.93,1.41,-28.02,35.91,-18.86,-5.24,-5.62,-739.32,19338.59,16.57
278,-1036,-997,236,-2919,3454,5.71,-33.08,-58.22,2.36,-29.19,34.54,-18.84,-5.43,-5.45,-6494.36,19603.47,16.07
353,-1023,-974,257,-2950,3407,7.29,-36.01,-58.34,2.57,-29.50,34.07,-18.81,-5.64,-5.27,-8303.83,17731.14,15.89
725,-880,-834,242,-2927,3318,10.99,-37.78,-57.60,2.42,-29.27,33.18,-18.76,-5.86,-5.10,-19301.18,11955.00,14.60
837,-831,-786,268,-2918,3303,14.99,-39.07,-56.63,2.68,-29.18,33.03,-18.70,-6.08,-4.94,-21202.60,9643.94,14.07
1298,-644,-607,310,-2867,3284,21.41,-39.09,-54.67,3.10,-28.67,32.84,-18.62,-6.30,-4.78,-33934.38,3204.56,12.29
1425,-587,-576,321,-2837,3288,27.96,-38.76,-52.72,3.21,-28.37,32.88,-18.51,-6.51,-4.63,-35113.16,1407.19,11.78
1712,-510,-525,295,-2792,3387,35.61,-38.00,-50.65,2.95,-27.92,33.87,-18.37,-6.72,-4.49,-41262.29,-865.42,11.07
1827,-442,-501,277,-2485,3434,43.19,-36.89,-48.64,2.77,-24.85,34.34,-18.19,-6.91,-4.35,-41526.34,-2663.81,10.61
1939,-351,-486,280,-2460,3298,50.70,-35.35,-46.74,2.80,-24.60,32.98,-17.99,-7.10,-4.22,-41724.26,-5036.82,10.23
2083,-265,-493,277,-2486,3328,58.34,-33.43,-45.07,2.77,-24.86,33.28,-17.76,-7.28,-4.09,-42961.22,-7057.86,10.08
1973,-288,-564,283,-2429,3323,64.54,-31.84,-44.01,2.83,-24.29,33.23,-17.50,-7.46,-3.96,-36160.54,-5491.52,10.54
1931,-289,-580,383,-2403,3334,69.86,-30.42,-43.14,3.83,-24.03,33.34,-17.22,-7.62,-3.84,-32126.06,-4762.24,10.56
1744,-267,-603,199,-2375,3234,73.52,-29.01,-42.51,1.99,-23.75,32.34,-16.93,-7.78,-3.71,-23919.27,-4828.09,10.67
1542,-258,-581,306,-2337,3340,75.57,-27.68,-41.80,3.06,-23.37,33.40,-16.63,-7.93,-3.58,-15974.82,-4488.98,10.39
1439,-247,-570,362,-2342,3390,76.79,-26.42,-41.10,3.62,-23.42,33.90,-16.32,-8.07,-3.46,-11841.89,-4250.69,10.20
1176,-320,-515,257,-2147,3342,76.29,-25.73,-40.13,2.57,-21.47,33.42,-16.02,-8.21,-3.33,-3046.39,-1401.50,9.61
1107,-345,-492,260,-2090,3350,75.41,-25.26,-39.12,2.60,-20.90,33.50,-15.71,-8.35,-3.21,-1104.27,-311.33,9.28
822,-407,-435,249,-1976,3483,72.88,-25.22,-37.86,2.49,-19.76,34.83,-15.42,-8.48,-3.09,7463.61,1844.44,8.63
569,-408,-459,310,-1898,3481,69.07,-25.18,-36.87,3.10,-18.98,34.81,-15.15,-8.61,-2.98,14302.34,1896.88,8.71
521,-409,-466,328,-1882,3473,65.34,-25.16,-36.03,3.28,-18.82,34.73,-14.88,-8.74,-2.87,14133.14,1944.72,8.65
419,-443,-473,391,-1826,3401,61.36,-25.35,-35.31,3.91,-18.26,34.01,-14.64,-8.87,-2.76,15700.22,3025.50,8.62
415,-443,-470,392,-1827,3421,57.76,-25.51,-34.65,3.92,-18.27,34.21,-14.41,-9.00,-2.65,14078.44,2945.84,8.50
427,-364,-438,391,-1801,3496,54.58,-25.18,-33.85,3.91,-18.01,34.96,-14.19,-9.13,-2.54,12117.77,391.67,8.13
438,-339,-419,399,-1786,3472,51.80,-24.73,-33.02,3.99,-17.86,34.72,-13.99,-9.25,-2.44,10378.81,-246.94,7.86
509,-274,-321,385,-1726,3429,49.72,-23.93,-31.68,3.85,-17.26,34.29,-13.79,-9.37,-2.34,6922.87,-2090.32,6.85
527,-254,-305,437,-1711,3482,47.97,-23.09,-30.37,4.37,-17.11,34.82,-13.60,-9.49,-2.25,5444.66,-2365.52,6.55
598,-175,-226,397,-1646,3540,46.82,-21.85,-28.71,3.97,-16.46,35.40,-13.41,-9.59,-2.16,2440.06,-4476.63,5.66
625,-156,-200,408,-1603,3559,45.95,-20.61,-27.06,4.08,-16.03,35.59,-13.23,-9.69,-2.07,1085.20,-4528.03,5.23
658,-151,-93,452,-1448,3664,45.37,-19.47,-24.92,4.52,-14.48,36.64,-13.05,-9.78,-2.00,-335.62,-4143.17,4.04
652,-150,-73,467,-1412,3708,44.81,-18.44,-22.88,4.67,-14.12,37.08,-12.88,-9.87,-1.93,-404.41,-3673.40,3.61
582,-218,-52,445,-1349,3668,43.88,-17.93,-20.91,4.45,-13.49,36.68,-12.71,-9.95,-1.86,1547.54,-1082.64,3.18
517,-330,-109,478,-1236,3643,42.64,-18.15,-19.48,4.78,-12.36,36.43,-12.54,-10.03,-1.80,3179.75,2663.73,3.47
513,-340,-135,470,-1223,3659,41.51,-18.41,-18.36,4.70,-12.23,36.59,-12.39,-10.11,-1.75,2762.05,2882.59,3.55
542,-290,-241,421,-1183,3757,40.66,-18.33,-17.99,4.21,-11.83,37.57,-12.23,-10.19,-1.70,1350.71,1198.76,4.40
579,-248,-278,430,-1165,3774,40.13,-18.01,-17.89,4.30,-11.65,37.74,-12.07,-10.26,-1.64,-184.67,-88.60,4.70
658,-217,-339,478,-1215,3835,40.13,-17.54,-18.17,4.78,-12.15,38.35,-11.92,-10.33,-1.59,-2903.96,-921.10,5.25
674,-223,-352,472,-1223,3868,40.23,-17.14,-18.50,4.72,-12.23,38.68,-11.76,-10.41,-1.53,-3408.72,-522.01,5.40
700,-257,-348,493,-1285,4007,40.48,-17.00,-18.77,4.93,-12.85,40.07,-11.60,-10.48,-1.48,-4185.03,719.99,5.40
697,-272,-339,493,-1318,4013,40.68,-16.96,-18.96,4.93,-13.18,40.13,-11.45,-10.55,-1.42,-3984.79,1256.75,5.35
684,-377,-269,542,-1322,3982,40.78,-17.56,-18.71,5.42,-13.22,39.82,-11.29,-10.63,-1.36,-3489.12,4575.33,4.72
711,-466,-162,551,-1373,3952,41.04,-18.65,-17.82,5.51,-13.73,39.52,-11.13,-10.71,-1.31,-4294.21,7108.59,3.70
737,-486,-142,560,-1373,3912,41.43,-19.75,-16.91,5.60,-13.73,39.12,-10.97,-10.79,-1.26,-5000.26,7262.00,3.41
888,-560,-73,648,-1248,3760,42.71,-21.19,-15.66,6.48,-12.48,37.60,-10.81,-10.88,-1.21,-9576.39,9106.67,2.66
940,-570,-63,652,-1247,3732,44.17,-22.55,-14.48,6.52,-12.47,37.32,-10.64,-10.98,-1.18,-10654.77,8790.47,2.43
1178,-538,-71,709,-1248,3638,46.94,-23.57,-13.47,7.09,-12.48,36.38,-10.47,-11.08,-1.14,-17495.25,7190.94,2.36
1231,-518,-70,721,-1236,3600,49.75,-24.38,-12.55,7.21,-12.36,36.00,-10.28,-11.19,-1.12,-17949.81,6113.67,2.23
1419,-421,-34,784,-1211,3505,53.44,-24.51,-11.50,7.84,-12.11,35.05,-10.08,-11.29,-1.09,-22626.69,2715.17,1.79
1463,-384,-17,797,-1208,3505,57.02,-24.40,-10.45,7.97,-12.08,35.05,-9.87,-11.40,-1.07,-22399.12,1496.80,1.52
1604,-201,89,792,-1097,3634,61.10,-23.18,-8.86,7.92,-10.97,36.34,-9.64,-11.50,-1.05,-25263.76,-4205.16,0.41
1659,-87,205,827,-978,3754,65.11,-21.40,-6.73,8.27,-9.78,37.54,-9.39,-11.59,-1.04,-25205.93,-7254.20,-0.85
1660,-85,236,855,-942,3765,68.72,-19.78,-4.61,8.55,-9.42,37.65,-9.13,-11.67,-1.04,-23483.22,-6532.00,-1.38
1693,-193,297,828,-821,3754,72.18,-18.98,-2.34,8.28,-8.21,37.54,-8.86,-11.75,-1.05,-22939.42,-2426.07,-2.19
1709,-225,303,839,-727,3764,75.39,-18.45,-0.26,8.39,-7.27,37.64,-8.58,-11.83,-1.06,-21931.85,-1068.43,-2.51
1821,-276,314,782,-561,3717,78.96,-18.29,1.68,7.82,-5.61,37.17,-8.27,-11.88,-1.08,-24050.25,765.28,-2.85
1892,-264,272,799,-556,3697,82.60,-18.07,3.17,7.99,-5.56,36.97,-7.96,-11.96,-1.11,-24721.27,460.15,-2.68
2004,-189,170,819,-433,3695,86.57,-17.42,3.89,8.19,-4.33,36.95,-7.60,-12.04,-1.13,-26648.05,-1799.89,-1.91
2019,-164,146,838,-410,3734,90.22,-16.67,4.39,8.38,-4.10,37.34,-7.23,-12.11,-1.15,-25387.12,-2297.67,-1.77
2003,-126,94,912,-342,3667,93.42,-15.78,4.53,9.12,-3.42,36.67,-6.85,-12.18,-1.17,-23285.77,-3165.78,-1.35
1988,-144,87,934,-349,3629,96.21,-15.08,4.61,9.34,-3.49,36.29,-6.46,-12.25,-1.20,-21419.17,-2204.91,-1.30
1902,-176,57,969,-295,3591,98.19,-14.64,4.49,9.69,-2.95,35.91,-6.06,-12.33,-1.22,-17501.74,-891.65,-1.03
1875,-160,56,968,-298,3568,99.81,-14.15,4.39,9.68,-2.98,35.68,-5.66,-12.40,-1.24,-15790.54,-1203.07,-1.01
1801,-8,131,926,-256,3654,100.81,-12.79,4.75,9.26,-2.56,36.54,-5.25,-12.46,-1.27,-12761.56,-5764.77,-1.69
1776,38,161,936,-223,3649,101.56,-11.28,5.25,9.36,-2.23,36.49,-4.84,-12.52,-1.29,-11541.33,-6610.32,-2.01
1663,164,300,971,-48,3685,101.55,-9.15,6.56,9.71,-0.48,36.85,-4.42,-12.56,-1.31,-7666.68,-9907.04,-3.35
1617,180,359,980,7,3737,101.26,-7.14,8.09,9.80,0.07,37.37,-4.01,-12.59,-1.35,-6232.66,-9476.33,-4.05
1556,175,481,952,176,3754,100.63,-5.36,10.22,9.52,1.76,37.54,-3.59,-12.62,-1.38,-4449.71,-8436.35,-5.35
1552,165,516,962,276,3741,100.03,-3.81,12.34,9.62,2.76,37.41,-3.19,-12.63,-1.43,-4608.36,-7340.97,-5.92
1561,121,622,802,520,3750,99.55,-2.69,14.90,8.02,5.20,37.50,-2.78,-12.64,-1.49,-5158.33,-5282.09,-7.15
1553,124,660,838,497,3768,99.07,-1.67,17.44,8.38,4.97,37.68,-2.38,-12.64,-1.56,-5123.87,-4885.55,-7.80
1545,122,718,756,785,3646,98.59,-0.76,20.07,7.56,7.85,36.46,-1.99,-12.64,-1.64,-5089.64,-4373.00,-8.62
1545,91,746,791,836,3586,98.15,-0.13,22.62,7.91,8.36,35.86,-1.60,-12.64,-1.72,-5307.01,-2999.45,-9.19
1580,35,757,725,730,3577,97.97,0.10,24.97,7.25,7.30,35.77,-1.21,-12.64,-1.82,-6603.10,-963.13,-9.58
1584,22,745,717,759,3540,97.84,0.22,27.02,7.17,7.59,35.40,-0.82,-12.63,-1.93,-6812.33,-455.53,-9.74
1647,2,681,665,892,3423,98.10,0.21,28.47,6.65,8.92,34.23,-0.44,-12.63,-2.04,-8857.22,227.38,-9.38
1682,4,601,700,1048,3352,98.55,0.22,29.29,7.00,10.48,33.52,-0.05,-12.63,-2.16,-9847.77,160.01,-8.81
1759,3,538,668,1089,3130,99.43,0.21,29.64,6.68,10.89,31.30,0.34,-12.62,-2.28,-12076.22,192.74,-8.31
1774,4,527,678,1135,3107,100.31,0.22,29.89,6.78,11.35,31.07,0.73,-12.62,-2.39,-12170.09,159.82,-8.25
1768,85,488,603,1291,3044,101.06,0.71,29.88,6.03,12.91,30.44,1.13,-12.62,-2.51,-11602.30,-2384.36,-7.91
1735,131,484,579,1350,3083,101.54,1.44,29.85,5.79,13.50,30.83,1.53,-12.62,-2.63,-10240.63,-3612.19,-7.87
1573,315,485,531,1518,3102,100.98,3.22,29.82,5.31,15.18,31.02,1.92,-12.61,-2.75,-4946.33,-9075.64,-7.88
1521,336,476,569,1508,3080,100.16,4.95,29.74,5.69,15.08,30.80,2.31,-12.59,-2.87,-3563.01,-8956.61,-7.79
1371,324,435,564,1559,3082,98.51,6.43,29.42,5.64,15.59,30.82,2.70,-12.57,-2.98,785.58,-7822.37,-7.39
1333,307,421,564,1602,3052,96.79,7.66,29.05,5.64,16.02,30.52,3.08,-12.54,-3.10,1249.38,-6638.90,-7.23
1214,279,376,533,1624,2989,94.51,8.59,28.44,5.33,16.24,29.89,3.45,-12.51,-3.22,4229.63,-5220.23,-6.76
1149,281,364,540,1616,2931,92.07,9.45,27.81,5.40,16.16,29.31,3.81,-12.48,-3.33,5270.17,-4873.17,-6.58
1017,323,381,519,1542,2783,89.07,10.47,27.36,5.19,15.42,27.83,4.16,-12.44,-3.44,8342.22,-5818.89,-6.66
979,341,397,503,1523,2733,86.13,11.51,27.04,5.03,15.23,27.33,4.50,-12.40,-3.55,8214.50,-5935.58,-6.75
830,463,511,468,1492,2635,82.58,13.18,27.45,4.68,14.92,26.35,4.83,-12.36,-3.66,11605.30,-9317.47,-7.77
789,515,536,428,1529,2678,79.14,15.00,27.98,4.28,15.29,26.78,5.14,-12.31,-3.78,11332.56,-10218.67,-8.05
612,735,678,317,1694,2729,74.96,17.99,29.32,3.17,16.94,27.29,5.43,-12.24,-3.90,15379.97,-16333.89,-9.42
559,792,688,311,1772,2723,70.87,21.02,30.58,3.11,17.72,27.23,5.70,-12.17,-4.03,15208.58,-16818.46,-9.66
305,933,649,307,1713,2572,65.64,24.61,31.48,3.07,17.13,25.72,5.95,-12.08,-4.16,21395.62,-19921.34,-9.44
226,951,663,336,1574,2493,60.46,27.95,32.38,3.36,15.74,24.93,6.18,-11.98,-4.30,21583.32,-18914.91,-9.67
-102,977,705,288,1351,2164,53.79,31.11,33.44,2.88,13.51,21.64,6.39,-11.86,-4.45,29614.35,-18269.28,-10.16
-279,1011,698,190,1213,1960,46.71,34.17,34.35,1.90,12.13,19.60,6.56,-11.74,-4.60,32250.67,-17952.16,-10.22
-775,1275,867,-236,1162,2333,37.31,38.53,36.21,-2.36,11.62,23.33,6.69,-11.59,-4.76,44731.47,-24911.12,-11.88
-964,1453,976,-254,1190,2739,27.70,43.54,38.54,-2.54,11.90,27.39,6.78,-11.42,-4.94,46549.14,-28595.71,-13.10
-1966,2448,1294,-404,1247,3549,12.94,54.12,42.58,-4.04,12.47,35.49,6.80,-11.21,-5.13,73823.53,-57670.93,-16.31
-2276,2660,1374,-368,1318,3281,-2.24,64.93,46.70,-3.68,13.18,32.81,6.76,-10.96,-5.35,77093.95,-59699.07,-17.51
-3391,2645,1651,-492,1191,2851,-22.70,74.57,52.10,-4.92,11.91,28.51,6.64,-10.68,-5.59,105481.59,-54490.98,-20.55
-4333,2499,1730,-669,1059,3331,-46.86,82.36,57.45,-6.69,10.59,33.31,6.41,-10.36,-5.86,126117.64,-45680.78,-21.90
-4499,2539,1717,-755,1037,3361,-69.62,89.61,62.18,-7.55,10.37,33.61,6.09,-10.02,-6.15,120746.57,-43529.36,-22.39
-4672,2868,1552,-1144,820,3669,-91.16,98.15,65.43,-11.44,8.20,36.69,5.68,-9.63,-6.46,116212.19,-50694.94,-21.40
-4232,3171,1297,-1335,775,4087,-107.86,107.67,66.79,-13.35,7.75,40.87,5.20,-9.21,-6.77,92949.88,-56482.07,-19.41
-4214,3049,1162,-1412,708,4526,-122.78,115.51,67.20,-14.12,7.08,45.26,4.66,-8.76,-7.08,85071.06,-48477.63,-18.31
-3933,2834,938,-1577,514,4583,-134.49,121.24,66.20,-15.77,5.14,45.83,4.08,-8.28,-7.38,69708.20,-38295.00,-16.28
-3220,2500,781,-1699,366,4515,-140.68,124.37,64.35,-16.99,3.66,45.15,3.47,-7.78,-7.67,42175.40,-25291.28,-14.70
-3022,2414,770,-1786,276,4431,-145.05,126.66,62.61,-17.86,2.76,44.31,2.86,-7.27,-7.95,33247.43,-21226.04,-14.38
-2600,2048,799,-1795,-46,4499,-146.40,126.48,61.22,-17.95,-0.46,44.99,2.24,-6.76,-8.22,18081.06,-8728.71,-14.44
-2293,1745,827,-1901,-190,4340,-145.75,124.48,60.15,-19.01,-1.90,43.40,1.62,-6.25,-8.48,7848.61,709.80,-14.53
-2184,1679,817,-1929,-213,4233,-144.50,122.27,59.11,-19.29,-2.13,42.33,1.01,-5.75,-8.73,4718.81,1897.69,-14.31
-1814,1427,696,-2121,-357,4235,-141.11,118.75,57.45,-21.21,-3.57,42.35,0.42,-5.26,-8.97,-6350.53,8842.34,-13.06
-1789,1331,653,-2229,-312,4177,-137.92,115.00,55.69,-22.29,-3.12,41.77,-0.15,-4.78,-9.19,-5643.66,10307.54,-12.46
-1527,1172,510,-2238,-463,3939,-133.44,110.65,53.23,-22.38,-4.63,39.39,-0.70,-4.32,-9.40,-12466.52,13650.48,-10.93
-1473,1061,457,-2265,-622,3890,-129.08,106.05,50.69,-22.65,-6.22,38.90,-1.24,-3.87,-9.60,-12192.66,15224.71,-10.15
-1640,925,394,-2251,-939,3935,-126.18,101.09,48.03,-22.51,-9.39,39.35,-1.76,-3.44,-9.78,-5025.78,17478.75,-9.27
-1938,888,388,-2416,-1052,3806,-125.38,96.40,45.59,-24.16,-10.52,38.06,-2.28,-3.04,-9.95,5620.11,16459.53,-8.90
-2015,870,382,-2356,-1097,3789,-125.13,92.06,43.36,-23.56,-10.97,37.89,-2.79,-2.64,-10.11,8396.60,14962.08,-8.56
-2177,867,386,-2170,-1324,3723,-125.90,88.15,41.38,-21.70,-13.24,37.23,-3.31,-2.27,-10.26,13603.49,13151.06,-8.34
-2251,793,422,-2359,-1503,3546,-127.04,84.17,39.82,-23.59,-15.03,35.46,-3.83,-1.90,-10.39,15600.98,13753.45,-8.44
-2261,759,442,-2328,-1696,3595,-128.13,80.38,38.53,-23.28,-16.96,35.95,-4.36,-1.56,-10.53,15422.92,13072.86,-8.44
-2345,657,506,-2331,-1904,3671,-129.62,76.35,37.77,-23.31,-19.04,36.71,-4.89,-1.22,-10.65,17593.82,14612.93,-8.88
-2406,527,620,-2236,-2038,3702,-131.34,71.93,37.77,-22.36,-20.38,37.02,-5.43,-0.91,-10.78,18864.98,16926.44,-9.84
-2401,477,667,-2471,-2044,3612,-132.85,67.65,38.06,-24.71,-20.44,36.12,-5.97,-0.61,-10.90,17964.45,16555.13,-10.27
-2214,55,942,-2190,-2180,3535,-133.07,61.22,40.00,-21.90,-21.80,35.35,-6.51,-0.33,-11.03,11433.04,27934.69,-12.85
-2132,-38,994,-2204,-2222,3513,-132.77,54.87,42.07,-22.04,-22.22,35.13,-7.06,-0.08,-11.18,8767.66,28034.75,-13.55
-1693,-422,1123,-2272,-2353,3517,-129.82,46.80,44.71,-22.72,-23.53,35.17,-7.59,0.14,-11.33,-4887.92,37313.29,-14.98
-1160,-883,1166,-2318,-2327,3539,-123.91,36.74,47.35,-23.18,-23.27,35.39,-8.10,0.33,-11.50,-20337.12,48263.78,-15.68
-991,-1062,1195,-2318,-2306,3542,-117.57,26.59,49.91,-23.18,-23.06,35.42,-8.58,0.47,-11.68,-23051.62,49473.31,-16.25
-556,-1586,1335,-2363,-2485,3604,-109.20,14.25,53.06,-23.63,-24.85,36.04,-9.02,0.58,-11.88,-33932.79,61488.04,-17.84
-121,-1758,1518,-2392,-2927,3810,-99.02,2.10,57.01,-23.92,-29.27,38.10,-9.43,0.64,-12.10,-43929.46,61485.32,-19.89
22,-1719,1566,-2396,-2983,3859,-88.98,-8.59,60.86,-23.96,-29.83,38.59,-9.79,0.65,-12.35,-43953.88,54933.08,-20.79
110,-1964,1918,-2580,-2680,3834,-79.41,-19.71,66.48,-25.80,-26.80,38.34,-10.12,0.64,-12.62,-42314.39,57943.25,-24.48
155,-2258,2694,-2149,-2209,3692,-70.53,-31.52,76.26,-21.49,-22.09,36.92,-10.41,0.58,-12.95,-39528.84,62307.57,-32.31
433,-2232,2958,-2089,-2396,3523,-60.83,-41.98,86.68,-20.89,-23.96,35.23,-10.66,0.49,-13.32,-44365.24,56317.46,-35.88
1040,-2321,3339,-1880,-2596,3362,-48.41,-51.94,98.38,-18.80,-25.96,33.62,-10.86,0.38,-13.74,-59187.59,54528.76,-40.60
1431,-2560,3358,-1599,-2592,3286,-34.84,-62.36,109.03,-15.99,-25.92,32.86,-11.02,0.23,-14.22,-66024.45,57675.12,-42.12
1556,-2606,3297,-1562,-2638,3267,-21.86,-72.02,118.24,-15.62,-26.38,32.67,-11.12,0.05,-14.74,-64002.00,54554.30,-42.77
2050,-2675,3142,-1207,-2701,3674,-7.17,-81.14,125.58,-12.07,-27.01,36.74,-11.16,-0.17,-15.29,-73837.11,52490.62,-42.39
1861,-3071,3172,-1589,-2118,3776,4.90,-91.76,132.37,-15.89,-21.18,37.76,-11.16,-0.41,-15.88,-61456.93,60942.61,-43.50
1812,-3267,3206,-1557,-1978,3555,15.46,-102.51,138.69,-15.57,-19.78,35.55,-11.11,-0.69,-16.51,-54626.48,62450.68,-44.59
2501,-3544,3260,-887,-1271,2975,29.17,-113.88,144.71,-8.87,-12.71,29.75,-11.01,-1.01,-17.16,-71649.19,66446.17,-45.80
3318,-3583,3168,-493,-747,2890,46.50,-124.35,149.56,-4.93,-7.47,28.90,-10.85,-1.37,-17.84,-91315.92,62693.55,-45.63
3506,-3511,3018,-724,-771,3024,63.23,-133.33,153.01,-7.24,-7.71,30.24,-10.62,-1.76,-18.55,-89632.98,55847.33,-44.78
3234,-3359,2276,-224,-1009,3193,76.64,-140.49,151.60,-2.24,-10.09,31.93,-10.35,-2.19,-19.25,-73751.45,47139.07,-38.30
3207,-3233,2086,-227,-630,3100,88.54,-146.16,149.16,-2.27,-6.30,31.00,-10.03,-2.64,-19.94,-67031.24,40048.48,-36.36
3452,-2906,1251,280,-74,2211,100.74,-149.27,141.88,2.80,-0.74,22.11,-9.64,-3.14,-20.60,-69519.67,27292.90,-28.33
3681,-2655,440,666,216,1955,113.12,-150.54,130.37,6.66,2.16,19.55,-9.22,-3.67,-21.21,-71372.41,18049.15,-19.96
3742,-2539,235,676,258,1840,124.63,-150.97,118.77,6.76,2.58,18.40,-8.74,-4.20,-21.78,-67868.88,13855.66,-16.72
3847,-1827,-394,918,391,2419,135.64,-147.02,104.49,9.18,3.91,24.19,-8.23,-4.73,-22.28,-66128.37,-8701.68,-9.54
3818,-1560,-522,989,371,2450,145.36,-141.83,90.86,9.89,3.71,24.50,-7.67,-5.26,-22.72,-60401.45,-15351.50,-6.69
3334,-783,-873,1140,250,2610,151.16,-132.43,76.44,11.40,2.50,26.10,-7.09,-5.76,-23.09,-40936.15,-37488.12,-1.86
3015,-104,-1076,1347,71,2458,154.44,-119.82,62.24,13.47,0.71,24.58,-6.50,-6.23,-23.39,-28377.01,-54694.91,1.70
3045,21,-1119,1344,97,2333,157.57,-107.71,49.19,13.44,0.97,23.33,-5.89,-6.65,-23.63,-27893.15,-53089.03,3.75
2941,264,-1118,1402,86,3241,159.75,-95.33,37.45,14.02,0.86,32.41,-5.27,-7.03,-23.82,-23261.90,-55410.50,5.25
2880,326,-1105,1341,85,3463,161.35,-83.81,26.96,13.41,0.85,34.63,-4.63,-7.37,-23.96,-20397.50,-51925.57,6.49
2754,509,-1074,1377,271,3669,162.01,-72.32,17.72,13.77,2.71,36.69,-3.99,-7.67,-24.05,-15749.40,-52620.83,7.42
2734,491,-1061,1324,317,3704,162.49,-62.09,9.47,13.24,3.17,37.04,-3.33,-7.93,-24.10,-14839.30,-47015.80,8.37
2678,307,-975,1421,200,3938,162.57,-54.01,2.58,14.21,2.00,39.38,-2.68,-8.16,-24.12,-12880.57,-36746.21,8.53
2640,132,-874,1483,230,3887,162.42,-47.80,-3.01,14.83,2.30,38.87,-2.02,-8.37,-24.12,-11658.21,-27700.26,8.40
2635,81,-837,1508,282,3817,162.25,-42.53,-7.82,15.08,2.82,38.17,-1.36,-8.56,-24.09,-11578.42,-23373.76,8.70
2600,-50,-673,1481,445,3701,161.89,-38.58,-11.14,14.81,4.45,37.01,-0.70,-8.73,-24.05,-10562.44,-16941.92,7.74
2583,-57,-629,1458,520,3645,161.45,-35.07,-13.86,14.58,5.20,36.45,-0.03,-8.89,-23.99,-10198.46,-14988.70,7.71
2517,-32,-490,1414,895,3350,160.66,-31.76,-15.47,14.14,8.95,33.50,0.63,-9.03,-23.92,-8324.05,-14233.17,6.74
2494,34,-497,1431,1023,3287,159.81,-28.38,-16.95,14.31,10.23,32.87,1.30,-9.15,-23.85,-7958.46,-14853.35,6.99
2503,294,-696,1410,1129,3055,159.10,-23.75,-19.50,14.10,11.29,30.55,1.96,-9.25,-23.77,-8625.27,-21539.12,9.00
2517,370,-723,1365,1150,3007,158.54,-19.11,-21.96,13.65,11.50,30.07,2.62,-9.34,-23.67,-9387.73,-21895.88,9.54
2639,791,-871,1388,1203,3140,158.78,-12.38,-25.08,13.88,12.03,31.40,3.29,-9.39,-23.57,-13475.58,-33094.73,11.19
2288,937,-981,1423,1224,3322,156.86,-5.42,-28.55,14.23,12.24,33.22,3.95,-9.42,-23.45,-2348.30,-34729.12,12.57
2159,954,-982,1436,1234,3329,154.35,0.94,-31.69,14.36,12.34,33.29,4.60,-9.42,-23.32,853.19,-32214.88,12.98
2165,1118,-891,1449,1185,3071,152.12,7.66,-33.96,14.49,11.85,30.71,5.25,-9.39,-23.18,-448.37,-34580.04,12.50
2117,1109,-851,1466,1173,3111,149.82,13.66,-35.75,14.66,11.73,31.11,5.88,-9.33,-23.04,73.52,-31349.26,12.38
1786,1098,-675,1365,1275,3167,145.73,18.99,-36.29,13.65,12.75,31.67,6.50,-9.25,-22.90,9458.52,-28374.95,10.96
1465,1216,-512,1257,1479,2982,140.10,24.51,-35.79,12.57,14.79,29.82,7.10,-9.15,-22.76,17745.06,-29747.33,9.51
1345,1279,-469,1196,1573,2888,134.29,29.86,-35.07,11.96,15.73,28.88,7.67,-9.02,-22.64,19036.18,-29309.82,9.05
1099,1482,-502,1164,1683,2911,127.57,35.92,-34.62,11.64,16.83,29.11,8.22,-8.87,-22.51,24213.62,-33345.76,9.27
1036,1557,-527,1160,1725,2949,121.13,41.82,-34.38,11.60,17.25,29.49,8.73,-8.69,-22.40,23237.11,-33051.25,9.45
768,1770,-625,1086,1787,3195,113.70,48.44,-34.75,10.86,17.87,31.95,9.22,-8.49,-22.29,28829.74,-37158.77,10.32
534,1777,-710,1015,1763,3337,105.59,54.43,-35.61,10.15,17.63,33.37,9.68,-8.25,-22.18,32919.82,-34482.28,11.15
457,1746,-702,957,1782,3431,97.82,59.64,-36.33,9.57,17.82,34.31,10.10,-8.00,-22.07,31776.45,-30883.21,11.17
218,1577,-641,903,1754,3633,89.37,63.30,-36.61,9.03,17.54,36.33,10.49,-7.73,-21.97,35874.34,-23293.43,10.69
165,1504,-632,913,1754,3653,81.44,66.14,-36.80,9.13,17.54,36.53,10.84,-7.45,-21.87,33829.06,-19400.93,10.63
47,1135,-577,868,1675,3544,73.58,66.45,-36.64,8.68,16.75,35.44,11.17,-7.17,-21.78,34055.73,-6561.94,10.15
32,1043,-551,848,1633,3512,66.42,66.17,-36.34,8.48,16.33,35.12,11.46,-6.89,-21.68,31078.09,-3539.40,9.88
26,793,-502,872,1594,3121,59.93,64.39,-35.77,8.72,15.94,31.21,11.73,-6.61,-21.59,28122.40,4188.89,9.39
30,772,-495,872,1585,2957,54.12,62.66,-35.21,8.72,15.85,29.57,11.97,-6.35,-21.50,25150.76,4064.66,9.26
9,825,-440,811,1622,2551,48.77,61.43,-34.37,8.11,16.22,25.51,12.19,-6.09,-21.42,23260.04,1636.82,8.68
41,935,-415,748,1647,2534,44.14,60.99,-33.47,7.48,16.47,25.34,12.39,-5.83,-21.34,19902.61,-2364.68,8.35
-30,1518,-329,551,2088,2835,39.54,64.15,-32.13,5.51,20.88,28.35,12.57,-5.55,-21.27,20102.76,-20882.54,7.45
-160,1647,-339,527,2216,2943,34.61,67.78,-30.98,5.27,22.16,29.43,12.73,-5.26,-21.20,22170.30,-23554.97,7.39
-943,1828,-293,545,1752,3332,25.40,72.15,-29.67,5.45,17.52,33.32,12.86,-4.96,-21.15,44613.31,-27655.35,6.83
-1116,1858,-323,390,1838,3306,16.05,76.27,-28.67,3.90,18.38,33.06,12.94,-4.63,-21.10,46009.32,-26685.87,6.95
-1210,1967,-494,272,1766,3086,7.06,80.64,-28.82,2.72,17.66,30.86,12.99,-4.29,-21.06,44864.54,-28310.81,8.42
-1253,1918,-530,396,1760,3321,-1.29,84.28,-29.17,3.96,17.60,33.21,13.01,-3.94,-21.02,42275.98,-24859.68,8.77
-1672,1678,-621,250,1538,3532,-11.36,86.09,-30.04,2.50,15.38,35.32,12.98,-3.58,-20.98,51783.07,-15729.15,9.65
-1770,1632,-609,279,1535,3582,-21.02,87.43,-30.75,2.79,15.35,35.82,12.92,-3.21,-20.94,50448.61,-13496.48,9.64
-2229,1417,-517,241,1306,3459,-32.51,87.33,-30.83,2.41,13.06,34.59,12.81,-2.85,-20.90,60638.97,-6155.15,8.87
-2339,1362,-514,457,1187,3386,-43.53,86.91,-30.88,4.57,11.87,33.86,12.65,-2.49,-20.85,59058.52,-4475.82,8.85
-2831,1265,-487,117,1079,3390,-56.45,85.93,-30.77,1.17,10.79,33.90,12.45,-2.12,-20.80,69693.23,-1619.42,8.60
-3293,1353,-486,-46,931,3623,-70.89,85.59,-30.65,-0.46,9.31,36.23,12.18,-1.75,-20.76,78553.38,-4817.75,8.58
-3430,1403,-479,-61,915,3731,-84.72,85.59,-30.51,-0.61,9.15,37.31,11.85,-1.37,-20.71,76531.75,-6543.83,8.50
-3951,1581,-457,-203,764,4019,-100.35,86.68,-30.25,-2.03,7.64,40.19,11.44,-0.99,-20.66,86845.56,-12143.88,8.28
-4081,1580,-454,-254,687,3980,-115.21,87.65,-29.99,-2.54,6.87,39.80,10.98,-0.61,-20.61,84086.08,-11642.68,8.22
-4470,1391,-513,-203,341,4090,-130.96,87.37,-30.12,-2.03,3.41,40.90,10.44,-0.23,-20.56,89804.43,-5283.54,8.73
-4579,1255,-561,-228,142,4135,-145.79,86.29,-30.53,-2.28,1.42,41.35,9.84,0.14,-20.50,86335.66,-1137.83,9.19
-4645,983,-638,-227,-222,4136,-159.55,83.65,-31.37,-2.27,-2.22,41.36,9.18,0.49,-20.43,81915.29,6930.48,9.95
-4624,936,-646,-348,-230,4229,-171.80,81.00,-32.17,-3.48,-2.30,42.29,8.48,0.84,-20.35,75235.52,7248.19,10.12
-4520,797,-604,-345,-507,4185,-182.19,77.76,-32.64,-3.45,-5.07,41.85,7.73,1.17,-20.27,66607.32,10446.96,9.82
-4487,773,-587,-373,-577,4196,-191.34,74.70,-32.96,-3.73,-5.77,41.96,6.94,1.48,-20.17,61026.15,9776.69,9.72
-4285,658,-528,-332,-799,4056,-198.35,71.24,-32.88,-3.32,-7.99,40.56,6.13,1.79,-20.07,50678.34,12044.23,9.20
-3906,579,-533,-419,-1035,3946,-202.34,67.65,-32.85,-4.19,-10.35,39.46,5.30,2.07,-19.97,35709.90,13007.28,9.24
-3745,597,-546,-433,-1089,3954,-204.95,64.53,-32.89,-4.33,-10.89,39.54,4.46,2.34,-19.86,28912.98,10862.48,9.35
-3270,652,-582,-500,-1398,4044,-204.40,62.05,-33.15,-5.00,-13.98,40.44,3.62,2.60,-19.74,12854.03,7760.76,9.69
-3262,603,-576,-467,-1591,4078,-203.86,59.53,-33.35,-4.67,-15.91,40.78,2.78,2.85,-19.62,12855.62,8211.52,9.66
-3314,330,-496,-629,-1599,3864,-203.69,55.59,-33.04,-6.29,-15.99,38.64,1.94,3.08,-19.50,14740.13,15679.40,8.94
-3246,313,-511,-426,-1725,3560,-203.12,51.94,-32.85,-4.26,-17.25,35.60,1.10,3.30,-19.37,12690.65,14483.24,9.04
-2767,404,-454,-535,-2142,3518,-199.69,49.21,-32.34,-5.35,-21.42,35.18,0.27,3.50,-19.24,-2100.57,10020.55,8.49
-2492,511,-319,-587,-2335,3562,-194.92,47.40,-31.05,-5.87,-23.35,35.62,-0.53,3.69,-19.12,-9225.18,5458.53,7.17
-2495,505,-274,-575,-2314,3568,-190.65,45.74,-29.62,-5.75,-23.14,35.68,-1.32,3.87,-19.00,-7028.74,4853.56,6.61
-2329,555,-38,-603,-2211,3291,-185.79,44.55,-26.89,-6.03,-22.11,32.91,-2.09,4.05,-18.88,-10360.55,2551.86,4.25
-2273,527,33,-640,-2270,3275,-181.08,43.31,-24.00,-6.40,-22.70,32.75,-2.84,4.23,-18.78,-9979.26,2907.95,3.28
-2214,427,219,-620,-2458,3463,-176.47,41.59,-20.26,-6.20,-24.58,34.63,-3.57,4.39,-18.68,-9755.73,5504.04,1.22
-2128,310,305,-649,-2642,3265,-171.81,39.32,-16.37,-6.49,-26.42,32.65,-4.28,4.54,-18.61,-10429.83,8421.48,-0.01
-2092,277,321,-662,-2674,3253,-167.39,37.08,-12.78,-6.62,-26.74,32.53,-4.97,4.69,-18.54,-9504.74,8462.08,-0.61
-1836,167,392,-693,-2754,2901,-161.85,34.39,-9.11,-6.93,-27.54,29.01,-5.64,4.83,-18.49,-15602.02,10933.81,-1.69
-1761,149,405,-694,-2793,2892,-156.41,31.86,-5.73,-6.94,-27.93,28.92,-6.29,4.96,-18.45,-15520.64,10318.61,-2.23
-1442,256,418,-757,-2888,2857,-149.56,30.23,-2.61,-7.57,-28.88,28.57,-6.91,5.08,-18.43,-23149.88,5845.04,-2.75
-1233,447,396,-777,-2943,2897,-142.13,29.94,0.07,-7.77,-29.43,28.97,-7.50,5.20,-18.41,-26708.19,-871.22,-2.90
-1207,492,386,-764,-2947,2895,-135.28,29.94,2.42,-7.64,-29.47,28.95,-8.06,5.32,-18.40,-24257.20,-2417.34,-3.12
-1130,637,375,-771,-2832,2920,-128.64,30.84,4.46,-7.71,-28.32,29.20,-8.59,5.45,-18.40,-23665.80,-6972.74,-3.29
-1098,671,389,-775,-2759,2920,-122.48,31.85,6.39,-7.75,-27.59,29.20,-9.09,5.58,-18.40,-21754.96,-7652.52,-3.66
-859,746,461,-805,-2937,2949,-115.47,33.21,8.56,-8.05,-29.37,29.49,-9.57,5.72,-18.42,-26555.00,-9569.01,-4.55
-748,641,439,-866,-3000,2915,-108.48,33.80,10.38,-8.66,-30.00,29.15,-10.02,5.87,-18.43,-26964.15,-5672.61,-4.59
-718,609,427,-839,-3022,2944,-102.02,34.14,11.95,-8.39,-30.22,29.44,-10.45,6.02,-18.45,-24838.61,-4410.99,-4.69
-596,478,359,-796,-3060,2893,-95.45,33.64,12.95,-7.96,-30.60,28.93,-10.84,6.16,-18.48,-25830.55,-149.62,-4.24
-555,452,342,-784,-3080,2875,-89.29,33.03,13.74,-7.84,-30.80,28.75,-11.22,6.30,-18.50,-24234.78,447.05,-4.20
-369,394,286,-800,-3120,2806,-82.61,32.13,14.11,-8.00,-31.20,28.06,-11.56,6.44,-18.53,-27374.32,2001.67,-3.77
-312,386,277,-812,-3142,2795,-76.25,31.27,14.39,-8.12,-31.42,27.95,-11.88,6.58,-18.56,-26232.96,1856.55,-3.73
-78,428,264,-746,-3162,2857,-69.10,30.76,14.56,-7.46,-31.62,28.57,-12.17,6.72,-18.59,-30794.69,158.23,-3.64
273,560,324,-801,-3173,2880,-60.53,31.10,15.08,-8.01,-31.73,28.80,-12.43,6.85,-18.62,-38686.75,-4218.49,-4.22
401,597,345,-829,-3196,2901,-52.03,31.63,15.68,-8.29,-31.96,29.01,-12.65,6.99,-18.65,-38946.15,-5234.15,-4.47
964,685,407,-876,-3224,2908,-40.95,32.64,16.59,-8.76,-32.24,29.08,-12.83,7.14,-18.69,-52910.07,-7768.56,-5.11
1121,690,422,-842,-3198,2915,-30.01,33.59,17.51,-8.42,-31.98,29.15,-12.96,7.29,-18.72,-52982.76,-7482.70,-5.36
1614,635,498,-713,-3054,2987,-17.17,34.10,18.79,-7.13,-30.54,29.87,-13.04,7.44,-18.76,-63681.34,-5342.48,-6.17
1756,586,533,-681,-3025,2898,-4.74,34.27,20.17,-6.81,-30.25,28.98,-13.07,7.59,-18.81,-62511.11,-3579.34,-6.64
2208,587,596,-671,-2849,2713,9.20,34.42,21.78,-6.71,-28.49,27.13,-13.04,7.75,-18.86,-71267.18,-3541.12,-7.38
2333,589,610,-674,-2799,2659,22.52,34.57,23.33,-6.74,-27.99,26.59,-12.96,7.91,-18.92,-69083.93,-3538.90,-7.70
2595,569,643,-679,-2603,2712,36.09,34.59,24.92,-6.79,-26.03,27.12,-12.83,8.06,-18.98,-71483.84,-2846.72,-8.18
2607,528,574,-638,-2497,2651,48.39,34.35,25.93,-6.38,-24.97,26.51,-12.64,8.22,-19.05,-65910.96,-1554.70,-7.72
2690,587,544,-648,-2458,2559,59.96,34.49,26.65,-6.48,-24.58,25.59,-12.41,8.38,-19.13,-63133.20,-3515.49,-7.56
2968,815,426,-592,-2157,2789,72.07,36.02,26.59,-5.92,-21.57,27.89,-12.13,8.55,-19.20,-66801.21,-10619.11,-6.55
2937,855,390,-648,-2146,2838,82.78,37.63,26.31,-6.48,-21.46,28.38,-11.80,8.72,-19.27,-60523.09,-11211.44,-6.21
2719,1042,227,-765,-2081,2925,91.08,40.22,25.06,-7.65,-20.81,29.25,-11.45,8.90,-19.33,-48982.66,-16383.26,-4.66
2386,1091,49,-883,-1984,2923,96.53,42.86,22.85,-8.83,-19.84,29.23,-11.07,9.09,-19.39,-34881.11,-16789.12,-2.87
2215,1107,-46,-916,-1947,2986,100.39,45.32,20.29,-9.16,-19.47,29.86,-10.68,9.29,-19.43,-27125.55,-16140.70,-1.73
1793,1142,-283,-1147,-1865,2973,101.29,47.76,16.53,-11.47,-18.65,29.73,-10.28,9.50,-19.46,-12178.20,-16162.14,0.76
1680,1163,-346,-1207,-1811,2971,101.41,50.08,12.77,-12.07,-18.11,29.71,-9.89,9.71,-19.47,-8239.16,-15758.29,1.78
1271,1356,-572,-1270,-1740,3047,99.02,53.34,8.00,-12.70,-17.40,30.47,-9.51,9.94,-19.46,4660.52,-20810.35,4.30
902,1685,-767,-1528,-1712,3060,94.62,58.28,2.52,-15.28,-17.12,30.60,-9.15,10.18,-19.43,15204.42,-29722.10,6.66
823,1771,-794,-1578,-1710,3062,90.18,63.26,-2.57,-15.78,-17.10,30.62,-8.82,10.44,-19.38,15753.07,-30260.90,7.54
529,2027,-814,-1578,-1796,3190,84.39,69.30,-7.28,-15.78,-17.96,31.90,-8.51,10.72,-19.30,23040.23,-36129.19,8.32
330,2181,-710,-1650,-1895,3354,77.96,75.67,-10.88,-16.50,-18.95,33.54,-8.23,11.02,-19.21,26750.91,-38325.82,7.90
301,2196,-661,-1669,-1917,3374,72.00,81.50,-13.83,-16.69,-19.17,33.74,-7.97,11.35,-19.11,24841.33,-36007.52,7.86
307,2109,-422,-1874,-2095,3451,66.67,86.22,-15.02,-18.74,-20.95,34.51,-7.74,11.69,-19.00,22036.33,-30723.48,5.98
365,2012,-307,-1976,-2181,3497,62.23,89.87,-15.39,-19.76,-21.81,34.97,-7.53,12.05,-18.88,17874.81,-25613.56,5.05
555,1751,-16,-2123,-2133,3594,59.39,91.56,-13.95,-21.23,-21.33,35.94,-7.33,12.42,-18.77,9953.93,-15816.06,2.40
740,1492,327,-2214,-2048,3696,57.97,91.51,-10.56,-22.14,-20.48,36.96,-7.13,12.78,-18.68,2893.03,-6939.54,-0.95
768,1418,422,-2185,-1991,3711,56.86,91.01,-6.93,-21.85,-19.91,37.11,-6.94,13.15,-18.60,1385.16,-4643.77,-2.22
783,1091,721,-2163,-1849,3622,55.95,88.56,-1.84,-21.63,-18.49,36.22,-6.74,13.52,-18.55,423.18,5407.37,-5.41
765,983,804,-2197,-1855,3651,55.02,85.70,3.25,-21.97,-18.55,36.51,-6.54,13.87,-18.52,587.11,7723.84,-6.77
644,656,1040,-2238,-1954,3617,53.45,81.13,9.27,-22.38,-19.54,36.17,-6.34,14.21,-18.52,3979.61,16741.19,-9.54
455,463,1262,-2395,-1849,3648,50.88,75.84,16.04,-23.95,-18.49,36.48,-6.14,14.53,-18.54,9226.19,20798.58,-12.29
393,434,1336,-2433,-1824,3676,48.19,70.91,22.59,-24.33,-18.24,36.76,-5.95,14.83,-18.60,10045.30,19386.57,-13.76
106,355,1597,-2439,-1915,3640,44.01,65.98,30.07,-24.39,-19.15,36.40,-5.76,15.12,-18.70,17882.12,19700.44,-16.93
-45,312,1698,-2400,-1914,3650,39.34,61.29,37.42,-24.00,-19.14,36.50,-5.58,15.39,-18.82,20795.63,18888.38,-18.73
-405,202,1903,-2359,-1937,3544,32.93,56.39,45.29,-23.59,-19.37,35.44,-5.42,15.64,-18.98,30056.43,20283.05,-21.47
-832,6,2076,-2429,-1999,3501,24.57,50.79,53.42,-24.29,-19.99,35.01,-5.28,15.88,-19.18,40665.34,24292.29,-23.98
-963,-44,2108,-2382,-2025,3566,16.23,45.44,60.94,-23.82,-20.25,35.66,-5.17,16.09,-19.41,41111.43,23404.15,-25.21
-1506,-165,2167,-2376,-2171,3766,5.42,39.89,68.06,-23.76,-21.71,37.66,-5.09,16.28,-19.67,54522.00,24859.45,-26.62
-2080,-182,2190,-2457,-2211,3915,-7.81,34.79,74.62,-24.57,-22.11,39.15,-5.05,16.46,-19.97,67820.50,22957.60,-27.65
-2231,-182,2198,-2452,-2222,3896,-20.63,30.20,80.56,-24.52,-22.22,38.96,-5.06,16.62,-20.29,66765.44,20719.63,-28.48
-2765,-264,2267,-2329,-2163,3689,-35.44,25.57,86.33,-23.29,-21.63,36.89,-5.11,16.76,-20.63,77923.42,21282.38,-29.79
-3189,-452,2258,-2082,-2376,3546,-51.35,20.26,91.47,-20.82,-23.76,35.46,-5.23,16.88,-21.00,84759.78,25158.49,-30.37
-3286,-508,2220,-2026,-2448,3512,-66.26,15.13,95.87,-20.26,-24.48,35.12,-5.39,16.98,-21.39,80835.81,24586.91,-30.60
-3397,-640,2031,-1844,-2602,3366,-80.35,9.71,98.67,-18.44,-26.02,33.66,-5.62,17.06,-21.79,77790.65,26487.21,-29.35
-3369,-655,1991,-1822,-2617,3323,-92.87,4.75,100.95,-18.22,-26.17,33.23,-5.88,17.13,-22.20,70734.84,24582.63,-29.30
-3097,-655,1907,-1590,-2668,3076,-102.47,0.28,102.49,-15.90,-26.68,30.76,-6.18,17.18,-22.62,56704.61,22404.29,-28.77
-2592,-644,1899,-1274,-2741,2767,-108.04,-3.68,103.82,-12.74,-27.41,27.67,-6.51,17.21,-23.05,36628.56,20098.25,-28.87
-2421,-636,1902,-1289,-2721,2697,-112.00,-7.19,105.04,-12.89,-27.21,26.97,-6.84,17.23,-23.49,28820.58,18112.06,-29.04
-1653,-591,1908,-1257,-2854,2576,-110.88,-10.08,106.18,-12.57,-28.54,25.76,-7.17,17.25,-23.93,2952.59,15158.08,-29.22
-1213,-751,1834,-1055,-3194,2899,-107.20,-13.65,106.75,-10.55,-31.94,28.99,-7.49,17.25,-24.37,-10380.33,18920.89,-28.66
-1026,-744,1787,-1106,-3210,2811,-102.73,-16.82,106.97,-11.06,-32.10,28.11,-7.78,17.24,-24.82,-14635.05,17134.39,-28.28
54,-820,1720,-1003,-3195,2674,-92.13,-20.14,106.77,-10.03,-31.95,26.74,-8.04,17.22,-25.27,-46615.25,18131.78,-27.67
1254,-1037,1725,-760,-3331,2678,-75.27,-24.45,106.61,-7.60,-33.31,26.78,-8.22,17.18,-25.72,-79674.88,23496.35,-27.68
1851,-1213,1748,-632,-3344,2623,-56.45,-29.41,106.61,-6.32,-33.44,26.23,-8.33,17.12,-26.17,-91041.55,27137.95,-27.87
3010,-1679,1818,-555,-3364,2777,-32.44,-36.71,107.04,-5.55,-33.64,27.77,-8.34,17.04,-26.63,-119213.67,39611.80,-28.50
3958,-2018,1851,-657,-3431,3062,-5.06,-45.35,107.63,-6.57,-34.31,30.62,-8.24,16.92,-27.10,-138482.12,47066.04,-28.85
4218,-2126,1862,-643,-3412,3115,21.18,-53.78,108.22,-6.43,-34.12,31.15,-8.04,16.76,-27.57,-134648.47,46674.95,-29.00
4671,-2621,1917,-417,-3313,3180,47.55,-64.39,109.10,-4.17,-33.13,31.80,-7.73,16.56,-28.06,-137387.00,58536.18,-29.57
5077,-2958,1965,-289,-3034,2754,73.77,-76.00,110.17,-2.89,-30.34,27.54,-7.31,16.32,-28.55,-138588.89,64478.89,-30.10
5249,-3026,1973,-254,-2925,2670,98.41,-86.86,111.19,-2.54,-29.25,26.70,-6.80,16.02,-29.05,-132509.17,61532.68,-30.29
5418,-3201,1880,66,-2578,2834,121.62,-97.70,111.54,0.66,-25.78,28.34,-6.19,15.68,-29.55,-127025.89,62276.69,-29.53
5154,-3126,1613,302,-2081,2598,140.90,-106.99,110.23,3.02,-20.81,25.98,-5.51,15.29,-30.04,-108564.77,55173.00,-27.09
5027,-3093,1530,380,-1921,2574,157.47,-115.16,108.54,3.80,-19.21,25.74,-4.77,14.86,-30.53,-96133.42,50065.64,-26.16
4427,-2722,1157,625,-1516,2610,168.73,-120.25,104.74,6.25,-15.16,26.10,-3.99,14.40,-31.00,-70023.00,34832.81,-22.50
4261,-2595,1068,651,-1461,2674,177.85,-124.06,100.78,6.51,-14.61,26.74,-3.18,13.91,-31.44,-59883.13,28618.45,-21.22
3624,-2075,751,851,-1179,2477,182.17,-124.31,95.28,8.51,-11.79,24.77,-2.36,13.42,-31.85,-35879.41,10616.63,-17.82
2891,-1546,468,1184,-760,2491,181.59,-121.31,88.61,11.84,-7.60,24.91,-1.55,12.93,-32.23,-10961.96,-6110.61,-14.56
2700,-1401,401,1324,-632,2419,179.90,-117.72,82.20,13.24,-6.32,24.19,-0.76,12.45,-32.58,-5226.73,-9344.73,-13.15
2110,-868,181,1362,-876,2461,174.78,-111.24,75.08,13.62,-8.76,24.61,-0.01,11.99,-32.89,12562.52,-24516.10,-10.37
1721,-151,-159,1349,-681,2741,167.80,-101.04,66.60,13.49,-6.81,27.41,0.71,11.57,-33.16,22531.97,-44202.14,-6.39
1586,-11,-237,1362,-597,2802,160.69,-91.00,58.50,13.62,-5.97,28.02,1.40,11.18,-33.39,23703.94,-44122.53,-4.68
1304,418,-371,1400,-491,2994,152.58,-79.35,50.38,14.00,-4.91,29.94,2.04,10.84,-33.58,29441.11,-53198.60,-2.50
1238,469,-375,1449,-491,3113,144.87,-68.56,43.06,14.49,-4.91,31.13,2.64,10.54,-33.74,27948.25,-49689.11,-1.52
1097,446,-255,1393,-486,3552,137.08,-58.98,37.20,13.93,-4.86,35.52,3.21,10.28,-33.88,28992.11,-44229.08,-1.78
1115,393,-202,1357,-470,3635,130.17,-50.69,32.24,13.57,-4.70,36.35,3.75,10.06,-34.00,25000.53,-38361.61,-1.59
1328,133,33,1297,-377,3892,125.26,-44.81,29.22,12.97,-3.77,38.92,4.26,9.85,-34.10,15271.21,-26550.97,-3.19
1413,65,92,1290,-314,3950,121.35,-39.93,26.86,12.90,-3.14,39.50,4.76,9.67,-34.20,10437.09,-21833.36,-3.38
1787,-183,277,1214,-44,3891,120.11,-37.05,25.86,12.14,-0.44,38.91,5.25,9.49,-34.29,-3036.19,-11898.92,-4.82
1906,-248,303,1222,11,3854,119.73,-34.86,25.13,12.22,0.11,38.54,5.74,9.33,-34.38,-7324.39,-8592.57,-4.94
2428,-400,251,1213,274,3705,122.57,-33.81,24.14,12.13,2.74,37.05,6.24,9.16,-34.46,-23904.99,-2852.19,-4.37
2970,-390,-1,1273,356,3667,128.43,-32.81,21.72,12.73,3.56,36.67,6.77,9.01,-34.53,-39701.55,-2705.45,-1.92
3066,-378,-44,1236,371,3621,134.29,-31.84,19.28,12.36,3.71,36.21,7.31,8.85,-34.59,-40157.56,-2640.76,-1.24
3279,-339,-238,1276,600,3603,140.86,-30.72,15.90,12.76,6.00,36.03,7.88,8.70,-34.64,-44290.89,-3436.49,0.84
3350,-324,-331,1327,638,3567,147.21,-29.62,12.29,13.27,6.38,35.67,8.48,8.56,-34.67,-43649.41,-3416.56,2.09
3544,-243,-477,1382,677,3666,154.11,-28.14,8.15,13.82,6.77,36.66,9.10,8.43,-34.69,-46971.95,-5479.65,3.86
3562,-239,-499,1395,684,3636,160.42,-26.79,4.30,13.95,6.84,36.36,9.74,8.30,-34.69,-44523.45,-4954.50,4.54
3695,-121,-535,1451,811,3420,166.92,-24.85,0.60,14.51,8.11,34.20,10.41,8.18,-34.67,-45943.52,-8066.22,5.32
3742,-112,-528,1438,939,3346,173.06,-23.05,-2.68,14.38,9.39,33.46,11.10,8.08,-34.64,-44582.62,-7496.59,5.68
3616,-179,-444,1464,1123,3370,177.81,-21.83,-5.12,14.64,11.23,33.70,11.81,7.98,-34.61,-37944.59,-4599.74,5.29
3524,-213,-429,1508,1114,3299,181.52,-20.95,-7.22,15.08,11.14,32.99,12.53,7.88,-34.56,-32981.03,-2998.18,5.43
3091,-267,-402,1562,1251,3318,182.23,-20.48,-8.95,15.62,12.51,33.18,13.26,7.79,-34.51,-17755.73,-912.25,5.42
2596,-221,-381,1580,1430,3175,179.84,-19.78,-10.38,15.80,14.30,31.75,13.98,7.71,-34.45,-1902.75,-2152.15,5.42
2460,-206,-376,1592,1438,3144,176.86,-19.06,-11.64,15.92,14.38,31.44,14.68,7.63,-34.38,1313.93,-2315.36,5.54
2036,-115,-433,1740,1294,3030,171.59,-17.86,-13.12,17.40,12.94,30.30,15.36,7.56,-34.32,13322.50,-4857.59,6.21
1970,-91,-457,1715,1302,2979,166.45,-16.63,-14.59,17.15,13.02,29.79,16.02,7.49,-34.24,13077.63,-5082.69,6.60
1840,24,-498,1745,1370,2931,161.03,-14.82,-16.17,17.45,13.70,29.31,16.66,7.43,-34.16,14898.71,-8156.30,7.15
1819,55,-495,1731,1399,2882,156.02,-13.00,-17.57,17.31,13.99,28.82,17.28,7.39,-34.08,13172.54,-8336.69,7.31
1775,164,-430,1690,1503,2753,151.25,-10.70,-18.44,16.90,15.03,27.53,17.88,7.35,-34.00,12350.95,-10964.86,6.86
1698,237,-279,1618,1691,2605,146.48,-8.18,-18.30,16.18,16.91,26.05,18.46,7.33,-33.92,12668.44,-12250.03,5.56
1660,250,-228,1606,1736,2601,141.96,-5.84,-17.86,16.06,17.36,26.01,19.03,7.31,-33.84,11764.09,-11555.43,5.07
1476,299,-47,1590,1826,2499,136.77,-3.43,-16.36,15.90,18.26,24.99,19.57,7.30,-33.78,15555.52,-12067.79,3.35
1422,303,-9,1587,1841,2451,131.76,-1.24,-14.78,15.87,18.41,24.51,20.10,7.30,-33.72,14968.08,-11137.80,2.82
1239,321,86,1569,1905,2281,126.15,0.84,-12.78,15.69,19.05,22.81,20.61,7.31,-33.67,18518.07,-10742.73,1.76
1157,361,110,1555,1930,2186,120.59,2.96,-10.83,15.55,19.30,21.86,21.09,7.32,-33.64,18624.30,-11087.05,1.30
978,564,157,1506,2123,2076,114.50,6.10,-8.79,15.06,21.23,20.76,21.56,7.34,-33.61,21806.20,-16538.23,0.64
928,653,170,1490,2100,2103,108.71,9.48,-6.87,14.90,21.00,21.03,22.00,7.37,-33.60,20699.42,-17956.99,0.28
606,1026,142,1443,2159,2070,101.53,14.79,-5.32,14.43,21.59,20.70,22.42,7.41,-33.61,28274.28,-28200.78,0.32
509,1125,124,1465,2163,2031,94.48,20.17,-4.03,14.65,21.63,20.31,22.81,7.48,-33.63,28171.37,-28984.52,0.31
124,1433,117,1356,2025,2148,85.79,26.90,-2.91,13.56,20.25,21.48,23.17,7.57,-33.66,37174.73,-36304.66,0.22
7,1501,114,1370,2103,2238,77.26,33.36,-1.93,13.70,21.03,22.38,23.49,7.68,-33.71,37035.84,-35495.30,0.12
-447,1716,104,1238,2139,2522,66.80,40.49,-1.10,12.38,21.39,25.22,23.78,7.81,-33.77,47556.26,-39418.84,0.10
-584,1753,109,1219,2144,2616,56.56,47.14,-0.32,12.19,21.44,26.16,24.02,7.97,-33.85,47275.38,-37457.47,-0.04
-1146,1791,121,1111,2074,2766,43.91,53.35,0.45,11.11,20.74,27.66,24.22,8.15,-33.94,60443.04,-35741.54,-0.23
-1459,1760,125,1053,2073,2886,30.62,58.75,1.16,10.53,20.73,28.86,24.36,8.34,-34.04,64732.60,-32047.14,-0.36
-2264,1735,115,916,2043,3094,13.75,63.46,1.75,9.16,20.43,30.94,24.44,8.55,-34.15,84201.98,-28896.78,-0.35
-2512,1731,108,887,2030,3115,-2.95,67.67,2.23,8.87,20.30,31.15,24.45,8.78,-34.28,84598.09,-26710.20,-0.35
-3539,1680,88,758,1957,3033,-24.24,71.15,2.55,7.58,19.57,30.33,24.38,9.02,-34.41,109552.62,-23263.96,-0.21
-3833,1659,74,724,1905,3026,-45.20,74.16,2.74,7.24,19.05,30.26,24.23,9.27,-34.54,109458.88,-21081.72,-0.12
-5027,1698,-44,701,1709,2999,-71.34,77.10,2.20,7.01,17.09,29.99,23.97,9.53,-34.68,137797.14,-20994.01,0.96
-5221,1717,-75,648,1617,2960,-96.06,79.86,1.52,6.48,16.17,29.60,23.61,9.80,-34.81,132436.86,-20305.39,1.31
-5943,1880,-278,503,1277,3076,-122.70,83.34,-0.33,5.03,12.77,30.76,23.15,10.09,-34.95,144298.42,-24220.47,3.27
-6361,2149,-560,368,882,3355,-149.24,88.12,-3.71,3.68,8.82,33.55,22.56,10.40,-35.07,145760.97,-31152.36,6.10
-6429,2225,-636,286,761,3468,-173.53,92.88,-7.22,2.86,7.61,34.68,21.88,10.74,-35.18,136276.38,-31452.72,7.20
-6714,2339,-965,268,354,3719,-197.13,97.86,-12.38,2.68,3.54,37.19,21.10,11.11,-35.28,134593.98,-32953.76,10.65
-6799,2280,-1029,258,246,3704,-218.89,101.98,-17.42,2.58,2.46,37.04,20.22,11.51,-35.36,126930.73,-28922.36,11.84
-7044,1971,-1173,212,-322,3899,-239.97,103.81,-22.83,2.12,-3.22,38.99,19.26,11.92,-35.41,125104.40,-17410.96,13.76
-7088,1895,-1196,143,-502,3891,-259.21,104.99,-27.85,1.43,-5.02,38.91,18.21,12.35,-35.44,117261.48,-14228.99,14.60
-7018,1707,-1214,-28,-1219,3868,-276.10,104.90,-32.47,-0.28,-12.19,38.68,17.09,12.78,-35.44,106643.73,-7810.73,15.35
-6384,1690,-1083,-90,-1219,3748,-287.43,104.72,-35.83,-0.90,-12.19,37.48,15.92,13.22,-35.42,79333.47,-7320.78,14.67
-6136,1678,-1172,-153,-1511,3740,-296.12,104.48,-39.39,-1.53,-15.11,37.40,14.71,13.66,-35.37,66589.92,-7029.72,15.88
-5739,1342,-1271,-301,-1959,3939,-301.51,102.22,-43.21,-3.01,-19.59,39.39,13.47,14.10,-35.30,50324.48,3419.24,17.21
-4836,1256,-1245,-489,-2373,3664,-300.86,99.66,-46.48,-4.89,-23.73,36.64,12.23,14.53,-35.20,19600.22,5123.62,17.41
-4564,1199,-1227,-458,-2507,3695,-298.62,97.01,-49.32,-4.58,-25.07,36.95,10.98,14.94,-35.07,11357.20,5785.97,17.61
-3373,945,-1122,-584,-2965,3760,-289.33,93.07,-51.23,-5.84,-29.65,37.60,9.77,15.35,-34.93,-25067.87,12599.26,16.97
-3100,880,-1088,-619,-3042,3756,-279.31,89.13,-52.74,-6.19,-30.42,37.56,8.59,15.73,-34.77,-29557.90,12910.39,16.87
-2353,557,-920,-707,-3196,3829,-265.73,83.62,-53.08,-7.07,-31.96,38.29,7.46,16.09,-34.59,-48621.45,21328.41,15.49
-2012,118,-706,-746,-3223,3626,-251.43,75.98,-52.08,-7.46,-32.23,36.26,6.39,16.42,-34.41,-53368.78,32701.24,13.54
-1837,92,-612,-752,-2972,3485,-237.49,68.94,-50.60,-7.52,-29.72,34.85,5.37,16.71,-34.22,-52583.55,30163.54,12.55
-1139,-23,-167,-550,-3112,3296,-220.69,61.90,-46.56,-5.50,-31.12,32.96,4.42,16.97,-34.04,-68393.86,30688.70,8.25
-1119,-208,176,-768,-3250,3115,-205.45,54.45,-40.83,-7.68,-32.50,31.15,3.53,17.20,-33.88,-61642.92,33415.10,4.61
-1119,-204,250,-814,-3318,3031,-191.73,47.76,-35.22,-8.14,-33.18,30.31,2.71,17.40,-33.74,-54947.48,30016.12,3.26
-1346,-266,426,-859,-3405,2930,-180.77,41.36,-29.10,-8.59,-34.05,29.30,1.93,17.57,-33.62,-41787.44,29029.40,0.97
-1641,-231,546,-759,-3301,2785,-172.70,35.81,-22.86,-7.59,-33.01,27.85,1.19,17.71,-33.52,-27699.55,25122.20,-0.85
-1784,-189,585,-731,-3342,2650,-166.31,31.08,-17.01,-7.31,-33.42,26.50,0.48,17.84,-33.45,-19658.45,21369.45,-1.93
-2017,-65,638,-704,-3383,2493,-161.99,27.57,-11.42,-7.04,-33.83,24.93,-0.20,17.95,-33.39,-9525.47,15395.42,-3.10
-2136,108,660,-650,-3407,2381,-158.82,25.48,-6.25,-6.50,-34.07,23.81,-0.86,18.05,-33.36,-3878.44,8420.86,-3.95
-2152,156,664,-639,-3385,2340,-156.06,23.88,-1.57,-6.39,-33.85,23.40,-1.51,18.14,-33.35,-1976.51,5990.89,-4.59
-2135,362,688,-612,-3395,2291,-153.48,23.70,2.78,-6.12,-33.95,22.91,-2.14,18.24,-33.35,-1293.60,-1183.95,-5.35
-2118,418,693,-597,-3411,2288,-151.05,23.88,6.73,-5.97,-34.11,22.88,-2.75,18.33,-33.37,-686.17,-3024.07,-5.90
-1998,574,698,-504,-3445,2180,-148.13,24.99,10.32,-5.04,-34.45,21.80,-3.35,18.43,-33.40,-3383.58,-7849.19,-6.41
-1796,630,679,-487,-3535,2139,-144.28,26.34,13.43,-4.87,-35.35,21.39,-3.93,18.54,-33.44,-8443.79,-9122.53,-6.64
-1721,636,666,-501,-3558,2145,-140.35,27.58,16.15,-5.01,-35.58,21.45,-4.49,18.65,-33.50,-9100.84,-8723.72,-6.88
-1356,644,621,-487,-3638,2109,-134.58,28.75,18.32,-4.87,-36.38,21.09,-5.03,18.77,-33.56,-18840.37,-8430.71,-6.78
-1133,645,602,-475,-3690,2116,-128.04,29.81,20.16,-4.75,-36.90,21.16,-5.54,18.90,-33.62,-23313.98,-7951.03,-6.85
-636,635,583,-399,-3741,2134,-119.11,30.70,21.70,-3.99,-37.41,21.34,-6.01,19.02,-33.70,-36055.07,-7174.36,-6.89
-166,630,602,-423,-3857,2187,-108.21,31.48,23.20,-4.23,-38.57,21.87,-6.43,19.16,-33.77,-46906.30,-6628.06,-7.24
-48,621,608,-418,-3889,2203,-97.69,32.12,24.59,-4.18,-38.89,22.03,-6.81,19.29,-33.85,-45830.60,-6008.60,-7.47
450,548,631,-353,-4014,2179,-85.17,32.25,25.98,-3.53,-40.14,21.79,-7.14,19.43,-33.94,-56859.70,-3435.86,-7.84
617,508,635,-346,-4054,2176,-72.89,32.12,27.26,-3.46,-40.54,21.76,-7.42,19.57,-34.03,-56617.45,-2123.49,-8.03
1314,324,677,-290,-4161,2330,-57.59,30.89,28.66,-2.90,-41.61,23.30,-7.64,19.70,-34.13,-73133.80,3601.55,-8.57
2020,93,913,-177,-3873,2543,-39.51,28.37,31.36,-1.77,-38.73,25.43,-7.77,19.83,-34.24,-88608.55,10317.17,-10.91
2157,10,995,-162,-3857,2619,-22.40,25.59,34.30,-1.62,-38.57,26.19,-7.84,19.95,-34.36,-84986.05,11818.35,-11.98
2683,-238,1149,-316,-3973,2724,-3.79,21.58,37.88,-3.16,-39.73,27.24,-7.82,20.05,-34.50,-94015.71,18393.55,-13.74
2892,-379,1151,-242,-3906,2825,14.23,17.11,41.11,-2.42,-39.06,28.25,-7.73,20.13,-34.66,-92427.95,21064.89,-14.17
3161,-745,1161,-53,-3618,2827,32.09,10.85,44.08,-0.53,-36.18,28.27,-7.56,20.19,-34.83,-92983.68,30606.16,-14.63
3209,-843,1164,-15,-3561,2845,48.45,4.63,46.77,-0.15,-35.61,28.45,-7.31,20.23,-35.02,-86666.03,30942.85,-15.00
3326,-1154,1080,-41,-3547,2928,63.90,-2.88,48.68,-0.41,-35.47,29.28,-7.01,20.24,-35.22,-83172.38,37985.84,-14.53
3489,-1363,911,115,-3172,2900,78.79,-10.90,49.37,1.15,-31.72,29.00,-6.63,20.21,-35.43,-81529.89,41265.24,-13.18
3532,-1400,882,168,-3057,2857,92.46,-18.35,49.82,1.68,-30.57,28.57,-6.21,20.15,-35.65,-76358.30,38909.84,-12.99
3698,-1451,715,220,-2861,2868,105.77,-25.37,49.20,2.20,-28.61,28.68,-5.72,20.06,-35.86,-75590.84,37247.82,-11.49
3882,-1289,356,246,-2708,2954,118.87,-30.69,46.45,2.46,-27.08,29.54,-5.19,19.95,-36.06,-75545.01,29082.70,-8.09
3919,-1221,256,276,-2624,2979,130.89,-35.07,43.36,2.76,-26.24,29.79,-4.62,19.81,-36.25,-70971.77,24612.77,-6.84
4008,-930,-41,400,-2284,3041,142.25,-37.24,38.78,4.00,-22.84,30.41,-4.01,19.67,-36.42,-68508.77,13550.42,-3.73
4063,-799,-139,418,-2203,3086,152.81,-38.39,34.05,4.18,-22.03,30.86,-3.36,19.51,-36.57,-65266.72,8486.55,-2.29
4118,-558,-321,484,-2081,3240,162.65,-37.95,28.69,4.84,-20.81,32.40,-2.68,19.35,-36.70,-62376.18,411.13,-0.05
4123,-504,-360,498,-2042,3264,171.53,-37.23,23.62,4.98,-20.42,32.64,-1.97,19.20,-36.80,-58230.54,-1092.74,0.93
4084,-367,-469,548,-1903,3306,179.29,-35.75,18.40,5.48,-19.03,33.06,-1.24,19.05,-36.88,-53120.48,-5079.66,2.53
3969,-239,-543,551,-1688,3399,185.57,-33.63,13.25,5.51,-16.88,33.99,-0.50,18.90,-36.93,-46116.21,-8449.07,3.82
3926,-201,-548,570,-1626,3398,190.97,-31.49,8.58,5.70,-16.26,33.98,0.27,18.76,-36.96,-42022.56,-8713.04,4.46
3724,-73,-516,604,-1345,3442,194.59,-28.79,4.57,6.04,-13.45,34.42,1.04,18.63,-36.98,-33322.80,-11796.67,4.71
3659,-46,-494,609,-1249,3457,197.45,-26.19,1.10,6.09,-12.49,34.57,1.82,18.51,-36.98,-29704.97,-11457.83,4.97
3414,14,-421,584,-1053,3514,198.53,-23.49,-1.57,5.84,-10.53,35.14,2.60,18.40,-36.96,-20763.04,-12202.55,4.69
3192,40,-382,570,-778,3554,198.15,-20.89,-3.75,5.70,-7.78,35.54,3.37,18.31,-36.94,-13324.57,-11832.40,4.64
3095,54,-362,575,-623,3572,197.21,-18.48,-5.58,5.75,-6.23,35.72,4.15,18.22,-36.91,-10455.29,-11134.35,4.71
2897,114,-328,575,-315,3586,195.16,-15.93,-7.02,5.75,-3.15,35.86,4.91,18.14,-36.87,-4654.57,-11958.25,4.60
2848,140,-324,540,-267,3598,193.02,-13.49,-8.30,5.40,-2.67,35.98,5.66,18.07,-36.83,-4024.64,-11659.43,4.73
2680,258,-334,422,-62,3683,190.06,-10.56,-9.51,4.22,-0.62,36.83,6.41,18.02,-36.78,303.96,-14293.92,4.97
2641,291,-337,388,15,3694,187.17,-7.73,-10.61,3.88,0.15,36.94,7.13,17.98,-36.73,223.50,-14049.12,5.14
2488,409,-354,323,155,3844,183.63,-4.46,-11.71,3.23,1.55,38.44,7.85,17.95,-36.68,3750.94,-16515.59,5.42
2458,427,-363,313,150,3854,180.26,-1.41,-12.75,3.13,1.50,38.54,8.55,17.93,-36.62,3131.06,-15648.26,5.63
2325,419,-421,355,331,3815,176.42,1.28,-14.05,3.55,3.31,38.15,9.23,17.93,-36.57,5823.22,-14059.17,6.29
2300,396,-430,357,396,3817,172.80,3.57,-15.26,3.57,3.96,38.17,9.90,17.94,-36.50,4913.67,-12154.01,6.52
2236,304,-457,284,594,3862,169.16,5.07,-16.52,2.84,5.94,38.62,10.56,17.95,-36.44,5331.61,-8260.35,6.91
2222,273,-459,298,686,3842,165.80,6.23,-17.67,2.98,6.86,38.42,11.20,17.97,-36.37,4165.60,-6630.05,7.07
2205,192,-469,326,788,3744,162.67,6.78,-18.77,3.26,7.88,37.44,11.83,18.00,-36.30,3216.34,-3577.07,7.29
2205,167,-479,361,918,3705,159.85,7.12,-19.81,3.61,9.18,37.05,12.45,18.02,-36.22,1834.82,-2551.39,7.51
2232,86,-578,344,774,3631,157.48,6.93,-21.36,3.44,7.74,36.31,13.05,18.05,-36.14,-257.73,143.22,8.55
2224,81,-554,330,646,3636,155.30,6.73,-22.60,3.30,6.46,36.36,13.65,18.08,-36.06,-1054.52,217.86,8.50
2164,83,-504,365,984,3456,152.97,6.56,-23.41,3.65,9.84,34.56,14.23,18.11,-35.97,-134.52,67.35,8.18
2153,77,-493,415,1037,3439,150.81,6.38,-24.08,4.15,10.37,34.39,14.81,18.14,-35.88,-819.01,182.30,8.17
2052,70,-444,408,1103,3392,148.25,6.17,-24.38,4.08,11.03,33.92,15.37,18.17,-35.79,1397.66,319.94,7.79
2010,75,-423,401,1138,3397,145.68,6.01,-24.52,4.01,11.38,33.97,15.93,18.21,-35.69,1585.13,69.93,7.63
1780,92,-308,401,1241,3379,141.97,5.97,-23.95,4.01,12.41,33.79,16.47,18.24,-35.60,7680.93,-534.58,6.58
1635,81,-236,418,1308,3340,137.75,5.87,-22.99,4.18,13.08,33.40,17.00,18.27,-35.52,10602.99,-206.72,5.84
1306,29,-83,477,1435,3232,131.94,5.46,-21.20,4.77,14.35,32.32,17.51,18.30,-35.44,19082.69,1381.95,4.32
1217,16,-49,502,1486,3209,126.17,5.01,-19.38,5.02,14.86,32.09,18.00,18.32,-35.37,19325.73,1610.51,3.79
951,18,38,458,1504,3125,119.35,4.62,-17.21,4.58,15.04,31.25,18.46,18.35,-35.31,25148.18,1350.93,2.77
894,37,43,471,1584,3132,112.87,4.38,-15.23,4.71,15.84,31.32,18.90,18.37,-35.26,23944.58,582.14,2.48
757,142,75,406,1779,3024,106.20,4.81,-13.25,4.06,17.79,30.24,19.32,18.38,-35.22,25401.76,-2821.31,1.95
745,167,70,406,1814,3041,100.13,5.35,-11.49,4.06,18.14,30.41,19.72,18.40,-35.18,22848.82,-3419.54,1.76
811,289,7,400,1788,3101,95.06,6.57,-10.30,4.00,17.88,31.01,20.09,18.43,-35.15,18105.30,-7018.03,2.14
838,318,-14,401,1796,3136,90.67,7.86,-9.36,4.01,17.96,31.36,20.46,18.45,-35.13,15030.52,-7391.30,2.20
839,359,-62,361,1783,3314,86.72,9.26,-8.80,3.61,17.83,33.14,20.80,18.48,-35.11,13067.28,-8118.02,2.53
818,356,-69,357,1768,3329,83.04,10.51,-8.34,3.57,17.68,33.29,21.13,18.52,-35.09,11990.96,-7408.65,2.53
844,351,-41,335,1799,3387,79.88,11.60,-7.76,3.35,17.99,33.87,21.46,18.55,-35.08,9554.79,-6706.06,2.22
904,374,-27,334,1804,3350,77.41,12.72,-7.15,3.34,18.04,33.50,21.77,18.59,-35.08,6281.22,-6951.41,2.02
1026,309,19,359,1823,3335,75.92,13.33,-6.32,3.59,18.23,33.35,22.08,18.64,-35.07,1358.13,-4417.61,1.53
1056,288,24,344,1824,3334,74.77,13.76,-5.54,3.44,18.24,33.34,22.38,18.68,-35.08,-239.07,-3489.56,1.39
1237,263,20,282,1879,3279,74.84,13.98,-4.86,2.82,18.79,32.79,22.69,18.72,-35.08,-6436.34,-2518.84,1.33
1296,264,19,281,1898,3272,75.26,14.20,-4.26,2.81,18.98,32.72,23.00,18.76,-35.09,-8265.23,-2450.62,1.26
1423,253,-17,262,2009,3311,76.42,14.32,-3.94,2.62,20.09,33.11,23.31,18.80,-35.10,-12076.37,-2012.64,1.53
1431,247,-28,241,2003,3290,77.50,14.39,-3.71,2.41,20.03,32.90,23.63,18.84,-35.11,-11826.72,-1770.50,1.59
1508,206,36,233,1904,3247,78.95,14.21,-3.12,2.33,19.04,32.47,23.96,18.88,-35.13,-13774.72,-449.90,0.97
1583,208,66,222,1971,3227,80.71,14.06,-2.41,2.22,19.71,32.27,24.29,18.92,-35.14,-15501.79,-593.50,0.63
1674,172,117,216,2095,3194,82.85,13.70,-1.45,2.16,20.95,31.94,24.63,18.96,-35.16,-17594.71,470.48,0.07
1680,158,130,211,2139,3154,84.82,13.30,-0.52,2.11,21.39,31.54,24.99,18.99,-35.19,-16850.44,753.54,-0.16
1613,85,176,229,2265,3016,86.17,12.49,0.61,2.29,22.65,30.16,25.35,19.02,-35.22,-13890.00,2868.99,-0.69
1614,82,183,220,2287,2967,87.40,11.74,1.66,2.20,22.87,29.67,25.72,19.04,-35.25,-13331.82,2607.30,-0.88
1719,119,195,208,2433,2858,89.15,11.29,2.69,2.08,24.33,28.58,26.10,19.06,-35.28,-16098.93,1116.16,-1.12
1724,133,187,173,2479,2856,90.75,10.97,3.56,1.73,24.79,28.56,26.48,19.08,-35.32,-15496.59,479.61,-1.16
1657,180,224,81,2514,2885,91.78,10.97,4.57,0.81,25.14,28.85,26.87,19.10,-35.36,-12694.83,-1136.88,-1.60
1633,196,235,65,2562,2858,92.57,11.07,5.55,0.65,25.62,28.58,27.27,19.11,-35.41,-11493.87,-1639.55,-1.82
1514,196,269,63,2580,2776,92.54,11.16,6.63,0.63,25.80,27.76,27.67,19.13,-35.46,-7416.94,-1596.62,-2.25
1458,169,269,75,2627,2732,92.18,11.07,7.61,0.75,26.27,27.32,28.06,19.14,-35.51,-5672.42,-709.47,-2.37
1335,110,244,95,2744,2619,91.11,10.64,8.34,0.95,27.44,26.19,28.46,19.15,-35.57,-1971.14,1107.25,-2.25
1310,100,236,80,2787,2573,89.99,10.18,8.94,0.80,27.87,25.73,28.85,19.15,-35.63,-1662.68,1230.09,-2.26
1252,115,195,86,2807,2479,88.63,9.87,9.24,0.86,28.07,24.79,29.24,19.15,-35.69,-336.86,559.71,-1.95
1236,123,182,88,2819,2450,87.30,9.63,9.43,0.88,28.19,24.50,29.62,19.16,-35.74,-436.82,169.33,-1.86
1190,164,151,80,2866,2370,85.83,9.67,9.40,0.80,28.66,23.70,29.99,19.16,-35.80,423.01,-1222.80,-1.59
1175,172,149,86,2866,2365,84.42,9.75,9.37,0.86,28.66,23.65,30.36,19.16,-35.86,243.68,-1457.88,-1.57
1129,176,148,115,2838,2291,82.86,9.85,9.34,1.15,28.38,22.91,30.73,19.16,-35.92,1063.04,-1547.49,-1.56
1119,176,148,118,2844,2283,81.40,9.94,9.31,1.18,28.44,22.83,31.08,19.17,-35.98,690.20,-1504.32,-1.55
1070,187,167,99,2866,2218,79.79,10.08,9.39,0.99,28.66,22.18,31.44,19.17,-36.04,1584.50,-1811.15,-1.72
1035,184,186,92,2880,2179,78.12,10.20,9.59,0.92,28.80,21.79,31.78,19.17,-36.11,1971.88,-1652.49,-1.91
907,200,234,64,2925,2153,75.84,10.40,10.06,0.64,29.25,21.53,32.12,19.17,-36.17,5259.13,-2105.39,-2.37
859,208,248,62,2946,2134,73.50,10.63,10.57,0.62,29.46,21.34,32.45,19.18,-36.24,5763.17,-2269.07,-2.55
643,218,295,63,3010,2096,70.07,10.89,11.31,0.63,30.10,20.96,32.76,19.18,-36.31,11518.47,-2482.97,-3.05
578,215,302,51,3018,2094,66.59,11.12,12.02,0.51,30.18,20.94,33.07,19.18,-36.38,12053.78,-2271.61,-3.19
371,180,322,11,3076,2005,62.19,11.10,12.78,0.11,30.76,20.05,33.35,19.17,-36.46,17028.27,-1074.34,-3.46
336,171,327,-12,3089,2004,58.02,11.04,13.50,-0.12,30.89,20.04,33.63,19.17,-36.53,16196.79,-797.45,-3.59
326,219,343,-94,3200,2023,54.21,11.27,14.24,-0.94,32.00,20.23,33.88,19.17,-36.62,14679.03,-2335.29,-3.82
342,235,342,-95,3209,1997,50.88,11.57,14.90,-0.95,32.09,19.97,34.13,19.16,-36.70,12500.44,-2736.17,-3.90
385,253,302,-146,3224,2062,48.14,11.96,15.25,-1.46,32.24,20.62,34.36,19.16,-36.79,9683.50,-3167.30,-3.60
376,234,270,-157,3229,2060,45.62,12.19,15.38,-1.57,32.29,20.60,34.59,19.15,-36.88,8762.06,-2401.00,-3.34
350,187,202,-209,3250,2058,43.19,12.11,15.07,-2.09,32.50,20.58,34.80,19.15,-36.96,8471.00,-822.51,-2.73
347,181,190,-221,3252,2062,40.99,12.01,14.72,-2.21,32.52,20.62,35.01,19.14,-37.05,7498.27,-668.31,-2.58
279,142,176,-242,3235,2105,38.59,11.67,14.32,-2.42,32.35,21.05,35.21,19.14,-37.13,8666.73,510.34,-2.41
246,126,176,-249,3239,2098,36.23,11.27,13.97,-2.49,32.39,20.98,35.39,19.13,-37.21,8650.14,866.61,-2.36
277,118,183,-270,3258,1943,34.30,10.87,13.69,-2.70,32.58,19.43,35.57,19.13,-37.29,6639.24,943.35,-2.38
283,101,182,-268,3261,1976,32.60,10.40,13.43,-2.68,32.61,19.76,35.74,19.12,-37.37,5600.43,1299.03,-2.33
214,29,172,-290,3275,1990,30.64,9.53,13.13,-2.90,32.75,19.90,35.90,19.11,-37.44,7019.48,3355.55,-2.21
198,23,167,-299,3272,1989,28.78,8.72,12.84,-2.99,32.72,19.89,36.05,19.10,-37.51,6663.25,3166.08,-2.13
131,-13,149,-258,3202,1992,26.71,7.77,12.46,-2.58,32.02,19.92,36.20,19.09,-37.58,7952.76,3941.20,-1.93
114,-47,148,-238,3135,1954,24.73,6.70,12.12,-2.38,31.35,19.54,36.33,19.07,-37.64,7573.34,4592.88,-1.87
43,-177,179,-242,3095,1887,22.52,4.95,12.00,-2.42,30.95,18.87,36.45,19.05,-37.70,8936.77,8212.29,-2.12
19,-208,206,-247,3124,1841,20.38,3.19,12.06,-2.47,31.24,18.41,36.57,19.02,-37.76,8720.04,8419.59,-2.35
-86,-306,327,-266,3209,1678,17.82,1.00,12.85,-2.66,32.09,16.78,36.67,18.99,-37.81,11081.71,10726.37,-3.48
-102,-304,350,-281,3247,1646,15.42,-0.95,13.70,-2.81,32.47,16.46,36.76,18.95,-37.86,10459.48,9705.96,-3.78
-28,-171,368,-311,3420,1499,13.70,-1.90,14.57,-3.11,34.20,14.99,36.85,18.90,-37.91,7078.60,4670.01,-4.04
29,-105,349,-323,3444,1499,12.51,-2.35,15.24,-3.23,34.44,14.99,36.93,18.85,-37.96,4535.34,2181.02,-3.97
53,12,195,-319,3478,1662,11.58,-2.04,14.91,-3.19,34.78,16.62,37.00,18.80,-38.01,3256.70,-1692.62,-2.62
-7,15,145,-303,3455,1732,10.38,-1.75,14.30,-3.03,34.55,17.32,37.08,18.75,-38.06,4734.42,-1651.11,-2.12
-75,140,-26,-312,3372,1739,8.89,-0.72,12.71,-3.12,33.72,17.39,37.14,18.71,-38.10,6343.86,-5449.12,-0.46
5,180,-74,-303,3326,1723,8.03,0.45,10.99,-3.03,33.26,17.23,37.20,18.68,-38.15,3173.16,-6254.73,0.17
70,198,-95,-327,3263,1965,7.65,1.62,9.31,-3.27,32.63,19.65,37.26,18.65,-38.19,753.40,-6307.19,0.56
26,176,-76,-337,3271,1974,7.05,2.53,7.92,-3.37,32.71,19.74,37.31,18.63,-38.23,1970.55,-5105.87,0.58
-105,114,-12,-346,3265,1989,5.70,2.97,7.05,-3.46,32.65,19.89,37.36,18.61,-38.26,5820.63,-2757.36,0.15
-122,102,0,-347,3259,1965,4.39,3.30,6.35,-3.47,32.59,19.65,37.41,18.60,-38.30,5764.53,-2185.99,0.14
69,139,14,-351,3267,1831,4.37,3.81,5.80,-3.51,32.67,18.31,37.45,18.59,-38.33,-814.63,-3206.02,0.09
116,124,8,-346,3269,1879,4.64,4.19,5.27,-3.46,32.69,18.79,37.49,18.58,-38.36,-2300.07,-2507.26,0.21
147,52,-18,-356,3278,1928,5.07,4.09,4.63,-3.56,32.78,19.28,37.54,18.58,-38.40,-3156.24,-80.09,0.52
164,39,-23,-359,3279,1877,5.57,3.92,4.03,-3.59,32.79,18.77,37.58,18.57,-38.42,-3501.44,283.95,0.64
304,46,-33,-360,3295,1866,6.86,3.81,3.42,-3.60,32.95,18.66,37.63,18.57,-38.45,-7685.58,-10.85,0.80
339,48,-32,-351,3293,1868,8.24,3.72,2.89,-3.51,32.93,18.68,37.69,18.56,-38.48,-8217.31,-122.32,0.86
300,-3,-39,-331,3263,1795,9.25,3.33,2.36,-3.31,32.63,17.95,37.75,18.56,-38.50,-6386.88,1441.98,0.99
303,-9,-46,-324,3257,1769,10.17,2.94,1.84,-3.24,32.57,17.69,37.81,18.56,-38.52,-6041.24,1459.57,1.12
370,6,-69,-309,3275,1666,11.41,2.68,1.24,-3.09,32.75,16.66,37.87,18.56,-38.53,-7742.98,818.27,1.39
378,11,-73,-303,3261,1666,12.58,2.48,0.67,-3.03,32.61,16.66,37.94,18.55,-38.55,-7451.96,548.32,1.50
289,-5,-81,-288,3211,1680,13.08,2.20,0.11,-2.88,32.11,16.80,38.01,18.55,-38.56,-4145.61,962.97,1.64
244,-10,-80,-279,3212,1671,13.26,1.92,-0.39,-2.79,32.12,16.71,38.08,18.55,-38.57,-2511.06,997.96,1.69
104,-9,-60,-279,3190,1623,12.57,1.67,-0.72,-2.79,31.90,16.23,38.15,18.55,-38.57,1966.49,843.23,1.57
83,3,-53,-276,3197,1617,11.82,1.53,-0.97,-2.76,31.97,16.17,38.21,18.55,-38.58,2322.13,357.82,1.54
135,70,-22,-299,3230,1546,11.46,1.80,-1.01,-2.99,32.30,15.46,38.28,18.55,-38.59,357.88,-1813.10,1.28
107,77,-14,-264,3233,1637,10.97,2.09,-0.99,-2.64,32.33,16.37,38.34,18.55,-38.59,1079.70,-1912.76,1.21
-32,82,-26,-286,3285,1609,9.68,2.38,-1.05,-2.86,32.85,16.09,38.39,18.55,-38.60,5230.68,-1942.90,1.32
-64,89,-32,-291,3300,1626,8.32,2.69,-1.14,-2.91,33.00,16.26,38.44,18.56,-38.61,5669.09,-2035.25,1.38
-179,132,-65,-283,3314,1682,6.39,3.22,-1.42,-2.83,33.14,16.82,38.49,18.56,-38.62,8687.02,-3253.00,1.70
-214,141,-73,-281,3310,1716,4.45,3.76,-1.73,-2.81,33.10,17.16,38.52,18.57,-38.63,8943.00,-3300.67,1.81
-299,156,-89,-293,3267,1802,2.18,4.34,-2.10,-2.93,32.67,18.02,38.55,18.58,-38.64,10761.14,-3536.40,1.99
-326,147,-89,-292,3265,1822,-0.03,4.80,-2.43,-2.92,32.65,18.22,38.57,18.59,-38.65,10614.67,-3001.40,2.03
-462,72,-71,-292,3243,1866,-2.84,4.76,-2.62,-2.92,32.43,18.66,38.57,18.61,-38.66,13921.05,-441.62,1.90
-503,48,-64,-294,3228,1891,-5.63,4.58,-2.75,-2.94,32.28,18.91,38.56,18.62,-38.66,13975.19,294.58,1.86
-664,-16,-46,-287,3209,1898,-9.11,4.02,-2.75,-2.87,32.09,18.98,38.54,18.63,-38.67,17814.43,2225.44,1.71
-736,-33,-42,-290,3205,1903,-12.69,3.42,-2.73,-2.90,32.05,19.03,38.51,18.64,-38.67,18548.50,2516.19,1.67
-868,-41,-39,-284,3159,1894,-16.72,2.82,-2.70,-2.84,31.59,18.94,38.46,18.64,-38.68,21128.72,2503.00,1.64
-904,-42,-41,-280,3156,1896,-20.56,2.29,-2.68,-2.80,31.56,18.96,38.39,18.65,-38.68,20496.18,2274.92,1.66
-1070,-16,-28,-328,3167,1921,-25.03,1.96,-2.58,-3.28,31.67,19.21,38.30,18.65,-38.68,24029.46,1221.63,1.54
-1130,-4,-25,-333,3165,1907,-29.42,1.74,-2.48,-3.33,31.65,19.07,38.20,18.65,-38.68,23956.43,701.46,1.50
-1388,88,-46,-316,3147,1950,-34.95,2.10,-2.51,-3.16,31.47,19.50,38.08,18.66,-38.68,30141.56,-2286.39,1.68
-1459,120,-64,-324,3124,1957,-40.35,2.62,-2.65,-3.24,31.24,19.57,37.93,18.66,-38.69,29952.90,-3133.02,1.85
-1619,263,-145,-301,3011,2041,-46.19,3.97,-3.27,-3.01,30.11,20.41,37.76,18.67,-38.69,32613.81,-7398.30,2.62
-1608,310,-171,-245,2978,2033,-51.38,5.46,-3.98,-2.45,29.78,20.33,37.57,18.69,-38.70,29710.33,-8287.26,2.93
-1263,519,-255,-223,2791,2186,-53.95,8.08,-5.14,-2.23,27.91,21.86,37.37,18.71,-38.71,16596.29,-14200.46,3.79
-1205,497,-269,-252,2758,2511,-55.90,10.30,-6.27,-2.52,27.58,25.11,37.16,18.75,-38.71,13651.76,-12361.01,4.05
-1185,490,-229,-267,2699,2655,-57.54,12.26,-7.04,-2.67,26.99,26.55,36.94,18.79,-38.72,12169.13,-11166.75,3.81
-1090,529,-201,-284,2682,2780,-58.44,14.26,-7.56,-2.84,26.82,27.80,36.72,18.84,-38.74,8468.86,-11534.39,3.64
-691,479,-88,-258,2720,2649,-56.81,15.76,-7.34,-2.58,27.20,26.49,36.50,18.89,-38.76,-4459.09,-9086.79,2.66
-602,432,-49,-245,2747,2760,-54.80,16.82,-6.91,-2.45,27.47,27.60,36.30,18.94,-38.78,-6538.91,-6954.93,2.27
-297,252,69,-316,2747,2798,-51.13,16.67,-5.79,-3.16,27.47,27.98,36.11,18.99,-38.80,-15240.31,-834.65,1.13
-32,97,58,-339,2840,2700,-46.21,15.60,-4.86,-3.39,28.40,27.00,35.95,19.04,-38.83,-21957.41,3972.21,1.10
49,76,39,-359,2882,2656,-41.29,14.50,-4.14,-3.59,28.82,26.56,35.80,19.08,-38.85,-22344.58,4159.92,1.17
295,26,-43,-364,2905,2575,-35.36,13.21,-3.99,-3.64,29.05,25.75,35.68,19.12,-38.88,-27916.36,5250.03,1.85
343,20,-66,-352,2908,2546,-29.74,12.01,-3.99,-3.52,29.08,25.46,35.58,19.16,-38.90,-26824.00,4871.80,2.04
498,30,-148,-318,2894,2470,-23.72,10.99,-4.49,-3.18,28.94,24.70,35.50,19.19,-38.91,-29226.10,4031.37,2.80
512,34,-161,-311,2882,2487,-18.23,10.10,-5.03,-3.11,28.82,24.87,35.44,19.22,-38.93,-27029.72,3458.83,2.98
523,77,-184,-300,2811,2522,-13.22,9.56,-5.65,-3.00,28.11,25.22,35.40,19.25,-38.93,-24965.45,1716.03,3.26
496,71,-182,-289,2789,2508,-8.87,9.04,-6.19,-2.89,27.89,25.08,35.38,19.28,-38.94,-21918.77,1667.20,3.31
353,28,-152,-263,2729,2474,-5.83,8.30,-6.50,-2.63,27.29,24.74,35.37,19.31,-38.94,-15518.87,2788.80,3.10
319,13,-140,-257,2716,2442,-3.30,7.55,-6.70,-2.57,27.16,24.42,35.37,19.34,-38.94,-13117.52,2938.44,3.02
480,70,-96,-217,2694,2217,-0.04,7.23,-6.62,-2.17,26.94,22.17,35.38,19.37,-38.94,-17068.62,817.45,2.64
494,61,-87,-199,2687,2277,2.98,6.87,-6.49,-1.99,26.87,22.77,35.40,19.39,-38.94,-16080.60,955.96,2.54
325,16,-50,-205,2725,2291,4.66,6.28,-6.14,-2.05,27.25,22.91,35.43,19.41,-38.94,-9447.17,2216.16,2.19
272,11,-37,-207,2748,2256,5.85,5.72,-5.76,-2.07,27.48,22.56,35.47,19.43,-38.94,-7043.45,2114.38,2.03
34,14,9,-229,2773,2219,5.48,5.24,-5.12,-2.29,27.73,22.19,35.50,19.45,-38.94,958.43,1773.73,1.56
1,33,16,-239,2780,2223,4.93,4.91,-4.51,-2.39,27.80,22.23,35.53,19.46,-38.94,1829.26,962.94,1.42
-95,86,36,-250,2824,2243,3.86,4.95,-3.84,-2.50,28.24,22.43,35.56,19.47,-38.94,4608.28,-844.14,1.16
-106,100,40,-262,2829,2260,2.83,5.06,-3.22,-2.62,28.29,22.60,35.59,19.49,-38.95,4483.17,-1269.74,1.05
-118,108,49,-277,2887,2288,1.83,5.22,-2.59,-2.77,28.87,22.88,35.61,19.50,-38.96,4407.15,-1470.78,0.89
-99,116,50,-287,2899,2300,1.04,5.40,-2.03,-2.87,28.99,23.00,35.63,19.51,-38.97,3370.16,-1655.46,0.81
-52,109,47,-306,2937,2385,0.62,5.53,-1.54,-3.06,29.37,23.85,35.65,19.52,-38.98,1548.03,-1354.05,0.77
-48,97,42,-313,2940,2386,0.26,5.57,-1.13,-3.13,29.40,23.86,35.67,19.52,-38.99,1237.40,-922.36,0.76
18,63,7,-333,2940,2373,0.35,5.39,-0.97,-3.33,29.40,23.73,35.69,19.53,-39.01,-992.47,163.13,1.04
46,59,-2,-347,2949,2363,0.59,5.21,-0.89,-3.47,29.49,23.63,35.71,19.54,-39.02,-1836.12,213.23,1.11
71,43,-8,-351,2962,2381,0.97,4.95,-0.85,-3.51,29.62,23.81,35.73,19.55,-39.04,-2514.29,637.30,1.15
92,8,-5,-346,2972,2359,1.43,4.51,-0.79,-3.46,29.72,23.59,35.75,19.55,-39.05,-3010.71,1623.55,1.12
92,-1,-3,-344,2977,2352,1.85,4.05,-0.73,-3.44,29.77,23.52,35.78,19.55,-39.06,-2807.43,1710.52,1.10
117,-16,5,-364,3005,2328,2.38,3.55,-0.63,-3.64,30.05,23.28,35.80,19.56,-39.07,-3410.19,1981.57,1.02
119,-20,5,-371,3008,2323,2.87,3.07,-0.54,-3.71,30.08,23.23,35.83,19.56,-39.09,-3241.66,1886.88,1.00
89,-31,6,-427,3057,2356,3.12,2.58,-0.45,-4.27,30.57,23.56,35.86,19.55,-39.10,-2085.35,2023.54,0.98
66,-37,9,-438,3075,2368,3.21,2.09,-0.35,-4.38,30.75,23.68,35.89,19.55,-39.10,-1250.65,1994.58,0.95
48,-29,34,-433,3178,2311,3.18,1.71,-0.10,-4.33,31.78,23.11,35.92,19.55,-39.11,-645.82,1531.39,0.70
59,-39,39,-443,3200,2311,3.23,1.30,0.14,-4.43,32.00,23.11,35.95,19.54,-39.12,-1004.45,1676.47,0.63
27,-86,4,-424,3199,2300,3.07,0.64,0.15,-4.24,31.99,23.00,35.98,19.53,-39.13,18.92,2974.51,0.92
10,-103,-52,-406,3194,2228,2.82,-0.05,-0.18,-4.06,31.94,22.28,36.00,19.52,-39.13,483.53,3222.02,1.44
10,-53,-211,-424,3137,2210,2.60,-0.37,-1.45,-4.24,31.37,22.10,36.03,19.52,-39.13,375.40,1347.20,2.95
-2,-30,-256,-409,3113,2239,2.33,-0.51,-2.86,-4.09,31.13,22.39,36.05,19.51,-39.13,655.21,484.92,3.52
-235,-52,-402,-358,2962,2288,0.66,-0.78,-5.03,-3.58,29.62,22.88,36.06,19.51,-39.11,7857.86,1112.21,5.03
-248,-34,-425,-304,2925,2219,-0.92,-0.91,-7.12,-3.04,29.25,22.19,36.06,19.51,-39.09,7535.80,429.99,5.49
-287,-76,-416,-213,2804,2182,-2.58,-1.28,-8.95,-2.13,28.04,21.82,36.05,19.52,-39.06,8069.25,1693.07,5.65
-311,-84,-389,-239,2785,2189,-4.22,-1.67,-10.42,-2.39,27.85,21.89,36.04,19.52,-39.03,8096.37,1780.99,5.61
-416,-55,-225,-237,2819,2220,-6.33,-1.84,-10.75,-2.37,28.19,22.20,36.01,19.53,-38.99,10677.67,701.09,4.26
-458,-39,-174,-229,2820,2254,-8.49,-1.89,-10.74,-2.29,28.20,22.54,35.98,19.54,-38.95,11070.35,124.14,3.83
-641,4,-20,-185,2850,2237,-11.55,-1.68,-9.79,-1.85,28.50,22.37,35.93,19.54,-38.92,15874.67,-1251.08,2.40
-762,9,36,-174,2853,2275,-15.05,-1.45,-8.59,-1.74,28.53,22.75,35.88,19.54,-38.89,18336.12,-1314.71,1.77
-1073,33,105,-214,2801,2333,-20.09,-1.11,-7.09,-2.14,28.01,23.33,35.80,19.54,-38.87,26579.34,-1971.37,0.99
-1175,44,114,-225,2799,2371,-25.25,-0.73,-5.69,-2.25,27.99,23.71,35.70,19.54,-38.85,27576.28,-2165.04,0.74
-1647,119,145,-354,2791,2494,-32.77,0.07,-4.23,-3.54,27.91,24.94,35.58,19.54,-38.84,40149.37,-4355.72,0.29
-1804,131,151,-381,2803,2542,-40.50,0.86,-2.89,-3.81,28.03,25.42,35.43,19.53,-38.84,41787.68,-4382.61,0.06
-2539,143,164,-434,2645,2728,-51.93,1.65,-1.60,-4.34,26.45,27.28,35.23,19.53,-38.84,61500.68,-4412.39,-0.21
-2771,125,158,-344,2631,2709,-63.64,2.25,-0.48,-3.44,26.31,27.09,34.99,19.52,-38.85,63780.37,-3502.02,-0.31
-3699,-42,102,-242,2556,2708,-79.84,1.77,0.19,-2.42,25.56,27.08,34.68,19.51,-38.86,87814.42,2008.24,0.08
-3949,-88,76,-181,2526,2731,-95.95,1.05,0.64,-1.81,25.26,27.31,34.31,19.49,-38.86,88574.38,3243.23,0.25
-4735,-185,-60,-197,2271,2733,-115.24,-0.18,0.21,-1.97,22.71,27.33,33.85,19.48,-38.87,106221.37,5979.06,1.45
-4972,-166,-156,-211,2107,2804,-134.04,-1.18,-0.76,-2.11,21.07,28.04,33.32,19.46,-38.86,105220.89,4841.38,2.39
-5005,109,-370,-285,1776,2906,-151.17,-0.39,-2.94,-2.85,17.76,29.06,32.71,19.44,-38.85,98022.54,-4236.49,4.48
-4912,202,-417,-288,1672,2957,-166.01,0.88,-5.19,-2.88,16.72,29.57,32.03,19.44,-38.83,87601.78,-6816.00,5.17
-4839,270,-549,-193,1295,3389,-178.93,2.44,-8.02,-1.93,12.95,33.89,31.30,19.45,-38.80,78809.91,-8395.66,6.65
-4600,357,-624,-276,882,3545,-189.10,4.37,-11.03,-2.76,8.82,35.45,30.52,19.48,-38.77,65648.25,-10446.55,7.67
-4368,388,-621,-275,800,3423,-196.83,6.30,-13.71,-2.75,8.00,34.23,29.71,19.52,-38.73,53912.52,-10573.46,7.99
-3737,405,-551,-182,411,3722,-199.95,8.14,-15.70,-1.82,4.11,37.22,28.88,19.57,-38.68,30704.29,-10262.47,7.65
-3553,415,-527,-189,339,3727,-201.62,9.86,-17.35,-1.89,3.39,37.27,28.05,19.63,-38.63,23570.13,-9770.76,7.66
-2832,368,-382,-75,223,3780,-198.74,11.12,-17.94,-0.75,2.23,37.80,27.22,19.69,-38.58,188.70,-7541.81,6.51
-2651,346,-335,-65,160,3801,-195.03,12.12,-18.19,-0.65,1.60,38.01,26.41,19.76,-38.53,-4221.28,-6299.53,6.14
-1823,236,-149,-107,16,3812,-186.65,12.34,-17.28,-1.07,0.16,38.12,25.64,19.83,-38.49,-28606.73,-2405.80,4.45
-1631,214,-113,-131,-9,3839,-177.94,12.42,-16.24,-1.31,-0.09,38.39,24.90,19.89,-38.44,-30953.93,-1615.47,4.01
-967,178,-9,-219,4,3960,-166.04,12.26,-14.67,-2.19,0.04,39.60,24.21,19.95,-38.40,-47988.82,-453.96,2.92
-822,174,14,-240,6,3987,-154.45,12.10,-13.12,-2.40,0.06,39.87,23.56,20.01,-38.37,-47320.93,-397.40,2.53
-554,63,69,-268,-9,4104,-142.38,11.27,-11.39,-2.68,-0.09,41.04,22.97,20.06,-38.33,-50652.83,3017.94,1.84
-533,26,77,-275,-14,4095,-131.40,10.30,-9.78,-2.75,-0.14,40.95,22.42,20.10,-38.31,-46014.70,3818.23,1.56
-541,-133,98,-286,0,4040,-121.56,8.46,-8.20,-2.86,0.00,40.40,21.92,20.14,-38.28,-40938.65,8389.84,1.18
-358,-39,97,-310,-10,3771,-111.59,7.38,-6.79,-3.10,-0.10,37.71,21.45,20.17,-38.26,-42368.60,4628.07,1.01
-186,-43,100,-296,-27,3946,-101.56,6.38,-5.50,-2.96,-0.27,39.46,21.03,20.19,-38.25,-43395.49,4278.22,0.82
