gyroADC_X,gyroADC_Y,gyroADC_Z,accADC_X,accADC_Y,accADC_Z,GyroX,GyroY,GyroZ,AccX,AccY,AccZ,roll_IMU,pitch_IMU,yaw_IMU,roll_PID,pitch_PID,yaw_PID
0,1,2,-64,-385,3906,0.01,0.05,0.08,-0.64,-3.85,39.06,-5.64,0.88,3.40,4.37,-0.73,-0.64
2,3,3,-49,-383,3912,0.02,0.07,0.09,-0.49,-3.83,39.12,-5.64,0.86,3.40,4.08,-1.00,-0.71
-3,0,31,-116,-228,3896,0.00,0.06,0.27,-1.16,-2.28,38.96,-5.62,0.87,3.40,4.79,-0.56,-2.91
0,-1,56,-154,-276,3905,0.00,0.05,0.59,-1.54,-2.76,39.05,-5.60,0.88,3.40,4.32,-0.44,-4.73
2,1,106,6,-440,3943,0.01,0.05,1.17,0.06,-4.40,39.43,-5.62,0.87,3.39,4.05,-0.73,-8.41
-2,5,104,177,-29,4030,0.00,0.08,1.69,1.77,-0.29,40.30,-5.60,0.86,3.38,4.62,-1.29,-7.75
-6,7,125,210,43,3949,-0.04,0.11,2.28,2.10,0.43,39.49,-5.59,0.85,3.37,5.15,-1.52,-8.96
3,11,222,104,92,3986,-0.01,0.17,3.41,1.04,0.92,39.86,-5.57,0.85,3.36,3.80,-2.03,-16.11
4,9,247,2,36,3851,0.01,0.20,4.58,0.02,0.36,38.51,-5.55,0.85,3.34,3.68,-1.66,-17.12
13,16,236,-302,-396,3825,0.09,0.28,5.56,-3.02,-3.96,38.25,-5.55,0.87,3.32,2.45,-2.60,-15.25
-1,10,215,-261,-475,3845,0.07,0.31,6.31,-2.61,-4.75,38.45,-5.56,0.89,3.30,4.57,-1.65,-12.75
0,1,119,-347,-836,3973,0.07,0.29,6.41,-3.47,-8.36,39.73,-5.57,0.90,3.27,4.41,-0.33,-4.52
2,2,85,-300,-943,3962,0.07,0.27,6.29,-3.00,-9.43,39.62,-5.59,0.91,3.25,4.13,-0.52,-1.76
0,-5,-2,16,-832,3922,0.07,0.21,5.64,0.16,-8.32,39.22,-5.61,0.91,3.22,4.43,0.44,5.01
-1,-1,2,50,-626,3881,0.05,0.19,5.09,0.50,-6.26,38.81,-5.62,0.91,3.20,4.58,-0.21,4.15
0,2,3,-37,-415,3905,0.05,0.18,4.60,-0.37,-4.15,39.05,-5.64,0.90,3.19,4.42,-0.67,3.60
0,1,2,-45,-371,3894,0.04,0.17,4.15,-0.45,-3.71,38.94,-5.62,0.89,3.17,4.41,-0.53,3.26
1,-1,-3,-58,-372,3910,0.04,0.15,3.72,-0.58,-3.72,39.10,-5.61,0.89,3.15,4.24,-0.27,3.28
1,-1,0,-65,-391,3904,0.05,0.13,3.35,-0.65,-3.91,39.04,-5.62,0.90,3.14,4.26,-0.31,2.67
1,-1,-3,-54,-375,3882,0.05,0.11,2.99,-0.54,-3.75,38.82,-5.61,0.88,3.13,4.25,-0.34,2.60
-1,1,3,-61,-394,3903,0.04,0.10,2.71,-0.61,-3.94,39.03,-5.63,0.89,3.12,4.55,-0.65,1.82
1,1,4,-56,-386,3884,0.04,0.10,2.47,-0.56,-3.86,38.84,-5.64,0.87,3.11,4.26,-0.65,1.50
-2,0,7,-50,-373,3897,0.02,0.09,2.26,-0.50,-3.73,38.97,-5.62,0.86,3.10,4.68,-0.51,1.06
1,0,1,-61,-352,3904,0.03,0.08,2.04,-0.61,-3.52,39.04,-5.60,0.87,3.09,4.21,-0.52,1.36
1,0,-2,-75,-391,3891,0.03,0.07,1.83,-0.75,-3.91,38.91,-5.61,0.88,3.08,4.22,-0.55,1.41
2,0,-2,-63,-382,3896,0.04,0.06,1.63,-0.63,-3.82,38.96,-5.61,0.90,3.08,4.08,-0.58,1.23
13,0,10,-81,-285,3862,0.11,0.06,1.53,-0.81,-2.85,38.62,-5.59,0.91,3.07,2.53,-0.59,0.11
-6,-7,33,-92,-456,3875,0.07,0.01,1.58,-0.92,-4.56,38.75,-5.61,0.91,3.07,5.35,0.38,-1.79
1,-2,13,-25,-383,3908,0.07,-0.00,1.50,-0.25,-3.83,39.08,-5.60,0.89,3.06,4.28,-0.39,-0.17
1,0,8,-67,-432,3893,0.07,-0.00,1.40,-0.67,-4.32,38.93,-5.62,0.90,3.05,4.29,-0.70,0.16
-2,-1,8,-71,-398,3917,0.05,-0.01,1.31,-0.71,-3.98,39.17,-5.64,0.91,3.05,4.73,-0.56,0.07
2,0,1,-40,-363,3906,0.05,-0.01,1.18,-0.40,-3.63,39.06,-5.62,0.90,3.04,4.12,-0.71,0.55
2,0,3,-57,-381,3915,0.06,-0.01,1.08,-0.57,-3.81,39.15,-5.61,0.88,3.04,4.12,-0.69,0.29
1,-1,-3,-68,-407,3908,0.06,-0.01,0.96,-0.68,-4.07,39.08,-5.63,0.89,3.04,4.29,-0.56,0.68
1,1,2,-53,-362,3924,0.06,-0.01,0.87,-0.53,-3.62,39.24,-5.61,0.88,3.03,4.28,-0.84,0.17
2,1,0,-43,-375,3900,0.07,0.00,0.79,-0.43,-3.75,39.00,-5.60,0.87,3.03,4.13,-0.82,0.26
2,0,2,-57,-390,3890,0.07,0.00,0.72,-0.57,-3.90,38.90,-5.62,0.86,3.03,4.15,-0.66,0.03
0,-1,2,-71,-397,3908,0.07,-0.01,0.66,-0.71,-3.97,39.08,-5.63,0.88,3.02,4.45,-0.53,-0.03
-1,0,1,-72,-376,3898,0.05,-0.00,0.60,-0.72,-3.76,38.98,-5.62,0.89,3.02,4.58,-0.69,0.00
0,1,1,-62,-371,3909,0.05,0.00,0.55,-0.62,-3.71,39.09,-5.60,0.89,3.02,4.40,-0.84,-0.05
0,1,0,-63,-388,3904,0.04,0.01,0.49,-0.63,-3.88,39.04,-5.62,0.90,3.02,4.40,-0.83,-0.02
2,0,0,-60,-396,3898,0.05,0.01,0.44,-0.60,-3.96,38.98,-5.64,0.90,3.02,4.13,-0.68,-0.06
0,1,-2,-62,-389,3893,0.05,0.01,0.39,-0.62,-3.89,38.93,-5.66,0.90,3.01,4.44,-0.82,0.05
1,1,-1,-64,-382,3909,0.05,0.02,0.34,-0.64,-3.82,39.09,-5.64,0.91,3.01,4.27,-0.82,-0.07
1,0,0,-65,-387,3924,0.05,0.02,0.31,-0.65,-3.87,39.24,-5.64,0.93,3.01,4.27,-0.69,-0.19
1,0,-1,-69,-381,3905,0.05,0.01,0.27,-0.69,-3.81,39.05,-5.62,0.94,3.01,4.27,-0.70,-0.14
0,0,0,-65,-380,3908,0.04,0.01,0.24,-0.65,-3.80,39.08,-5.61,0.94,3.01,4.40,-0.70,-0.25
1,0,0,-68,-384,3903,0.05,0.01,0.22,-0.68,-3.84,39.03,-5.61,0.96,3.01,4.25,-0.72,-0.27
1,0,0,-66,-386,3910,0.05,0.01,0.20,-0.66,-3.86,39.10,-5.63,0.96,3.01,4.27,-0.72,-0.29
1,0,1,-70,-391,3898,0.05,0.01,0.18,-0.70,-3.91,38.98,-5.64,0.97,3.01,4.28,-0.73,-0.39
0,0,0,-68,-393,3899,0.04,0.01,0.16,-0.68,-3.93,38.99,-5.66,0.98,3.01,4.44,-0.74,-0.32
1,0,0,-58,-390,3897,0.05,0.01,0.15,-0.58,-3.90,38.97,-5.67,0.96,3.01,4.29,-0.72,-0.34
0,-1,-1,-48,-388,3898,0.04,0.00,0.13,-0.48,-3.88,38.98,-5.67,0.94,3.01,4.44,-0.57,-0.28
1,0,0,-53,-380,3901,0.04,0.00,0.11,-0.53,-3.80,39.01,-5.66,0.92,3.01,4.28,-0.71,-0.37
1,1,-1,-64,-391,3896,0.05,0.01,0.10,-0.64,-3.91,38.96,-5.68,0.93,3.01,4.30,-0.86,-0.30
2,1,-1,-69,-380,3906,0.05,0.01,0.08,-0.69,-3.80,39.06,-5.66,0.94,3.00,4.15,-0.85,-0.32
2,0,0,-64,-373,3910,0.06,0.01,0.07,-0.64,-3.73,39.10,-5.64,0.94,3.00,4.15,-0.70,-0.41
1,0,-1,-72,-385,3915,0.06,0.01,0.06,-0.72,-3.85,39.15,-5.64,0.96,3.00,4.30,-0.72,-0.34
0,0,-1,-82,-389,3920,0.05,0.01,0.05,-0.82,-3.89,39.20,-5.64,0.97,3.00,4.44,-0.73,-0.35
0,0,-1,-63,-387,3887,0.05,0.01,0.04,-0.63,-3.87,38.87,-5.65,0.96,3.00,4.44,-0.73,-0.36
0,0,-1,-61,-383,3886,0.04,0.01,0.03,-0.61,-3.83,38.86,-5.65,0.94,3.00,4.43,-0.71,-0.37
0,0,0,-62,-383,3899,0.04,0.01,0.02,-0.62,-3.83,38.99,-5.63,0.93,3.00,4.41,-0.70,-0.46
0,0,0,-64,-384,3900,0.04,0.01,0.02,-0.64,-3.84,39.00,-5.62,0.94,3.00,4.39,-0.71,-0.46
0,0,0,-64,-380,3909,0.03,0.01,0.02,-0.64,-3.80,39.09,-5.60,0.94,3.00,4.37,-0.71,-0.46
1,0,-2,-55,-363,3911,0.03,0.00,0.01,-0.55,-3.63,39.11,-5.58,0.93,3.00,4.21,-0.71,-0.31
1,1,0,-59,-365,3905,0.04,0.01,0.00,-0.59,-3.65,39.05,-5.56,0.93,3.00,4.20,-0.85,-0.48
1,0,0,-59,-377,3901,0.04,0.01,0.00,-0.59,-3.77,39.01,-5.55,0.91,3.00,4.19,-0.68,-0.48
1,0,0,-64,-394,3900,0.04,0.01,0.00,-0.64,-3.94,39.00,-5.57,0.91,3.00,4.21,-0.69,-0.48
1,0,-1,-70,-399,3900,0.04,0.01,-0.00,-0.70,-3.99,39.00,-5.59,0.92,3.00,4.23,-0.69,-0.40
0,0,-1,-62,-390,3895,0.04,0.01,-0.01,-0.62,-3.90,38.95,-5.61,0.92,3.00,4.39,-0.69,-0.40
1,1,0,-61,-379,3903,0.04,0.01,-0.01,-0.61,-3.79,39.03,-5.59,0.91,3.00,4.23,-0.83,-0.49
1,0,0,-55,-398,3896,0.04,0.01,-0.01,-0.55,-3.98,38.96,-5.61,0.90,3.00,4.24,-0.68,-0.49
2,0,0,-49,-380,3902,0.05,0.01,-0.01,-0.49,-3.80,39.02,-5.60,0.89,3.00,4.10,-0.66,-0.49
1,0,0,-46,-380,3886,0.05,0.01,-0.01,-0.46,-3.80,38.86,-5.60,0.87,3.00,4.25,-0.65,-0.49
1,0,0,-69,-389,3888,0.05,0.01,-0.00,-0.69,-3.89,38.88,-5.61,0.88,3.00,4.26,-0.66,-0.49
1,-1,-1,-66,-388,3898,0.05,0.00,-0.01,-0.66,-3.88,38.98,-5.62,0.90,3.00,4.27,-0.53,-0.41
0,0,0,-69,-385,3891,0.05,0.00,-0.01,-0.69,-3.85,38.91,-5.63,0.91,3.00,4.42,-0.70,-0.49
0,0,0,-74,-393,3902,0.04,0.00,-0.01,-0.74,-3.93,39.02,-5.64,0.93,3.00,4.42,-0.71,-0.49
0,0,0,-63,-383,3899,0.04,0.00,-0.01,-0.63,-3.83,38.99,-5.62,0.92,3.00,4.40,-0.71,-0.49
1,0,0,-64,-389,3902,0.04,0.00,-0.01,-0.64,-3.89,39.02,-5.64,0.93,3.00,4.26,-0.71,-0.49
1,1,0,-59,-383,3901,0.04,0.01,-0.01,-0.59,-3.83,39.01,-5.63,0.91,3.00,4.26,-0.84,-0.49
0,1,0,-57,-378,3900,0.04,0.01,-0.01,-0.57,-3.78,39.00,-5.62,0.90,3.00,4.39,-0.82,-0.49
0,1,-1,-57,-378,3905,0.04,0.02,-0.01,-0.57,-3.78,39.05,-5.60,0.89,3.00,4.38,-0.81,-0.41
0,1,-1,-67,-381,3895,0.03,0.02,-0.02,-0.67,-3.81,38.95,-5.60,0.91,3.00,4.37,-0.81,-0.41
0,0,0,-65,-374,3897,0.03,0.02,-0.01,-0.65,-3.74,38.97,-5.58,0.91,3.00,4.35,-0.67,-0.49
-1,0,0,-67,-376,3896,0.02,0.02,-0.01,-0.67,-3.76,38.96,-5.57,0.93,3.00,4.47,-0.68,-0.49
0,0,0,-64,-383,3903,0.02,0.02,-0.01,-0.64,-3.83,39.03,-5.59,0.93,3.00,4.33,-0.69,-0.49
1,0,0,-70,-387,3916,0.02,0.01,-0.01,-0.70,-3.87,39.16,-5.60,0.95,3.00,4.20,-0.70,-0.49
0,0,0,-64,-377,3912,0.02,0.01,-0.01,-0.64,-3.77,39.12,-5.58,0.94,3.00,4.33,-0.70,-0.49
0,0,0,-58,-378,3914,0.02,0.01,-0.01,-0.58,-3.78,39.14,-5.57,0.93,3.00,4.32,-0.69,-0.49
0,1,-1,-63,-381,3912,0.02,0.02,-0.01,-0.63,-3.81,39.12,-5.56,0.91,3.00,4.31,-0.82,-0.41
0,-1,-1,-60,-383,3895,0.01,0.01,-0.02,-0.60,-3.83,38.95,-5.57,0.90,3.00,4.32,-0.53,-0.41
0,0,0,-60,-390,3892,0.01,0.01,-0.02,-0.60,-3.90,38.92,-5.59,0.90,3.00,4.33,-0.68,-0.50
1,0,0,-63,-382,3905,0.02,0.01,-0.02,-0.63,-3.82,39.05,-5.59,0.92,3.00,4.18,-0.69,-0.49
1,1,0,-70,-377,3903,0.02,0.01,-0.01,-0.70,-3.77,39.03,-5.58,0.93,3.00,4.18,-0.85,-0.49
0,2,1,-68,-381,3904,0.02,0.02,-0.01,-0.68,-3.81,39.04,-5.58,0.95,3.00,4.33,-1.00,-0.57
0,2,1,-62,-380,3909,0.02,0.03,0.00,-0.62,-3.80,39.09,-5.57,0.93,3.00,4.32,-0.97,-0.56
0,1,0,-66,-390,3900,0.02,0.04,0.00,-0.66,-3.90,39.00,-5.59,0.94,3.00,4.33,-0.81,-0.48
-1,0,1,-70,-392,3904,0.01,0.03,0.01,-0.70,-3.92,39.04,-5.60,0.95,3.00,4.48,-0.67,-0.56
0,1,0,-55,-377,3908,0.01,0.04,0.01,-0.55,-3.77,39.08,-5.59,0.93,3.00,4.32,-0.81,-0.47
0,1,0,-54,-387,3909,0.01,0.04,0.01,-0.54,-3.87,39.09,-5.60,0.92,3.00,4.32,-0.79,-0.48
0,0,0,-61,-382,3904,0.01,0.03,0.00,-0.61,-3.82,39.04,-5.59,0.90,3.00,4.32,-0.63,-0.48
-1,1,0,-61,-380,3914,-0.00,0.04,0.00,-0.61,-3.80,39.14,-5.57,0.90,3.00,4.44,-0.78,-0.48
0,0,0,-60,-387,3902,-0.00,0.03,0.00,-0.60,-3.87,39.02,-5.59,0.89,3.00,4.30,-0.63,-0.48
0,1,-1,-55,-373,3906,-0.00,0.04,-0.00,-0.55,-3.73,39.06,-5.58,0.88,3.00,4.29,-0.77,-0.40
0,1,0,-56,-375,3900,-0.00,0.04,-0.00,-0.56,-3.75,39.00,-5.56,0.87,3.00,4.28,-0.75,-0.48
1,1,0,-50,-387,3899,0.01,0.04,-0.00,-0.50,-3.87,38.99,-5.57,0.86,3.00,4.15,-0.74,-0.48
1,0,0,-68,-386,3904,0.01,0.04,-0.00,-0.68,-3.86,39.04,-5.58,0.87,3.00,4.17,-0.61,-0.48
1,0,-1,-79,-403,3902,0.02,0.03,-0.01,-0.79,-4.03,39.02,-5.60,0.89,3.00,4.18,-0.62,-0.40
0,0,-2,-71,-388,3905,0.01,0.03,-0.02,-0.71,-3.88,39.05,-5.60,0.90,3.00,4.34,-0.64,-0.33
0,1,-1,-71,-391,3903,0.01,0.03,-0.02,-0.71,-3.91,39.03,-5.62,0.92,3.00,4.35,-0.80,-0.42
1,0,-1,-62,-384,3897,0.02,0.03,-0.03,-0.62,-3.84,38.97,-5.63,0.91,3.00,4.22,-0.64,-0.42
0,1,0,-52,-374,3910,0.02,0.03,-0.02,-0.52,-3.74,39.10,-5.62,0.89,3.00,4.35,-0.78,-0.50
0,0,-1,-71,-384,3900,0.01,0.03,-0.03,-0.71,-3.84,39.00,-5.62,0.91,3.00,4.35,-0.65,-0.42
-1,0,-2,-74,-391,3904,0.01,0.03,-0.04,-0.74,-3.91,39.04,-5.63,0.93,3.01,4.50,-0.67,-0.35
0,0,1,-54,-377,3905,0.01,0.02,-0.03,-0.54,-3.77,39.05,-5.62,0.91,3.00,4.34,-0.66,-0.59
0,0,1,-59,-379,3891,0.01,0.02,-0.02,-0.59,-3.79,38.91,-5.60,0.90,3.00,4.32,-0.66,-0.58
0,0,0,-65,-397,3898,0.01,0.02,-0.02,-0.65,-3.97,38.98,-5.62,0.91,3.01,4.34,-0.66,-0.50
0,0,0,-68,-398,3899,0.00,0.02,-0.02,-0.68,-3.98,38.99,-5.64,0.91,3.01,4.35,-0.67,-0.50
0,0,-1,-68,-376,3903,0.00,0.02,-0.02,-0.68,-3.76,39.03,-5.62,0.92,3.01,4.34,-0.68,-0.41
1,0,0,-75,-382,3899,0.01,0.01,-0.02,-0.75,-3.82,38.99,-5.62,0.94,3.01,4.19,-0.70,-0.50
0,1,0,-77,-389,3910,0.01,0.02,-0.02,-0.77,-3.89,39.10,-5.62,0.96,3.01,4.35,-0.86,-0.50
-1,1,0,-62,-379,3920,0.00,0.02,-0.01,-0.62,-3.79,39.20,-5.61,0.95,3.01,4.47,-0.84,-0.49
-1,1,1,-74,-371,3907,-0.00,0.03,-0.01,-0.74,-3.71,39.07,-5.59,0.96,3.01,4.45,-0.84,-0.57
0,1,1,-74,-376,3894,-0.00,0.03,-0.00,-0.74,-3.76,38.94,-5.58,0.98,3.01,4.29,-0.85,-0.57
0,1,1,-59,-389,3902,-0.00,0.03,0.01,-0.59,-3.89,39.02,-5.60,0.96,3.01,4.30,-0.83,-0.56
-1,1,0,-61,-387,3896,-0.01,0.04,0.01,-0.61,-3.87,38.96,-5.61,0.95,3.01,4.46,-0.82,-0.48
-1,1,1,-79,-393,3904,-0.01,0.04,0.01,-0.79,-3.93,39.04,-5.62,0.97,3.01,4.45,-0.83,-0.56
-1,1,1,-67,-388,3908,-0.02,0.04,0.02,-0.67,-3.88,39.08,-5.64,0.97,3.01,4.46,-0.83,-0.55
-1,1,-1,-59,-391,3904,-0.02,0.04,0.01,-0.59,-3.91,39.04,-5.65,0.96,3.01,4.46,-0.81,-0.39
0,1,0,-52,-386,3892,-0.02,0.04,0.01,-0.52,-3.86,38.92,-5.65,0.94,3.01,4.31,-0.79,-0.47
0,0,0,-62,-377,3900,-0.02,0.04,0.01,-0.62,-3.77,39.00,-5.63,0.93,3.01,4.30,-0.65,-0.47
0,0,1,-64,-384,3904,-0.02,0.04,0.01,-0.64,-3.84,39.04,-5.61,0.94,3.01,4.29,-0.66,-0.55
0,1,1,-69,-383,3907,-0.02,0.04,0.02,-0.69,-3.83,39.07,-5.61,0.95,3.01,4.29,-0.82,-0.55
0,0,1,-72,-383,3902,-0.01,0.03,0.02,-0.72,-3.83,39.02,-5.61,0.97,3.01,4.30,-0.69,-0.55
-1,1,1,-63,-387,3898,-0.02,0.04,0.03,-0.63,-3.87,38.98,-5.62,0.96,3.01,4.45,-0.82,-0.54
-1,1,1,-58,-375,3906,-0.02,0.04,0.03,-0.58,-3.75,39.06,-5.61,0.95,3.00,4.43,-0.81,-0.54
-1,1,0,-69,-381,3895,-0.03,0.04,0.03,-0.69,-3.81,38.95,-5.60,0.97,3.00,4.42,-0.82,-0.46
-1,1,0,-64,-376,3904,-0.03,0.04,0.02,-0.64,-3.76,39.04,-5.59,0.96,3.00,4.40,-0.81,-0.46
1,1,0,-61,-378,3908,-0.02,0.05,0.02,-0.61,-3.78,39.08,-5.57,0.95,3.00,4.10,-0.80,-0.46
1,1,-1,-65,-387,3900,-0.01,0.05,0.01,-0.65,-3.87,39.00,-5.59,0.95,3.00,4.13,-0.80,-0.38
1,0,-1,-64,-388,3899,-0.01,0.04,0.01,-0.64,-3.88,38.99,-5.61,0.95,3.00,4.16,-0.65,-0.39
1,0,0,-69,-392,3897,0.00,0.04,0.00,-0.69,-3.92,38.97,-5.63,0.95,3.00,4.18,-0.67,-0.48
2,0,0,-64,-394,3898,0.01,0.03,0.00,-0.64,-3.94,38.98,-5.65,0.95,3.01,4.07,-0.67,-0.48
1,0,0,-56,-381,3897,0.02,0.03,0.00,-0.56,-3.81,38.97,-5.64,0.94,3.01,4.22,-0.66,-0.48
1,0,0,-60,-375,3897,0.02,0.03,0.00,-0.60,-3.75,38.97,-5.62,0.93,3.00,4.22,-0.67,-0.48
1,0,-1,-61,-381,3904,0.03,0.03,-0.00,-0.61,-3.81,39.04,-5.61,0.92,3.00,4.21,-0.66,-0.40
2,0,0,-60,-377,3905,0.04,0.02,-0.00,-0.60,-3.77,39.05,-5.59,0.91,3.00,4.06,-0.66,-0.48
1,0,0,-59,-377,3902,0.04,0.02,-0.00,-0.59,-3.77,39.02,-5.57,0.90,3.00,4.21,-0.66,-0.48
1,0,-1,-64,-376,3909,0.04,0.02,-0.01,-0.64,-3.76,39.09,-5.56,0.91,3.00,4.20,-0.67,-0.40
1,0,0,-67,-383,3899,0.04,0.02,-0.01,-0.67,-3.83,38.99,-5.57,0.92,3.00,4.21,-0.68,-0.49
1,1,0,-66,-390,3902,0.04,0.02,-0.01,-0.66,-3.90,39.02,-5.58,0.93,3.00,4.23,-0.83,-0.49
0,1,0,-64,-382,3913,0.04,0.02,-0.01,-0.64,-3.82,39.13,-5.57,0.94,3.00,4.36,-0.83,-0.49
1,1,0,-66,-387,3907,0.04,0.03,-0.01,-0.66,-3.87,39.07,-5.59,0.94,3.00,4.22,-0.83,-0.49
1,1,0,-54,-386,3904,0.04,0.03,-0.00,-0.54,-3.86,39.04,-5.59,0.93,3.00,4.23,-0.81,-0.49
1,1,0,-53,-391,3896,0.05,0.03,-0.00,-0.53,-3.91,38.96,-5.61,0.91,3.00,4.25,-0.79,-0.48
1,1,0,-58,-385,3901,0.05,0.04,-0.00,-0.58,-3.85,39.01,-5.61,0.90,3.01,4.25,-0.78,-0.48
0,0,0,-59,-383,3903,0.04,0.03,-0.00,-0.59,-3.83,39.03,-5.61,0.88,3.01,4.39,-0.62,-0.48
0,0,0,-71,-385,3890,0.04,0.03,-0.00,-0.71,-3.85,38.90,-5.61,0.90,3.01,4.39,-0.64,-0.48
0,0,1,-67,-392,3896,0.03,0.03,0.00,-0.67,-3.92,38.96,-5.63,0.91,3.01,4.40,-0.65,-0.56
1,0,1,-72,-392,3909,0.04,0.02,0.01,-0.72,-3.92,39.09,-5.64,0.92,3.01,4.26,-0.67,-0.56
1,0,0,-69,-383,3912,0.04,0.02,0.01,-0.69,-3.83,39.12,-5.63,0.94,3.01,4.25,-0.68,-0.47
0,0,0,-70,-386,3910,0.04,0.02,0.01,-0.70,-3.86,39.10,-5.63,0.96,3.01,4.40,-0.70,-0.47
1,1,0,-71,-384,3905,0.04,0.02,0.01,-0.71,-3.84,39.05,-5.63,0.97,3.01,4.25,-0.86,-0.47
0,0,0,-65,-386,3900,0.03,0.02,0.01,-0.65,-3.86,39.00,-5.64,0.96,3.01,4.40,-0.70,-0.48
0,0,0,-50,-387,3902,0.03,0.02,0.01,-0.50,-3.87,39.02,-5.64,0.94,3.01,4.40,-0.69,-0.48
0,-1,0,-49,-380,3900,0.03,0.01,0.00,-0.49,-3.80,39.00,-5.64,0.93,3.01,4.39,-0.54,-0.48
0,1,-1,-52,-383,3901,0.02,0.02,-0.00,-0.52,-3.83,39.01,-5.63,0.91,3.01,4.38,-0.82,-0.40
0,1,0,-58,-388,3899,0.02,0.02,-0.00,-0.58,-3.88,38.99,-5.64,0.89,3.01,4.39,-0.80,-0.48
0,-1,-1,-64,-387,3887,0.02,0.01,-0.01,-0.64,-3.87,38.87,-5.66,0.91,3.01,4.39,-0.52,-0.40
1,0,-1,-69,-379,3900,0.02,0.01,-0.01,-0.69,-3.79,39.00,-5.64,0.92,3.01,4.24,-0.69,-0.41
1,0,-1,-78,-373,3890,0.03,0.01,-0.02,-0.78,-3.73,38.90,-5.63,0.93,3.01,4.23,-0.70,-0.41
1,0,-1,-82,-381,3904,0.03,0.01,-0.02,-0.82,-3.81,39.04,-5.63,0.95,3.01,4.24,-0.72,-0.42
-3,-3,-45,-67,-623,3898,0.01,-0.01,-0.29,-0.67,-6.23,38.98,-5.65,0.95,3.01,4.82,-0.29,3.05
3,-2,-235,-162,-1008,3909,0.03,-0.02,-1.70,-1.62,-10.08,39.09,-5.66,0.95,3.01,3.95,-0.47,17.82
3,6,-278,13,-806,3834,0.04,0.02,-3.22,0.13,-8.06,38.34,-5.68,0.95,3.03,3.99,-1.62,20.01
13,-6,-309,-43,-960,3968,0.12,-0.02,-4.79,-0.43,-9.60,39.68,-5.70,0.95,3.05,2.62,0.15,21.15
6,-22,-362,-179,-612,3965,0.14,-0.15,-6.52,-1.79,-6.12,39.65,-5.72,0.95,3.07,3.74,2.35,23.99
1,-25,-353,-220,-508,3933,0.13,-0.29,-8.02,-2.20,-5.08,39.33,-5.73,0.96,3.10,4.50,2.55,21.80
-8,-17,-271,-200,-333,3912,0.07,-0.36,-8.87,-2.00,-3.33,39.12,-5.72,0.97,3.14,5.75,1.19,14.04
-6,-5,-249,-143,-354,3855,0.03,-0.36,-9.50,-1.43,-3.54,38.55,-5.71,0.99,3.18,5.37,-0.64,11.57
2,-4,-188,-98,-300,3810,0.04,-0.35,-9.70,-0.98,-3.00,38.10,-5.70,0.99,3.22,4.15,-0.77,6.21
-7,-14,-171,-57,-296,3953,-0.01,-0.40,-9.77,-0.57,-2.96,39.53,-5.68,0.98,3.25,5.43,0.67,4.70
-4,-11,-103,-155,-206,3898,-0.03,-0.43,-9.42,-1.55,-2.06,38.98,-5.66,0.98,3.29,4.91,0.16,-0.74
-1,-16,-77,-188,-233,3951,-0.04,-0.48,-8.95,-1.88,-2.33,39.51,-5.65,0.99,3.33,4.44,0.82,-2.50
-3,-14,-71,-164,-388,3896,-0.05,-0.52,-8.49,-1.64,-3.88,38.96,-5.65,1.00,3.36,4.72,0.44,-2.58
7,-17,-85,-112,-411,3991,-0.00,-0.57,-8.16,-1.12,-4.11,39.91,-5.66,1.01,3.39,3.29,0.79,-1.08
0,-16,-138,-24,-561,3954,-0.00,-0.61,-8.18,-0.24,-5.61,39.54,-5.68,1.00,3.42,4.37,0.57,3.38
-1,-18,-149,-30,-559,3873,-0.01,-0.66,-8.27,-0.30,-5.59,38.73,-5.70,0.99,3.46,4.52,0.80,4.22
-4,-8,-184,-54,-557,3905,-0.03,-0.64,-8.57,-0.54,-5.57,39.05,-5.71,0.99,3.49,4.95,-0.69,6.90
-5,-3,-184,-54,-479,3887,-0.06,-0.60,-8.83,-0.54,-4.79,38.87,-5.73,0.98,3.53,5.07,-1.36,6.64
1,-20,-181,-56,-354,3917,-0.05,-0.66,-9.06,-0.56,-3.54,39.17,-5.72,0.97,3.56,4.17,1.13,6.17
2,-17,-174,-10,-289,3900,-0.03,-0.70,-9.21,-0.10,-2.89,39.00,-5.70,0.95,3.60,4.03,0.61,5.43
-8,-12,-170,111,-18,3895,-0.08,-0.70,-9.33,1.11,-0.18,38.95,-5.69,0.94,3.64,5.46,-0.15,4.97
1,-23,-169,224,167,3927,-0.06,-0.77,-9.43,2.24,1.67,39.27,-5.67,0.92,3.67,4.10,1.42,4.79
8,-13,-175,4,-85,3925,-0.01,-0.77,-9.55,0.04,-0.85,39.25,-5.65,0.91,3.71,3.12,-0.10,5.17
7,-8,-198,-21,-151,3895,0.04,-0.74,-9.80,-0.21,-1.51,38.95,-5.64,0.90,3.75,3.34,-0.81,6.87
3,-5,-321,-143,-196,3913,0.05,-0.70,-10.78,-1.43,-1.96,39.13,-5.62,0.90,3.79,3.96,-1.19,16.36
13,-4,-361,-171,-234,3896,0.13,-0.65,-11.90,-1.71,-2.34,38.96,-5.61,0.90,3.84,2.56,-1.26,18.67
8,-3,-525,-241,-227,3852,0.16,-0.61,-13.92,-2.41,-2.27,38.52,-5.59,0.91,3.89,3.38,-1.33,30.65
9,-9,-564,-251,-180,3932,0.20,-0.60,-15.97,-2.51,-1.80,39.32,-5.58,0.91,3.96,3.28,-0.41,32.00
15,-9,-671,-129,-181,3893,0.27,-0.60,-18.46,-1.29,-1.81,38.93,-5.56,0.91,4.03,2.48,-0.40,38.69
17,-12,-699,-105,-167,3916,0.35,-0.61,-20.88,-1.05,-1.67,39.16,-5.55,0.90,4.11,2.30,0.04,38.75
4,-13,-691,-65,-76,3907,0.34,-0.63,-23.01,-0.65,-0.76,39.07,-5.53,0.89,4.20,4.25,0.17,36.04
18,-8,-698,56,-103,3942,0.41,-0.61,-24.96,0.56,-1.03,39.42,-5.51,0.87,4.30,2.24,-0.55,34.76
20,-13,-744,11,-204,4038,0.49,-0.63,-27.01,0.11,-2.04,40.38,-5.49,0.85,4.41,2.07,0.19,36.70
18,-22,-756,-47,-212,3780,0.55,-0.70,-28.92,-0.47,-2.12,37.80,-5.47,0.84,4.52,2.46,1.45,35.89
17,-14,-761,-42,-253,3798,0.60,-0.72,-30.67,-0.42,-2.53,37.98,-5.46,0.82,4.64,2.69,0.21,34.63
12,-7,-753,-11,-236,3849,0.62,-0.69,-32.19,-0.11,-2.36,38.49,-5.44,0.80,4.77,3.46,-0.78,32.48
17,2,-709,-65,-309,3903,0.66,-0.61,-33.30,-0.65,-3.09,39.03,-5.42,0.79,4.90,2.76,-2.00,27.69
12,-4,-702,-57,-384,3990,0.67,-0.57,-34.25,-0.57,-3.84,39.90,-5.44,0.78,5.04,3.55,-1.01,26.17
20,1,-678,-78,-450,3939,0.72,-0.51,-34.96,-0.78,-4.50,39.39,-5.45,0.77,5.18,2.44,-1.66,23.44
16,1,-673,-81,-510,3813,0.75,-0.45,-35.57,-0.81,-5.10,38.13,-5.47,0.76,5.32,3.11,-1.55,22.41
2,-7,-641,-64,-603,3884,0.68,-0.45,-35.92,-0.64,-6.03,38.84,-5.49,0.74,5.46,5.15,-0.31,19.34
14,-9,-613,-48,-573,3916,0.70,-0.46,-36.07,-0.48,-5.73,39.16,-5.50,0.73,5.61,3.36,-0.01,16.81
8,-9,-516,-3,-583,3937,0.68,-0.47,-35.61,-0.03,-5.83,39.37,-5.52,0.71,5.75,4.25,-0.01,9.01
13,-8,-482,-16,-580,3866,0.69,-0.47,-34.99,-0.16,-5.80,38.66,-5.54,0.69,5.89,3.52,-0.15,6.69
0,-7,-393,-63,-536,3854,0.62,-0.47,-33.89,-0.63,-5.36,38.54,-5.55,0.68,6.02,5.39,-0.29,0.17
3,-8,-372,-32,-485,3922,0.58,-0.47,-32.77,-0.32,-4.85,39.22,-5.57,0.66,6.16,4.87,-0.13,-0.56
2,-24,-316,-28,-494,3982,0.53,-0.57,-31.42,-0.28,-4.94,39.82,-5.59,0.64,6.28,4.95,2.15,-4.05
2,-22,-304,-36,-463,3851,0.49,-0.64,-30.13,-0.36,-4.63,38.51,-5.61,0.63,6.40,4.89,1.72,-3.86
2,-16,-276,-74,-425,3867,0.45,-0.68,-28.80,-0.74,-4.25,38.67,-5.62,0.62,6.51,4.84,0.75,-4.99
-8,-16,-277,-102,-375,3863,0.36,-0.71,-27.61,-1.02,-3.75,38.63,-5.62,0.63,6.62,6.19,0.69,-3.79
16,7,-274,-22,-487,3791,0.42,-0.59,-26.52,-0.22,-4.87,37.91,-5.64,0.61,6.73,2.66,-2.60,-3.03
2,-21,-279,-89,-524,3952,0.39,-0.66,-25.57,-0.89,-5.24,39.52,-5.65,0.60,6.83,4.75,1.55,-1.72
-3,-21,-273,-100,-438,3892,0.33,-0.72,-24.68,-1.00,-4.38,38.92,-5.66,0.61,6.93,5.42,1.44,-1.40
4,-16,-272,-106,-431,3811,0.33,-0.75,-23.87,-1.06,-4.31,38.11,-5.68,0.61,7.02,4.34,0.63,-0.73
3,-14,-280,-126,-379,3935,0.31,-0.76,-23.19,-1.26,-3.79,39.35,-5.67,0.61,7.12,4.47,0.30,0.58
1,-19,-287,-128,-349,3895,0.29,-0.80,-22.62,-1.28,-3.49,38.95,-5.67,0.62,7.21,4.72,0.99,1.69
6,-16,-362,-120,-305,3908,0.29,-0.82,-22.57,-1.20,-3.05,39.08,-5.65,0.62,7.30,3.96,0.50,8.09
9,-12,-387,-114,-257,3885,0.32,-0.81,-22.67,-1.14,-2.57,38.85,-5.64,0.61,7.39,3.54,-0.09,10.09
7,-11,-481,-118,-328,3869,0.33,-0.80,-23.34,-1.18,-3.28,38.69,-5.62,0.62,7.48,3.86,-0.22,17.41
6,-3,-510,-121,-321,3916,0.33,-0.73,-24.12,-1.21,-3.21,39.16,-5.61,0.62,7.57,4.01,-1.34,19.11
12,3,-616,-60,-277,3887,0.37,-0.64,-25.46,-0.60,-2.77,38.87,-5.59,0.61,7.67,3.15,-2.08,26.80
12,-6,-648,-82,-317,3905,0.41,-0.61,-26.87,-0.82,-3.17,39.05,-5.58,0.61,7.78,3.20,-0.65,28.16
9,-10,-738,34,-265,3892,0.42,-0.61,-28.68,0.34,-2.65,38.92,-5.56,0.58,7.89,3.67,-0.03,34.04
16,-7,-757,-1,-258,3909,0.48,-0.60,-30.43,-0.01,-2.58,39.09,-5.54,0.56,8.02,2.69,-0.43,33.97
24,-20,-805,-86,-194,4004,0.58,-0.66,-32.30,-0.86,-1.94,40.04,-5.53,0.55,8.14,1.63,1.44,36.25
12,-20,-815,-84,-269,3880,0.59,-0.71,-34.04,-0.84,-2.69,38.80,-5.51,0.54,8.28,3.47,1.35,35.42
2,-29,-864,-57,-328,3930,0.55,-0.82,-35.91,-0.57,-3.28,39.30,-5.49,0.53,8.42,4.90,2.54,37.78
24,-22,-881,-19,-225,3928,0.64,-0.87,-37.69,-0.19,-2.25,39.28,-5.47,0.51,8.57,1.70,1.40,37.50
30,-20,-916,-13,-363,3866,0.76,-0.91,-39.51,-0.13,-3.63,38.66,-5.46,0.48,8.73,0.99,1.06,38.72
15,-15,-913,-36,-298,3932,0.77,-0.91,-41.13,-0.36,-2.98,39.32,-5.44,0.46,8.89,3.29,0.31,36.90
19,-14,-884,-76,-432,3933,0.81,-0.90,-42.41,-0.76,-4.32,39.33,-5.46,0.45,9.06,2.76,0.17,33.20
7,-29,-864,19,-392,3937,0.77,-0.99,-43.44,0.19,-3.92,39.37,-5.46,0.41,9.23,4.52,2.33,30.51
27,-10,-868,-74,-398,3923,0.86,-0.95,-44.39,-0.74,-3.98,39.23,-5.47,0.41,9.41,1.63,-0.49,29.91
3,-14,-863,-76,-401,3901,0.79,-0.94,-45.21,-0.76,-4.01,39.01,-5.47,0.40,9.59,5.18,0.14,28.68
7,-17,-814,-51,-400,3956,0.76,-0.95,-45.66,-0.51,-4.00,39.56,-5.48,0.40,9.77,4.51,0.58,24.08
12,-16,-808,-15,-521,3931,0.75,-0.95,-46.02,-0.15,-5.21,39.31,-5.50,0.37,9.95,3.76,0.44,23.19
11,-12,-795,27,-446,3893,0.75,-0.93,-46.27,0.27,-4.46,38.93,-5.51,0.34,10.14,3.90,-0.10,21.83
21,-16,-778,-4,-508,3880,0.80,-0.94,-46.39,-0.04,-5.08,38.80,-5.53,0.32,10.32,2.49,0.52,20.25
14,-2,-719,-32,-379,3846,0.80,-0.85,-46.13,-0.32,-3.79,38.46,-5.54,0.31,10.50,3.57,-1.47,15.46
15,-24,-689,-75,-419,4074,0.82,-0.92,-45.72,-0.75,-4.19,40.74,-5.54,0.31,10.69,3.44,1.78,13.28
14,-18,-609,19,-422,4008,0.82,-0.93,-44.87,0.19,-4.22,40.08,-5.55,0.27,10.86,3.61,0.86,7.28
11,-6,-588,68,-409,3896,0.80,-0.88,-43.97,0.68,-4.09,38.96,-5.55,0.23,11.04,4.04,-0.84,6.33
15,-2,-499,-83,-383,3899,0.82,-0.80,-42.61,-0.83,-3.83,38.99,-5.55,0.23,11.21,3.45,-1.31,0.05
9,-8,-474,-62,-393,4005,0.79,-0.77,-41.24,-0.62,-3.93,40.05,-5.55,0.23,11.37,4.32,-0.34,-0.80
-3,-6,-389,-133,-437,3963,0.69,-0.73,-39.49,-1.33,-4.37,39.63,-5.56,0.23,11.53,5.98,-0.57,-6.36
5,-11,-388,-113,-401,3894,0.65,-0.72,-37.91,-1.13,-4.01,38.94,-5.56,0.23,11.68,4.69,0.20,-4.97
6,-2,-426,-33,-370,3848,0.62,-0.66,-36.72,-0.33,-3.70,38.48,-5.55,0.23,11.83,4.48,-1.06,-0.64
12,-2,-440,-75,-358,3867,0.64,-0.61,-35.73,-0.75,-3.58,38.67,-5.55,0.23,11.97,3.58,-0.97,1.46
12,-4,-447,-118,-386,3822,0.64,-0.57,-34.88,-1.18,-3.86,38.22,-5.55,0.23,12.11,3.60,-0.60,2.83
5,-15,-449,-49,-423,3993,0.61,-0.61,-34.13,-0.49,-4.23,39.93,-5.56,0.23,12.24,4.61,1.02,3.69
-1,-11,-466,-68,-424,3901,0.54,-0.61,-33.56,-0.68,-4.24,39.01,-5.57,0.23,12.38,5.41,0.40,5.65
7,-12,-483,-74,-371,3914,0.53,-0.63,-33.15,-0.74,-3.71,39.14,-5.56,0.23,12.51,4.17,0.53,7.46
11,-20,-492,-11,-377,4028,0.55,-0.68,-32.84,-0.11,-3.77,40.28,-5.54,0.21,12.64,3.57,1.66,8.50
8,-21,-496,-108,-370,3867,0.54,-0.74,-32.58,-1.08,-3.70,38.67,-5.54,0.21,12.77,4.01,1.70,9.06
11,-4,-491,-77,-324,3793,0.55,-0.69,-32.32,-0.77,-3.24,37.93,-5.53,0.21,12.90,3.57,-0.80,8.87
20,-5,-490,-28,-396,4030,0.62,-0.66,-32.08,-0.28,-3.96,40.30,-5.53,0.21,13.02,2.32,-0.58,8.99
12,-4,-501,-86,-398,4062,0.63,-0.61,-31.92,-0.86,-3.98,40.62,-5.53,0.22,13.15,3.56,-0.66,10.05
19,5,-512,-45,-409,3887,0.68,-0.52,-31.85,-0.45,-4.09,38.87,-5.54,0.22,13.28,2.60,-1.87,11.03
0,-7,-542,-197,-471,3933,0.62,-0.51,-31.98,-1.97,-4.71,39.33,-5.55,0.22,13.40,5.38,-0.02,13.43
15,-4,-548,-159,-436,3872,0.65,-0.49,-32.12,-1.59,-4.36,38.72,-5.56,0.22,13.53,3.15,-0.43,13.78
11,-6,-581,-2,-428,3857,0.65,-0.47,-32.45,-0.02,-4.28,38.57,-5.57,0.20,13.66,3.77,-0.09,16.24
3,-18,-600,-46,-399,3930,0.60,-0.54,-32.87,-0.46,-3.99,39.30,-5.58,0.20,13.79,4.92,1.63,17.44
14,-5,-601,57,-349,3905,0.63,-0.51,-33.25,0.57,-3.49,39.05,-5.57,0.17,13.92,3.28,-0.29,17.14
14,-9,-599,53,-365,3948,0.65,-0.52,-33.58,0.53,-3.65,39.48,-5.56,0.14,14.06,3.31,0.34,16.64
11,-22,-575,-41,-401,4005,0.65,-0.60,-33.73,-0.41,-4.01,40.05,-5.56,0.14,14.19,3.78,2.17,14.44
7,-24,-567,-44,-312,3861,0.63,-0.69,-33.81,-0.44,-3.12,38.61,-5.55,0.13,14.33,4.33,2.33,13.66
7,-18,-503,-34,-343,3873,0.61,-0.73,-33.50,-0.34,-3.43,38.73,-5.53,0.13,14.46,4.28,1.34,8.51
-1,-19,-500,-87,-363,3863,0.54,-0.77,-33.20,-0.87,-3.63,38.63,-5.52,0.13,14.59,5.38,1.42,8.52
11,-15,-512,-52,-374,4037,0.55,-0.78,-33.00,-0.52,-3.74,40.37,-5.52,0.13,14.72,3.56,0.78,9.71
17,-6,-524,50,-330,3930,0.60,-0.74,-32.90,0.50,-3.30,39.30,-5.50,0.10,14.85,2.73,-0.50,10.80
6,-15,-566,-29,-379,3881,0.58,-0.76,-33.06,-0.29,-3.79,38.81,-5.50,0.11,14.98,4.36,0.84,14.18
10,-16,-595,-11,-391,3979,0.58,-0.78,-33.38,-0.11,-3.91,39.79,-5.52,0.10,15.12,3.77,0.96,16.31
12,-6,-602,17,-378,3944,0.60,-0.74,-33.72,0.17,-3.78,39.44,-5.51,0.06,15.25,3.49,-0.46,16.57
7,-7,-595,32,-399,3859,0.58,-0.71,-33.98,0.32,-3.99,38.59,-5.52,0.03,15.39,4.23,-0.23,15.71
14,-9,-528,122,-350,3910,0.61,-0.69,-33.80,1.22,-3.50,39.10,-5.52,-0.00,15.52,3.20,0.13,10.18
24,-3,-508,66,-387,3831,0.69,-0.64,-33.52,0.66,-3.87,38.31,-5.52,-0.03,15.65,1.83,-0.67,8.73
1,-18,-404,-28,-456,3802,0.63,-0.69,-32.63,-0.28,-4.56,38.02,-5.53,-0.04,15.78,5.24,1.55,0.74
5,-14,-381,38,-414,3929,0.60,-0.70,-31.69,0.38,-4.14,39.29,-5.54,-0.07,15.91,4.58,0.93,-0.34
1,-11,-272,8,-464,3914,0.54,-0.70,-30.18,0.08,-4.64,39.14,-5.56,-0.09,16.03,5.10,0.49,-8.16
0,-6,-245,-39,-486,3896,0.49,-0.67,-28.66,-0.39,-4.86,38.96,-5.57,-0.09,16.14,5.17,-0.21,-9.02
1,-8,-198,-81,-360,3900,0.45,-0.65,-27.00,-0.81,-3.60,39.00,-5.57,-0.09,16.25,4.94,0.12,-11.44
8,19,-176,51,-276,3979,0.45,-0.47,-25.37,0.51,-2.76,39.79,-5.55,-0.11,16.35,3.86,-3.65,-11.78
5,-3,-153,-201,-350,3885,0.44,-0.44,-23.77,-2.01,-3.50,38.85,-5.54,-0.10,16.44,4.29,-0.25,-12.22
-1,-15,-151,-246,-342,3814,0.39,-0.49,-22.31,-2.46,-3.42,38.14,-5.54,-0.09,16.53,5.11,1.48,-11.03
1,-21,-175,-94,-285,3878,0.35,-0.57,-21.15,-0.94,-2.85,38.78,-5.53,-0.09,16.62,4.74,2.26,-7.90
4,-17,-177,-60,-307,3914,0.34,-0.61,-20.11,-0.60,-3.07,39.14,-5.51,-0.09,16.70,4.25,1.56,-6.76
-5,-12,-157,-108,-229,3801,0.28,-0.63,-19.06,-1.08,-2.29,38.01,-5.50,-0.09,16.77,5.49,0.77,-7.47
2,-17,-160,-217,-303,3906,0.26,-0.67,-18.13,-2.17,-3.03,39.06,-5.49,-0.08,16.84,4.39,1.46,-6.34
-11,-14,-221,-160,-214,3974,0.17,-0.69,-17.67,-1.60,-2.14,39.74,-5.48,-0.07,16.91,6.20,0.96,-0.75
5,-19,-241,-119,-165,4024,0.18,-0.73,-17.37,-1.19,-1.65,40.24,-5.46,-0.07,16.98,3.77,1.64,1.22
9,-1,-287,-83,-190,3826,0.22,-0.67,-17.38,-0.83,-1.90,38.26,-5.44,-0.08,17.05,3.21,-0.98,5.09
1,-4,-291,-113,-230,3984,0.20,-0.62,-17.42,-1.13,-2.30,39.84,-5.43,-0.07,17.12,4.39,-0.45,5.39
7,-6,-361,-139,-200,3877,0.23,-0.60,-17.88,-1.39,-2.00,38.77,-5.41,-0.07,17.19,3.50,-0.10,10.87
8,-13,-379,-136,-243,3892,0.25,-0.62,-18.40,-1.36,-2.43,38.92,-5.40,-0.07,17.27,3.39,0.93,11.88
1,-19,-389,-137,-213,3856,0.23,-0.67,-18.94,-1.37,-2.13,38.56,-5.38,-0.06,17.34,4.41,1.74,12.21
-4,-23,-392,-123,-260,3868,0.19,-0.74,-19.43,-1.23,-2.60,38.68,-5.37,-0.06,17.42,5.08,2.22,11.98
15,-18,-441,-51,-255,3959,0.26,-0.78,-20.18,-0.51,-2.55,39.59,-5.35,-0.06,17.50,2.30,1.39,15.41
7,-16,-459,-52,-252,3871,0.28,-0.80,-20.96,-0.52,-2.52,38.71,-5.34,-0.07,17.58,3.53,1.06,16.18
30,-8,-508,-14,-267,3933,0.43,-0.77,-21.97,-0.14,-2.67,39.33,-5.32,-0.07,17.67,0.29,-0.10,19.37
13,-14,-524,-31,-361,3842,0.47,-0.78,-22.96,-0.31,-3.61,38.42,-5.32,-0.07,17.76,2.95,0.79,19.76
33,-5,-575,110,-286,3886,0.62,-0.73,-24.18,1.10,-2.86,38.86,-5.30,-0.09,17.86,0.17,-0.47,22.92
2,-22,-564,64,-339,4013,0.57,-0.79,-25.20,0.64,-3.39,40.13,-5.29,-0.12,17.96,4.79,2.03,21.00
9,2,-542,40,-328,3883,0.57,-0.70,-25.99,0.40,-3.28,38.83,-5.28,-0.15,18.06,3.71,-1.45,18.37
7,-7,-532,43,-290,4002,0.56,-0.67,-26.63,0.43,-2.90,40.02,-5.26,-0.17,18.17,3.98,-0.01,16.90
11,-7,-545,62,-319,3895,0.57,-0.65,-27.29,0.62,-3.19,38.95,-5.24,-0.19,18.27,3.38,0.05,17.35
9,-3,-553,16,-297,3871,0.56,-0.60,-27.94,0.16,-2.97,38.71,-5.22,-0.21,18.39,3.66,-0.46,17.40
15,-15,-581,28,-336,3921,0.60,-0.63,-28.69,0.28,-3.36,39.21,-5.20,-0.23,18.50,2.79,1.33,19.04
36,-15,-590,2,-334,3910,0.76,-0.66,-29.42,0.02,-3.34,39.10,-5.18,-0.23,18.62,-0.14,1.28,19.09
17,15,-587,-27,-412,3903,0.79,-0.50,-30.06,-0.27,-4.12,39.03,-5.20,-0.24,18.74,2.82,-3.01,18.21
13,10,-576,-6,-431,4053,0.79,-0.39,-30.56,-0.06,-4.31,40.53,-5.21,-0.24,18.86,3.44,-2.04,16.78
18,8,-520,23,-408,3883,0.82,-0.30,-30.68,0.23,-4.08,38.83,-5.22,-0.26,18.98,2.75,-1.57,11.91
9,-12,-491,-13,-541,3898,0.79,-0.35,-30.61,-0.13,-5.41,38.98,-5.24,-0.27,19.10,4.08,1.41,9.50
2,-3,-442,-66,-438,3843,0.72,-0.33,-30.24,-0.66,-4.38,38.43,-5.25,-0.27,19.22,5.04,0.07,5.67
-3,-11,-432,-81,-401,3970,0.63,-0.36,-29.85,-0.81,-4.01,39.70,-5.25,-0.26,19.34,5.64,1.22,5.18
6,-22,-451,-75,-355,3966,0.61,-0.46,-29.62,-0.75,-3.55,39.66,-5.25,-0.25,19.46,4.21,2.72,6.99
3,-15,-481,-128,-313,3855,0.56,-0.51,-29.59,-1.28,-3.13,38.55,-5.24,-0.25,19.58,4.59,1.57,9.54
1,-14,-648,-79,-166,3922,0.51,-0.54,-30.59,-0.79,-1.66,39.22,-5.22,-0.26,19.70,4.79,1.36,22.73
27,0,-721,-220,-183,3802,0.63,-0.49,-31.92,-2.20,-1.83,38.02,-5.21,-0.25,19.82,1.02,-0.68,27.62
10,-10,-963,-173,-29,3885,0.63,-0.50,-34.61,-1.73,-0.29,38.85,-5.19,-0.26,19.96,3.59,0.83,45.56
31,-8,-1032,-51,-32,3887,0.75,-0.50,-37.44,-0.51,-0.32,38.87,-5.17,-0.27,20.11,0.60,0.53,48.69
19,-20,-1316,-277,-98,3820,0.79,-0.57,-41.72,-2.77,-0.98,38.20,-5.15,-0.27,20.28,2.49,2.24,68.66
58,-31,-1423,-270,-132,3975,1.07,-0.70,-46.23,-2.70,-1.32,39.75,-5.13,-0.28,20.46,-2.98,3.68,73.42
26,-36,-1645,-51,-235,3903,1.12,-0.85,-51.64,-0.51,-2.35,39.03,-5.11,-0.29,20.67,1.98,4.19,87.06
44,-18,-1692,43,-303,3830,1.28,-0.88,-56.80,0.43,-3.03,38.30,-5.09,-0.32,20.89,-0.50,1.42,86.11
32,-3,-1731,-78,-381,3834,1.34,-0.81,-61.68,-0.78,-3.81,38.34,-5.09,-0.33,21.14,1.45,-0.73,84.75
35,-18,-1719,-69,-474,4006,1.42,-0.84,-66.00,-0.69,-4.74,40.06,-5.10,-0.35,21.40,1.14,1.51,79.59
28,-28,-1605,-22,-490,3916,1.45,-0.92,-69.19,-0.22,-4.90,39.16,-5.11,-0.37,21.68,2.26,2.90,66.86
41,-12,-1563,124,-595,3989,1.56,-0.90,-71.80,1.24,-5.95,39.89,-5.12,-0.41,21.96,0.48,0.52,60.77
22,-19,-1372,15,-729,3877,1.53,-0.93,-72.99,0.15,-7.29,38.77,-5.13,-0.44,22.25,3.34,1.57,43.42
16,-26,-1310,62,-752,3912,1.48,-1.00,-73.68,0.62,-7.52,39.12,-5.14,-0.47,22.54,4.17,2.54,37.46
17,-13,-1005,102,-699,3869,1.43,-0.98,-72.45,1.02,-6.99,38.69,-5.15,-0.50,22.83,3.94,0.62,12.75
21,-2,-824,78,-640,3889,1.42,-0.89,-70.23,0.78,-6.40,38.89,-5.16,-0.53,23.11,3.31,-0.88,-0.53
3,-16,-499,51,-725,3928,1.30,-0.90,-66.25,0.51,-7.25,39.28,-5.17,-0.56,23.38,5.84,1.26,-24.33
4,-14,-428,57,-675,3895,1.19,-0.89,-62.24,0.57,-6.75,38.95,-5.18,-0.59,23.62,5.51,0.98,-26.57
4,-5,-198,100,-530,3907,1.10,-0.84,-57.22,1.00,-5.30,39.07,-5.19,-0.62,23.85,5.35,-0.26,-41.34
0,-5,-138,88,-460,3893,0.99,-0.78,-52.34,0.88,-4.60,38.93,-5.20,-0.65,24.06,5.77,-0.14,-41.82
1,0,-60,7,-365,3919,0.89,-0.70,-47.47,0.07,-3.65,39.19,-5.20,-0.65,24.25,5.45,-0.76,-43.84
0,2,-49,-8,-353,3911,0.80,-0.62,-43.02,-0.08,-3.53,39.11,-5.19,-0.65,24.42,5.44,-0.92,-40.58
3,6,-59,50,-339,3952,0.74,-0.52,-39.08,0.50,-3.39,39.52,-5.17,-0.67,24.57,4.85,-1.34,-36.02
4,5,-66,47,-334,3942,0.69,-0.44,-35.58,0.47,-3.34,39.42,-5.14,-0.68,24.72,4.59,-1.02,-32.12
4,1,-75,-101,-307,3892,0.65,-0.39,-32.48,-1.01,-3.07,38.92,-5.14,-0.68,24.85,4.51,-0.33,-28.44
2,-3,-66,-124,-293,3888,0.60,-0.37,-29.63,-1.24,-2.93,38.88,-5.13,-0.67,24.96,4.71,0.32,-26.52
-1,-13,-37,-81,-312,3900,0.53,-0.41,-26.89,-0.81,-3.12,39.00,-5.12,-0.67,25.07,5.04,1.76,-26.39
-1,-12,-34,-60,-302,3894,0.47,-0.44,-24.41,-0.60,-3.02,38.94,-5.11,-0.66,25.17,4.93,1.54,-24.31
1,-7,-33,10,-314,3891,0.43,-0.44,-22.17,0.10,-3.14,38.91,-5.09,-0.66,25.26,4.54,0.78,-22.28
1,1,-34,10,-312,3914,0.39,-0.39,-20.16,0.10,-3.12,39.14,-5.08,-0.65,25.34,4.46,-0.35,-20.30
3,6,-30,-16,-296,3934,0.37,-0.32,-18.33,-0.16,-2.96,39.34,-5.06,-0.65,25.41,4.11,-0.98,-18.92
-1,7,-29,26,-308,3916,0.33,-0.24,-16.67,0.26,-3.08,39.16,-5.04,-0.65,25.48,4.62,-1.00,-17.44
1,7,-49,2,-318,3905,0.30,-0.17,-15.30,0.02,-3.18,39.05,-5.03,-0.64,25.54,4.26,-0.89,-14.46
7,10,-50,-37,-355,3898,0.31,-0.10,-14.08,-0.37,-3.55,38.98,-5.03,-0.63,25.59,3.37,-1.22,-13.22
1,6,-48,9,-276,3905,0.29,-0.05,-12.96,0.09,-2.76,39.05,-5.01,-0.62,25.64,4.23,-0.53,-12.34
2,0,-29,-32,-222,3887,0.27,-0.05,-11.84,-0.32,-2.22,38.87,-5.00,-0.62,25.69,4.03,0.39,-12.89
1,-5,-26,-21,-224,3922,0.25,-0.07,-10.82,-0.21,-2.24,39.22,-4.98,-0.61,25.74,4.13,1.11,-12.18
-2,1,-38,-10,-227,3908,0.21,-0.06,-9.97,-0.10,-2.27,39.08,-4.96,-0.61,25.78,4.51,0.21,-10.36
8,10,-126,-26,-331,3946,0.24,0.01,-9.74,-0.26,-3.31,39.46,-4.96,-0.59,25.81,3.03,-1.05,-2.70
5,6,-139,-33,-348,3948,0.25,0.04,-9.61,-0.33,-3.48,39.48,-4.96,-0.58,25.85,3.50,-0.39,-1.48
8,13,-162,-10,-341,3914,0.27,0.12,-9.64,-0.10,-3.41,39.14,-4.96,-0.56,25.89,3.08,-1.34,0.43
7,11,-173,-1,-343,3912,0.29,0.17,-9.73,-0.01,-3.43,39.12,-4.96,-0.55,25.93,3.26,-0.94,1.27
8,16,-201,4,-348,3883,0.31,0.25,-9.98,0.04,-3.48,38.83,-4.96,-0.53,25.97,3.15,-1.57,3.40
3,9,-202,13,-359,3948,0.29,0.28,-10.22,0.13,-3.59,39.48,-4.97,-0.52,26.01,3.90,-0.46,3.26
8,1,-178,-68,-349,3904,0.31,0.26,-10.28,-0.68,-3.49,39.04,-4.97,-0.50,26.05,3.17,0.70,1.16
6,2,-175,-26,-361,3901,0.32,0.25,-10.32,-0.26,-3.61,39.01,-4.97,-0.49,26.09,3.49,0.52,0.86
-1,4,-172,-112,-376,3885,0.28,0.25,-10.34,-1.12,-3.76,38.85,-4.98,-0.47,26.13,4.49,0.20,0.58
8,11,-167,-136,-421,3875,0.30,0.29,-10.32,-1.36,-4.21,38.75,-4.98,-0.46,26.18,3.16,-0.80,0.16
0,-4,-93,-148,-449,3876,0.27,0.24,-9.86,-1.48,-4.49,38.76,-4.99,-0.45,26.21,4.33,1.38,-5.67
2,-7,-68,-121,-461,3917,0.26,0.17,-9.29,-1.21,-4.61,39.17,-5.00,-0.43,26.25,4.01,1.71,-7.25
0,-3,-55,-26,-308,3913,0.23,0.13,-8.69,-0.26,-3.08,39.13,-4.99,-0.42,26.29,4.26,1.02,-7.80
-2,-2,-42,-2,-373,3885,0.20,0.11,-8.08,-0.02,-3.73,38.85,-5.00,-0.41,26.32,4.51,0.82,-8.32
0,-3,-77,50,-262,3894,0.18,0.08,-7.74,0.50,-2.62,38.94,-4.99,-0.42,26.35,4.15,0.92,-5.04
3,-1,-94,44,-249,3913,0.18,0.07,-7.54,0.44,-2.49,39.13,-4.97,-0.42,26.38,3.68,0.60,-3.41
4,2,-127,-22,-320,3885,0.18,0.07,-7.56,-0.22,-3.20,38.85,-4.96,-0.41,26.41,3.54,0.14,-0.64
0,-2,-137,-10,-345,3891,0.17,0.05,-7.64,-0.10,-3.45,38.91,-4.96,-0.39,26.44,4.12,0.70,0.13
4,-2,-155,-14,-332,3892,0.17,0.03,-7.82,-0.14,-3.32,38.92,-4.96,-0.38,26.47,3.52,0.66,1.47
4,-3,-150,1,-350,3886,0.18,0.01,-7.96,0.01,-3.50,38.86,-4.97,-0.36,26.50,3.54,0.76,0.92
1,-2,-157,-12,-329,3933,0.17,-0.00,-8.12,-0.12,-3.29,39.33,-4.96,-0.35,26.54,3.97,0.57,1.35
7,0,-164,-29,-291,3901,0.19,-0.00,-8.31,-0.29,-2.91,39.01,-4.95,-0.34,26.57,3.09,0.26,1.76
6,6,-196,-64,-331,3882,0.21,0.04,-8.67,-0.64,-3.31,38.82,-4.94,-0.32,26.60,3.27,-0.60,4.12
6,5,-213,-90,-306,3911,0.23,0.06,-9.10,-0.90,-3.06,39.11,-4.94,-0.31,26.64,3.29,-0.41,5.15
-6,0,-233,-177,-386,3920,0.17,0.06,-9.61,-1.77,-3.86,39.20,-4.94,-0.29,26.68,5.02,0.33,6.35
4,-12,-235,-101,-398,3935,0.18,-0.02,-10.09,-1.01,-3.98,39.35,-4.95,-0.28,26.72,3.51,2.01,6.06
4,-7,-231,-77,-355,3871,0.18,-0.06,-10.49,-0.77,-3.55,38.71,-4.95,-0.27,26.76,3.53,1.16,5.34
5,-10,-228,-44,-337,3920,0.19,-0.12,-10.83,-0.44,-3.37,39.20,-4.95,-0.25,26.80,3.40,1.51,4.75
4,-9,-213,32,-334,3896,0.20,-0.16,-11.05,0.32,-3.34,38.96,-4.94,-0.28,26.85,3.55,1.30,3.27
0,-7,-208,61,-330,3894,0.18,-0.19,-11.21,0.61,-3.30,38.94,-4.94,-0.30,26.89,4.13,0.96,2.68
-4,-9,-206,-27,-314,3888,0.14,-0.22,-11.35,-0.27,-3.14,38.88,-4.93,-0.29,26.94,4.65,1.19,2.38
4,-11,-198,-31,-285,3885,0.15,-0.27,-11.42,-0.31,-2.85,38.85,-4.92,-0.28,26.98,3.44,1.41,1.62
1,-18,-186,-14,-353,3921,0.14,-0.35,-11.41,-0.14,-3.53,39.21,-4.92,-0.27,27.03,3.89,2.32,0.61
6,-9,-193,-72,-337,3856,0.16,-0.37,-11.45,-0.72,-3.37,38.56,-4.92,-0.25,27.07,3.17,0.90,1.16
-1,-9,-181,-118,-339,3887,0.14,-0.39,-11.41,-1.18,-3.39,38.87,-4.92,-0.24,27.12,4.19,0.86,0.17
4,-10,-175,-85,-318,3912,0.15,-0.41,-11.33,-0.85,-3.18,39.12,-4.92,-0.23,27.16,3.45,0.96,-0.27
4,-13,-205,-3,-299,3994,0.16,-0.45,-11.45,-0.03,-2.99,39.94,-4.90,-0.23,27.21,3.45,1.35,2.15
-6,-13,-215,-11,-326,3822,0.11,-0.48,-11.62,-0.11,-3.26,38.22,-4.90,-0.21,27.25,4.88,1.28,2.83
3,-15,-224,-123,-248,3844,0.11,-0.53,-11.82,-1.23,-2.48,38.44,-4.89,-0.21,27.30,3.51,1.50,3.39
5,-7,-218,-117,-268,3898,0.13,-0.52,-11.97,-1.17,-2.68,38.98,-4.88,-0.20,27.35,3.24,0.29,2.74
5,-6,-214,54,-371,3894,0.15,-0.50,-12.08,0.54,-3.71,38.94,-4.89,-0.21,27.40,3.28,0.18,2.29
-2,-10,-215,67,-415,3939,0.12,-0.51,-12.18,0.67,-4.15,39.39,-4.91,-0.23,27.45,4.31,0.78,2.26
3,10,-230,77,-355,3933,0.13,-0.40,-12.37,0.77,-3.55,39.33,-4.91,-0.25,27.49,3.56,-2.05,3.35
1,2,-231,70,-410,3990,0.12,-0.35,-12.54,0.70,-4.10,39.90,-4.93,-0.27,27.54,3.86,-0.72,3.27
3,8,-224,-51,-264,3904,0.13,-0.26,-12.65,-0.51,-2.64,39.04,-4.91,-0.26,27.60,3.56,-1.49,2.56
2,0,-210,-53,-271,3902,0.13,-0.24,-12.67,-0.53,-2.71,39.02,-4.90,-0.26,27.65,3.70,-0.23,1.35
1,-11,-150,-89,-313,3888,0.12,-0.28,-12.32,-0.89,-3.13,38.88,-4.90,-0.24,27.69,3.83,1.36,-3.41
4,-4,-122,-111,-334,3898,0.13,-0.28,-11.83,-1.11,-3.34,38.98,-4.89,-0.23,27.74,3.40,0.29,-5.33
5,4,-106,-60,-348,3987,0.15,-0.23,-11.29,-0.60,-3.48,39.87,-4.90,-0.22,27.79,3.28,-0.85,-6.18
-2,-3,-104,-17,-278,3944,0.12,-0.22,-10.80,-0.17,-2.78,39.44,-4.88,-0.21,27.83,4.28,0.22,-5.89
0,3,-158,-26,-153,3984,0.11,-0.18,-10.68,-0.26,-1.53,39.84,-4.86,-0.21,27.87,3.94,-0.62,-1.21
7,0,-181,-21,-128,3905,0.14,-0.16,-10.72,-0.21,-1.28,39.05,-4.84,-0.21,27.91,2.92,-0.13,0.70
2,-6,-318,-34,-113,3897,0.14,-0.18,-11.59,-0.34,-1.13,38.97,-4.82,-0.21,27.96,3.66,0.75,11.47
2,-9,-364,-17,-64,3826,0.14,-0.22,-12.65,-0.17,-0.64,38.26,-4.80,-0.22,28.01,3.64,1.15,14.36
11,-2,-538,73,-190,3857,0.19,-0.21,-14.66,0.73,-1.90,38.57,-4.79,-0.23,28.07,2.35,0.11,27.17
9,5,-590,57,-295,3950,0.23,-0.16,-16.80,0.57,-2.95,39.50,-4.77,-0.25,28.14,2.71,-0.85,29.55
12,-7,-709,140,-290,3955,0.28,-0.19,-19.44,1.40,-2.90,39.55,-4.77,-0.28,28.21,2.34,0.95,37.11
13,-15,-725,-52,-162,3851,0.33,-0.26,-21.92,-0.52,-1.62,38.51,-4.75,-0.28,28.30,2.26,2.04,36.10
8,-32,-665,-88,-137,3802,0.35,-0.43,-23.78,-0.88,-1.37,38.02,-4.73,-0.28,28.40,3.04,4.33,29.23
9,-23,-672,-99,-133,3861,0.37,-0.53,-25.51,-0.99,-1.33,38.61,-4.71,-0.28,28.50,2.91,2.78,28.17
14,-21,-746,-115,-249,3952,0.41,-0.60,-27.51,-1.15,-2.49,39.52,-4.70,-0.27,28.61,2.23,2.34,32.53
6,-29,-774,-118,-192,3899,0.41,-0.72,-29.48,-1.18,-1.92,38.99,-4.69,-0.27,28.72,3.43,3.35,33.01
26,-36,-880,11,-284,3940,0.53,-0.87,-31.90,0.11,-2.84,39.40,-4.67,-0.28,28.85,0.57,4.16,39.67
18,-31,-893,-16,-273,3858,0.58,-0.97,-34.15,-0.16,-2.73,38.58,-4.65,-0.29,28.99,1.88,3.21,38.61
8,-27,-893,-16,-419,3902,0.57,-1.04,-36.19,-0.16,-4.19,39.02,-4.66,-0.29,29.13,3.40,2.49,36.66
2,-23,-876,-17,-487,3824,0.53,-1.07,-37.91,-0.17,-4.87,38.24,-4.68,-0.31,29.28,4.25,1.82,33.56
21,-17,-778,28,-552,3952,0.60,-1.07,-38.87,0.28,-5.52,39.52,-4.69,-0.33,29.44,1.50,0.93,24.32
15,-18,-700,17,-660,3912,0.64,-1.07,-39.25,0.17,-6.60,39.12,-4.71,-0.34,29.59,2.48,1.09,17.33
15,-12,-511,44,-547,3936,0.66,-1.04,-38.44,0.44,-5.47,39.36,-4.72,-0.36,29.75,2.54,0.25,2.06
13,-12,-435,55,-556,3871,0.68,-1.01,-37.25,0.55,-5.56,38.71,-4.74,-0.38,29.89,2.88,0.32,-3.28
2,-9,-301,31,-477,3860,0.62,-0.96,-35.36,0.31,-4.77,38.60,-4.75,-0.40,30.03,4.47,-0.05,-12.86
7,0,-282,7,-486,3850,0.60,-0.87,-33.55,0.07,-4.86,38.50,-4.77,-0.41,30.17,3.68,-1.24,-12.77
13,5,-243,-7,-466,3898,0.62,-0.75,-31.67,-0.07,-4.66,38.98,-4.78,-0.42,30.29,2.81,-1.78,-14.31
9,5,-231,28,-455,3933,0.61,-0.64,-29.92,0.28,-4.55,39.33,-4.80,-0.43,30.41,3.42,-1.58,-13.68
6,4,-175,-24,-394,3900,0.59,-0.55,-27.99,-0.24,-3.94,39.00,-4.81,-0.43,30.52,3.84,-1.27,-16.62
2,3,-156,-42,-396,3889,0.54,-0.48,-26.14,-0.42,-3.96,38.89,-4.82,-0.43,30.63,4.38,-0.99,-16.49
5,-3,-144,-19,-284,3906,0.52,-0.45,-24.41,-0.19,-2.84,39.06,-4.80,-0.42,30.72,3.86,-0.02,-15.88
10,1,-159,-55,-266,3947,0.53,-0.40,-22.94,-0.55,-2.66,39.47,-4.79,-0.42,30.82,3.11,-0.55,-13.22
5,-4,-202,-89,-303,3892,0.51,-0.38,-21.88,-0.89,-3.03,38.92,-4.78,-0.41,30.90,3.83,0.24,-8.59
5,2,-212,-123,-295,3882,0.49,-0.33,-20.98,-1.23,-2.95,38.82,-4.78,-0.40,30.99,3.78,-0.60,-6.91
4,-4,-228,-173,-296,3836,0.46,-0.32,-20.27,-1.73,-2.96,38.36,-4.77,-0.39,31.07,3.89,0.33,-4.89
9,0,-242,-167,-219,3900,0.47,-0.29,-19.72,-1.67,-2.19,39.00,-4.76,-0.38,31.15,3.13,-0.23,-3.20
9,-1,-302,-159,-224,3994,0.48,-0.27,-19.59,-1.59,-2.24,39.94,-4.75,-0.37,31.22,3.14,-0.04,2.00
12,-15,-321,-21,-295,4045,0.50,-0.33,-19.59,-0.21,-2.95,40.45,-4.73,-0.37,31.30,2.72,1.97,3.60
-2,-19,-385,-92,-174,3917,0.44,-0.42,-19.98,-0.92,-1.74,39.17,-4.72,-0.36,31.38,4.73,2.43,8.64
-9,-14,-408,-28,-264,3849,0.34,-0.46,-20.47,-0.28,-2.64,38.49,-4.70,-0.36,31.46,5.61,1.59,10.11
-18,-20,-486,14,-203,3760,0.20,-0.54,-21.39,0.14,-2.03,37.60,-4.68,-0.37,31.55,6.70,2.37,15.83
-16,-24,-516,121,-333,4026,0.08,-0.63,-22.40,1.21,-3.33,40.26,-4.68,-0.40,31.64,6.19,2.84,17.40
-14,-36,-507,110,-515,4185,-0.01,-0.79,-23.25,1.10,-5.15,41.85,-4.70,-0.41,31.73,5.73,4.40,15.82
12,-19,-494,138,-528,3782,0.06,-0.82,-23.94,1.38,-5.28,37.82,-4.71,-0.43,31.82,1.91,1.76,14.05
20,-11,-372,-68,-192,3889,0.18,-0.81,-23.81,-0.68,-1.92,38.89,-4.70,-0.43,31.92,0.88,0.56,3.81
-14,-39,-354,-9,-91,3827,0.07,-0.96,-23.59,-0.09,-0.91,38.27,-4.68,-0.44,32.01,5.87,4.56,2.48
-22,-39,-448,18,-93,3972,-0.07,-1.11,-23.97,0.18,-0.93,39.72,-4.66,-0.45,32.11,6.82,4.31,10.08
-3,-45,-496,24,-171,4008,-0.08,-1.27,-24.59,0.24,-1.71,40.08,-4.64,-0.46,32.21,3.89,4.94,13.53
-4,-35,-676,-54,-164,3956,-0.10,-1.36,-26.26,-0.54,-1.64,39.56,-4.62,-0.47,32.31,4.00,3.27,27.19
1,-2,-709,-113,-334,3849,-0.08,-1.23,-27.96,-1.13,-3.34,38.49,-4.63,-0.47,32.42,3.27,-1.55,28.35
35,14,-749,-167,-328,3564,0.14,-1.02,-29.73,-1.67,-3.28,35.64,-4.63,-0.46,32.54,-1.52,-3.62,30.04
-29,-10,-729,-125,-349,4117,-0.05,-0.98,-31.20,-1.25,-3.49,41.17,-4.63,-0.46,32.66,7.90,0.11,26.93
2,-22,-639,114,-369,3991,-0.03,-1.02,-31.98,1.14,-3.69,39.91,-4.64,-0.49,32.79,3.21,1.90,18.54
-1,-30,-620,125,-361,3754,-0.04,-1.10,-32.57,1.25,-3.61,37.54,-4.65,-0.52,32.92,3.67,3.00,16.36
6,-35,-580,76,-337,3862,0.00,-1.20,-32.85,0.76,-3.37,38.62,-4.65,-0.55,33.05,2.68,3.60,12.68
-16,-32,-567,20,-349,3778,-0.09,-1.28,-33.02,0.20,-3.49,37.78,-4.67,-0.56,33.18,5.87,3.02,11.39
-8,-24,-605,-98,-271,3737,-0.13,-1.30,-33.41,-0.98,-2.71,37.37,-4.66,-0.56,33.32,4.57,1.76,14.22
17,-20,-608,-53,-461,4201,-0.02,-1.29,-33.78,-0.53,-4.61,42.01,-4.68,-0.56,33.45,0.98,1.17,14.11
4,-17,-577,29,-432,4041,0.01,-1.26,-33.92,0.29,-4.32,40.41,-4.69,-0.58,33.58,3.02,0.77,11.33
15,-14,-550,-56,-558,3805,0.10,-1.22,-33.88,-0.56,-5.58,38.05,-4.71,-0.59,33.72,1.52,0.39,9.05
14,-2,-411,2,-601,3822,0.18,-1.11,-33.00,0.02,-6.01,38.22,-4.73,-0.60,33.85,1.82,-1.23,-1.91
5,-8,-333,14,-583,3906,0.19,-1.05,-31.73,0.14,-5.83,39.06,-4.74,-0.61,33.98,3.23,-0.19,-7.33
6,1,-224,23,-486,3874,0.21,-0.94,-29.93,0.23,-4.86,38.74,-4.76,-0.62,34.09,3.12,-1.36,-14.87
3,7,-204,18,-472,3885,0.20,-0.80,-28.18,0.18,-4.72,38.85,-4.77,-0.63,34.21,3.58,-2.02,-14.93
7,4,-137,41,-435,3917,0.23,-0.70,-26.20,0.41,-4.35,39.17,-4.79,-0.64,34.31,3.03,-1.37,-18.74
5,2,-115,30,-413,3920,0.23,-0.62,-24.28,0.30,-4.13,39.20,-4.81,-0.65,34.41,3.36,-0.91,-18.80
3,-2,-73,17,-306,3930,0.23,-0.57,-22.29,0.17,-3.06,39.30,-4.79,-0.65,34.50,3.64,-0.21,-20.49
4,-5,-58,33,-269,3887,0.23,-0.54,-20.42,0.33,-2.69,38.87,-4.77,-0.65,34.58,3.48,0.30,-19.99
0,-10,-20,60,-278,3904,0.21,-0.55,-18.50,0.60,-2.78,39.04,-4.75,-0.67,34.65,4.03,1.06,-21.40
-1,-12,-13,25,-307,3899,0.18,-0.57,-16.73,0.25,-3.07,38.99,-4.74,-0.66,34.72,4.13,1.32,-20.33
0,-3,-1,-3,-318,3907,0.16,-0.53,-15.06,-0.03,-3.18,39.07,-4.74,-0.65,34.78,3.94,0.01,-19.77
0,2,0,-3,-326,3927,0.15,-0.46,-13.56,-0.03,-3.26,39.27,-4.74,-0.64,34.83,3.91,-0.64,-18.44
0,2,-5,10,-344,3907,0.13,-0.40,-12.23,0.10,-3.44,39.07,-4.74,-0.63,34.88,3.89,-0.55,-16.76
0,3,-7,-2,-349,3900,0.12,-0.35,-11.05,-0.02,-3.49,39.00,-4.75,-0.62,34.92,3.87,-0.60,-15.48
0,1,3,17,-313,3878,0.11,-0.30,-9.93,0.17,-3.13,38.78,-4.74,-0.60,34.96,3.84,-0.23,-15.27
4,3,6,-3,-340,3907,0.12,-0.26,-8.90,-0.03,-3.40,39.07,-4.75,-0.59,35.00,3.26,-0.46,-14.55
4,2,7,13,-340,3881,0.13,-0.22,-7.97,0.13,-3.40,38.81,-4.76,-0.58,35.03,3.29,-0.25,-13.76
5,5,6,30,-328,3899,0.15,-0.17,-7.13,0.30,-3.28,38.99,-4.76,-0.56,35.06,3.18,-0.63,-12.89
-1,1,-27,27,-250,3900,0.13,-0.14,-6.58,0.27,-2.50,39.00,-4.75,-0.56,35.08,4.04,0.02,-9.57
-1,-4,-42,15,-267,3919,0.11,-0.15,-6.18,0.15,-2.67,39.19,-4.73,-0.56,35.11,3.99,0.77,-7.92
-1,-5,-49,-6,-398,3894,0.09,-0.17,-5.86,-0.06,-3.98,38.94,-4.74,-0.55,35.13,3.97,0.89,-7.03
0,-4,-43,-8,-406,3911,0.08,-0.18,-5.54,-0.08,-4.06,39.11,-4.76,-0.55,35.15,3.81,0.72,-7.24
-1,-5,-20,15,-366,3908,0.07,-0.19,-5.11,0.15,-3.66,39.08,-4.77,-0.54,35.17,3.95,0.84,-8.78
0,-4,-15,20,-349,3914,0.06,-0.19,-4.69,0.20,-3.49,39.14,-4.79,-0.53,35.19,3.80,0.67,-8.81
-1,-5,-9,-3,-354,3888,0.05,-0.21,-4.27,-0.03,-3.54,38.88,-4.80,-0.52,35.21,3.94,0.79,-8.93
2,-7,-10,-33,-367,3884,0.06,-0.23,-3.91,-0.33,-3.67,38.84,-4.81,-0.51,35.23,3.50,1.05,-8.50
1,-3,-13,35,-314,3900,0.06,-0.22,-3.60,0.35,-3.14,39.00,-4.79,-0.51,35.24,3.64,0.45,-7.95
2,-3,-6,39,-329,3909,0.06,-0.22,-3.27,0.39,-3.29,39.09,-4.79,-0.53,35.25,3.50,0.47,-8.24
3,4,3,1,-328,3911,0.08,-0.17,-2.93,0.01,-3.28,39.11,-4.79,-0.51,35.26,3.37,-0.53,-8.67
2,1,0,-5,-359,3924,0.08,-0.15,-2.63,-0.05,-3.59,39.24,-4.80,-0.50,35.27,3.54,-0.04,-8.14
-1,-5,-12,18,-354,3905,0.07,-0.17,-2.44,0.18,-3.54,39.05,-4.82,-0.49,35.28,3.98,0.84,-6.95
1,-8,-25,-12,-325,3871,0.07,-0.20,-2.35,-0.12,-3.25,38.71,-4.82,-0.47,35.29,3.68,1.23,-5.76
-9,-16,-86,-16,-419,3921,0.00,-0.28,-2.64,-0.16,-4.19,39.21,-4.83,-0.47,35.30,5.10,2.30,-0.87
0,-10,-114,-129,-330,3898,0.00,-0.31,-3.07,-1.29,-3.30,38.98,-4.83,-0.45,35.32,3.73,1.32,1.09
11,-13,-134,-1,-416,3897,0.07,-0.36,-3.58,-0.01,-4.16,38.97,-4.85,-0.45,35.33,2.18,1.69,2.30
6,-12,-118,53,-387,3908,0.10,-0.39,-3.94,0.53,-3.87,39.08,-4.87,-0.46,35.35,3.01,1.47,0.60
7,-10,-92,-70,-435,3914,0.13,-0.42,-4.11,-0.70,-4.35,39.14,-4.88,-0.45,35.36,2.93,1.12,-1.76
9,-7,-91,-85,-459,3877,0.17,-0.42,-4.26,-0.85,-4.59,38.77,-4.89,-0.44,35.38,2.71,0.66,-1.99
7,3,-83,-83,-507,3862,0.20,-0.36,-4.34,-0.83,-5.07,38.62,-4.91,-0.43,35.40,3.07,-0.77,-2.75
3,9,-75,-96,-524,3818,0.20,-0.27,-4.36,-0.96,-5.24,38.18,-4.92,-0.42,35.41,3.69,-1.53,-3.45
14,21,-18,-105,-547,3790,0.26,-0.11,-4.03,-1.05,-5.47,37.90,-4.94,-0.41,35.43,2.14,-3.08,-7.97
13,18,42,-69,-405,3998,0.32,0.01,-3.37,-0.69,-4.05,39.98,-4.94,-0.40,35.44,2.39,-2.42,-12.43
-4,-2,165,100,-395,3829,0.26,-0.00,-2.03,1.00,-3.95,38.29,-4.96,-0.41,35.45,4.89,0.62,-21.58
-10,6,190,98,-363,3787,0.17,0.03,-0.67,0.98,-3.63,37.87,-4.96,-0.43,35.45,5.66,-0.52,-22.40
-9,9,221,102,-104,3679,0.10,0.08,0.75,1.02,-1.04,36.79,-4.95,-0.44,35.45,5.36,-0.88,-23.69
-14,1,215,135,32,4161,0.01,0.08,1.98,1.35,0.32,41.61,-4.93,-0.44,35.44,5.94,0.33,-22.00
12,4,98,108,-215,4053,0.08,0.10,2.38,1.08,-2.15,40.53,-4.91,-0.45,35.43,2.09,-0.09,-11.71
9,-3,94,62,-299,3839,0.13,0.07,2.72,0.62,-2.99,38.39,-4.90,-0.46,35.42,2.62,0.94,-11.05
-2,6,95,69,-311,3851,0.10,0.10,3.03,0.69,-3.11,38.51,-4.89,-0.47,35.41,4.25,-0.37,-10.84
1,17,98,36,-296,3817,0.10,0.19,3.32,0.36,-2.96,38.17,-4.87,-0.48,35.40,3.77,-1.88,-10.81
2,9,90,13,-337,3895,0.10,0.23,3.54,0.13,-3.37,38.95,-4.88,-0.46,35.38,3.63,-0.61,-9.93
-2,3,77,-83,-311,3826,0.08,0.22,3.65,-0.83,-3.11,38.26,-4.87,-0.44,35.37,4.20,0.28,-8.72
3,-4,24,20,-210,3850,0.09,0.18,3.43,0.20,-2.10,38.50,-4.85,-0.43,35.35,3.44,1.26,-4.43
2,-5,13,15,-256,3957,0.09,0.13,3.17,0.15,-2.56,39.57,-4.84,-0.43,35.34,3.58,1.32,-3.75
-1,-5,4,-12,-330,3927,0.08,0.09,2.88,-0.12,-3.30,39.27,-4.84,-0.41,35.33,4.01,1.23,-3.26
0,-4,4,-16,-341,3889,0.07,0.05,2.61,-0.16,-3.41,38.89,-4.84,-0.39,35.32,3.85,1.00,-3.51
2,3,9,16,-342,3905,0.07,0.07,2.41,0.16,-3.42,39.05,-4.85,-0.38,35.31,3.56,-0.05,-4.13
1,2,13,11,-336,3907,0.07,0.07,2.25,0.11,-3.36,39.07,-4.86,-0.36,35.30,3.72,0.10,-4.62
-2,1,21,37,-256,3899,0.05,0.07,2.15,0.37,-2.56,38.99,-4.84,-0.36,35.29,4.13,0.25,-5.39
1,-1,13,18,-248,3914,0.05,0.06,2.01,0.18,-2.48,39.14,-4.82,-0.36,35.29,3.66,0.53,-4.84
0,-2,6,9,-312,3904,0.05,0.04,1.85,0.09,-3.12,39.04,-4.81,-0.34,35.28,3.79,0.64,-4.40
2,-1,3,10,-342,3899,0.06,0.03,1.68,0.10,-3.42,38.99,-4.82,-0.33,35.27,3.51,0.46,-4.30
2,3,4,22,-326,3896,0.06,0.04,1.54,0.22,-3.26,38.96,-4.80,-0.33,35.27,3.50,-0.13,-4.52
0,1,7,3,-325,3909,0.06,0.05,1.43,0.03,-3.25,39.09,-4.80,-0.31,35.26,3.80,0.17,-4.88
4,6,8,9,-340,3904,0.07,0.08,1.33,0.09,-3.40,39.04,-4.81,-0.29,35.25,3.23,-0.55,-5.05
4,4,8,10,-347,3901,0.09,0.09,1.25,0.10,-3.47,39.01,-4.83,-0.28,35.25,3.27,-0.22,-5.13
2,4,8,-3,-353,3888,0.09,0.11,1.17,-0.03,-3.53,38.88,-4.84,-0.27,35.24,3.59,-0.20,-5.20
1,4,6,-7,-353,3895,0.09,0.12,1.09,-0.07,-3.53,38.95,-4.85,-0.26,35.24,3.75,-0.19,-5.11
0,0,1,10,-340,3906,0.08,0.11,0.99,0.10,-3.40,39.06,-4.87,-0.24,35.24,3.89,0.39,-4.78
0,-2,0,7,-346,3882,0.07,0.09,0.89,0.07,-3.46,38.82,-4.88,-0.23,35.23,3.89,0.64,-4.79
-3,-4,-3,6,-331,3897,0.05,0.05,0.78,0.06,-3.31,38.97,-4.88,-0.21,35.23,4.30,0.87,-4.64
-2,-5,-3,7,-320,3895,0.03,0.02,0.69,0.07,-3.20,38.95,-4.86,-0.20,35.23,4.11,0.95,-4.73
-1,-4,0,-5,-332,3898,0.02,-0.01,0.62,-0.05,-3.32,38.98,-4.86,-0.19,35.22,3.94,0.74,-5.05
0,-2,0,-4,-326,3902,0.02,-0.02,0.56,-0.04,-3.26,39.02,-4.86,-0.17,35.22,3.77,0.40,-5.11
1,2,2,4,-338,3904,0.02,-0.01,0.51,0.04,-3.38,39.04,-4.87,-0.15,35.22,3.64,-0.20,-5.32
1,2,3,1,-336,3897,0.03,0.01,0.48,0.01,-3.36,38.97,-4.87,-0.14,35.22,3.65,-0.19,-5.43
2,0,5,3,-340,3899,0.04,0.01,0.46,0.03,-3.40,38.99,-4.89,-0.13,35.22,3.53,0.11,-5.62
1,0,4,5,-335,3902,0.04,0.01,0.44,0.05,-3.35,39.02,-4.89,-0.11,35.21,3.69,0.09,-5.56
-1,-5,2,16,-331,3898,0.03,-0.02,0.41,0.16,-3.31,38.98,-4.89,-0.13,35.21,3.97,0.81,-5.42
0,-6,2,16,-318,3908,0.03,-0.06,0.38,0.16,-3.18,39.08,-4.87,-0.13,35.21,3.80,0.91,-5.44
0,-9,33,43,-342,3847,0.02,-0.11,0.54,0.43,-3.42,38.47,-4.88,-0.15,35.21,3.80,1.29,-7.91
1,-6,53,47,-371,3937,0.03,-0.13,0.81,0.47,-3.71,39.37,-4.89,-0.16,35.21,3.66,0.80,-9.35
-14,2,92,-14,-281,3916,-0.06,-0.11,1.29,-0.14,-2.81,39.16,-4.88,-0.16,35.20,5.78,-0.38,-12.20
-10,1,80,-25,-237,3882,-0.12,-0.09,1.65,-0.25,-2.37,38.82,-4.86,-0.15,35.19,5.06,-0.20,-10.84
2,9,28,-12,-326,3898,-0.09,-0.03,1.66,-0.12,-3.26,38.98,-4.85,-0.13,35.19,3.27,-1.32,-6.43
4,9,24,-34,-314,3894,-0.06,0.03,1.64,-0.34,-3.14,38.94,-4.85,-0.11,35.18,3.02,-1.23,-6.11
3,8,22,14,-353,3906,-0.03,0.08,1.61,0.14,-3.53,39.06,-4.87,-0.12,35.17,3.23,-0.99,-5.97
0,7,25,9,-352,3898,-0.03,0.11,1.60,0.09,-3.52,38.98,-4.88,-0.12,35.17,3.71,-0.78,-6.23
1,5,25,6,-326,3902,-0.02,0.13,1.59,0.06,-3.26,39.02,-4.87,-0.11,35.16,3.56,-0.44,-6.23
2,5,21,1,-331,3898,-0.01,0.15,1.56,0.01,-3.31,38.98,-4.86,-0.09,35.16,3.43,-0.43,-5.92
-3,5,9,-8,-246,3928,-0.02,0.16,1.46,-0.08,-2.46,39.28,-4.85,-0.09,35.15,4.14,-0.40,-5.00
0,6,10,20,-387,3873,-0.02,0.18,1.37,0.20,-3.87,38.73,-4.86,-0.09,35.14,3.71,-0.52,-5.17
-1,4,14,2,-321,3909,-0.03,0.19,1.32,0.02,-3.21,39.09,-4.85,-0.08,35.14,3.84,-0.20,-5.55
-1,3,13,-2,-333,3895,-0.03,0.19,1.27,-0.02,-3.33,38.95,-4.85,-0.07,35.13,3.84,-0.07,-5.52
1,3,8,16,-347,3900,-0.02,0.19,1.19,0.16,-3.47,39.00,-4.87,-0.07,35.13,3.56,-0.06,-5.17
1,3,7,11,-352,3894,-0.01,0.19,1.12,0.11,-3.52,38.94,-4.89,-0.08,35.13,3.59,-0.06,-5.15
3,2,5,13,-348,3904,0.01,0.18,1.03,0.13,-3.48,39.04,-4.90,-0.09,35.12,3.33,0.09,-5.06
3,2,4,11,-355,3895,0.02,0.18,0.96,0.11,-3.55,38.95,-4.92,-0.09,35.12,3.37,0.08,-5.05
4,5,23,55,-398,3955,0.05,0.19,1.00,0.55,-3.98,39.55,-4.93,-0.10,35.11,3.27,-0.35,-6.62
1,1,87,186,-575,3917,0.05,0.18,1.43,1.86,-5.75,39.17,-4.95,-0.11,35.11,3.74,0.25,-11.63
-2,3,147,-77,-241,3936,0.03,0.18,2.18,-0.77,-2.41,39.36,-4.93,-0.10,35.10,4.16,-0.07,-16.00
0,9,107,-87,-263,3916,0.03,0.21,2.62,-0.87,-2.63,39.16,-4.92,-0.08,35.09,3.84,-0.93,-12.19
3,10,32,-28,-346,3877,0.04,0.25,2.55,-0.28,-3.46,38.77,-4.93,-0.06,35.08,3.42,-1.02,-5.90
-2,11,25,-4,-366,3902,0.03,0.30,2.45,-0.04,-3.66,39.02,-4.95,-0.05,35.07,4.16,-1.11,-5.41
1,6,8,7,-340,3891,0.03,0.30,2.25,0.07,-3.40,38.91,-4.96,-0.07,35.06,3.72,-0.32,-4.15
0,5,6,11,-333,3897,0.03,0.30,2.06,0.11,-3.33,38.97,-4.95,-0.08,35.05,3.86,-0.16,-4.16
1,5,3,15,-330,3897,0.03,0.30,1.88,0.15,-3.30,38.97,-4.94,-0.09,35.04,3.70,-0.15,-4.08
2,4,2,12,-340,3889,0.04,0.30,1.70,0.12,-3.40,38.89,-4.95,-0.10,35.04,3.58,0.00,-4.16
2,4,2,3,-338,3905,0.05,0.29,1.54,0.03,-3.38,39.05,-4.95,-0.08,35.03,3.59,-0.02,-4.31
3,5,2,7,-339,3889,0.06,0.29,1.40,0.07,-3.39,38.89,-4.96,-0.09,35.03,3.47,-0.17,-4.44
0,4,-1,-1,-340,3885,0.06,0.29,1.25,-0.01,-3.40,38.85,-4.97,-0.07,35.02,3.93,-0.04,-4.33
-2,2,2,11,-340,3915,0.04,0.27,1.14,0.11,-3.40,39.15,-4.97,-0.09,35.02,4.20,0.25,-4.69
-1,-1,-1,9,-349,3896,0.03,0.24,1.02,0.09,-3.49,38.96,-4.98,-0.09,35.01,4.04,0.65,-4.55
1,-1,-2,8,-367,3934,0.03,0.21,0.91,0.08,-3.67,39.34,-5.00,-0.09,35.01,3.76,0.60,-4.57
15,10,42,-10,-464,3888,0.12,0.25,1.07,-0.10,-4.64,38.88,-5.02,-0.09,35.01,1.79,-1.01,-8.14
18,19,63,4,-533,3974,0.22,0.34,1.35,0.04,-5.33,39.74,-5.04,-0.09,35.00,1.52,-2.22,-9.66
9,22,179,83,-703,3890,0.25,0.44,2.31,0.83,-7.03,38.90,-5.05,-0.09,34.99,2.97,-2.50,-18.58
9,24,235,33,-669,3931,0.28,0.54,3.51,0.33,-6.69,39.31,-5.07,-0.09,34.98,3.04,-2.62,-22.18
-24,-2,447,-118,-453,3766,0.11,0.48,5.89,-1.18,-4.53,37.66,-5.08,-0.07,34.95,7.76,1.21,-37.88
4,52,496,-114,-318,3936,0.12,0.75,8.32,-1.14,-3.18,39.36,-5.08,-0.05,34.92,3.52,-6.56,-39.71
15,80,527,-175,-152,3821,0.20,1.16,10.70,-1.75,-1.52,38.21,-5.06,-0.02,34.88,1.97,-10.10,-40.07
11,-29,479,147,-350,4088,0.25,0.87,12.56,1.47,-3.50,40.88,-5.06,-0.03,34.83,2.66,6.00,-34.24
-7,-10,575,-24,-326,3809,0.18,0.72,14.81,-0.24,-3.26,38.09,-5.05,-0.01,34.77,5.28,2.82,-40.23
36,64,596,-87,-393,3572,0.38,1.04,16.96,-0.87,-3.93,35.72,-5.07,0.01,34.70,-0.91,-7.91,-39.95
-4,30,629,49,-360,3743,0.32,1.12,19.10,0.49,-3.60,37.43,-5.07,0.01,34.63,5.09,-2.58,-40.70
-10,24,642,9,-385,4045,0.23,1.15,21.11,0.09,-3.85,40.45,-5.09,0.01,34.54,5.85,-1.61,-39.89
-24,-21,574,-39,-302,4555,0.06,0.91,22.50,-0.39,-3.02,45.55,-5.07,0.03,34.45,7.67,4.81,-32.79
-1,-5,536,16,-359,3362,0.04,0.79,23.52,0.16,-3.59,33.62,-5.09,0.04,34.36,4.15,2.14,-28.59
-10,-2,539,-131,-346,3586,-0.02,0.70,24.46,-1.31,-3.46,35.86,-5.09,0.07,34.26,5.41,1.50,-27.94
3,49,557,-186,-361,3645,-0.00,0.93,25.41,-1.86,-3.61,36.45,-5.10,0.10,34.16,3.47,-5.89,-28.55
3,29,595,-92,-433,3791,0.02,1.01,26.50,-0.92,-4.33,37.91,-5.11,0.12,34.06,3.51,-2.71,-30.72
-4,4,603,-53,-402,3997,-0.01,0.93,27.52,-0.53,-4.02,39.97,-5.12,0.15,33.95,4.54,0.95,-30.40
-20,9,635,-62,-401,3908,-0.13,0.89,28.65,-0.62,-4.01,39.08,-5.13,0.18,33.83,6.77,0.09,-32.03
-16,7,642,35,-413,3897,-0.21,0.85,29.70,0.35,-4.13,38.97,-5.15,0.18,33.72,6.02,0.31,-31.61
-12,15,694,-38,-341,3871,-0.27,0.85,30.96,-0.38,-3.41,38.71,-5.15,0.21,33.59,5.32,-0.92,-34.79
-9,17,701,-57,-356,3866,-0.29,0.87,32.14,-0.57,-3.56,38.66,-5.15,0.25,33.47,4.81,-1.22,-34.25
-7,16,714,-48,-313,3901,-0.31,0.88,33.28,-0.48,-3.13,39.01,-5.14,0.27,33.33,4.47,-1.07,-34.24
-6,23,704,-42,-332,3802,-0.31,0.94,34.25,-0.42,-3.32,38.02,-5.13,0.31,33.20,4.30,-2.07,-32.46
1,12,662,47,-318,3891,-0.28,0.91,34.86,0.47,-3.18,38.91,-5.12,0.31,33.06,3.30,-0.43,-28.30
-9,7,646,66,-298,3872,-0.30,0.87,35.32,0.66,-2.98,38.72,-5.11,0.31,32.92,4.77,0.25,-26.49
-12,3,605,173,-314,3874,-0.35,0.80,35.48,1.73,-3.14,38.74,-5.11,0.30,32.78,5.15,0.74,-22.84
-18,3,585,299,-347,3811,-0.42,0.74,35.50,2.99,-3.47,38.11,-5.11,0.30,32.64,5.93,0.63,-21.10
-13,3,550,224,-248,3792,-0.46,0.68,35.30,2.24,-2.48,37.92,-5.11,0.30,32.50,5.09,0.53,-18.30
-18,-6,550,185,-245,4028,-0.52,0.58,35.13,1.85,-2.45,40.28,-5.10,0.30,32.36,5.74,1.72,-18.44
-15,-10,517,226,-351,4065,-0.56,0.46,34.77,2.26,-3.51,40.65,-5.10,0.29,32.22,5.21,2.12,-15.97
-1,-1,502,217,-386,3885,-0.51,0.41,34.35,2.17,-3.86,38.85,-5.10,0.29,32.08,3.17,0.66,-15.07
-5,5,491,86,-431,3885,-0.49,0.40,33.91,0.86,-4.31,38.85,-5.12,0.29,31.95,3.82,-0.28,-14.53
-20,-11,513,45,-391,3885,-0.56,0.29,33.65,0.45,-3.91,38.85,-5.13,0.29,31.81,5.99,1.98,-16.62
-35,-12,601,22,-391,3988,-0.72,0.19,33.95,0.22,-3.91,39.88,-5.14,0.28,31.68,8.00,1.95,-23.77
-31,-6,634,0,-414,3895,-0.84,0.13,34.42,0.00,-4.14,38.95,-5.16,0.29,31.54,7.20,0.93,-26.10
-14,11,718,-87,-364,3890,-0.84,0.19,35.36,-0.87,-3.64,38.90,-5.17,0.32,31.40,4.61,-1.59,-32.30
-21,10,744,-18,-334,3996,-0.88,0.23,36.36,-0.18,-3.34,39.96,-5.15,0.33,31.25,5.59,-1.37,-33.53
-14,20,772,6,-307,3865,-0.88,0.33,37.44,0.06,-3.07,38.65,-5.14,0.34,31.11,4.51,-2.72,-34.86
0,21,771,-18,-303,3935,-0.79,0.42,38.40,-0.18,-3.03,39.35,-5.13,0.35,30.95,2.53,-2.72,-33.84
-26,7,773,-9,-290,3921,-0.87,0.42,39.27,-0.09,-2.90,39.21,-5.11,0.36,30.80,6.34,-0.59,-33.15
-10,11,783,1,-291,3813,-0.85,0.45,40.12,0.01,-2.91,38.13,-5.10,0.37,30.64,3.93,-1.16,-33.17
-8,14,819,-66,-326,3872,-0.81,0.49,41.10,-0.66,-3.26,38.72,-5.09,0.40,30.47,3.69,-1.57,-35.26
-26,6,824,-100,-299,3959,-0.89,0.48,42.02,-1.00,-2.99,39.59,-5.08,0.44,30.30,6.29,-0.40,-34.79
-28,3,825,-280,-317,3966,-0.97,0.45,42.85,-2.80,-3.17,39.66,-5.08,0.47,30.13,6.44,-0.02,-34.06
2,18,828,-286,-271,3865,-0.86,0.51,43.62,-2.86,-2.71,38.65,-5.08,0.51,29.96,2.06,-2.22,-33.56
-20,13,827,-309,-346,3883,-0.90,0.54,44.30,-3.09,-3.46,38.83,-5.08,0.54,29.78,5.35,-1.43,-32.80
-20,5,840,-285,-302,3899,-0.93,0.52,44.99,-2.85,-3.02,38.99,-5.08,0.58,29.61,5.30,-0.28,-33.21
-15,7,813,-25,-278,3904,-0.93,0.51,45.45,-0.25,-2.78,39.04,-5.06,0.59,29.42,4.52,-0.61,-30.46
-17,18,802,56,-319,3847,-0.94,0.57,45.80,0.56,-3.19,38.47,-5.06,0.59,29.24,4.81,-2.19,-29.17
-8,33,784,146,-260,3839,-0.89,0.71,46.00,1.46,-2.60,38.39,-5.06,0.60,29.06,3.51,-4.22,-27.42
-14,29,783,134,-228,3931,-0.89,0.82,46.18,1.34,-2.28,39.31,-5.05,0.60,28.87,4.43,-3.42,-27.14
-5,28,796,121,-207,3883,-0.83,0.91,46.42,1.21,-2.07,38.83,-5.04,0.61,28.69,3.15,-3.11,-27.99
-14,17,802,110,-169,3966,-0.83,0.92,46.67,1.10,-1.69,39.66,-5.02,0.61,28.50,4.51,-1.42,-28.23
-10,17,780,17,-264,3892,-0.81,0.93,46.76,0.17,-2.64,38.92,-5.01,0.62,28.32,3.93,-1.40,-26.25
-30,8,764,17,-309,3802,-0.91,0.89,46.74,0.17,-3.09,38.02,-5.01,0.63,28.13,6.79,-0.11,-24.88
-3,9,674,129,-356,3896,-0.84,0.85,46.18,1.29,-3.56,38.96,-5.01,0.63,27.95,2.81,-0.33,-17.75
-20,7,652,135,-406,3843,-0.88,0.81,45.54,1.35,-4.06,38.43,-5.02,0.63,27.77,5.34,-0.10,-16.47
-11,17,627,59,-362,3938,-0.86,0.83,44.81,0.59,-3.62,39.38,-5.02,0.63,27.59,4.01,-1.58,-15.02
-9,8,627,49,-291,3994,-0.83,0.80,44.15,0.49,-2.91,39.94,-5.01,0.63,27.41,3.75,-0.28,-15.61
-14,19,687,-127,-250,3996,-0.83,0.83,43.93,-1.27,-2.50,39.96,-5.00,0.66,27.24,4.50,-1.91,-20.88
-11,16,709,-103,-289,3845,-0.81,0.85,43.86,-1.03,-2.89,38.45,-4.99,0.70,27.06,4.06,-1.45,-22.78
5,20,764,-94,-346,3864,-0.70,0.89,44.14,-0.94,-3.46,38.64,-4.99,0.73,26.89,1.82,-2.03,-27.15
-9,24,773,-55,-488,3768,-0.69,0.94,44.44,-0.55,-4.88,37.68,-5.01,0.75,26.71,4.00,-2.55,-27.60
-15,14,741,-56,-416,3775,-0.71,0.93,44.51,-0.56,-4.16,37.75,-5.03,0.77,26.53,4.89,-1.06,-24.79
-15,12,725,-30,-427,3918,-0.73,0.91,44.48,-0.30,-4.27,39.18,-5.05,0.79,26.36,4.87,-0.80,-23.43
-14,3,771,-40,-243,3930,-0.74,0.84,44.74,-0.40,-2.43,39.30,-5.03,0.81,26.18,4.68,0.43,-27.06
-7,7,787,-36,-341,3905,-0.71,0.80,45.07,-0.36,-3.41,39.05,-5.03,0.81,26.00,3.67,-0.25,-28.07
-22,6,817,-38,-435,3944,-0.77,0.76,45.54,-0.38,-4.35,39.44,-5.05,0.82,25.82,5.85,-0.19,-30.13
-21,5,823,-15,-387,3915,-0.82,0.71,46.01,-0.15,-3.87,39.15,-5.06,0.83,25.64,5.62,-0.12,-30.17
0,16,833,210,-400,3928,-0.74,0.74,46.49,2.10,-4.00,39.28,-5.06,0.83,25.45,2.57,-1.76,-30.53
-13,-1,838,286,-389,3911,-0.75,0.66,46.95,2.86,-3.89,39.11,-5.07,0.83,25.26,4.54,0.69,-30.49
-11,9,890,78,-375,3799,-0.74,0.65,47.69,0.78,-3.75,37.99,-5.07,0.83,25.08,4.26,-0.85,-34.17
-13,24,923,-6,-357,3941,-0.74,0.73,48.55,-0.06,-3.57,39.41,-5.07,0.83,24.88,4.55,-3.00,-36.11
-17,23,1027,44,-415,3941,-0.77,0.80,49.96,0.44,-4.15,39.41,-5.08,0.84,24.68,5.12,-2.73,-43.55
-14,15,1041,96,-432,3994,-0.78,0.81,51.31,0.96,-4.32,39.94,-5.09,0.84,24.48,4.65,-1.49,-43.42
-2,24,1091,400,-429,3886,-0.72,0.87,52.84,4.00,-4.29,38.86,-5.10,0.85,24.27,2.95,-2.75,-46.18
-11,26,1125,433,-473,3848,-0.71,0.94,54.41,4.33,-4.73,38.48,-5.10,0.85,24.05,4.33,-2.93,-47.53
-8,29,1189,350,-600,3920,-0.69,1.03,56.23,3.50,-6.00,39.20,-5.11,0.86,23.83,3.92,-3.24,-51.19
-22,25,1208,249,-594,3928,-0.75,1.08,57.97,2.49,-5.94,39.28,-5.12,0.87,23.60,5.94,-2.55,-51.11
-22,23,1297,16,-648,3918,-0.81,1.11,60.09,0.16,-6.48,39.18,-5.14,0.89,23.36,5.85,-2.21,-56.61
-15,30,1325,-40,-613,3873,-0.82,1.18,62.16,-0.40,-6.13,38.73,-5.15,0.92,23.11,4.78,-3.16,-56.97
-2,33,1401,-159,-586,3922,-0.75,1.26,64.49,-1.59,-5.86,39.22,-5.17,0.95,22.86,2.94,-3.50,-61.16
-18,18,1426,-295,-570,3904,-0.79,1.25,66.74,-2.95,-5.70,39.04,-5.18,1.00,22.59,5.32,-1.27,-61.10
-24,6,1524,-757,-446,3948,-0.86,1.16,69.36,-7.57,-4.46,39.48,-5.18,1.05,22.32,6.12,0.36,-66.87
-29,5,1538,-862,-332,3814,-0.95,1.07,71.81,-8.62,-3.32,38.14,-5.18,1.09,22.03,6.71,0.32,-65.69
-42,2,1551,-1097,-333,3761,-1.11,0.98,74.09,-10.97,-3.33,37.61,-5.18,1.14,21.74,8.41,0.57,-64.58
-24,-5,1526,-963,-201,3908,-1.14,0.85,75.99,-9.63,-2.01,39.08,-5.17,1.19,21.43,5.59,1.37,-60.61
-38,-1,1396,-133,-156,3970,-1.26,0.76,76.90,-1.33,-1.56,39.70,-5.16,1.23,21.13,7.50,0.57,-48.68
-36,5,1343,67,-90,4031,-1.35,0.71,77.41,0.67,-0.90,40.31,-5.14,1.25,20.82,7.02,-0.44,-43.66
-35,39,1142,18,-120,4068,-1.43,0.88,76.63,0.18,-1.20,40.68,-5.12,1.27,20.51,6.71,-5.35,-27.32
-2,44,1101,-9,-55,3833,-1.30,1.06,75.69,-0.09,-0.55,38.33,-5.10,1.30,20.21,1.90,-5.81,-24.70
-13,48,1002,-69,-148,3913,-1.25,1.25,74.23,-0.69,-1.48,39.13,-5.08,1.33,19.91,3.65,-6.11,-17.64
-9,60,962,13,-119,3953,-1.18,1.49,72.67,0.13,-1.19,39.53,-5.06,1.35,19.63,3.15,-7.52,-15.68
-5,43,807,52,-199,3991,-1.09,1.60,70.33,0.52,-1.99,39.91,-5.05,1.37,19.35,2.69,-4.74,-4.73
-7,35,754,55,-179,3923,-1.03,1.66,67.90,0.55,-1.79,39.23,-5.03,1.39,19.07,3.10,-3.44,-2.51
-9,16,586,-28,-204,3928,-0.98,1.59,64.68,-0.28,-2.04,39.28,-5.01,1.41,18.82,3.48,-0.68,8.72
0,16,511,14,-199,3899,-0.88,1.53,61.33,0.14,-1.99,38.99,-5.00,1.43,18.57,2.27,-0.80,11.93
0,6,398,-88,-234,3890,-0.79,1.41,57.62,-0.88,-2.34,38.90,-4.97,1.45,18.34,2.41,0.50,18.03
2,7,358,-80,-259,3864,-0.70,1.31,54.05,-0.80,-2.59,38.64,-4.95,1.47,18.13,2.25,0.15,18.05
-5,4,228,-108,-373,3886,-0.66,1.21,50.03,-1.08,-3.73,38.86,-4.97,1.50,17.93,3.40,0.40,25.29
0,7,202,-106,-360,3882,-0.60,1.13,46.26,-1.06,-3.60,38.82,-4.98,1.52,17.75,2.77,-0.22,23.94
-4,5,118,-118,-440,3895,-0.56,1.05,42.35,-1.18,-4.40,38.95,-5.00,1.54,17.58,3.46,-0.08,27.38
-7,0,92,-161,-459,3909,-0.55,0.94,38.68,-1.61,-4.59,39.09,-5.02,1.57,17.42,3.95,0.48,26.12
1,0,12,-68,-366,3900,-0.49,0.85,34.89,-0.68,-3.66,39.00,-5.02,1.57,17.29,2.84,0.31,29.32
-2,0,13,-85,-364,3902,-0.45,0.76,31.48,-0.85,-3.64,39.02,-5.03,1.57,17.16,3.37,0.16,26.02
-2,0,1,-64,-344,3903,-0.42,0.69,28.33,-0.64,-3.44,39.03,-5.03,1.56,17.05,3.43,0.03,24.07
0,1,3,-36,-353,3870,-0.38,0.62,25.52,-0.36,-3.53,38.70,-5.03,1.56,16.95,3.20,-0.23,21.25
0,-1,3,-39,-346,3902,-0.34,0.55,22.99,-0.39,-3.46,39.02,-5.03,1.55,16.86,3.27,-0.04,18.86
1,1,0,-53,-345,3916,-0.30,0.51,20.69,-0.53,-3.45,39.16,-5.03,1.54,16.77,3.19,-0.43,16.95
1,2,3,-56,-363,3897,-0.26,0.47,18.64,-0.56,-3.63,38.97,-5.04,1.53,16.70,3.26,-0.65,14.76
1,2,2,-42,-361,3899,-0.23,0.43,16.79,-0.42,-3.61,38.99,-5.04,1.52,16.63,3.32,-0.70,13.10
1,1,2,-45,-358,3906,-0.20,0.40,15.12,-0.45,-3.58,39.06,-5.05,1.51,16.57,3.37,-0.60,11.53
1,0,0,-60,-359,3903,-0.17,0.36,13.61,-0.60,-3.59,39.03,-5.05,1.50,16.52,3.42,-0.51,10.27
1,1,1,-61,-355,3907,-0.15,0.33,12.25,-0.61,-3.55,39.07,-5.05,1.48,16.47,3.47,-0.71,8.91
0,1,1,-54,-352,3910,-0.14,0.30,11.03,-0.54,-3.52,39.10,-5.06,1.47,16.43,3.65,-0.75,7.76
0,1,2,-53,-352,3899,-0.12,0.28,9.94,-0.53,-3.52,38.99,-5.06,1.46,16.39,3.68,-0.78,6.64
1,1,1,-47,-347,3909,-0.10,0.25,8.95,-0.47,-3.47,39.09,-5.06,1.44,16.35,3.56,-0.81,5.80
0,1,2,-41,-359,3918,-0.09,0.24,8.07,-0.41,-3.59,39.18,-5.06,1.43,16.32,3.73,-0.83,4.88
-1,2,-2,-42,-375,3896,-0.09,0.22,7.25,-0.42,-3.75,38.96,-5.07,1.42,16.29,3.89,-0.99,4.44
2,7,-6,-24,-402,3940,-0.07,0.24,6.49,-0.24,-4.02,39.40,-5.08,1.41,16.26,3.48,-1.71,4.06
8,7,-9,3,-491,3928,-0.01,0.26,5.79,0.03,-4.91,39.28,-5.09,1.40,16.24,2.68,-1.67,3.65
2,6,-22,1,-441,3867,0.00,0.27,5.07,0.01,-4.41,38.67,-5.11,1.39,16.22,3.63,-1.49,4.08
10,3,-47,-64,-503,3760,0.06,0.26,4.28,-0.64,-5.03,37.60,-5.12,1.39,16.21,2.53,-1.05,5.45
-10,-8,24,-41,-306,3808,-0.01,0.19,4.00,-0.41,-3.06,38.08,-5.11,1.37,16.19,5.45,0.50,-0.83
-10,-4,65,69,-250,3874,-0.07,0.15,3.99,0.69,-2.50,38.74,-5.10,1.36,16.17,5.34,-0.18,-4.30
2,4,119,50,-359,3865,-0.05,0.16,4.32,0.50,-3.59,38.65,-5.11,1.34,16.16,3.54,-1.37,-8.57
4,-1,158,-25,-354,3964,-0.02,0.13,4.85,-0.25,-3.54,39.64,-5.11,1.33,16.14,3.29,-0.63,-11.36
-5,13,253,90,-428,3943,-0.05,0.20,5.91,0.90,-4.28,39.43,-5.11,1.31,16.11,4.61,-2.64,-18.40
1,26,288,29,-422,3873,-0.04,0.34,7.08,0.29,-4.22,38.73,-5.12,1.30,16.09,3.73,-4.36,-20.26
-9,18,405,-30,-470,3931,-0.09,0.41,8.84,-0.30,-4.70,39.31,-5.14,1.30,16.05,5.17,-3.00,-28.49
2,12,420,-20,-413,3890,-0.07,0.45,10.52,-0.20,-4.13,38.90,-5.15,1.29,16.01,3.54,-2.02,-28.17
12,21,488,-182,-486,3825,0.01,0.53,12.44,-1.82,-4.86,38.25,-5.16,1.31,15.96,2.17,-3.26,-32.09
-16,18,510,-183,-495,3885,-0.09,0.59,14.31,-1.83,-4.95,38.85,-5.18,1.33,15.90,6.27,-2.71,-32.18
-12,20,665,-60,-361,3876,-0.15,0.65,16.93,-0.60,-3.61,38.76,-5.18,1.32,15.84,5.55,-2.90,-42.81
1,22,709,-57,-443,3948,-0.13,0.72,19.57,-0.57,-4.43,39.48,-5.20,1.32,15.76,3.62,-3.08,-44.02
-16,22,823,-66,-512,3967,-0.21,0.78,22.63,-0.66,-5.12,39.67,-5.21,1.33,15.67,6.07,-2.98,-50.76
-21,16,886,-59,-479,3822,-0.32,0.80,25.77,-0.59,-4.79,38.22,-5.23,1.34,15.57,6.66,-2.03,-53.10
-20,13,1061,-54,-450,3897,-0.41,0.80,29.67,-0.54,-4.50,38.97,-5.25,1.34,15.45,6.35,-1.58,-64.21
-22,21,1109,-3,-550,3912,-0.50,0.85,33.46,-0.03,-5.50,39.12,-5.26,1.35,15.32,6.50,-2.72,-64.65
-23,20,1254,-65,-596,3917,-0.59,0.89,37.77,-0.65,-5.96,39.17,-5.28,1.37,15.17,6.51,-2.52,-72.83
-22,18,1289,-34,-582,3839,-0.67,0.91,41.85,-0.34,-5.82,38.39,-5.30,1.38,15.00,6.23,-2.18,-71.89
-14,26,1434,-56,-549,3847,-0.69,0.97,46.42,-0.56,-5.49,38.47,-5.31,1.40,14.82,4.99,-3.30,-79.82
-32,13,1471,-32,-567,3931,-0.81,0.96,50.75,-0.32,-5.67,39.31,-5.33,1.42,14.62,7.52,-1.36,-78.81
-19,25,1585,-75,-507,3932,-0.85,1.01,55.34,-0.75,-5.07,39.32,-5.34,1.44,14.40,5.49,-3.10,-84.08
-29,28,1623,-85,-538,3833,-0.94,1.08,59.71,-0.85,-5.38,38.33,-5.36,1.46,14.16,6.86,-3.46,-83.11
-25,28,1747,-142,-445,3866,-1.00,1.15,64.39,-1.42,-4.45,38.66,-5.37,1.50,13.90,6.16,-3.37,-89.13
-30,38,1797,-113,-421,3921,-1.08,1.26,68.92,-1.13,-4.21,39.21,-5.39,1.53,13.63,6.78,-4.71,-89.03
-17,41,1888,-82,-390,3899,-1.08,1.39,73.54,-0.82,-3.90,38.99,-5.40,1.55,13.34,4.82,-4.96,-92.31
-42,31,1905,-90,-428,3916,-1.23,1.44,77.81,-0.90,-4.28,39.16,-5.41,1.58,13.03,8.37,-3.37,-89.65
-20,40,1922,-26,-452,3888,-1.23,1.54,81.75,-0.26,-4.52,38.88,-5.42,1.61,12.71,5.03,-4.58,-87.30
-40,38,1926,10,-470,3829,-1.35,1.62,85.32,0.10,-4.70,38.29,-5.43,1.63,12.37,7.87,-4.16,-84.19
-23,39,1945,-60,-439,3838,-1.35,1.69,88.66,-0.60,-4.39,38.38,-5.44,1.66,12.01,5.27,-4.20,-82.58
-25,40,1957,-55,-445,3924,-1.37,1.77,91.73,-0.55,-4.45,39.24,-5.45,1.69,11.65,5.55,-4.24,-80.63
-24,42,2021,-92,-369,3918,-1.38,1.85,94.88,-0.92,-3.69,39.18,-5.44,1.72,11.27,5.37,-4.42,-82.99
-33,31,2032,-117,-369,3975,-1.44,1.85,97.79,-1.17,-3.69,39.75,-5.41,1.76,10.88,6.62,-2.76,-81.10
-36,27,1991,-237,-394,3908,-1.52,1.83,100.16,-2.37,-3.94,39.08,-5.41,1.82,10.49,6.94,-2.24,-75.32
-25,15,1924,-186,-343,3851,-1.52,1.74,101.88,-1.86,-3.43,38.51,-5.40,1.88,10.08,5.25,-0.62,-67.95
-26,33,1788,-106,-188,3922,-1.53,1.77,102.60,-1.06,-1.88,39.22,-5.37,1.93,9.67,5.37,-3.35,-55.68
-31,26,1738,-79,-174,3878,-1.56,1.75,102.94,-0.79,-1.74,38.78,-5.35,1.97,9.26,6.05,-2.35,-51.05
-6,35,1506,-67,-12,3914,-1.44,1.79,101.83,-0.67,-0.12,39.14,-5.32,2.01,8.86,2.43,-3.68,-32.38
-45,1,1441,-109,-24,3900,-1.57,1.61,100.44,-1.09,-0.24,39.00,-5.30,2.05,8.45,8.12,1.16,-28.13
-24,4,1170,-91,-38,3970,-1.56,1.48,97.53,-0.91,-0.38,39.70,-5.27,2.09,8.07,4.92,0.43,-7.87
-31,10,1064,-50,-56,3848,-1.59,1.39,94.27,-0.50,-0.56,38.48,-5.25,2.13,7.69,5.91,-0.67,-1.92
-10,14,698,-187,3,3852,-1.50,1.34,89.10,-1.87,0.03,38.52,-5.22,2.17,7.33,2.86,-1.41,24.24
-10,12,592,-155,23,3858,-1.41,1.28,83.80,-1.55,0.23,38.58,-5.19,2.20,7.00,3.00,-1.24,28.24
2,11,242,-154,-118,3930,-1.25,1.22,76.90,-1.54,-1.18,39.30,-5.17,2.23,6.69,1.43,-1.22,51.39
3,3,106,-89,-219,3908,-1.11,1.11,69.85,-0.89,-2.19,39.08,-5.15,2.26,6.41,1.51,-0.20,56.28
-2,8,17,12,-325,3913,-1.01,1.05,62.97,0.12,-3.25,39.13,-5.14,2.26,6.16,2.45,-1.08,57.33
6,2,8,9,-332,3888,-0.87,0.96,56.72,0.09,-3.32,38.88,-5.13,2.27,5.94,1.47,-0.34,52.20
2,6,5,-58,-409,3878,-0.77,0.90,51.08,-0.58,-4.09,38.78,-5.13,2.28,5.74,2.26,-1.06,47.13
-3,9,8,-47,-401,3894,-0.72,0.86,46.02,-0.47,-4.01,38.94,-5.14,2.28,5.55,3.13,-1.58,42.10
-2,0,29,29,-332,3883,-0.66,0.78,41.60,0.29,-3.32,38.83,-5.13,2.28,5.39,3.08,-0.36,36.15
0,-1,34,-41,-355,3906,-0.59,0.69,37.64,-0.41,-3.55,39.06,-5.13,2.28,5.24,2.89,-0.36,32.00
-1,10,40,64,-400,3937,-0.54,0.68,34.12,0.64,-4.00,39.37,-5.13,2.27,5.10,3.14,-2.05,28.18
4,18,45,88,-414,3968,-0.46,0.73,30.99,0.88,-4.14,39.68,-5.13,2.27,4.98,2.52,-3.19,24.79
0,7,46,-127,-480,3964,-0.41,0.70,28.17,-1.27,-4.80,39.64,-5.15,2.28,4.87,3.22,-1.57,22.05
2,9,42,-160,-471,3847,-0.36,0.68,25.61,-1.60,-4.71,38.47,-5.16,2.29,4.77,3.02,-1.92,19.98
4,5,48,31,-322,3948,-0.30,0.64,23.34,0.31,-3.22,39.48,-5.16,2.29,4.67,2.82,-1.37,17.33
3,3,69,14,-381,3901,-0.25,0.60,21.43,0.14,-3.81,39.01,-5.16,2.28,4.59,3.06,-1.14,13.75
1,6,115,-130,-415,3891,-0.22,0.57,19.99,-1.30,-4.15,38.91,-5.17,2.28,4.51,3.44,-1.64,8.50
0,4,121,-150,-427,3889,-0.20,0.54,18.73,-1.50,-4.27,38.89,-5.19,2.29,4.43,3.64,-1.40,6.81
-1,4,118,-109,-454,3886,-0.18,0.51,17.57,-1.09,-4.54,38.86,-5.20,2.29,4.37,3.83,-1.45,5.98
-3,0,117,-106,-460,3920,-0.18,0.46,16.53,-1.06,-4.60,39.20,-5.22,2.29,4.30,4.14,-0.94,5.08
-3,6,148,-117,-438,3950,-0.18,0.45,15.78,-1.17,-4.38,39.50,-5.23,2.29,4.24,4.16,-1.87,1.76
-2,1,143,-121,-384,3912,-0.18,0.41,15.07,-1.21,-3.84,39.12,-5.24,2.28,4.18,4.02,-1.17,1.52
-3,2,142,-143,-398,3873,-0.18,0.38,14.43,-1.43,-3.98,38.73,-5.26,2.28,4.12,4.18,-1.37,1.00
-3,1,155,-137,-407,3927,-0.18,0.35,13.93,-1.37,-4.07,39.27,-5.27,2.28,4.07,4.20,-1.28,-0.56
-7,0,220,-82,-401,3931,-0.20,0.32,13.88,-0.82,-4.01,39.31,-5.28,2.27,4.01,4.77,-1.18,-6.11
-7,4,240,-49,-401,3894,-0.23,0.31,13.96,-0.49,-4.01,38.94,-5.28,2.26,3.96,4.73,-1.80,-7.72
2,11,290,-123,-431,3899,-0.19,0.34,14.33,-1.23,-4.31,38.99,-5.30,2.26,3.90,3.43,-2.80,-11.59
-7,7,307,-74,-431,3947,-0.21,0.35,14.77,-0.74,-4.31,39.47,-5.31,2.25,3.84,4.77,-2.17,-12.61
-2,16,367,-45,-450,3897,-0.21,0.42,15.53,-0.45,-4.50,38.97,-5.32,2.24,3.78,4.03,-3.42,-16.96
-2,21,389,-63,-437,3887,-0.20,0.50,16.35,-0.63,-4.37,38.87,-5.33,2.24,3.72,4.05,-4.03,-18.03
-7,188,530,-63,-413,3676,-0.22,1.60,17.95,-0.63,-4.13,36.76,-5.34,2.24,3.65,4.78,-27.53,-28.45
3,137,529,-74,-412,4200,-0.18,2.27,19.38,-0.74,-4.12,42.00,-5.34,2.24,3.57,3.33,-18.54,-27.00
-2,45,589,-130,-346,4056,-0.17,2.32,21.04,-1.30,-3.46,40.56,-5.32,2.24,3.49,4.09,-4.43,-30.50
-6,21,613,-124,-323,3778,-0.19,2.22,22.67,-1.24,-3.23,37.78,-5.31,2.25,3.40,4.65,-0.96,-30.96
-1,19,635,-86,-407,3800,-0.18,2.11,24.28,-0.86,-4.07,38.00,-5.32,2.25,3.30,3.92,-0.84,-31.29
-10,14,638,-91,-365,3981,-0.22,1.99,25.74,-0.91,-3.65,39.81,-5.31,2.25,3.20,5.21,-0.31,-30.14
-31,-7,650,-190,-352,4038,-0.39,1.74,27.13,-1.90,-3.52,40.38,-5.30,2.28,3.09,8.11,2.44,-29.82
14,16,647,-127,-279,3805,-0.27,1.67,28.37,-1.27,-2.79,38.05,-5.28,2.29,2.98,1.45,-1.21,-28.37
-9,12,647,-10,-386,3891,-0.29,1.57,29.48,-0.10,-3.86,38.91,-5.28,2.29,2.86,4.91,-0.77,-27.30
-3,19,646,-48,-351,3910,-0.28,1.53,30.47,-0.48,-3.51,39.10,-5.27,2.29,2.74,4.01,-1.91,-26.26
-12,11,641,-91,-476,3960,-0.33,1.45,31.33,-0.91,-4.76,39.60,-5.28,2.30,2.62,5.31,-0.85,-24.99
-7,20,633,-133,-423,3886,-0.34,1.42,32.06,-1.33,-4.23,38.86,-5.30,2.31,2.49,4.54,-2.27,-23.61
-1,22,626,-100,-394,3908,-0.31,1.42,32.67,-1.00,-3.94,39.08,-5.30,2.31,2.36,3.68,-2.60,-22.41
-1,21,630,-94,-369,3912,-0.29,1.40,33.25,-0.94,-3.69,39.12,-5.30,2.31,2.23,3.72,-2.47,-22.18
8,34,631,-131,-344,3828,-0.21,1.47,33.77,-1.31,-3.44,38.28,-5.29,2.31,2.09,2.48,-4.33,-21.75
-22,9,624,-128,-410,3946,-0.32,1.38,34.20,-1.28,-4.10,39.46,-5.30,2.32,1.96,6.86,-0.69,-20.73
-10,11,613,-46,-368,3928,-0.35,1.31,34.52,-0.46,-3.68,39.28,-5.29,2.32,1.82,4.97,-1.12,-19.47
-1,17,606,-5,-336,3906,-0.32,1.28,34.77,-0.05,-3.36,39.06,-5.29,2.32,1.68,3.65,-2.08,-18.62
-6,22,585,-53,-368,3888,-0.33,1.29,34.86,-0.53,-3.68,38.88,-5.28,2.32,1.55,4.40,-2.83,-16.73
-10,6,574,-34,-332,3990,-0.35,1.19,34.87,-0.34,-3.32,39.90,-5.27,2.32,1.41,4.95,-0.56,-15.76
-18,10,569,-81,-363,3917,-0.43,1.14,34.86,-0.81,-3.63,39.17,-5.27,2.32,1.27,6.04,-1.27,-15.33
9,31,577,-89,-324,3792,-0.33,1.21,34.89,-0.89,-3.24,37.92,-5.26,2.32,1.13,2.08,-4.34,-15.96
-9,24,587,-69,-455,3790,-0.35,1.24,34.98,-0.69,-4.55,37.90,-5.27,2.32,0.99,4.80,-3.23,-16.70
-12,6,579,-2,-543,3931,-0.39,1.15,35.02,-0.02,-5.43,39.31,-5.28,2.33,0.85,5.19,-0.65,-15.96
-9,1,537,125,-433,3921,-0.41,1.04,34.79,1.25,-4.33,39.21,-5.28,2.33,0.71,4.71,-0.08,-12.60
-6,6,519,73,-460,3884,-0.40,0.97,34.48,0.73,-4.60,38.84,-5.28,2.33,0.58,4.26,-0.96,-11.35
-7,5,442,-56,-458,3858,-0.40,0.91,33.73,-0.56,-4.58,38.58,-5.29,2.33,0.44,4.42,-0.93,-5.52
3,11,419,-107,-398,3899,-0.35,0.88,32.91,-1.07,-3.98,38.99,-5.30,2.33,0.31,3.00,-1.89,-4.32
-9,6,371,-132,-259,3878,-0.37,0.83,31.88,-1.32,-2.59,38.78,-5.28,2.34,0.19,4.78,-1.23,-1.21
-2,11,366,-104,-219,3927,-0.34,0.82,30.93,-1.04,-2.19,39.27,-5.26,2.35,0.06,3.74,-2.03,-1.67
3,1,346,-42,-135,3940,-0.29,0.74,29.94,-0.42,-1.35,39.40,-5.24,2.35,-0.06,3.06,-0.64,-0.89
-3,-3,333,-89,-202,3983,-0.28,0.65,28.98,-0.89,-2.02,39.83,-5.22,2.36,-0.17,3.97,-0.20,-0.69
-2,16,226,-256,-363,3945,-0.26,0.68,27.46,-2.56,-3.63,39.45,-5.21,2.39,-0.28,3.85,-3.06,6.96
3,18,196,-207,-366,3878,-0.22,0.72,25.91,-2.07,-3.66,38.78,-5.21,2.42,-0.39,3.17,-3.31,8.04
4,9,178,-80,-381,3902,-0.17,0.70,24.41,-0.80,-3.81,39.02,-5.22,2.42,-0.48,3.10,-1.97,8.15
-2,0,180,-24,-412,3883,-0.17,0.63,23.06,-0.24,-4.12,38.83,-5.22,2.41,-0.57,4.02,-0.72,6.73
2,3,174,2,-451,3929,-0.14,0.59,21.82,0.02,-4.51,39.29,-5.23,2.40,-0.66,3.47,-1.25,6.07
-2,-1,169,-3,-462,3895,-0.14,0.52,20.67,-0.03,-4.62,38.95,-5.23,2.40,-0.74,4.09,-0.75,5.41
-3,6,167,-14,-461,3899,-0.14,0.51,19.62,-0.14,-4.61,38.99,-5.24,2.39,-0.82,4.24,-1.85,4.60
0,12,177,-74,-451,3896,-0.13,0.53,18.74,-0.74,-4.51,38.96,-5.25,2.39,-0.89,3.82,-2.72,2.93
0,4,199,-89,-372,3873,-0.11,0.50,18.08,-0.89,-3.72,38.73,-5.25,2.38,-0.97,3.84,-1.54,0.45
-9,1,197,-120,-386,3936,-0.16,0.46,17.47,-1.20,-3.86,39.36,-5.26,2.37,-1.03,5.14,-1.16,0.05
0,6,184,-128,-397,3914,-0.14,0.45,16.85,-1.28,-3.97,39.14,-5.27,2.37,-1.10,3.80,-1.93,0.57
1,-5,201,-18,-386,3934,-0.12,0.37,16.39,-0.18,-3.86,39.34,-5.27,2.36,-1.17,3.69,-0.38,-1.29
-4,6,233,-93,-496,3883,-0.13,0.37,16.17,-0.93,-4.96,38.83,-5.29,2.36,-1.23,4.44,-2.06,-4.20
3,11,241,-87,-517,3869,-0.10,0.40,16.02,-0.87,-5.17,38.69,-5.30,2.35,-1.29,3.44,-2.77,-5.01
-7,6,275,-43,-559,3918,-0.13,0.40,16.10,-0.43,-5.59,39.18,-5.31,2.35,-1.36,4.92,-2.01,-7.81
12,14,289,-81,-531,3867,-0.05,0.44,16.25,-0.81,-5.31,38.67,-5.33,2.35,-1.42,2.19,-3.15,-8.84
0,9,355,-91,-530,3846,-0.04,0.45,16.79,-0.91,-5.30,38.46,-5.34,2.35,-1.49,4.04,-2.37,-13.90
-3,13,371,-116,-564,3876,-0.06,0.49,17.38,-1.16,-5.64,38.76,-5.36,2.36,-1.55,4.48,-2.92,-14.70
-5,1,390,4,-526,3931,-0.08,0.45,18.02,0.04,-5.26,39.31,-5.37,2.35,-1.63,4.75,-1.17,-15.69
-4,1,394,4,-543,3886,-0.10,0.41,18.62,0.04,-5.43,38.86,-5.38,2.35,-1.70,4.57,-1.23,-15.44
-6,-9,400,-40,-610,3866,-0.13,0.31,19.20,-0.40,-6.10,38.66,-5.39,2.35,-1.78,4.84,0.12,-15.39
1,0,404,-21,-614,3902,-0.11,0.28,19.74,-0.21,-6.14,39.02,-5.40,2.35,-1.85,3.82,-1.31,-15.20
-13,4,465,8,-529,3921,-0.18,0.28,20.60,0.08,-5.29,39.21,-5.41,2.35,-1.93,5.84,-1.92,-19.54
0,22,481,-19,-545,3873,-0.16,0.38,21.48,-0.19,-5.45,38.73,-5.43,2.34,-2.02,3.90,-4.47,-20.05
-5,21,575,-156,-457,3864,-0.17,0.47,22.84,-1.56,-4.57,38.64,-5.44,2.35,-2.11,4.64,-4.17,-26.71
-8,17,600,-132,-473,3885,-0.20,0.53,24.21,-1.32,-4.73,38.85,-5.46,2.36,-2.20,5.06,-3.46,-27.50
-5,18,674,-69,-419,3855,-0.21,0.59,25.90,-0.69,-4.19,38.55,-5.46,2.36,-2.31,4.58,-3.51,-32.15
-10,11,685,-38,-393,3950,-0.25,0.59,27.49,-0.38,-3.93,39.50,-5.46,2.35,-2.42,5.27,-2.42,-31.56
-7,10,702,-16,-396,3938,-0.27,0.60,29.02,-0.16,-3.96,39.38,-5.46,2.35,-2.53,4.79,-2.26,-31.53
-15,-2,698,19,-356,3914,-0.34,0.52,30.38,0.19,-3.56,39.14,-5.45,2.34,-2.65,5.89,-0.56,-29.88
-23,-5,670,107,-366,4023,-0.44,0.44,31.43,1.07,-3.66,40.23,-5.45,2.34,-2.78,6.91,-0.24,-26.50
-5,34,635,103,-347,3913,-0.43,0.60,32.16,1.03,-3.47,39.13,-5.44,2.33,-2.91,4.19,-5.90,-22.82
-17,15,629,-297,-353,3824,-0.49,0.64,32.78,-2.97,-3.53,38.24,-5.44,2.37,-3.04,5.90,-2.97,-21.70
-24,0,625,-266,-246,4125,-0.59,0.57,33.32,-2.66,-2.46,41.25,-5.42,2.39,-3.17,6.78,-0.82,-20.83
-8,34,603,-76,-203,3986,-0.58,0.72,33.66,-0.76,-2.03,39.86,-5.40,2.40,-3.30,4.34,-5.74,-18.62
-17,19,598,-133,-191,3878,-0.62,0.77,33.94,-1.33,-1.91,38.78,-5.38,2.41,-3.44,5.62,-3.38,-17.90
1,33,548,-137,-231,3841,-0.55,0.89,33.89,-1.37,-2.31,38.41,-5.36,2.42,-3.58,2.98,-5.30,-13.70
-16,33,530,-124,-250,3815,-0.60,1.00,33.74,-1.24,-2.50,38.15,-5.34,2.43,-3.71,5.48,-5.11,-12.30
-13,5,449,-232,-311,3852,-0.62,0.93,33.10,-2.32,-3.11,38.52,-5.32,2.47,-3.84,4.98,-0.99,-6.02
-10,3,423,-182,-332,3994,-0.62,0.86,32.37,-1.82,-3.32,39.94,-5.30,2.48,-3.97,4.50,-0.83,-4.49
-11,-5,344,-73,-248,3966,-0.62,0.74,31.23,-0.73,-2.48,39.66,-5.29,2.49,-4.10,4.63,0.18,1.15
-11,-10,319,-36,-236,3868,-0.63,0.61,30.06,-0.36,-2.36,38.68,-5.27,2.49,-4.22,4.61,0.70,2.17
-12,-9,264,-32,-234,3893,-0.64,0.49,28.66,-0.32,-2.34,38.93,-5.26,2.49,-4.33,4.74,0.34,5.52
-3,2,249,-83,-247,3915,-0.59,0.45,27.31,-0.83,-2.47,39.15,-5.24,2.49,-4.44,3.43,-1.41,5.53
1,3,242,-88,-219,3933,-0.53,0.43,26.06,-0.88,-2.19,39.33,-5.22,2.49,-4.55,2.92,-1.61,4.95
-1,0,246,-71,-226,3916,-0.48,0.38,24.95,-0.71,-2.26,39.16,-5.20,2.49,-4.65,3.30,-1.23,3.58
-4,1,228,-99,-297,3887,-0.46,0.35,23.85,-0.99,-2.97,38.87,-5.19,2.48,-4.74,3.79,-1.43,4.07
-1,-7,214,-85,-288,3923,-0.42,0.27,22.77,-0.85,-2.88,39.23,-5.18,2.48,-4.83,3.39,-0.35,4.25
-12,-15,173,-61,-380,3868,-0.45,0.16,21.55,-0.61,-3.80,38.68,-5.18,2.47,-4.92,5.01,0.66,6.58
-10,-11,177,-75,-397,3860,-0.46,0.07,20.47,-0.75,-3.97,38.60,-5.19,2.46,-5.00,4.69,-0.09,5.23
-2,-13,203,-95,-368,3902,-0.43,-0.01,19.66,-0.95,-3.68,39.02,-5.19,2.45,-5.08,3.53,0.07,2.27
-9,-17,231,-72,-392,3904,-0.44,-0.12,19.11,-0.72,-3.92,39.04,-5.19,2.44,-5.15,4.58,0.51,-0.62
-6,7,278,-36,-383,3918,-0.43,-0.06,18.89,-0.36,-3.83,39.18,-5.20,2.43,-5.23,4.14,-3.05,-4.79
-7,9,299,-12,-423,3935,-0.43,-0.00,18.83,-0.12,-4.23,39.35,-5.20,2.42,-5.30,4.29,-3.24,-6.62
-2,30,357,-127,-405,3926,-0.40,0.18,19.12,-1.27,-4.05,39.26,-5.21,2.41,-5.38,3.60,-6.11,-11.24
-1,27,386,-156,-431,3920,-0.37,0.33,19.56,-1.56,-4.31,39.20,-5.23,2.42,-5.46,3.52,-5.39,-13.27
-9,18,441,-199,-565,3921,-0.39,0.41,20.30,-1.99,-5.65,39.21,-5.25,2.43,-5.54,4.72,-3.89,-17.22
4,19,446,-228,-529,3857,-0.32,0.48,20.99,-2.28,-5.29,38.57,-5.26,2.45,-5.62,2.86,-3.92,-16.97
-16,8,449,-243,-633,3894,-0.39,0.48,21.63,-2.43,-6.33,38.94,-5.28,2.46,-5.70,5.81,-2.25,-16.60
15,14,447,-262,-555,3875,-0.26,0.52,22.19,-2.62,-5.55,38.75,-5.29,2.48,-5.79,1.32,-3.11,-15.89
-10,2,474,-311,-691,3801,-0.29,0.48,22.86,-3.11,-6.91,38.01,-5.30,2.50,-5.88,5.08,-1.37,-17.52
-8,0,486,-326,-659,4056,-0.31,0.43,23.54,-3.26,-6.59,40.56,-5.32,2.52,-5.97,4.75,-1.17,-17.88
-13,17,547,-283,-679,3905,-0.36,0.49,24.52,-2.83,-6.79,39.05,-5.33,2.53,-6.07,5.44,-3.66,-22.10
-15,20,559,-231,-695,3925,-0.42,0.56,25.48,-2.31,-6.95,39.25,-5.35,2.55,-6.17,5.66,-4.00,-22.19
-6,21,638,-283,-577,3824,-0.41,0.64,26.83,-2.83,-5.77,38.24,-5.36,2.57,-6.28,4.30,-4.04,-27.59
-2,22,658,-253,-560,3963,-0.38,0.71,28.16,-2.53,-5.60,39.63,-5.37,2.59,-6.39,3.76,-4.08,-28.01
-13,21,757,-81,-407,3943,-0.42,0.76,29.96,-0.81,-4.07,39.43,-5.38,2.59,-6.51,5.36,-3.82,-34.67
-20,24,772,-23,-449,3845,-0.50,0.83,31.67,-0.23,-4.49,38.45,-5.38,2.59,-6.63,6.29,-4.16,-34.29
1,27,822,-15,-316,3870,-0.45,0.92,33.52,-0.15,-3.16,38.70,-5.37,2.59,-6.77,3.18,-4.47,-36.75
-2,23,835,-29,-303,3843,-0.41,0.96,35.26,-0.29,-3.03,38.43,-5.36,2.59,-6.91,3.69,-3.77,-36.18
-25,13,847,57,-279,3806,-0.53,0.95,36.90,0.57,-2.79,38.06,-5.35,2.59,-7.05,6.99,-2.27,-35.62
-25,0,819,13,-288,3931,-0.63,0.85,38.21,0.13,-2.88,39.31,-5.34,2.59,-7.21,6.80,-0.46,-31.98
-14,3,719,97,-239,3902,-0.65,0.79,38.77,0.97,-2.39,39.02,-5.33,2.59,-7.36,5.07,-1.04,-22.95
-12,7,678,95,-287,3913,-0.66,0.75,39.03,0.95,-2.87,39.13,-5.32,2.59,-7.52,4.75,-1.72,-19.20
-9,-4,543,22,-354,3933,-0.65,0.65,38.44,0.22,-3.54,39.33,-5.31,2.59,-7.67,4.31,-0.21,-8.30
-10,5,493,6,-404,3752,-0.64,0.62,37.60,0.06,-4.04,37.52,-5.31,2.58,-7.82,4.46,-1.65,-4.84
4,8,310,-33,-328,3883,-0.55,0.60,35.73,-0.33,-3.28,38.83,-5.31,2.58,-7.96,2.48,-2.13,8.92
-3,1,264,-55,-376,3895,-0.52,0.55,33.77,-0.55,-3.76,38.95,-5.30,2.58,-8.10,3.61,-1.15,10.97
3,11,210,-95,-450,3951,-0.45,0.56,31.68,-0.95,-4.50,39.51,-5.31,2.58,-8.22,2.83,-2.66,13.58
-6,7,224,-133,-479,3839,-0.44,0.55,29.87,-1.33,-4.79,38.39,-5.33,2.59,-8.34,4.23,-2.08,10.70
-4,6,273,-78,-437,3839,-0.42,0.53,28.55,-0.78,-4.37,38.39,-5.33,2.59,-8.45,3.97,-1.96,5.32
-16,-9,283,-108,-487,3921,-0.47,0.42,27.42,-1.08,-4.87,39.21,-5.35,2.59,-8.56,5.71,0.14,3.41
8,4,304,-142,-438,3791,-0.38,0.40,26.54,-1.42,-4.38,37.91,-5.36,2.59,-8.67,2.23,-1.88,0.81
1,9,307,-45,-447,3963,-0.33,0.42,25.75,-0.45,-4.47,39.63,-5.37,2.59,-8.77,3.38,-2.62,-0.17
-14,4,306,89,-410,4015,-0.39,0.40,25.05,0.89,-4.10,40.15,-5.37,2.58,-8.87,5.57,-1.88,-0.74
-4,-2,306,80,-428,3824,-0.37,0.35,24.41,0.80,-4.28,38.24,-5.37,2.57,-8.97,4.08,-1.05,-1.33
-4,5,335,37,-507,3806,-0.36,0.34,24.01,0.37,-5.07,38.06,-5.38,2.57,-9.06,4.10,-2.12,-4.15
-9,15,346,4,-511,3912,-0.38,0.40,23.72,0.04,-5.11,39.12,-5.38,2.57,-9.15,4.84,-3.54,-5.34
-14,5,370,-3,-484,3917,-0.43,0.39,23.60,-0.03,-4.84,39.17,-5.39,2.56,-9.25,5.52,-2.03,-7.47
-10,-1,380,1,-476,3902,-0.44,0.35,23.56,0.01,-4.76,39.02,-5.40,2.56,-9.34,4.89,-1.19,-8.34
-18,-3,401,5,-457,3892,-0.51,0.29,23.65,0.05,-4.57,38.92,-5.40,2.55,-9.44,5.99,-0.98,-10.02
-10,-6,399,10,-417,3879,-0.52,0.23,23.72,0.10,-4.17,38.79,-5.41,2.54,-9.53,4.76,-0.63,-9.77
-8,-17,386,-45,-408,3885,-0.52,0.10,23.70,-0.45,-4.08,38.85,-5.41,2.53,-9.62,4.46,0.82,-8.67
-2,-14,395,-81,-462,3894,-0.48,0.01,23.74,-0.81,-4.62,38.94,-5.42,2.53,-9.72,3.62,0.20,-9.38
-3,-5,409,-46,-407,3909,-0.45,-0.03,23.86,-0.46,-4.07,39.09,-5.42,2.52,-9.81,3.83,-1.22,-10.44
-5,-6,405,-66,-382,3839,-0.43,-0.06,23.95,-0.66,-3.82,38.39,-5.42,2.51,-9.91,4.16,-1.13,-10.00
-4,4,413,-54,-405,3948,-0.41,-0.03,24.07,-0.54,-4.05,39.48,-5.43,2.50,-10.00,4.05,-2.59,-10.55
-12,-7,406,-64,-333,3965,-0.45,-0.07,24.14,-0.64,-3.33,39.65,-5.42,2.49,-10.10,5.20,-0.98,-9.87
-3,12,388,-70,-425,4013,-0.42,0.01,24.09,-0.70,-4.25,40.13,-5.42,2.49,-10.20,3.88,-3.72,-8.38
-12,12,391,-145,-396,3826,-0.45,0.08,24.07,-1.45,-3.96,38.26,-5.43,2.49,-10.29,5.21,-3.59,-8.64
10,14,404,-95,-406,3890,-0.35,0.16,24.13,-0.95,-4.06,38.90,-5.44,2.48,-10.39,2.05,-3.76,-9.67
-1,12,411,-122,-472,3939,-0.32,0.22,24.22,-1.22,-4.72,39.39,-5.45,2.48,-10.48,3.78,-3.35,-10.16
-3,21,441,-90,-472,3929,-0.30,0.32,24.49,-0.90,-4.72,39.29,-5.46,2.48,-10.58,4.12,-4.53,-12.43
-15,7,449,-96,-555,3945,-0.36,0.33,24.78,-0.96,-5.55,39.45,-5.48,2.48,-10.68,5.85,-2.38,-12.82
-6,15,477,-81,-482,3923,-0.36,0.39,25.21,-0.81,-4.82,39.23,-5.49,2.48,-10.78,4.49,-3.50,-14.77
-1,23,488,-122,-523,3875,-0.33,0.49,25.67,-1.22,-5.23,38.75,-5.50,2.49,-10.88,3.79,-4.54,-15.25
-6,15,540,-219,-568,3857,-0.34,0.54,26.39,-2.19,-5.68,38.57,-5.52,2.51,-10.98,4.56,-3.26,-18.95
-1,13,554,-206,-523,3837,-0.31,0.56,27.13,-2.06,-5.23,38.37,-5.53,2.52,-11.09,3.86,-2.92,-19.41
-3,15,610,-72,-493,3957,-0.30,0.60,28.14,-0.72,-4.93,39.57,-5.54,2.52,-11.20,4.19,-3.16,-23.18
-8,8,623,-88,-468,3914,-0.32,0.59,29.13,-0.88,-4.68,39.14,-5.55,2.52,-11.32,4.93,-2.11,-23.33
0,21,613,-136,-482,3827,-0.28,0.66,29.95,-1.36,-4.82,38.27,-5.56,2.53,-11.43,3.77,-3.98,-21.68
-5,9,596,-107,-384,3899,-0.29,0.64,30.59,-1.07,-3.84,38.99,-5.56,2.53,-11.56,4.53,-2.16,-19.61
-13,13,581,-94,-465,3849,-0.34,0.66,31.08,-0.94,-4.65,38.49,-5.57,2.53,-11.68,5.67,-2.75,-17.86
-4,31,575,-118,-398,3830,-0.33,0.78,31.48,-1.18,-3.98,38.30,-5.57,2.53,-11.80,4.31,-5.27,-16.96
-18,19,571,-250,-415,3881,-0.40,0.82,31.81,-2.50,-4.15,38.81,-5.58,2.56,-11.93,6.31,-3.40,-16.28
-10,13,580,-219,-396,3918,-0.43,0.82,32.17,-2.19,-3.96,39.18,-5.58,2.60,-12.06,5.06,-2.52,-16.68
-9,-14,607,-285,-127,3965,-0.44,0.65,32.66,-2.85,-1.27,39.65,-5.56,2.62,-12.19,4.87,1.29,-18.49
-6,-26,635,-282,-65,3872,-0.43,0.43,33.26,-2.82,-0.65,38.72,-5.54,2.64,-12.32,4.41,2.70,-20.26
-20,-20,806,59,97,3796,-0.51,0.26,34.85,0.59,0.97,37.96,-5.52,2.64,-12.46,6.38,1.48,-33.22
-11,-7,812,-41,-10,3895,-0.53,0.19,36.32,-0.41,-0.10,38.95,-5.49,2.65,-12.61,4.97,-0.63,-32.31
-25,-3,698,-450,-429,3962,-0.63,0.16,36.95,-4.50,-4.29,39.62,-5.49,2.69,-12.75,6.92,-1.33,-22.04
4,12,647,-459,-601,3932,-0.54,0.21,37.20,-4.59,-6.01,39.32,-5.50,2.71,-12.90,2.66,-3.54,-17.45
-28,25,618,-10,-980,4046,-0.66,0.34,37.25,-0.10,-9.80,40.46,-5.51,2.72,-13.05,7.34,-5.29,-14.92
-13,19,622,170,-912,3858,-0.67,0.43,37.32,1.70,-9.12,38.58,-5.52,2.73,-13.20,5.04,-4.24,-15.17
-9,51,652,121,-710,3843,-0.66,0.69,37.56,1.21,-7.10,38.43,-5.53,2.74,-13.35,4.45,-8.64,-17.46
-4,60,643,96,-573,3890,-0.62,0.99,37.73,0.96,-5.73,38.90,-5.54,2.74,-13.50,3.77,-9.48,-16.52
-10,23,588,176,-423,3954,-0.62,1.03,37.54,1.76,-4.23,39.54,-5.54,2.74,-13.64,4.68,-3.77,-12.01
-8,28,562,194,-338,3881,-0.60,1.10,37.22,1.94,-3.38,38.81,-5.53,2.74,-13.79,4.40,-4.41,-10.09
-5,16,458,66,-309,3830,-0.57,1.09,36.29,0.66,-3.09,38.30,-5.52,2.74,-13.94,3.99,-2.60,-2.14
1,14,432,80,-259,3914,-0.51,1.06,35.30,0.80,-2.59,39.14,-5.51,2.74,-14.08,3.18,-2.34,-0.86
-6,-4,349,223,-382,3944,-0.50,0.93,33.90,2.23,-3.82,39.44,-5.50,2.74,-14.21,4.27,0.17,4.87
-6,8,294,227,-341,3872,-0.48,0.89,32.30,2.27,-3.41,38.72,-5.50,2.74,-14.34,4.28,-1.73,8.03
-3,5,192,22,-341,3980,-0.45,0.83,30.24,0.22,-3.41,39.80,-5.49,2.73,-14.46,3.87,-1.38,14.74
-3,-4,175,23,-313,3986,-0.43,0.72,28.28,0.23,-3.13,39.86,-5.48,2.73,-14.57,3.92,-0.20,14.34
-4,-6,126,-88,-307,3877,-0.41,0.61,26.22,-0.88,-3.07,38.77,-5.47,2.73,-14.68,4.09,-0.08,16.56
-2,-2,102,-85,-340,3900,-0.38,0.54,24.22,-0.85,-3.40,39.00,-5.46,2.72,-14.78,3.83,-0.82,16.71
-3,-3,74,-111,-426,3889,-0.36,0.47,22.25,-1.11,-4.26,38.89,-5.47,2.72,-14.86,4.02,-0.80,17.22
-3,2,79,-111,-459,3889,-0.34,0.43,20.51,-1.11,-4.59,38.89,-5.48,2.72,-14.94,4.06,-1.62,15.16
5,8,155,-19,-724,3906,-0.28,0.44,19.40,-0.19,-7.24,39.06,-5.49,2.72,-15.02,2.97,-2.52,7.68
-5,7,205,-58,-750,3841,-0.28,0.44,18.71,-0.58,-7.50,38.41,-5.51,2.72,-15.09,4.50,-2.38,2.80
-16,-25,296,-109,-493,3881,-0.35,0.24,18.65,-1.09,-4.93,38.81,-5.52,2.72,-15.17,6.07,2.15,-4.96
-5,7,322,-51,-533,3855,-0.34,0.26,18.75,-0.51,-5.33,38.55,-5.53,2.71,-15.24,4.40,-2.69,-7.05
-3,5,343,-221,-578,3846,-0.33,0.26,18.97,-2.21,-5.78,38.46,-5.55,2.73,-15.32,4.14,-2.39,-8.61
11,-8,356,-234,-545,3963,-0.23,0.19,19.24,-2.34,-5.45,39.63,-5.56,2.74,-15.39,2.20,-0.55,-9.44
-20,5,449,-51,-493,3970,-0.33,0.20,20.06,-0.51,-4.93,39.70,-5.57,2.73,-15.47,6.75,-2.51,-16.53
-1,-1,451,-125,-462,3925,-0.30,0.17,20.80,-1.25,-4.62,39.25,-5.58,2.73,-15.55,3.91,-1.64,-15.98
-28,-16,537,-216,-544,3963,-0.44,0.06,22.00,-2.16,-5.44,39.63,-5.60,2.74,-15.64,7.79,0.44,-22.12
-13,-8,566,-126,-520,3735,-0.48,0.00,23.25,-1.26,-5.20,37.35,-5.61,2.74,-15.73,5.45,-0.88,-23.37
-12,7,649,-18,-580,3887,-0.50,0.05,24.88,-0.18,-5.80,38.87,-5.63,2.74,-15.83,5.26,-3.10,-28.84
-7,2,655,-5,-551,3958,-0.49,0.05,26.39,-0.05,-5.51,39.58,-5.63,2.74,-15.94,4.52,-2.32,-27.90
-9,7,665,-129,-476,3910,-0.50,0.09,27.81,-1.29,-4.76,39.10,-5.65,2.74,-16.05,4.82,-3.01,-27.39
-4,10,670,-153,-371,3979,-0.47,0.14,29.11,-1.53,-3.71,39.79,-5.63,2.74,-16.16,4.10,-3.37,-26.55
-22,7,682,-242,-390,3888,-0.56,0.17,30.36,-2.42,-3.90,38.88,-5.63,2.77,-16.28,6.69,-2.89,-26.36
-13,6,683,-269,-329,3906,-0.58,0.19,31.49,-2.69,-3.29,39.06,-5.62,2.80,-16.41,5.26,-2.72,-25.36
-16,-8,668,-155,-367,3821,-0.62,0.12,32.42,-1.55,-3.67,38.21,-5.61,2.79,-16.54,5.64,-0.71,-23.19
-4,14,651,-35,-298,3980,-0.59,0.20,33.15,-0.35,-2.98,39.80,-5.60,2.79,-16.67,3.87,-3.93,-21.03
-5,24,555,5,-424,3904,-0.56,0.32,33.22,0.05,-4.24,39.04,-5.60,2.79,-16.80,4.07,-5.23,-12.81
4,4,524,-54,-384,4008,-0.48,0.32,33.09,-0.54,-3.84,40.08,-5.59,2.78,-16.93,2.84,-2.19,-10.28
-7,8,445,170,-383,4117,-0.47,0.33,32.50,1.70,-3.83,41.17,-5.58,2.78,-17.06,4.52,-2.76,-4.13
-2,3,430,189,-224,4107,-0.44,0.32,31.87,1.89,-2.24,41.07,-5.57,2.77,-17.19,3.81,-2.02,-3.44
-17,4,314,103,-550,3844,-0.50,0.31,30.60,1.03,-5.50,38.44,-5.58,2.77,-17.31,6.00,-2.19,5.20
-2,16,305,75,-614,3916,-0.46,0.38,29.40,0.75,-6.14,39.16,-5.59,2.77,-17.43,3.78,-3.90,4.85
5,18,391,111,-522,3926,-0.38,0.45,28.85,1.11,-5.22,39.26,-5.59,2.77,-17.54,2.85,-4.07,-2.95
-4,21,388,134,-502,3976,-0.37,0.53,28.33,1.34,-5.02,39.76,-5.59,2.76,-17.66,4.25,-4.38,-3.17
-5,23,339,-4,-402,3941,-0.36,0.62,27.56,-0.04,-4.02,39.41,-5.59,2.76,-17.77,4.42,-4.52,0.28
-6,9,316,-29,-438,3884,-0.36,0.61,26.73,-0.29,-4.38,38.84,-5.59,2.75,-17.87,4.57,-2.39,1.45
5,6,286,-13,-534,3969,-0.30,0.59,25.81,-0.13,-5.34,39.69,-5.60,2.75,-17.97,3.02,-1.98,3.13
-16,6,303,-63,-607,3767,-0.36,0.57,25.07,-0.63,-6.07,37.67,-5.61,2.76,-18.07,6.11,-2.02,1.01
-4,16,397,38,-628,3770,-0.35,0.61,24.99,0.38,-6.28,37.70,-5.62,2.76,-18.17,4.31,-3.47,-7.02
-6,9,418,38,-642,3906,-0.35,0.60,25.04,0.38,-6.42,39.06,-5.63,2.76,-18.27,4.62,-2.42,-8.73
-28,16,485,-54,-477,3803,-0.49,0.64,25.49,-0.54,-4.77,38.03,-5.64,2.75,-18.37,7.74,-3.42,-13.96
-11,1,497,0,-387,3955,-0.51,0.58,25.98,0.00,-3.87,39.55,-5.64,2.75,-18.47,5.11,-1.23,-14.50
-4,-4,505,-80,-215,4002,-0.48,0.50,26.46,-0.80,-2.15,40.02,-5.62,2.75,-18.58,4.08,-0.61,-14.71
-10,0,500,-119,-249,3786,-0.49,0.45,26.86,-1.19,-2.49,37.86,-5.60,2.75,-18.69,4.95,-1.32,-13.88
-13,-10,442,-123,-164,3814,-0.52,0.34,26.87,-1.23,-1.64,38.14,-5.58,2.76,-18.80,5.34,0.01,-8.94
-18,2,435,-113,-307,3897,-0.58,0.32,26.84,-1.13,-3.07,38.97,-5.56,2.76,-18.90,5.99,-1.86,-8.36
-16,-4,389,-101,-184,3893,-0.62,0.26,26.53,-1.01,-1.84,38.93,-5.55,2.76,-19.01,5.60,-1.04,-4.74
-13,-7,367,-119,-422,3911,-0.64,0.19,26.11,-1.19,-4.22,39.11,-5.55,2.76,-19.11,5.11,-0.71,-3.26
-2,-4,298,-38,-447,3926,-0.59,0.15,25.32,-0.38,-4.47,39.26,-5.56,2.75,-19.21,3.53,-1.24,1.85
-5,-30,280,-5,-475,4012,-0.56,-0.05,24.50,-0.05,-4.75,40.12,-5.56,2.75,-19.31,4.04,2.38,2.61
3,-4,270,-78,-525,3826,-0.48,-0.07,23.69,-0.78,-5.25,38.26,-5.57,2.74,-19.40,2.97,-1.62,2.71
-10,-29,269,59,-448,3922,-0.50,-0.24,22.97,0.59,-4.48,39.22,-5.58,2.73,-19.50,4.93,1.89,2.12
-8,-4,293,-56,-487,3810,-0.50,-0.24,22.46,-0.56,-4.87,38.10,-5.59,2.73,-19.58,4.63,-1.92,-0.38
-3,4,318,-106,-571,3901,-0.46,-0.19,22.15,-1.06,-5.71,39.01,-5.60,2.73,-19.67,3.94,-3.05,-2.78
-10,18,422,-44,-612,3841,-0.48,-0.06,22.51,-0.44,-6.12,38.41,-5.61,2.73,-19.76,4.99,-4.95,-11.23
-5,16,449,-58,-636,3932,-0.46,0.04,23.00,-0.58,-6.36,39.32,-5.63,2.73,-19.85,4.27,-4.46,-13.04
-14,17,535,-66,-610,3869,-0.50,0.14,23.96,-0.66,-6.10,38.69,-5.64,2.73,-19.95,5.58,-4.44,-19.40
-7,19,560,-13,-583,3939,-0.49,0.24,24.98,-0.13,-5.83,39.39,-5.65,2.73,-20.05,4.54,-4.56,-20.53
0,9,650,-67,-466,3866,-0.44,0.27,26.45,-0.67,-4.66,38.66,-5.66,2.72,-20.15,3.56,-2.98,-26.75
-13,16,681,-153,-502,3854,-0.48,0.34,27.96,-1.53,-5.02,38.54,-5.67,2.73,-20.26,5.49,-3.93,-27.93
-16,17,761,-51,-431,3949,-0.53,0.41,29.80,-0.51,-4.31,39.49,-5.68,2.73,-20.38,5.86,-3.95,-32.93
-15,13,772,-89,-469,3844,-0.57,0.45,31.53,-0.89,-4.69,38.44,-5.68,2.73,-20.50,5.65,-3.27,-32.20
-4,17,747,-54,-444,3887,-0.54,0.51,32.94,-0.54,-4.44,38.87,-5.69,2.73,-20.63,4.03,-3.78,-28.73
-27,13,736,-3,-469,3935,-0.65,0.54,34.13,-0.03,-4.69,39.35,-5.69,2.73,-20.77,7.34,-3.12,-26.64
-15,9,665,-175,-403,3803,-0.67,0.54,34.78,-1.75,-4.03,38.03,-5.70,2.74,-20.91,5.47,-2.51,-20.00
-19,10,655,-85,-493,3814,-0.72,0.55,35.29,-0.85,-4.93,38.14,-5.71,2.74,-21.05,6.00,-2.66,-18.64
3,24,619,-140,-269,3889,-0.63,0.64,35.54,-1.40,-2.69,38.89,-5.69,2.75,-21.19,2.79,-4.63,-15.33
-21,6,620,-184,-420,3976,-0.70,0.61,35.77,-1.84,-4.20,39.76,-5.71,2.76,-21.33,6.35,-1.95,-15.18
-9,14,657,-110,-359,3801,-0.68,0.64,36.20,-1.10,-3.59,38.01,-5.70,2.76,-21.48,4.54,-3.12,-17.88
7,32,650,-88,-428,3872,-0.57,0.77,36.54,-0.88,-4.28,38.72,-5.70,2.76,-21.62,2.30,-5.63,-16.93
-6,23,625,-86,-356,3826,-0.55,0.83,36.70,-0.86,-3.56,38.26,-5.69,2.76,-21.77,4.31,-4.14,-14.64
-13,10,624,-65,-463,3925,-0.57,0.81,36.84,-0.65,-4.63,39.25,-5.69,2.76,-21.91,5.34,-2.20,-14.41
-15,18,564,98,-345,4010,-0.61,0.84,36.59,0.98,-3.45,40.10,-5.69,2.76,-22.06,5.57,-3.37,-9.53
-9,16,537,137,-325,3897,-0.60,0.85,36.21,1.37,-3.25,38.97,-5.68,2.76,-22.20,4.66,-3.04,-7.58
-17,9,437,-10,-564,3912,-0.65,0.82,35.26,-0.10,-5.64,39.12,-5.69,2.77,-22.34,5.81,-2.03,0.00
8,13,426,-41,-499,3876,-0.53,0.82,34.33,-0.41,-4.99,38.76,-5.69,2.77,-22.48,2.21,-2.65,0.08
-14,3,428,46,-557,3882,-0.56,0.75,33.51,0.46,-5.57,38.82,-5.70,2.77,-22.61,5.51,-1.24,-0.85
3,15,446,-2,-437,3847,-0.49,0.77,32.88,-0.02,-4.37,38.47,-5.70,2.77,-22.74,3.05,-3.04,-2.95
-6,15,492,-216,-338,3994,-0.48,0.79,32.59,-2.16,-3.38,39.94,-5.68,2.79,-22.87,4.43,-3.03,-7.10
-9,-1,508,-132,-285,3992,-0.48,0.70,32.43,-1.32,-2.85,39.92,-5.66,2.80,-23.00,4.86,-0.75,-8.59
-17,14,503,-97,-332,3909,-0.54,0.72,32.26,-0.97,-3.32,39.09,-5.65,2.80,-23.13,5.97,-3.01,-8.31
-7,21,468,-81,-354,3954,-0.53,0.77,31.88,-0.81,-3.54,39.54,-5.64,2.80,-23.26,4.46,-3.97,-5.67
-10,9,386,-40,-403,3968,-0.54,0.75,31.05,-0.40,-4.03,39.68,-5.63,2.79,-23.38,4.90,-2.18,0.50
-5,12,366,-94,-435,3830,-0.51,0.75,30.18,-0.94,-4.35,38.30,-5.64,2.79,-23.50,4.18,-2.64,1.39
-15,-2,313,-13,-514,3754,-0.55,0.66,29.07,-0.13,-5.14,37.54,-5.65,2.79,-23.61,5.64,-0.66,4.84
20,36,308,-22,-460,3793,-0.38,0.81,28.04,-0.22,-4.60,37.93,-5.65,2.79,-23.73,0.63,-6.18,4.31
1,18,295,14,-492,3922,-0.33,0.84,27.04,0.14,-4.92,39.22,-5.66,2.79,-23.83,3.61,-3.38,4.48
-9,-7,287,77,-526,4031,-0.35,0.72,26.08,0.77,-5.26,40.31,-5.66,2.78,-23.94,5.10,0.21,4.27
2,6,294,126,-528,3909,-0.31,0.68,25.27,1.26,-5.28,39.09,-5.66,2.78,-24.04,3.51,-1.83,2.91
-7,1,302,64,-537,3883,-0.32,0.62,24.58,0.64,-5.37,38.83,-5.67,2.78,-24.13,4.86,-1.18,1.60
6,-7,345,-38,-557,3885,-0.25,0.51,24.23,-0.38,-5.57,38.85,-5.68,2.78,-24.23,3.01,-0.15,-2.36
-16,3,397,-20,-461,4051,-0.32,0.48,24.23,-0.20,-4.61,40.51,-5.68,2.77,-24.33,6.24,-1.73,-6.75
-16,9,460,-71,-503,3964,-0.39,0.49,24.61,-0.71,-5.03,39.64,-5.69,2.77,-24.42,6.13,-2.63,-11.71
-17,5,467,-34,-548,3828,-0.45,0.47,25.00,-0.34,-5.48,38.28,-5.70,2.77,-24.52,6.17,-2.05,-11.92
-5,6,467,-129,-621,3861,-0.44,0.46,25.35,-1.29,-6.21,38.61,-5.72,2.78,-24.62,4.38,-2.23,-11.57
-16,-1,467,-174,-605,3945,-0.49,0.41,25.66,-1.74,-6.05,39.45,-5.73,2.79,-24.72,5.97,-1.26,-11.26
-12,-12,461,-100,-641,3967,-0.52,0.29,25.91,-1.00,-6.41,39.67,-5.75,2.79,-24.82,5.33,0.21,-10.50
-10,-9,462,-75,-598,3939,-0.53,0.21,26.14,-0.75,-5.98,39.39,-5.76,2.79,-24.93,5.02,-0.40,-10.35
-13,4,509,-2,-499,4001,-0.55,0.21,26.63,-0.02,-4.99,40.01,-5.76,2.79,-25.03,5.43,-2.37,-13.85
-15,-1,526,73,-398,3888,-0.59,0.19,27.17,0.73,-3.98,38.88,-5.76,2.78,-25.14,5.67,-1.66,-14.76
2,25,560,51,-343,3925,-0.52,0.32,27.87,0.51,-3.43,39.25,-5.75,2.78,-25.25,3.20,-5.38,-16.96
5,30,565,46,-412,3949,-0.44,0.47,28.53,0.46,-4.12,39.49,-5.75,2.77,-25.37,2.89,-5.86,-16.74
-21,12,580,19,-491,3811,-0.52,0.50,29.22,0.19,-4.91,38.11,-5.76,2.77,-25.48,6.70,-3.07,-17.34
-3,27,583,24,-519,3791,-0.49,0.61,29.85,0.24,-5.19,37.91,-5.76,2.77,-25.60,4.02,-5.15,-16.97
-9,11,603,-48,-454,3835,-0.49,0.62,30.54,-0.48,-4.54,38.35,-5.77,2.76,-25.72,4.93,-2.70,-17.99
-8,8,603,-87,-498,3985,-0.49,0.60,31.17,-0.87,-4.98,39.85,-5.77,2.77,-25.84,4.78,-2.27,-17.38
-11,-12,601,-79,-521,4045,-0.51,0.47,31.72,-0.79,-5.21,40.45,-5.78,2.77,-25.97,5.22,0.54,-16.67
-16,-5,607,-65,-561,3805,-0.56,0.39,32.25,-0.65,-5.61,38.05,-5.79,2.77,-26.10,5.90,-0.67,-16.65
0,4,643,18,-567,3810,-0.50,0.38,32.95,0.18,-5.67,38.10,-5.80,2.77,-26.23,3.57,-2.07,-19.02
-5,17,665,-17,-408,4092,-0.48,0.44,33.71,-0.17,-4.08,40.92,-5.80,2.77,-26.36,4.36,-3.93,-20.14
-7,21,705,0,-563,3969,-0.48,0.53,34.64,0.00,-5.63,39.69,-5.80,2.77,-26.50,4.68,-4.39,-22.62
-9,19,729,9,-567,3913,-0.48,0.59,35.62,0.09,-5.67,39.13,-5.81,2.77,-26.64,4.98,-3.97,-23.70
-11,24,765,54,-412,3899,-0.50,0.68,36.72,0.54,-4.12,38.99,-5.81,2.77,-26.79,5.25,-4.58,-25.68
1,24,769,-34,-355,3927,-0.45,0.76,37.74,-0.34,-3.55,39.27,-5.80,2.77,-26.94,3.51,-4.44,-25.03
-10,18,717,-33,-147,4048,-0.46,0.79,38.34,-0.33,-1.47,40.48,-5.78,2.78,-27.09,5.14,-3.47,-20.03
-18,18,698,-96,-107,3831,-0.53,0.82,38.77,-0.96,-1.07,38.31,-5.75,2.80,-27.25,6.23,-3.43,-17.99
-10,19,561,14,-224,3684,-0.53,0.86,38.31,0.14,-2.24,36.84,-5.74,2.80,-27.40,4.98,-3.52,-6.79
9,33,509,-70,-217,3879,-0.43,0.97,37.59,-0.70,-2.17,38.79,-5.72,2.81,-27.55,2.26,-5.45,-3.05
-2,6,345,-161,-318,3931,-0.40,0.91,35.93,-1.61,-3.18,39.31,-5.69,2.82,-27.69,3.98,-1.45,9.30
-4,-15,305,-90,-264,3934,-0.38,0.73,34.20,-0.90,-2.64,39.34,-5.67,2.82,-27.83,4.30,1.42,11.06
-8,-18,195,-57,-358,3838,-0.39,0.55,31.97,-0.57,-3.58,38.38,-5.67,2.82,-27.96,4.88,1.55,18.29
6,3,155,-88,-367,3991,-0.32,0.51,29.72,-0.88,-3.67,39.91,-5.66,2.82,-28.07,2.88,-1.71,19.56
6,6,112,-68,-445,3949,-0.25,0.49,27.43,-0.68,-4.45,39.49,-5.66,2.81,-28.18,3.00,-2.19,21.05
3,6,113,-56,-471,3915,-0.20,0.48,25.37,-0.56,-4.71,39.15,-5.66,2.81,-28.28,3.54,-2.21,19.03
-4,11,104,0,-501,3866,-0.21,0.50,23.47,0.00,-5.01,38.66,-5.67,2.81,-28.38,4.60,-2.94,18.00
0,7,94,33,-493,3877,-0.19,0.49,21.70,0.33,-4.93,38.77,-5.68,2.80,-28.46,4.03,-2.34,17.18
-5,3,83,-26,-513,3876,-0.20,0.46,20.03,-0.26,-5.13,38.76,-5.68,2.79,-28.54,4.78,-1.78,16.55
-9,-5,77,-26,-490,3951,-0.23,0.39,18.50,-0.26,-4.90,39.51,-5.69,2.79,-28.61,5.33,-0.69,15.61
-3,-2,81,-61,-484,3890,-0.23,0.33,17.14,-0.61,-4.84,38.90,-5.70,2.78,-28.68,4.43,-1.24,14.00
2,1,88,-35,-513,3911,-0.19,0.31,15.97,-0.35,-5.13,39.11,-5.71,2.77,-28.75,3.74,-1.74,12.29
0,-6,171,-129,-646,3921,-0.17,0.24,15.41,-1.29,-6.46,39.21,-5.72,2.78,-28.81,4.09,-0.79,4.75
-8,4,251,-44,-606,3925,-0.21,0.24,15.40,-0.44,-6.06,39.25,-5.74,2.77,-28.87,5.27,-2.31,-2.03
-11,18,367,29,-652,3942,-0.25,0.33,16.10,0.29,-6.52,39.42,-5.75,2.77,-28.93,5.65,-4.29,-11.19
-4,6,401,-15,-656,3966,-0.25,0.33,16.94,-0.15,-6.56,39.66,-5.76,2.77,-29.00,4.59,-2.45,-13.26
-1,9,467,26,-486,3892,-0.23,0.35,18.09,0.26,-4.86,38.92,-5.76,2.76,-29.07,4.17,-2.87,-17.75
-6,20,482,35,-474,3911,-0.25,0.44,19.22,0.35,-4.74,39.11,-5.77,2.75,-29.14,4.92,-4.38,-17.93
-10,33,435,-85,-495,3826,-0.28,0.60,19.95,-0.85,-4.95,38.26,-5.78,2.75,-29.22,5.47,-6.08,-13.24
-17,13,411,-123,-460,3982,-0.36,0.62,20.47,-1.23,-4.60,39.82,-5.79,2.75,-29.30,6.41,-2.99,-10.71
-6,-12,317,-22,-330,3953,-0.36,0.48,20.35,-0.22,-3.30,39.53,-5.78,2.74,-29.38,4.72,0.58,-2.84
1,10,294,-19,-270,3792,-0.32,0.49,20.11,-0.19,-2.70,37.92,-5.77,2.73,-29.47,3.72,-2.74,-1.11
7,20,161,-41,-244,3908,-0.24,0.57,19.08,-0.41,-2.44,39.08,-5.75,2.73,-29.54,2.93,-4.14,9.19
2,7,111,43,-381,3881,-0.21,0.55,17.85,0.43,-3.81,38.81,-5.75,2.72,-29.61,3.75,-2.17,12.27
0,-3,80,-20,-530,3813,-0.19,0.48,16.55,-0.20,-5.30,38.13,-5.76,2.72,-29.68,4.10,-0.78,13.68
-4,-6,90,-36,-563,3838,-0.19,0.39,15.45,-0.36,-5.63,38.38,-5.77,2.71,-29.74,4.71,-0.47,11.79
-9,-32,135,-54,-483,3901,-0.23,0.16,14.73,-0.54,-4.83,39.01,-5.78,2.70,-29.80,5.41,3.08,7.30
-9,-30,142,-48,-493,3853,-0.26,-0.04,14.12,-0.48,-4.93,38.53,-5.79,2.69,-29.85,5.36,2.43,6.14
-11,-14,164,-112,-536,3908,-0.30,-0.12,13.71,-1.12,-5.36,39.08,-5.80,2.69,-29.91,5.61,-0.15,3.90
-22,-20,181,-130,-598,3916,-0.40,-0.23,13.44,-1.30,-5.98,39.16,-5.82,2.69,-29.96,7.11,0.56,2.21
-4,3,221,-135,-450,3914,-0.39,-0.19,13.45,-1.35,-4.50,39.14,-5.83,2.68,-30.01,4.40,-2.86,-1.16
-15,-4,228,-40,-470,4005,-0.44,-0.19,13.49,-0.40,-4.70,40.05,-5.84,2.67,-30.07,5.99,-1.80,-1.70
-5,4,217,63,-435,3938,-0.43,-0.15,13.47,0.63,-4.35,39.38,-5.84,2.66,-30.12,4.49,-2.93,-0.79
0,16,208,44,-437,3858,-0.38,-0.04,13.39,0.44,-4.37,38.58,-5.84,2.64,-30.17,3.81,-4.54,-0.09
-5,9,173,22,-380,3841,-0.38,0.02,13.10,0.22,-3.80,38.41,-5.84,2.63,-30.22,4.58,-3.36,2.61
-3,10,164,-20,-404,3889,-0.36,0.08,12.79,-0.20,-4.04,38.89,-5.84,2.62,-30.28,4.31,-3.40,3.09
-9,-7,153,3,-490,3877,-0.38,0.03,12.45,0.03,-4.90,38.77,-5.85,2.61,-30.32,5.20,-0.89,3.70
-13,-9,165,18,-494,3878,-0.42,-0.03,12.21,0.18,-4.94,38.78,-5.85,2.60,-30.37,5.74,-0.68,2.47
-6,-6,150,123,-461,3912,-0.41,-0.06,11.90,1.23,-4.61,39.12,-5.86,2.58,-30.42,4.68,-1.19,3.45
0,-3,140,111,-507,3891,-0.37,-0.07,11.57,1.11,-5.07,38.91,-5.86,2.57,-30.47,3.85,-1.66,3.99
-2,-6,135,68,-623,3863,-0.35,-0.10,11.23,0.68,-6.23,38.63,-5.87,2.56,-30.51,4.21,-1.24,4.10
-8,-2,153,71,-623,3861,-0.36,-0.11,11.04,0.71,-6.23,38.61,-5.89,2.55,-30.55,5.11,-1.85,2.41
-11,-2,211,-33,-554,3872,-0.39,-0.11,11.23,-0.33,-5.54,38.72,-5.90,2.54,-30.60,5.52,-1.85,-2.33
-5,-2,218,-80,-493,3912,-0.38,-0.11,11.43,-0.80,-4.93,39.12,-5.91,2.53,-30.64,4.63,-1.84,-2.72
-2,1,236,-59,-452,3945,-0.36,-0.09,11.73,-0.59,-4.52,39.45,-5.92,2.52,-30.69,4.22,-2.26,-3.95
-8,1,239,-66,-428,3903,-0.37,-0.08,12.02,-0.66,-4.28,39.03,-5.92,2.51,-30.74,5.11,-2.22,-3.93
-1,2,212,-97,-332,3836,-0.34,-0.06,12.11,-0.97,-3.32,38.36,-5.91,2.50,-30.79,4.09,-2.33,-1.55
5,11,187,-110,-339,3861,-0.27,0.02,12.04,-1.10,-3.39,38.61,-5.89,2.49,-30.83,3.28,-3.57,0.51
-2,-5,123,-41,-404,3929,-0.26,-0.02,11.58,-0.41,-4.04,39.29,-5.89,2.48,-30.88,4.38,-1.17,5.51
0,-7,114,-48,-434,3873,-0.23,-0.06,11.12,-0.48,-4.34,38.73,-5.90,2.46,-30.92,4.12,-0.93,5.84
2,4,108,-19,-474,3829,-0.20,-0.03,10.67,-0.19,-4.74,38.29,-5.90,2.45,-30.97,3.89,-2.55,5.93
1,11,113,-28,-520,3906,-0.17,0.04,10.29,-0.28,-5.20,39.06,-5.91,2.44,-31.01,4.09,-3.48,5.15
3,13,143,-75,-462,3884,-0.14,0.12,10.13,-0.75,-4.62,38.84,-5.92,2.43,-31.05,3.86,-3.64,2.47
0,-2,151,-2,-378,3915,-0.12,0.09,10.04,-0.02,-3.78,39.15,-5.92,2.42,-31.09,4.34,-1.39,1.71
6,30,164,6,-333,3849,-0.07,0.27,10.04,0.06,-3.33,38.49,-5.91,2.41,-31.13,3.50,-5.95,0.61
10,30,150,105,-443,4005,-0.01,0.42,9.95,1.05,-4.43,40.05,-5.91,2.39,-31.17,3.02,-5.66,1.72
-3,-6,52,80,-330,3967,-0.02,0.34,9.27,0.80,-3.30,39.67,-5.90,2.38,-31.20,4.96,-0.30,9.38
2,3,34,43,-396,3897,-0.01,0.33,8.55,0.43,-3.96,38.97,-5.90,2.37,-31.24,4.22,-1.69,10.23
0,-4,6,-2,-444,3905,-0.01,0.27,7.73,-0.02,-4.44,39.05,-5.90,2.36,-31.27,4.53,-0.72,11.83
-1,-5,5,-1,-457,3903,-0.01,0.21,6.99,-0.01,-4.57,39.03,-5.91,2.34,-31.30,4.68,-0.66,11.22
2,-6,5,-8,-482,3888,0.00,0.16,6.32,-0.08,-4.82,38.88,-5.92,2.33,-31.32,4.25,-0.60,10.59
-3,-2,6,30,-466,3857,-0.02,0.13,5.73,0.30,-4.66,38.57,-5.92,2.31,-31.34,4.99,-1.25,9.94
3,2,9,-29,-482,3908,0.00,0.13,5.21,-0.29,-4.82,39.08,-5.93,2.30,-31.36,4.11,-1.85,9.20
3,0,9,-24,-474,3874,0.02,0.11,4.74,-0.24,-4.74,38.74,-5.94,2.29,-31.38,4.15,-1.56,8.76
-1,3,14,-11,-460,3898,0.01,0.12,4.35,-0.11,-4.60,38.98,-5.94,2.27,-31.40,4.75,-1.99,7.97
3,6,12,-22,-463,3911,0.03,0.15,3.99,-0.22,-4.63,39.11,-5.95,2.26,-31.41,4.18,-2.39,7.80
-9,-3,14,-48,-459,3872,-0.03,0.11,3.68,-0.48,-4.59,38.72,-5.96,2.24,-31.43,5.91,-1.07,7.33
-4,6,14,-15,-471,3885,-0.05,0.14,3.40,-0.15,-4.71,38.85,-5.97,2.23,-31.44,5.11,-2.38,7.07
-5,-2,9,-4,-482,3884,-0.08,0.11,3.11,-0.04,-4.82,38.84,-5.97,2.21,-31.45,5.23,-1.20,7.22
-2,-2,3,-7,-477,3887,-0.08,0.09,2.82,-0.07,-4.77,38.87,-5.98,2.20,-31.46,4.77,-1.23,7.45
0,4,-3,-4,-475,3895,-0.07,0.10,2.52,-0.04,-4.75,38.95,-5.99,2.18,-31.47,4.48,-2.10,7.68
-1,3,-5,-9,-501,3897,-0.07,0.11,2.24,-0.09,-5.01,38.97,-6.00,2.17,-31.48,4.64,-1.93,7.58
-1,8,-7,-16,-481,3894,-0.07,0.15,1.97,-0.16,-4.81,38.94,-6.01,2.16,-31.49,4.65,-2.61,7.50
-2,9,-4,-18,-469,3911,-0.08,0.19,1.75,-0.18,-4.69,39.11,-6.02,2.14,-31.50,4.80,-2.68,7.04
2,5,-6,18,-529,3917,-0.06,0.20,1.54,0.18,-5.29,39.17,-6.03,2.13,-31.50,4.24,-2.04,7.01
5,9,-2,10,-492,3878,-0.02,0.24,1.37,0.10,-4.92,38.78,-6.03,2.11,-31.51,3.85,-2.58,6.51
3,13,-1,-7,-457,3889,0.00,0.29,1.23,-0.07,-4.57,38.89,-6.04,2.10,-31.51,4.19,-3.07,6.29
4,10,-2,-16,-467,3903,0.03,0.32,1.09,-0.16,-4.67,39.03,-6.05,2.08,-31.52,4.09,-2.55,6.25
13,5,-1,-49,-515,3844,0.10,0.32,0.98,-0.49,-5.15,38.44,-6.06,2.07,-31.52,2.87,-1.78,6.06
7,7,9,-9,-523,3909,0.13,0.33,0.93,-0.09,-5.23,39.09,-6.07,2.06,-31.52,3.85,-2.06,5.17
-1,6,35,-3,-496,3920,0.11,0.34,1.05,-0.03,-4.96,39.20,-6.08,2.04,-31.53,5.04,-1.89,3.08
0,3,38,11,-493,3904,0.10,0.32,1.18,0.11,-4.93,39.04,-6.09,2.03,-31.53,4.87,-1.45,2.95
-1,13,44,-35,-423,3902,0.09,0.37,1.33,-0.35,-4.23,39.02,-6.09,2.01,-31.54,5.00,-2.87,2.58
1,-14,20,-105,-501,3879,0.08,0.25,1.32,-1.05,-5.01,38.79,-6.10,2.01,-31.54,4.70,1.03,4.60
-11,-18,54,39,-546,3878,0.01,0.11,1.52,0.39,-5.46,38.78,-6.12,1.99,-31.55,6.40,1.41,1.91
-5,-9,68,57,-523,3904,-0.02,0.05,1.78,0.57,-5.23,39.04,-6.12,1.98,-31.55,5.44,-0.07,0.98
2,4,102,74,-479,3960,-0.01,0.06,2.22,0.74,-4.79,39.60,-6.13,1.96,-31.56,4.40,-2.00,-1.48
3,6,111,68,-526,3825,0.01,0.10,2.68,0.68,-5.26,38.25,-6.14,1.95,-31.57,4.29,-2.24,-1.81
6,5,111,32,-462,3907,0.05,0.12,3.09,0.32,-4.62,39.07,-6.14,1.93,-31.58,3.90,-2.04,-1.42
3,-2,103,23,-468,3895,0.06,0.09,3.41,0.23,-4.68,38.95,-6.15,1.92,-31.60,4.38,-1.01,-0.44
0,-3,74,-11,-422,3901,0.05,0.06,3.52,-0.11,-4.22,39.01,-6.14,1.90,-31.61,4.83,-0.89,2.13
5,2,63,-37,-377,3932,0.08,0.07,3.55,-0.37,-3.77,39.32,-6.14,1.89,-31.63,4.10,-1.63,3.09
5,-7,-6,-138,-352,3963,0.10,0.02,3.16,-1.38,-3.52,39.63,-6.12,1.89,-31.64,4.13,-0.35,8.57
0,-3,-9,-104,-393,3855,0.09,0.00,2.79,-1.04,-3.93,38.55,-6.10,1.88,-31.65,4.86,-0.99,8.47
2,3,-2,-39,-454,3877,0.09,0.02,2.50,-0.39,-4.54,38.77,-6.11,1.86,-31.66,4.57,-1.86,7.60
3,4,-4,-27,-459,3908,0.10,0.04,2.22,-0.27,-4.59,39.08,-6.12,1.84,-31.67,4.44,-1.96,7.52
-1,1,-7,30,-407,3926,0.09,0.04,1.96,0.30,-4.07,39.26,-6.12,1.83,-31.68,5.02,-1.48,7.52
2,12,-16,40,-370,3844,0.09,0.11,1.66,0.40,-3.70,38.44,-6.11,1.81,-31.68,4.56,-3.02,8.00
-4,1,-12,-46,-498,3902,0.06,0.11,1.43,-0.46,-4.98,39.02,-6.12,1.80,-31.69,5.43,-1.35,7.44
1,1,-12,-21,-459,3925,0.06,0.10,1.21,-0.21,-4.59,39.25,-6.13,1.78,-31.69,4.67,-1.34,7.24
3,0,-49,4,-444,3919,0.07,0.09,0.79,0.04,-4.44,39.19,-6.13,1.77,-31.70,4.39,-1.19,9.97
4,-2,-51,-34,-514,3883,0.09,0.07,0.40,-0.34,-5.14,38.83,-6.14,1.75,-31.70,4.28,-0.92,9.77
2,-4,-13,-25,-476,3903,0.09,0.04,0.28,-0.25,-4.76,39.03,-6.15,1.74,-31.70,4.60,-0.66,6.44
1,1,-8,-37,-460,3910,0.09,0.04,0.20,-0.37,-4.60,39.10,-6.16,1.72,-31.70,4.75,-1.40,5.94
3,6,0,-11,-463,3896,0.10,0.07,0.18,-0.11,-4.63,38.96,-6.17,1.70,-31.70,4.47,-2.10,5.25
3,7,3,-12,-463,3907,0.11,0.11,0.18,-0.12,-4.63,39.07,-6.17,1.69,-31.70,4.49,-2.17,4.99
3,4,8,-9,-458,3899,0.11,0.12,0.21,-0.09,-4.58,38.99,-6.18,1.67,-31.70,4.50,-1.68,4.60
3,1,7,-4,-454,3903,0.12,0.12,0.23,-0.04,-4.54,39.03,-6.18,1.65,-31.70,4.52,-1.22,4.70
-10,-16,12,-127,-367,3891,0.05,0.01,0.28,-1.27,-3.67,38.91,-6.17,1.66,-31.70,6.36,1.18,4.33
-10,-21,7,-188,-266,3950,-0.02,-0.12,0.30,-1.88,-2.66,39.50,-6.15,1.67,-31.70,6.23,1.70,4.76
-13,-17,-83,-271,-27,3938,-0.10,-0.21,-0.24,-2.71,-0.27,39.38,-6.13,1.67,-31.70,6.53,0.92,11.88
-4,-16,-126,-242,-31,3876,-0.11,-0.29,-0.98,-2.42,-0.31,38.76,-6.12,1.68,-31.70,5.12,0.63,14.82
11,-8,-317,-91,-171,3753,-0.03,-0.31,-2.82,-0.91,-1.71,37.53,-6.10,1.67,-31.69,2.96,-0.62,29.25
22,-22,-414,-26,-317,3989,0.11,-0.41,-5.06,-0.26,-3.17,39.89,-6.08,1.66,-31.67,1.52,1.34,35.34
8,-28,-536,67,-559,3767,0.14,-0.54,-7.82,0.67,-5.59,37.67,-6.10,1.64,-31.64,3.73,2.04,43.05
2,-26,-555,74,-583,3959,0.14,-0.65,-10.43,0.74,-5.83,39.59,-6.11,1.62,-31.60,4.65,1.56,42.18
9,-11,-529,118,-679,4032,0.18,-0.65,-12.61,1.18,-6.79,40.32,-6.12,1.60,-31.55,3.67,-0.72,37.90
20,-20,-511,143,-619,4000,0.29,-0.71,-14.47,1.43,-6.19,40.00,-6.13,1.57,-31.49,2.19,0.57,34.60
1,-4,-419,55,-586,3871,0.26,-0.66,-15.58,0.55,-5.86,38.71,-6.15,1.55,-31.43,5.05,-1.77,25.75
11,4,-406,-11,-583,3829,0.30,-0.57,-16.50,-0.11,-5.83,38.29,-6.16,1.53,-31.36,3.61,-2.81,23.76
12,9,-379,-54,-562,3852,0.35,-0.46,-17.16,-0.54,-5.62,38.52,-6.18,1.52,-31.29,3.55,-3.36,20.84
0,-19,-366,-58,-640,4037,0.31,-0.53,-17.67,-0.58,-6.40,40.37,-6.20,1.50,-31.22,5.33,0.79,19.23
4,-19,-324,-32,-579,3973,0.31,-0.59,-17.88,-0.32,-5.79,39.73,-6.22,1.48,-31.15,4.73,0.69,15.46
11,-13,-296,39,-576,3845,0.34,-0.61,-17.90,0.39,-5.76,38.45,-6.23,1.46,-31.08,3.73,-0.24,13.06
7,-6,-281,-42,-573,3899,0.35,-0.59,-17.83,-0.42,-5.73,38.99,-6.25,1.45,-31.01,4.37,-1.25,11.85
2,-3,-289,-27,-499,3894,0.33,-0.55,-17.81,-0.27,-4.99,38.94,-6.26,1.42,-30.94,5.10,-1.62,12.54
11,-4,-348,6,-446,3942,0.36,-0.52,-18.15,0.06,-4.46,39.42,-6.27,1.39,-30.87,3.80,-1.39,17.20
5,-5,-375,-49,-402,3896,0.36,-0.49,-18.62,-0.49,-4.02,38.96,-6.26,1.37,-30.79,4.69,-1.18,19.03
7,6,-458,-99,-385,3902,0.36,-0.41,-19.55,-0.99,-3.85,39.02,-6.24,1.36,-30.72,4.39,-2.70,25.16
17,2,-482,-106,-366,3964,0.43,-0.36,-20.54,-1.06,-3.66,39.64,-6.22,1.35,-30.63,2.97,-1.98,26.25
3,-1,-543,-139,-392,3927,0.41,-0.33,-21.80,-1.39,-3.92,39.27,-6.21,1.36,-30.55,5.05,-1.48,30.21
19,1,-556,-89,-394,3879,0.48,-0.29,-23.01,-0.89,-3.94,38.79,-6.19,1.34,-30.46,2.73,-1.70,30.15
21,-3,-586,-20,-452,3884,0.56,-0.28,-24.28,-0.20,-4.52,38.84,-6.20,1.32,-30.36,2.58,-1.05,31.46
11,-17,-578,43,-527,3957,0.57,-0.35,-25.38,0.43,-5.27,39.57,-6.21,1.29,-30.26,4.13,0.97,29.73
11,-15,-563,65,-483,3968,0.58,-0.41,-26.28,0.65,-4.83,39.68,-6.22,1.26,-30.15,4.15,0.59,27.59
23,-7,-561,35,-465,3848,0.66,-0.41,-27.07,0.35,-4.65,38.48,-6.22,1.23,-30.05,2.47,-0.61,26.65
18,-4,-539,38,-433,3905,0.71,-0.39,-27.65,0.38,-4.33,39.05,-6.22,1.20,-29.94,3.32,-1.02,24.22
11,-11,-530,45,-411,3916,0.70,-0.42,-28.12,0.45,-4.11,39.16,-6.22,1.16,-29.83,4.37,0.03,22.99
11,-7,-525,19,-473,3860,0.70,-0.42,-28.51,0.19,-4.73,38.60,-6.23,1.13,-29.71,4.37,-0.56,22.18
21,-7,-536,34,-463,3878,0.76,-0.42,-28.93,0.34,-4.63,38.78,-6.23,1.10,-29.60,2.96,-0.54,22.70
17,-28,-564,137,-443,3992,0.79,-0.55,-29.48,1.37,-4.43,39.92,-6.23,1.07,-29.48,3.62,2.46,24.53
4,-16,-574,104,-404,3811,0.73,-0.59,-30.03,1.04,-4.04,38.11,-6.23,1.03,-29.36,5.50,0.58,24.83
4,-12,-609,29,-443,3883,0.68,-0.61,-30.74,0.29,-4.43,38.83,-6.23,1.00,-29.24,5.42,-0.03,27.10
9,-1,-609,-11,-503,3920,0.67,-0.55,-31.38,-0.11,-5.03,39.20,-6.25,0.97,-29.11,4.64,-1.59,26.48
14,-3,-596,3,-463,3892,0.69,-0.52,-31.88,0.03,-4.63,38.92,-6.26,0.94,-28.99,3.92,-1.19,24.88
17,-14,-578,-9,-541,3983,0.72,-0.55,-32.22,-0.09,-5.41,39.83,-6.27,0.92,-28.86,3.53,0.44,23.02
12,-22,-494,52,-543,3991,0.72,-0.63,-32.01,0.52,-5.43,39.91,-6.28,0.89,-28.73,4.31,1.54,16.08
11,-11,-460,51,-548,3796,0.72,-0.63,-31.61,0.51,-5.48,37.96,-6.30,0.86,-28.61,4.46,-0.12,13.55
10,-3,-417,157,-461,3911,0.71,-0.59,-31.00,1.57,-4.61,39.11,-6.30,0.82,-28.48,4.59,-1.23,10.47
0,-15,-429,109,-406,3942,0.64,-0.62,-30.51,1.09,-4.06,39.42,-6.29,0.79,-28.36,5.99,0.57,11.93
7,-3,-500,149,-370,3855,0.62,-0.58,-30.51,1.49,-3.70,38.55,-6.29,0.76,-28.24,4.88,-1.16,17.93
12,-10,-533,159,-358,3974,0.63,-0.58,-30.71,1.59,-3.58,39.74,-6.28,0.72,-28.12,4.13,-0.07,20.51
16,-26,-645,89,-336,3878,0.66,-0.68,-31.58,0.89,-3.36,38.78,-6.27,0.69,-27.99,3.57,2.21,29.16
20,-5,-685,39,-420,3919,0.72,-0.64,-32.60,0.39,-4.20,39.19,-6.26,0.66,-27.87,3.06,-0.90,31.56
15,-9,-753,2,-391,3899,0.74,-0.63,-33.93,0.02,-3.91,38.99,-6.25,0.63,-27.73,3.85,-0.25,36.04
3,-28,-779,31,-394,3932,0.68,-0.74,-35.29,0.31,-3.94,39.32,-6.24,0.59,-27.59,5.57,2.49,36.93
8,-18,-880,30,-320,3850,0.66,-0.78,-37.13,0.30,-3.20,38.50,-6.23,0.56,-27.44,4.76,0.92,43.72
26,-15,-906,51,-328,3920,0.76,-0.79,-38.94,0.51,-3.28,39.20,-6.21,0.53,-27.29,2.17,0.46,44.17
4,-15,-955,-49,-444,3915,0.70,-0.80,-40.87,-0.49,-4.44,39.15,-6.23,0.52,-27.13,5.45,0.45,46.47
28,-20,-960,-18,-377,3894,0.80,-0.84,-42.64,-0.18,-3.77,38.94,-6.21,0.49,-26.96,1.95,1.16,45.18
5,-11,-944,-219,-519,3811,0.75,-0.83,-44.14,-2.19,-5.19,38.11,-6.21,0.48,-26.78,5.38,-0.18,42.38
-2,-5,-936,-205,-446,4086,0.67,-0.78,-45.43,-2.05,-4.46,40.86,-6.21,0.48,-26.60,6.28,-1.00,40.45
4,-38,-875,11,-509,3928,0.62,-0.93,-46.23,0.11,-5.09,39.28,-6.23,0.45,-26.42,5.31,3.78,34.50
4,-1,-825,-47,-539,3914,0.59,-0.84,-46.64,-0.47,-5.39,39.14,-6.24,0.43,-26.23,5.25,-1.69,29.84
25,-9,-816,-86,-477,3813,0.68,-0.81,-46.95,-0.86,-4.77,38.13,-6.26,0.42,-26.05,2.23,-0.41,28.75
20,-12,-824,-77,-475,3995,0.73,-0.81,-47.28,-0.77,-4.75,39.95,-6.27,0.41,-25.86,3.09,0.07,29.08
10,-21,-834,17,-516,4063,0.72,-0.85,-47.64,0.17,-5.16,40.63,-6.28,0.37,-25.67,4.60,1.39,29.56
15,-28,-842,-24,-507,3877,0.74,-0.94,-48.01,-0.24,-5.07,38.77,-6.30,0.35,-25.48,3.89,2.32,29.85
16,-27,-860,-37,-509,3977,0.76,-1.01,-48.46,-0.37,-5.09,39.77,-6.31,0.32,-25.29,3.79,2.06,30.93
11,-26,-863,-6,-571,3828,0.76,-1.07,-48.88,-0.06,-5.71,38.28,-6.33,0.30,-25.09,4.55,1.82,30.75
13,-21,-859,-48,-569,3840,0.76,-1.09,-49.23,-0.48,-5.69,38.40,-6.34,0.27,-24.90,4.26,1.04,30.05
13,-38,-856,-86,-611,3965,0.76,-1.21,-49.53,-0.86,-6.11,39.65,-6.36,0.25,-24.70,4.28,3.43,29.48
6,-40,-827,-85,-543,3889,0.72,-1.33,-49.62,-0.85,-5.43,38.89,-6.37,0.24,-24.50,5.29,3.53,26.90
15,-26,-787,-130,-508,3865,0.74,-1.36,-49.46,-1.30,-5.08,38.65,-6.38,0.22,-24.31,3.96,1.36,23.64
-4,-25,-596,-216,-425,3915,0.64,-1.38,-48.15,-2.16,-4.25,39.15,-6.38,0.22,-24.12,6.67,1.18,8.67
-5,-22,-485,-194,-442,3914,0.55,-1.37,-46.29,-1.94,-4.42,39.14,-6.38,0.21,-23.93,6.66,0.73,0.99
-29,-11,-163,-614,-138,3720,0.32,-1.30,-42.66,-6.14,-1.38,37.20,-6.37,0.20,-23.77,9.89,-0.81,-22.86
-23,-27,-125,-594,-134,3967,0.14,-1.34,-39.15,-5.94,-1.34,39.67,-6.36,0.19,-23.61,8.66,1.57,-22.78
-32,-53,-83,-99,-383,4119,-0.06,-1.53,-35.74,-0.99,-3.83,41.19,-6.35,0.19,-23.47,9.65,5.20,-23.13
-27,-53,-98,3,-385,3966,-0.22,-1.70,-32.77,0.03,-3.85,39.66,-6.33,0.16,-23.34,8.59,4.92,-19.06
19,-13,-220,237,-754,3783,-0.08,-1.61,-30.83,2.37,-7.54,37.83,-6.35,0.13,-23.22,1.84,-1.00,-6.90
13,21,-273,258,-883,3933,0.00,-1.32,-29.42,2.58,-8.83,39.33,-6.36,0.10,-23.10,2.92,-5.64,-1.09
3,27,-306,293,-729,3925,0.02,-1.02,-28.34,2.93,-7.29,39.25,-6.38,0.07,-22.99,4.49,-6.00,2.71
4,3,-380,42,-474,3839,0.04,-0.90,-27.82,0.42,-4.74,38.39,-6.39,0.04,-22.88,4.39,-2.11,9.45
13,5,-489,87,-407,3953,0.12,-0.78,-28.02,0.87,-4.07,39.53,-6.38,0.01,-22.77,3.14,-2.17,18.48
-2,-13,-508,93,-378,3964,0.09,-0.78,-28.32,0.93,-3.78,39.64,-6.37,-0.02,-22.66,5.38,0.60,19.79
11,-3,-557,58,-302,3790,0.15,-0.72,-28.89,0.58,-3.02,37.90,-6.35,-0.04,-22.54,3.49,-0.80,23.39
19,14,-570,113,-364,3953,0.25,-0.56,-29.47,1.13,-3.64,39.53,-6.34,-0.08,-22.42,2.44,-3.09,23.91
9,-18,-649,31,-422,3966,0.28,-0.62,-30.49,0.31,-4.22,39.66,-6.33,-0.11,-22.30,4.01,1.72,29.63
6,-14,-669,-30,-485,3728,0.29,-0.64,-31.52,-0.30,-4.85,37.28,-6.34,-0.11,-22.18,4.49,1.07,30.32
13,-30,-678,-106,-496,3913,0.34,-0.76,-32.50,-1.06,-4.96,39.13,-6.35,-0.12,-22.05,3.52,3.30,30.13
2,-60,-681,-155,-580,3928,0.32,-1.05,-33.41,-1.55,-5.80,39.28,-6.36,-0.12,-21.92,5.17,7.36,29.50
-6,-67,-582,-187,-572,3827,0.25,-1.35,-33.62,-1.87,-5.72,38.27,-6.37,-0.13,-21.78,6.27,7.89,20.90
2,-43,-510,-235,-552,4064,0.24,-1.48,-33.37,-2.35,-5.52,40.64,-6.38,-0.13,-21.65,5.03,4.00,15.01
2,-11,-412,-186,-526,3902,0.23,-1.40,-32.54,-1.86,-5.26,39.02,-6.38,-0.13,-21.52,5.02,-0.73,7.47
10,-13,-403,-56,-493,3972,0.26,-1.34,-31.75,-0.56,-4.93,39.72,-6.39,-0.14,-21.40,3.87,-0.31,7.44
19,12,-363,-168,-578,3823,0.35,-1.13,-30.79,-1.68,-5.78,38.23,-6.40,-0.14,-21.28,2.67,-3.75,4.95
22,9,-346,-182,-627,3956,0.45,-0.96,-29.82,-1.82,-6.27,39.56,-6.41,-0.15,-21.16,2.40,-2.99,4.41
0,-20,-231,-270,-758,3841,0.41,-0.99,-28.25,-2.70,-7.58,38.41,-6.43,-0.15,-21.05,5.68,1.39,-3.86
6,-23,-177,-276,-666,3869,0.40,-1.03,-26.50,-2.76,-6.66,38.69,-6.43,-0.15,-20.94,4.76,1.78,-6.80
-1,-13,-51,-97,-582,3914,0.36,-1.01,-24.16,-0.97,-5.82,39.14,-6.45,-0.16,-20.85,5.76,0.30,-15.27
10,-9,-49,-44,-619,3979,0.38,-0.96,-22.04,-0.44,-6.19,39.79,-6.46,-0.16,-20.76,4.14,-0.22,-13.44
2,-7,-98,-111,-548,3945,0.36,-0.91,-20.44,-1.11,-5.48,39.45,-6.47,-0.16,-20.68,5.32,-0.44,-7.78
1,-7,-120,-77,-531,3833,0.33,-0.86,-19.13,-0.77,-5.31,38.33,-6.49,-0.16,-20.60,5.43,-0.35,-4.69
12,3,-133,-58,-388,3953,0.37,-0.76,-18.02,-0.58,-3.88,39.53,-6.47,-0.16,-20.53,3.81,-1.69,-2.55
10,1,-120,-92,-404,3934,0.39,-0.67,-16.95,-0.92,-4.04,39.34,-6.46,-0.15,-20.46,4.15,-1.24,-2.65
9,2,-104,1,-402,3924,0.41,-0.59,-15.89,0.01,-4.02,39.24,-6.44,-0.16,-20.40,4.32,-1.25,-3.01
9,4,-105,-5,-451,3846,0.42,-0.51,-14.94,-0.05,-4.51,38.46,-6.45,-0.15,-20.34,4.35,-1.41,-2.03
9,2,-100,-51,-522,3867,0.43,-0.45,-14.06,-0.51,-5.22,38.67,-6.47,-0.15,-20.29,4.39,-0.99,-1.62
11,-3,-105,3,-525,3867,0.46,-0.42,-13.29,0.03,-5.25,38.67,-6.48,-0.16,-20.23,4.14,-0.18,-0.48
-6,-22,-170,54,-451,3856,0.38,-0.51,-13.00,0.54,-4.51,38.56,-6.49,-0.18,-20.18,6.58,2.58,5.29
2,-19,-203,25,-448,3904,0.35,-0.58,-12.94,0.25,-4.48,39.04,-6.49,-0.21,-20.13,5.32,2.02,8.14
2,-13,-262,66,-570,3932,0.33,-0.60,-13.24,0.66,-5.70,39.32,-6.51,-0.22,-20.08,5.29,1.08,12.84
17,-13,-283,149,-481,3862,0.40,-0.62,-13.65,1.49,-4.81,38.62,-6.51,-0.25,-20.02,3.13,1.07,14.23
0,-9,-337,23,-473,3829,0.36,-0.61,-14.34,0.23,-4.73,38.29,-6.53,-0.26,-19.97,5.67,0.48,18.14
11,0,-350,29,-356,3916,0.39,-0.55,-15.04,0.29,-3.56,39.16,-6.51,-0.27,-19.91,4.03,-0.78,18.57
14,-4,-378,-30,-305,3937,0.44,-0.52,-15.84,-0.30,-3.05,39.37,-6.49,-0.28,-19.85,3.64,-0.11,20.17
6,-12,-376,-38,-364,3905,0.43,-0.54,-16.55,-0.38,-3.64,39.05,-6.47,-0.28,-19.78,4.84,1.07,19.32
10,-20,-346,-77,-407,3879,0.45,-0.61,-17.01,-0.77,-4.07,38.79,-6.46,-0.27,-19.71,4.25,2.17,16.33
8,-19,-344,-46,-398,3859,0.45,-0.66,-17.40,-0.46,-3.98,38.59,-6.45,-0.26,-19.64,4.56,1.91,15.77
6,-20,-322,-5,-502,3843,0.44,-0.72,-17.63,-0.05,-5.02,38.43,-6.47,-0.27,-19.57,4.86,1.97,13.69
7,-18,-334,1,-439,3961,0.44,-0.76,-17.90,0.01,-4.39,39.61,-6.45,-0.26,-19.50,4.69,1.59,14.43
10,-19,-397,-48,-512,3943,0.46,-0.80,-18.53,-0.48,-5.12,39.43,-6.47,-0.26,-19.43,4.27,1.67,19.16
12,-17,-446,-46,-473,3856,0.49,-0.82,-19.40,-0.46,-4.73,38.56,-6.47,-0.26,-19.35,4.02,1.32,22.47
6,-10,-566,6,-407,3856,0.47,-0.80,-20.91,0.06,-4.07,38.56,-6.45,-0.26,-19.27,4.90,0.29,31.19
34,-14,-584,-26,-415,3969,0.63,-0.81,-22.38,-0.26,-4.15,39.69,-6.44,-0.26,-19.18,0.91,0.89,31.31
12,-13,-632,-1,-423,3865,0.64,-0.80,-24.00,-0.01,-4.23,38.65,-6.43,-0.26,-19.09,4.27,0.74,33.82
9,-17,-653,-8,-353,3830,0.63,-0.83,-25.58,-0.08,-3.53,38.30,-6.40,-0.27,-18.99,4.70,1.32,34.08
12,-3,-700,-49,-341,3916,0.64,-0.76,-27.30,-0.49,-3.41,39.16,-6.39,-0.28,-18.88,4.24,-0.70,36.43
4,-19,-710,-38,-337,3919,0.60,-0.80,-28.90,-0.38,-3.37,39.19,-6.37,-0.28,-18.76,5.38,1.68,35.73
19,-10,-729,-99,-312,3937,0.66,-0.78,-30.45,-0.99,-3.12,39.37,-6.35,-0.29,-18.64,3.18,0.34,35.85
24,-21,-720,-73,-313,3931,0.74,-0.83,-31.80,-0.73,-3.13,39.31,-6.33,-0.29,-18.52,2.54,1.93,33.79
22,-16,-708,-93,-282,3902,0.80,-0.85,-32.94,-0.93,-2.82,39.02,-6.31,-0.30,-18.38,2.94,1.15,31.67
21,-12,-694,-95,-336,3921,0.85,-0.84,-33.88,-0.95,-3.36,39.21,-6.30,-0.30,-18.25,3.17,0.57,29.57
8,-34,-669,-80,-407,3797,0.81,-0.96,-34.57,-0.80,-4.07,37.97,-6.29,-0.31,-18.11,5.08,3.70,26.77
6,-9,-667,-133,-521,3694,0.77,-0.92,-35.18,-1.33,-5.21,36.94,-6.30,-0.31,-17.97,5.31,-0.04,26.00
16,-23,-680,-161,-460,3891,0.79,-0.97,-35.81,-1.61,-4.60,38.91,-6.30,-0.31,-17.83,3.82,2.01,26.48
-2,-28,-675,-125,-458,3908,0.70,-1.04,-36.35,-1.25,-4.58,39.08,-6.30,-0.31,-17.69,6.41,2.64,25.53
21,-1,-674,-131,-426,3881,0.76,-0.94,-36.83,-1.31,-4.26,38.81,-6.29,-0.31,-17.54,3.00,-1.30,24.97
