gyroADC_X,gyroADC_Y,gyroADC_Z,accADC_X,accADC_Y,accADC_Z,GyroX,GyroY,GyroZ,AccX,AccY,AccZ,roll_IMU,pitch_IMU,yaw_IMU,roll_PID,pitch_PID,yaw_PID
0,0,1,-51,-435,3914,0.01,0.00,0.04,-0.51,-4.35,39.14,-6.34,0.75,8.89,4.18,-0.50,-0.84
0,-1,0,-58,-426,3903,0.01,-0.00,0.04,-0.58,-4.26,39.03,-6.33,0.76,8.89,4.17,-0.48,-0.76
0,0,0,-53,-423,3909,0.01,-0.00,0.03,-0.53,-4.23,39.09,-6.31,0.76,8.89,4.16,-0.50,-0.77
0,1,1,-47,-421,3912,0.01,0.00,0.04,-0.47,-4.21,39.12,-6.29,0.76,8.89,4.15,-0.52,-0.85
0,0,1,-52,-435,3897,0.01,0.00,0.04,-0.52,-4.35,38.97,-6.31,0.76,8.89,4.16,-0.50,-0.84
0,0,0,-57,-434,3898,0.01,0.00,0.03,-0.57,-4.34,38.98,-6.32,0.77,8.89,4.17,-0.51,-0.76
-1,1,0,-51,-435,3908,-0.00,0.01,0.03,-0.51,-4.35,39.08,-6.33,0.76,8.89,4.20,-0.52,-0.77
0,0,0,-57,-428,3910,-0.00,0.01,0.03,-0.57,-4.28,39.10,-6.32,0.77,8.89,4.17,-0.51,-0.77
-1,1,0,-54,-430,3901,-0.01,0.01,0.03,-0.54,-4.30,39.01,-6.30,0.78,8.89,4.18,-0.54,-0.77
-1,0,0,-57,-423,3898,-0.01,0.01,0.02,-0.57,-4.23,38.98,-6.29,0.79,8.89,4.17,-0.52,-0.78
-1,0,0,-63,-426,3900,-0.02,0.01,0.02,-0.63,-4.26,39.00,-6.28,0.81,8.89,4.17,-0.53,-0.78
0,0,0,-57,-422,3909,-0.02,0.01,0.02,-0.57,-4.22,39.09,-6.26,0.81,8.89,4.14,-0.54,-0.78
0,0,0,-46,-421,3897,-0.01,0.01,0.02,-0.46,-4.21,38.97,-6.25,0.79,8.89,4.13,-0.53,-0.78
2,-1,1,-49,-430,3908,-0.00,0.00,0.02,-0.49,-4.30,39.08,-6.26,0.78,8.89,4.09,-0.49,-0.86
2,0,0,-53,-431,3909,0.01,0.00,0.02,-0.53,-4.31,39.09,-6.28,0.77,8.89,4.10,-0.51,-0.78
2,0,1,-52,-419,3904,0.02,0.00,0.02,-0.52,-4.19,39.04,-6.26,0.77,8.89,4.08,-0.51,-0.86
2,0,1,-55,-420,3910,0.03,0.00,0.03,-0.55,-4.20,39.10,-6.24,0.78,8.89,4.07,-0.51,-0.86
1,0,1,-54,-433,3910,0.04,0.00,0.03,-0.54,-4.33,39.10,-6.26,0.78,8.89,4.10,-0.51,-0.85
1,0,1,-54,-436,3909,0.04,0.00,0.03,-0.54,-4.36,39.09,-6.28,0.78,8.89,4.11,-0.52,-0.85
0,0,0,-66,-429,3901,0.03,0.00,0.03,-0.66,-4.29,39.01,-6.27,0.80,8.89,4.13,-0.53,-0.77
0,0,0,-60,-426,3905,0.03,0.00,0.03,-0.60,-4.26,39.05,-6.26,0.81,8.89,4.13,-0.54,-0.77
1,0,1,-52,-425,3900,0.03,0.00,0.03,-0.52,-4.25,39.00,-6.25,0.80,8.89,4.10,-0.53,-0.85
0,0,1,-48,-427,3903,0.03,0.00,0.03,-0.48,-4.27,39.03,-6.25,0.78,8.89,4.12,-0.52,-0.85
1,-1,1,-47,-428,3910,0.03,-0.01,0.04,-0.47,-4.28,39.10,-6.25,0.76,8.89,4.10,-0.48,-0.85
0,-1,1,-54,-429,3903,0.03,-0.01,0.04,-0.54,-4.29,39.03,-6.26,0.78,8.89,4.12,-0.49,-0.84
0,0,0,-53,-427,3902,0.03,-0.01,0.03,-0.53,-4.27,39.02,-6.24,0.77,8.89,4.11,-0.51,-0.76
0,0,1,-54,-430,3906,0.02,-0.01,0.04,-0.54,-4.30,39.06,-6.26,0.78,8.89,4.13,-0.51,-0.85
0,0,0,-51,-433,3907,0.02,-0.01,0.03,-0.51,-4.33,39.07,-6.28,0.77,8.89,4.14,-0.51,-0.76
1,0,0,-50,-426,3920,0.03,-0.01,0.03,-0.50,-4.26,39.20,-6.26,0.76,8.89,4.11,-0.50,-0.77
1,0,1,-62,-431,3918,0.03,-0.01,0.03,-0.62,-4.31,39.18,-6.26,0.78,8.89,4.11,-0.51,-0.85
1,0,0,-60,-435,3906,0.03,-0.01,0.03,-0.60,-4.35,39.06,-6.28,0.79,8.89,4.11,-0.52,-0.77
1,0,0,-48,-429,3905,0.04,-0.01,0.03,-0.48,-4.29,39.05,-6.27,0.77,8.89,4.11,-0.51,-0.77
1,-1,0,-56,-424,3910,0.04,-0.01,0.02,-0.56,-4.24,39.10,-6.26,0.78,8.89,4.10,-0.49,-0.77
0,0,1,-56,-424,3902,0.03,-0.01,0.03,-0.56,-4.24,39.02,-6.24,0.79,8.89,4.11,-0.52,-0.85
1,0,0,-50,-424,3898,0.04,-0.01,0.03,-0.50,-4.24,38.98,-6.23,0.78,8.89,4.08,-0.51,-0.77
0,0,0,-49,-426,3909,0.03,-0.01,0.02,-0.49,-4.26,39.09,-6.23,0.76,8.89,4.10,-0.50,-0.78
1,0,1,-50,-421,3906,0.04,-0.01,0.03,-0.50,-4.21,39.06,-6.21,0.75,8.89,4.07,-0.49,-0.86
0,0,0,-54,-419,3915,0.03,-0.01,0.02,-0.54,-4.19,39.15,-6.19,0.76,8.89,4.08,-0.50,-0.77
1,0,1,-56,-421,3905,0.04,-0.01,0.03,-0.56,-4.21,39.05,-6.18,0.77,8.89,4.05,-0.51,-0.86
0,-1,1,-48,-426,3900,0.03,-0.01,0.03,-0.48,-4.26,39.00,-6.19,0.76,8.89,4.08,-0.48,-0.85
0,-1,0,-54,-426,3905,0.03,-0.02,0.03,-0.54,-4.26,39.05,-6.21,0.77,8.89,4.09,-0.48,-0.77
1,0,1,-55,-431,3911,0.03,-0.01,0.03,-0.55,-4.31,39.11,-6.22,0.78,8.89,4.08,-0.51,-0.85
1,0,1,-55,-428,3911,0.03,-0.01,0.03,-0.55,-4.28,39.11,-6.24,0.79,8.89,4.09,-0.52,-0.85
0,0,1,-58,-424,3915,0.03,-0.01,0.04,-0.58,-4.24,39.15,-6.22,0.80,8.89,4.10,-0.53,-0.85
0,0,1,-56,-422,3915,0.03,-0.01,0.04,-0.56,-4.22,39.15,-6.20,0.81,8.89,4.09,-0.53,-0.84
0,0,0,-50,-432,3908,0.03,-0.01,0.04,-0.50,-4.32,39.08,-6.22,0.79,8.89,4.10,-0.52,-0.76
0,0,0,-48,-432,3915,0.02,-0.01,0.03,-0.48,-4.32,39.15,-6.23,0.78,8.89,4.11,-0.51,-0.77
0,0,0,-47,-426,3919,0.02,-0.01,0.03,-0.47,-4.26,39.19,-6.23,0.76,8.89,4.10,-0.50,-0.77
1,-1,0,-48,-421,3910,0.02,-0.01,0.03,-0.48,-4.21,39.10,-6.21,0.75,8.89,4.07,-0.47,-0.77
0,0,0,-54,-429,3911,0.02,-0.01,0.02,-0.54,-4.29,39.11,-6.23,0.76,8.89,4.10,-0.50,-0.78
0,0,0,-55,-423,3912,0.02,-0.01,0.02,-0.55,-4.23,39.12,-6.21,0.77,8.89,4.09,-0.51,-0.78
0,1,1,-55,-428,3910,0.02,-0.00,0.02,-0.55,-4.28,39.10,-6.23,0.78,8.89,4.10,-0.54,-0.86
-1,0,1,-52,-423,3901,0.01,-0.00,0.03,-0.52,-4.23,39.01,-6.21,0.77,8.89,4.12,-0.51,-0.85
0,0,0,-55,-425,3901,0.01,-0.00,0.03,-0.55,-4.25,39.01,-6.21,0.79,8.89,4.10,-0.52,-0.77
1,0,0,-57,-425,3903,0.01,-0.00,0.02,-0.57,-4.25,39.03,-6.21,0.81,8.89,4.08,-0.53,-0.78
0,0,1,-58,-427,3905,0.01,-0.00,0.03,-0.58,-4.27,39.05,-6.23,0.82,8.89,4.11,-0.54,-0.86
0,0,0,-58,-429,3903,0.01,-0.00,0.02,-0.58,-4.29,39.03,-6.24,0.83,8.89,4.12,-0.55,-0.77
1,0,0,-53,-424,3913,0.02,-0.00,0.02,-0.53,-4.24,39.13,-6.23,0.82,8.89,4.09,-0.54,-0.78
0,0,0,-52,-427,3908,0.01,-0.00,0.02,-0.52,-4.27,39.08,-6.23,0.80,8.89,4.11,-0.53,-0.78
0,0,0,-52,-424,3918,0.01,-0.00,0.02,-0.52,-4.24,39.18,-6.22,0.79,8.88,4.10,-0.52,-0.78
0,0,1,-49,-430,3912,0.01,-0.00,0.02,-0.49,-4.30,39.12,-6.23,0.77,8.88,4.11,-0.51,-0.86
0,0,0,-55,-431,3904,0.01,-0.00,0.02,-0.55,-4.31,39.04,-6.24,0.78,8.88,4.12,-0.52,-0.78
0,-1,0,-53,-432,3908,0.01,-0.01,0.02,-0.53,-4.32,39.08,-6.26,0.78,8.89,4.13,-0.49,-0.78
1,0,0,-59,-418,3902,0.01,-0.01,0.02,-0.59,-4.18,39.02,-6.25,0.79,8.88,4.10,-0.52,-0.78
0,0,0,-55,-419,3896,0.01,-0.01,0.01,-0.55,-4.19,38.96,-6.23,0.79,8.88,4.11,-0.52,-0.78
0,0,1,-53,-433,3897,0.01,-0.01,0.02,-0.53,-4.33,38.97,-6.25,0.79,8.88,4.12,-0.52,-0.86
1,-1,1,-62,-419,3902,0.02,-0.01,0.02,-0.62,-4.19,39.02,-6.23,0.80,8.88,4.09,-0.51,-0.86
1,1,1,-61,-426,3911,0.02,-0.00,0.03,-0.61,-4.26,39.11,-6.23,0.82,8.88,4.09,-0.56,-0.86
0,0,1,-56,-428,3908,0.02,-0.00,0.03,-0.56,-4.28,39.08,-6.25,0.82,8.88,4.12,-0.54,-0.85
0,0,1,-48,-433,3898,0.02,-0.00,0.03,-0.48,-4.33,38.98,-6.26,0.80,8.88,4.13,-0.53,-0.85
0,0,1,-52,-432,3898,0.02,-0.00,0.04,-0.52,-4.32,38.98,-6.27,0.79,8.88,4.14,-0.52,-0.85
1,0,0,-56,-423,3917,0.02,-0.00,0.03,-0.56,-4.23,39.17,-6.26,0.80,8.88,4.10,-0.52,-0.77
1,0,1,-49,-420,3909,0.02,-0.00,0.04,-0.49,-4.20,39.09,-6.24,0.79,8.88,4.09,-0.52,-0.85
1,0,1,-49,-424,3903,0.03,-0.00,0.04,-0.49,-4.24,39.03,-6.23,0.77,8.88,4.09,-0.51,-0.84
1,0,1,-52,-423,3892,0.03,-0.00,0.04,-0.52,-4.23,38.92,-6.21,0.76,8.88,4.07,-0.50,-0.84
0,0,0,-54,-413,3912,0.03,-0.00,0.04,-0.54,-4.13,39.12,-6.20,0.77,8.88,4.08,-0.51,-0.76
1,0,0,-46,-424,3904,0.03,-0.00,0.03,-0.46,-4.24,39.04,-6.20,0.75,8.88,4.06,-0.49,-0.76
0,-1,1,-45,-428,3908,0.03,-0.01,0.04,-0.45,-4.28,39.08,-6.21,0.73,8.88,4.09,-0.46,-0.85
1,-1,1,-49,-421,3914,0.03,-0.01,0.04,-0.49,-4.21,39.14,-6.19,0.73,8.88,4.06,-0.46,-0.84
1,0,0,-62,-429,3897,0.03,-0.01,0.03,-0.62,-4.29,38.97,-6.20,0.74,8.88,4.06,-0.49,-0.76
1,0,1,-61,-432,3909,0.04,-0.01,0.04,-0.61,-4.32,39.09,-6.21,0.76,8.88,4.07,-0.50,-0.85
1,0,1,-65,-424,3905,0.04,-0.01,0.04,-0.65,-4.24,39.05,-6.21,0.78,8.88,4.06,-0.51,-0.84
0,0,1,-65,-424,3903,0.04,-0.01,0.04,-0.65,-4.24,39.03,-6.21,0.79,8.88,4.09,-0.52,-0.84
1,0,1,-68,-422,3912,0.04,-0.01,0.04,-0.68,-4.22,39.12,-6.20,0.81,8.88,4.06,-0.53,-0.84
1,0,1,-63,-427,3910,0.04,-0.01,0.05,-0.63,-4.27,39.10,-6.21,0.83,8.88,4.06,-0.55,-0.84
0,0,2,-53,-415,3905,0.04,-0.01,0.05,-0.53,-4.15,39.05,-6.19,0.82,8.88,4.07,-0.54,-0.91
1,0,2,-54,-418,3904,0.04,-0.01,0.06,-0.54,-4.18,39.04,-6.17,0.82,8.88,4.04,-0.54,-0.91
1,-1,2,-52,-422,3898,0.04,-0.01,0.07,-0.52,-4.22,38.98,-6.17,0.80,8.88,4.04,-0.50,-0.90
1,0,1,-53,-427,3910,0.04,-0.01,0.07,-0.53,-4.27,39.10,-6.19,0.79,8.88,4.05,-0.52,-0.81
-1,0,1,-54,-431,3896,0.03,-0.01,0.07,-0.54,-4.31,38.96,-6.21,0.79,8.88,4.11,-0.52,-0.82
0,0,1,-51,-434,3903,0.03,-0.01,0.06,-0.51,-4.34,39.03,-6.23,0.78,8.88,4.10,-0.52,-0.82
0,-1,1,-48,-432,3906,0.03,-0.01,0.06,-0.48,-4.32,39.06,-6.24,0.77,8.88,4.11,-0.49,-0.82
0,0,1,-52,-425,3907,0.02,-0.01,0.06,-0.52,-4.25,39.07,-6.22,0.76,8.88,4.10,-0.50,-0.82
1,0,1,-56,-425,3909,0.03,-0.01,0.06,-0.56,-4.25,39.09,-6.22,0.78,8.88,4.07,-0.51,-0.82
1,0,1,-49,-429,3899,0.03,-0.01,0.06,-0.49,-4.29,38.99,-6.23,0.77,8.88,4.08,-0.50,-0.82
1,0,1,-48,-427,3901,0.03,-0.01,0.06,-0.48,-4.27,39.01,-6.23,0.75,8.88,4.08,-0.49,-0.82
1,0,0,-48,-431,3906,0.04,-0.01,0.06,-0.48,-4.31,39.06,-6.25,0.74,8.88,4.09,-0.49,-0.74
0,0,0,-52,-423,3908,0.03,-0.01,0.05,-0.52,-4.23,39.08,-6.23,0.74,8.88,4.10,-0.49,-0.74
0,0,0,-56,-426,3914,0.03,-0.01,0.05,-0.56,-4.26,39.14,-6.23,0.76,8.88,4.10,-0.50,-0.75
0,0,0,-61,-429,3913,0.03,-0.01,0.04,-0.61,-4.29,39.13,-6.23,0.78,8.88,4.10,-0.51,-0.76
0,0,0,-59,-428,3912,0.02,-0.01,0.04,-0.59,-4.28,39.12,-6.23,0.80,8.88,4.11,-0.52,-0.76
0,0,1,-53,-418,3901,0.02,-0.00,0.04,-0.53,-4.18,39.01,-6.21,0.79,8.88,4.10,-0.52,-0.84
1,0,1,-49,-421,3900,0.03,-0.00,0.04,-0.49,-4.21,39.00,-6.20,0.78,8.88,4.07,-0.51,-0.84
0,0,1,-54,-426,3908,0.02,-0.00,0.04,-0.54,-4.26,39.08,-6.22,0.79,8.88,4.10,-0.52,-0.84
0,-1,1,-49,-424,3909,0.02,-0.01,0.05,-0.49,-4.24,39.09,-6.21,0.77,8.88,4.10,-0.49,-0.84
0,0,1,-48,-428,3897,0.02,-0.01,0.05,-0.48,-4.28,38.97,-6.22,0.76,8.88,4.10,-0.50,-0.83
-1,0,0,-43,-421,3911,0.01,-0.01,0.04,-0.43,-4.21,39.11,-6.21,0.74,8.88,4.12,-0.49,-0.75
0,0,1,-60,-412,3908,0.01,-0.01,0.04,-0.60,-4.12,39.08,-6.20,0.75,8.88,4.09,-0.49,-0.84
0,0,0,-57,-414,3906,0.01,-0.01,0.04,-0.57,-4.14,39.06,-6.18,0.76,8.88,4.08,-0.50,-0.76
0,0,0,-59,-418,3906,0.01,-0.01,0.04,-0.59,-4.18,39.06,-6.17,0.77,8.88,4.07,-0.51,-0.76
-1,0,0,-63,-420,3912,0.00,-0.01,0.03,-0.63,-4.20,39.12,-6.17,0.79,8.88,4.09,-0.52,-0.76
0,0,1,-59,-430,3906,0.00,-0.00,0.04,-0.59,-4.30,39.06,-6.18,0.80,8.88,4.08,-0.53,-0.85
-1,0,1,-55,-431,3893,-0.01,-0.00,0.04,-0.55,-4.31,38.93,-6.20,0.80,8.88,4.11,-0.53,-0.84
0,1,0,-55,-423,3899,-0.00,0.00,0.03,-0.55,-4.23,38.99,-6.18,0.81,8.88,4.08,-0.55,-0.76
-1,0,0,-52,-420,3913,-0.01,0.00,0.03,-0.52,-4.20,39.13,-6.17,0.79,8.88,4.10,-0.52,-0.77
-1,0,1,-47,-422,3902,-0.02,0.00,0.03,-0.47,-4.22,39.02,-6.17,0.78,8.87,4.10,-0.51,-0.85
0,0,1,-46,-416,3902,-0.01,0.00,0.04,-0.46,-4.16,39.02,-6.16,0.76,8.87,4.07,-0.50,-0.84
-1,0,0,-51,-426,3914,-0.02,0.00,0.03,-0.51,-4.26,39.14,-6.18,0.76,8.87,4.10,-0.50,-0.76
-1,0,1,-54,-427,3905,-0.02,0.00,0.04,-0.54,-4.27,39.05,-6.19,0.76,8.87,4.11,-0.50,-0.85
-1,0,0,-53,-429,3906,-0.03,0.00,0.03,-0.53,-4.29,39.06,-6.21,0.77,8.87,4.13,-0.51,-0.76
0,0,0,-55,-429,3902,-0.02,0.00,0.03,-0.55,-4.29,39.02,-6.23,0.77,8.88,4.12,-0.51,-0.77
0,0,0,-55,-428,3907,-0.02,0.00,0.03,-0.55,-4.28,39.07,-6.24,0.79,8.88,4.12,-0.52,-0.77
0,0,0,-59,-426,3914,-0.02,0.00,0.02,-0.59,-4.26,39.14,-6.23,0.81,8.87,4.12,-0.53,-0.77
0,0,1,-40,-431,3901,-0.02,0.00,0.03,-0.40,-4.31,39.01,-6.24,0.79,8.87,4.12,-0.52,-0.85
0,1,1,-44,-430,3903,-0.02,0.01,0.03,-0.44,-4.30,39.03,-6.24,0.77,8.87,4.13,-0.53,-0.85
0,0,0,-47,-429,3897,-0.01,0.01,0.03,-0.47,-4.29,38.97,-6.25,0.75,8.87,4.13,-0.50,-0.77
0,-1,0,-45,-429,3895,-0.01,-0.00,0.02,-0.45,-4.29,38.95,-6.26,0.74,8.87,4.13,-0.47,-0.77
0,0,0,-50,-429,3898,-0.01,-0.00,0.02,-0.50,-4.29,38.98,-6.28,0.73,8.87,4.14,-0.48,-0.78
-1,0,0,-54,-426,3902,-0.02,-0.00,0.02,-0.54,-4.26,39.02,-6.26,0.75,8.87,4.16,-0.49,-0.78
0,0,0,-47,-419,3912,-0.01,-0.00,0.02,-0.47,-4.19,39.12,-6.25,0.74,8.87,4.13,-0.49,-0.78
-1,0,0,-49,-421,3912,-0.02,-0.00,0.02,-0.49,-4.21,39.12,-6.23,0.73,8.87,4.14,-0.48,-0.78
0,0,1,-51,-431,3904,-0.02,-0.00,0.02,-0.51,-4.31,39.04,-6.25,0.74,8.87,4.13,-0.49,-0.86
0,0,1,-55,-432,3906,-0.02,-0.00,0.02,-0.55,-4.32,39.06,-6.26,0.75,8.87,4.14,-0.50,-0.86
0,0,1,-50,-428,3907,-0.01,-0.00,0.03,-0.50,-4.28,39.07,-6.25,0.73,8.87,4.13,-0.48,-0.85
0,1,1,-57,-430,3912,-0.01,0.01,0.03,-0.57,-4.30,39.12,-6.26,0.75,8.87,4.13,-0.52,-0.85
0,0,1,-52,-424,3916,-0.01,0.01,0.03,-0.52,-4.24,39.16,-6.24,0.75,8.87,4.12,-0.50,-0.85
0,0,1,-57,-425,3909,-0.01,0.00,0.04,-0.57,-4.25,39.09,-6.23,0.77,8.87,4.12,-0.51,-0.84
-1,-1,1,-53,-424,3908,-0.02,-0.00,0.04,-0.53,-4.24,39.08,-6.21,0.77,8.87,4.13,-0.49,-0.84
0,0,0,-47,-425,3905,-0.01,-0.00,0.04,-0.47,-4.25,39.05,-6.21,0.75,8.87,4.10,-0.50,-0.76
0,0,1,-63,-426,3905,-0.01,-0.00,0.04,-0.63,-4.26,39.05,-6.21,0.77,8.87,4.11,-0.51,-0.84
0,-1,2,-68,-429,3899,-0.01,-0.01,0.05,-0.68,-4.29,38.99,-6.22,0.79,8.87,4.11,-0.50,-0.92
0,0,1,-52,-424,3902,-0.01,-0.01,0.05,-0.52,-4.24,39.02,-6.21,0.77,8.87,4.10,-0.51,-0.83
0,0,1,-48,-424,3899,-0.01,-0.01,0.05,-0.48,-4.24,38.99,-6.21,0.75,8.87,4.10,-0.50,-0.83
0,0,1,-52,-426,3896,-0.01,-0.01,0.05,-0.52,-4.26,38.96,-6.23,0.76,8.87,4.11,-0.50,-0.83
0,0,1,-50,-420,3898,-0.01,-0.00,0.05,-0.50,-4.20,38.98,-6.21,0.75,8.87,4.10,-0.49,-0.83
0,0,1,-45,-422,3909,-0.01,-0.00,0.05,-0.45,-4.22,39.09,-6.20,0.74,8.87,4.09,-0.48,-0.83
0,0,1,-53,-422,3909,-0.01,-0.00,0.05,-0.53,-4.22,39.09,-6.19,0.75,8.87,4.09,-0.49,-0.83
0,0,1,-57,-426,3905,-0.01,-0.00,0.05,-0.57,-4.26,39.05,-6.20,0.76,8.87,4.09,-0.50,-0.83
0,0,1,-53,-427,3905,-0.00,-0.00,0.05,-0.53,-4.27,39.05,-6.21,0.77,8.87,4.10,-0.51,-0.83
0,0,1,-51,-423,3905,-0.00,-0.00,0.06,-0.51,-4.23,39.05,-6.20,0.76,8.87,4.09,-0.50,-0.82
0,-1,1,-56,-434,3908,-0.00,-0.01,0.06,-0.56,-4.34,39.08,-6.22,0.76,8.87,4.10,-0.48,-0.82
-1,-1,1,-53,-432,3908,-0.01,-0.01,0.06,-0.53,-4.32,39.08,-6.23,0.77,8.87,4.14,-0.48,-0.82
1,0,1,-52,-429,3910,-0.00,-0.01,0.06,-0.52,-4.29,39.10,-6.25,0.76,8.87,4.11,-0.50,-0.82
0,0,0,-49,-421,3906,-0.00,-0.01,0.05,-0.49,-4.21,39.06,-6.24,0.75,8.87,4.12,-0.49,-0.74
0,0,0,-52,-425,3899,-0.00,-0.01,0.05,-0.52,-4.25,38.99,-6.22,0.76,8.87,4.10,-0.50,-0.75
0,0,0,-51,-416,3904,-0.00,-0.01,0.04,-0.51,-4.16,39.04,-6.20,0.76,8.87,4.09,-0.50,-0.75
0,0,0,-58,-417,3905,-0.00,-0.01,0.04,-0.58,-4.17,39.05,-6.19,0.77,8.87,4.08,-0.51,-0.76
0,0,0,-56,-425,3904,-0.00,-0.01,0.03,-0.56,-4.25,39.04,-6.20,0.79,8.87,4.09,-0.52,-0.76
0,0,0,-62,-425,3907,-0.00,-0.01,0.03,-0.62,-4.25,39.07,-6.20,0.80,8.87,4.09,-0.53,-0.77
0,0,1,-59,-442,3903,-0.00,-0.01,0.03,-0.59,-4.42,39.03,-6.22,0.81,8.87,4.10,-0.53,-0.85
-1,0,0,-62,-433,3910,-0.01,-0.01,0.03,-0.62,-4.33,39.10,-6.23,0.82,8.87,4.13,-0.54,-0.77
-1,0,1,-65,-419,3895,-0.01,-0.00,0.03,-0.65,-4.19,38.95,-6.22,0.84,8.87,4.13,-0.55,-0.85
0,0,1,-62,-416,3899,-0.01,-0.00,0.04,-0.62,-4.16,38.99,-6.20,0.84,8.87,4.10,-0.56,-0.84
0,1,1,-52,-420,3910,-0.01,0.00,0.04,-0.52,-4.20,39.10,-6.19,0.83,8.87,4.09,-0.57,-0.84
0,0,1,-51,-423,3911,-0.01,0.00,0.04,-0.51,-4.23,39.11,-6.19,0.81,8.87,4.09,-0.54,-0.84
0,1,1,-53,-426,3915,-0.01,0.01,0.04,-0.53,-4.26,39.15,-6.20,0.80,8.87,4.09,-0.55,-0.84
-1,0,1,-52,-419,3909,-0.01,0.01,0.04,-0.52,-4.19,39.09,-6.18,0.79,8.87,4.10,-0.52,-0.84
-1,0,1,-57,-424,3916,-0.02,0.01,0.05,-0.57,-4.24,39.16,-6.18,0.81,8.87,4.10,-0.53,-0.83
0,0,1,-55,-425,3906,-0.02,0.01,0.05,-0.55,-4.25,39.06,-6.20,0.80,8.87,4.10,-0.53,-0.83
0,0,1,-54,-430,3903,-0.01,0.01,0.05,-0.54,-4.30,39.03,-6.22,0.80,8.87,4.11,-0.53,-0.83
0,0,0,-55,-432,3906,-0.01,0.00,0.04,-0.55,-4.32,39.06,-6.23,0.80,8.87,4.12,-0.53,-0.75
1,-1,1,-51,-432,3909,-0.01,-0.00,0.05,-0.51,-4.32,39.09,-6.25,0.79,8.87,4.11,-0.50,-0.83
1,0,0,-52,-429,3902,0.00,-0.00,0.04,-0.52,-4.29,39.02,-6.26,0.78,8.87,4.11,-0.51,-0.75
0,0,1,-58,-425,3900,0.00,-0.00,0.04,-0.58,-4.25,39.00,-6.25,0.79,8.87,4.13,-0.52,-0.84
0,-1,0,-58,-429,3908,0.00,-0.01,0.04,-0.58,-4.29,39.08,-6.26,0.81,8.87,4.13,-0.51,-0.76
0,0,0,-52,-432,3905,0.00,-0.01,0.03,-0.52,-4.32,39.05,-6.27,0.80,8.87,4.14,-0.52,-0.76
-1,0,1,-52,-429,3915,-0.01,-0.01,0.04,-0.52,-4.29,39.15,-6.26,0.78,8.87,4.16,-0.51,-0.84
0,0,1,-58,-425,3909,-0.01,-0.01,0.04,-0.58,-4.25,39.09,-6.25,0.79,8.87,4.13,-0.52,-0.84
1,1,1,-56,-425,3911,0.00,0.00,0.04,-0.56,-4.25,39.11,-6.23,0.80,8.87,4.09,-0.55,-0.84
0,0,0,-57,-417,3910,0.00,0.00,0.04,-0.57,-4.17,39.10,-6.22,0.80,8.87,4.10,-0.53,-0.76
0,0,1,-58,-418,3911,0.00,0.00,0.04,-0.58,-4.18,39.11,-6.20,0.81,8.87,4.09,-0.54,-0.84
0,0,1,-52,-424,3901,0.00,0.00,0.04,-0.52,-4.24,39.01,-6.20,0.79,8.87,4.09,-0.52,-0.84
-1,0,1,-51,-417,3894,-0.01,0.00,0.04,-0.51,-4.17,38.94,-6.18,0.78,8.86,4.10,-0.52,-0.84
0,0,0,-61,-417,3901,-0.00,0.00,0.04,-0.61,-4.17,39.01,-6.17,0.80,8.86,4.08,-0.53,-0.76
0,0,1,-58,-423,3903,-0.00,0.00,0.04,-0.58,-4.23,39.03,-6.18,0.82,8.86,4.08,-0.54,-0.84
0,0,1,-56,-427,3907,-0.00,0.00,0.04,-0.56,-4.27,39.07,-6.20,0.82,8.86,4.09,-0.54,-0.84
0,0,1,-56,-426,3916,-0.00,0.00,0.05,-0.56,-4.26,39.16,-6.21,0.81,8.86,4.10,-0.54,-0.83
1,0,1,-54,-428,3912,0.00,0.00,0.05,-0.54,-4.28,39.12,-6.23,0.80,8.86,4.09,-0.53,-0.83
1,0,0,-56,-422,3913,0.01,0.00,0.04,-0.56,-4.22,39.13,-6.21,0.80,8.86,4.08,-0.53,-0.75
0,0,0,-60,-423,3915,0.01,0.00,0.04,-0.60,-4.23,39.15,-6.20,0.82,8.86,4.09,-0.54,-0.76
0,0,0,-58,-423,3904,0.01,0.00,0.03,-0.58,-4.23,39.04,-6.19,0.84,8.86,4.08,-0.55,-0.76
-1,0,0,-58,-426,3899,0.00,0.00,0.03,-0.58,-4.26,38.99,-6.21,0.84,8.86,4.12,-0.55,-0.77
0,0,0,-57,-421,3909,0.00,0.00,0.03,-0.57,-4.21,39.09,-6.19,0.84,8.86,4.09,-0.55,-0.77
0,0,0,-66,-425,3910,0.00,0.00,0.02,-0.66,-4.25,39.10,-6.19,0.86,8.86,4.09,-0.56,-0.77
0,0,0,-67,-429,3908,0.00,0.00,0.02,-0.67,-4.29,39.08,-6.20,0.87,8.86,4.09,-0.58,-0.77
-1,0,0,-56,-422,3898,-0.01,0.00,0.02,-0.56,-4.22,38.98,-6.19,0.85,8.86,4.11,-0.56,-0.78
0,0,0,-55,-425,3906,-0.01,0.00,0.02,-0.55,-4.25,39.06,-6.20,0.84,8.86,4.09,-0.55,-0.78
0,0,1,-60,-437,3912,-0.00,0.00,0.02,-0.60,-4.37,39.12,-6.22,0.84,8.86,4.10,-0.55,-0.86
-1,0,0,-55,-427,3902,-0.01,0.00,0.02,-0.55,-4.27,39.02,-6.23,0.83,8.86,4.13,-0.55,-0.78
-1,0,1,-56,-431,3910,-0.02,0.00,0.02,-0.56,-4.31,39.10,-6.25,0.82,8.86,4.15,-0.54,-0.86
-1,-1,1,-51,-424,3900,-0.02,-0.01,0.03,-0.51,-4.24,39.00,-6.24,0.81,8.86,4.14,-0.51,-0.85
-1,-1,1,-49,-424,3902,-0.02,-0.01,0.03,-0.49,-4.24,39.02,-6.23,0.79,8.86,4.14,-0.50,-0.85
0,-1,0,-54,-425,3903,-0.02,-0.02,0.03,-0.54,-4.25,39.03,-6.21,0.79,8.86,4.11,-0.50,-0.77
0,0,0,-65,-425,3899,-0.02,-0.01,0.03,-0.65,-4.25,38.99,-6.21,0.81,8.86,4.11,-0.53,-0.77
-1,0,0,-57,-427,3904,-0.02,-0.01,0.02,-0.57,-4.27,39.04,-6.23,0.82,8.86,4.14,-0.54,-0.77
-1,0,1,-58,-422,3911,-0.03,-0.01,0.03,-0.58,-4.22,39.11,-6.21,0.82,8.86,4.13,-0.54,-0.85
-1,0,1,-53,-428,3912,-0.03,-0.01,0.03,-0.53,-4.28,39.12,-6.22,0.81,8.86,4.13,-0.53,-0.85
-1,-1,1,-56,-425,3906,-0.03,-0.02,0.03,-0.56,-4.25,39.06,-6.21,0.82,8.86,4.13,-0.52,-0.85
0,0,0,-54,-425,3898,-0.03,-0.01,0.03,-0.54,-4.25,38.98,-6.21,0.80,8.86,4.11,-0.53,-0.77
0,0,0,-53,-434,3900,-0.03,-0.01,0.03,-0.53,-4.34,39.00,-6.23,0.80,8.86,4.12,-0.52,-0.77
1,-1,0,-53,-433,3917,-0.02,-0.02,0.02,-0.53,-4.33,39.17,-6.25,0.79,8.86,4.11,-0.50,-0.77
-1,0,0,-51,-424,3911,-0.02,-0.02,0.02,-0.51,-4.24,39.11,-6.24,0.78,8.86,4.14,-0.51,-0.77
-1,0,1,-51,-426,3912,-0.03,-0.01,0.03,-0.51,-4.26,39.12,-6.23,0.77,8.86,4.14,-0.50,-0.86
-1,0,1,-55,-431,3904,-0.03,-0.01,0.03,-0.55,-4.31,39.04,-6.24,0.77,8.86,4.15,-0.51,-0.85
-1,0,1,-57,-427,3903,-0.03,-0.01,0.03,-0.57,-4.27,39.03,-6.24,0.79,8.86,4.15,-0.52,-0.85
-1,-1,0,-50,-417,3904,-0.04,-0.02,0.03,-0.50,-4.17,39.04,-6.23,0.78,8.86,4.14,-0.49,-0.77
-1,0,0,-55,-427,3906,-0.04,-0.01,0.03,-0.55,-4.27,39.06,-6.24,0.80,8.86,4.15,-0.52,-0.77
0,0,1,-53,-417,3896,-0.03,-0.01,0.03,-0.53,-4.17,38.96,-6.22,0.80,8.86,4.11,-0.52,-0.85
0,0,1,-60,-419,3903,-0.03,-0.01,0.03,-0.60,-4.19,39.03,-6.21,0.81,8.86,4.10,-0.53,-0.85
0,0,0,-51,-429,3898,-0.03,-0.01,0.03,-0.51,-4.29,38.98,-6.22,0.80,8.86,4.11,-0.52,-0.77
-1,-1,0,-48,-429,3904,-0.03,-0.02,0.03,-0.48,-4.29,39.04,-6.23,0.78,8.86,4.14,-0.49,-0.77
0,0,0,-47,-423,3901,-0.03,-0.01,0.02,-0.47,-4.23,39.01,-6.22,0.76,8.86,4.11,-0.50,-0.77
0,0,0,-50,-430,3907,-0.03,-0.01,0.02,-0.50,-4.30,39.07,-6.24,0.75,8.86,4.12,-0.49,-0.77
-1,0,1,-47,-428,3912,-0.03,-0.01,0.03,-0.47,-4.28,39.12,-6.24,0.74,8.86,4.15,-0.48,-0.86
0,0,1,-49,-425,3911,-0.03,-0.01,0.03,-0.49,-4.25,39.11,-6.22,0.73,8.86,4.11,-0.48,-0.85
0,0,1,-63,-428,3904,-0.02,-0.01,0.03,-0.63,-4.28,39.04,-6.23,0.74,8.86,4.12,-0.49,-0.85
0,1,1,-51,-428,3909,-0.02,-0.00,0.04,-0.51,-4.28,39.09,-6.25,0.74,8.86,4.13,-0.51,-0.84
0,1,1,-57,-422,3902,-0.02,0.00,0.04,-0.57,-4.22,39.02,-6.23,0.76,8.86,4.12,-0.52,-0.84
0,0,0,-60,-427,3905,-0.02,0.00,0.03,-0.60,-4.27,39.05,-6.23,0.78,8.86,4.12,-0.51,-0.76
0,1,0,-45,-423,3901,-0.02,0.01,0.03,-0.45,-4.23,39.01,-6.23,0.76,8.86,4.11,-0.52,-0.77
1,1,0,-46,-420,3902,-0.01,0.01,0.03,-0.46,-4.20,39.02,-6.22,0.75,8.86,4.08,-0.52,-0.77
0,0,0,-55,-425,3917,-0.01,0.01,0.02,-0.55,-4.25,39.17,-6.21,0.76,8.86,4.10,-0.51,-0.77
0,0,0,-55,-425,3909,-0.01,0.01,0.02,-0.55,-4.25,39.09,-6.21,0.78,8.86,4.10,-0.52,-0.77
0,0,0,-52,-421,3900,-0.01,0.01,0.02,-0.52,-4.21,39.00,-6.19,0.77,8.86,4.09,-0.51,-0.78
-1,0,-1,-55,-431,3895,-0.01,0.01,0.01,-0.55,-4.31,38.95,-6.21,0.78,8.86,4.12,-0.52,-0.70
-1,0,0,-61,-429,3903,-0.02,0.01,0.01,-0.61,-4.29,39.03,-6.22,0.79,8.86,4.13,-0.53,-0.79
-1,0,0,-58,-424,3904,-0.02,0.01,0.01,-0.58,-4.24,39.04,-6.21,0.81,8.86,4.13,-0.54,-0.79
0,0,1,-67,-428,3902,-0.02,0.01,0.01,-0.67,-4.28,39.02,-6.22,0.83,8.86,4.11,-0.55,-0.87
0,1,1,-63,-433,3899,-0.02,0.01,0.02,-0.63,-4.33,38.99,-6.23,0.84,8.86,4.12,-0.58,-0.86
-1,0,0,-61,-434,3899,-0.02,0.01,0.02,-0.61,-4.34,38.99,-6.25,0.85,8.86,4.15,-0.56,-0.78
-1,0,0,-60,-430,3910,-0.03,0.01,0.02,-0.60,-4.30,39.10,-6.26,0.86,8.86,4.16,-0.57,-0.78
0,0,0,-54,-423,3912,-0.02,0.01,0.01,-0.54,-4.23,39.12,-6.25,0.85,8.86,4.13,-0.56,-0.78
0,0,0,-57,-419,3898,-0.02,0.01,0.01,-0.57,-4.19,38.98,-6.23,0.85,8.86,4.12,-0.56,-0.78
-1,0,1,-56,-429,3899,-0.02,0.01,0.02,-0.56,-4.29,38.99,-6.25,0.84,8.86,4.15,-0.55,-0.86
0,0,1,-56,-439,3921,-0.02,0.01,0.02,-0.56,-4.39,39.21,-6.26,0.83,8.86,4.14,-0.55,-0.86
-1,0,0,-57,-430,3914,-0.03,0.01,0.02,-0.57,-4.30,39.14,-6.28,0.82,8.86,4.17,-0.55,-0.78
-1,0,1,-56,-430,3903,-0.03,0.01,0.02,-0.56,-4.30,39.03,-6.29,0.81,8.86,4.18,-0.54,-0.86
-1,0,1,-48,-430,3902,-0.03,0.00,0.03,-0.48,-4.30,39.02,-6.29,0.79,8.86,4.18,-0.53,-0.85
0,-1,0,-47,-431,3898,-0.03,-0.00,0.02,-0.47,-4.31,38.98,-6.30,0.78,8.86,4.16,-0.49,-0.77
1,-1,1,-53,-426,3913,-0.02,-0.01,0.03,-0.53,-4.26,39.13,-6.28,0.78,8.86,4.13,-0.49,-0.85
0,0,0,-52,-425,3906,-0.02,-0.01,0.03,-0.52,-4.25,39.06,-6.26,0.77,8.86,4.14,-0.51,-0.77
0,0,0,-55,-425,3903,-0.02,-0.01,0.02,-0.55,-4.25,39.03,-6.24,0.78,8.86,4.13,-0.51,-0.77
0,0,0,-55,-421,3902,-0.01,-0.01,0.02,-0.55,-4.21,39.02,-6.23,0.79,8.86,4.11,-0.52,-0.78
0,0,1,-58,-420,3914,-0.01,-0.01,0.02,-0.58,-4.20,39.14,-6.21,0.79,8.86,4.10,-0.52,-0.86
0,0,1,-60,-428,3924,-0.01,-0.00,0.03,-0.60,-4.28,39.24,-6.21,0.81,8.86,4.10,-0.54,-0.85
0,0,1,-47,-423,3903,-0.01,-0.00,0.03,-0.47,-4.23,39.03,-6.21,0.79,8.86,4.10,-0.52,-0.85
0,0,1,-49,-416,3906,-0.01,-0.00,0.03,-0.49,-4.16,39.06,-6.20,0.79,8.86,4.09,-0.52,-0.85
0,0,0,-55,-421,3901,-0.01,-0.00,0.03,-0.55,-4.21,39.01,-6.18,0.79,8.86,4.08,-0.52,-0.76
-1,0,0,-56,-425,3902,-0.01,-0.00,0.03,-0.56,-4.25,39.02,-6.19,0.80,8.86,4.11,-0.53,-0.77
0,0,1,-58,-431,3908,-0.01,-0.00,0.03,-0.58,-4.31,39.08,-6.21,0.81,8.86,4.10,-0.53,-0.85
-1,0,1,-54,-429,3913,-0.02,-0.00,0.03,-0.54,-4.29,39.13,-6.23,0.80,8.86,4.14,-0.53,-0.85
-1,0,1,-57,-421,3911,-0.02,-0.00,0.04,-0.57,-4.21,39.11,-6.21,0.81,8.86,4.12,-0.53,-0.84
0,0,1,-59,-423,3913,-0.02,-0.00,0.04,-0.59,-4.23,39.13,-6.20,0.82,8.86,4.10,-0.54,-0.84
0,0,1,-55,-428,3905,-0.02,-0.00,0.04,-0.55,-4.28,39.05,-6.22,0.82,8.86,4.11,-0.54,-0.84
0,0,1,-56,-436,3912,-0.02,-0.00,0.04,-0.56,-4.36,39.12,-6.23,0.82,8.86,4.12,-0.54,-0.84
0,-1,1,-49,-424,3905,-0.01,-0.01,0.05,-0.49,-4.24,39.05,-6.23,0.80,8.86,4.11,-0.50,-0.83
0,0,0,-58,-427,3904,-0.01,-0.01,0.04,-0.58,-4.27,39.04,-6.23,0.82,8.86,4.12,-0.54,-0.75
-1,0,0,-50,-423,3906,-0.02,-0.01,0.04,-0.50,-4.23,39.06,-6.22,0.80,8.86,4.13,-0.53,-0.76
0,0,0,-47,-420,3901,-0.02,-0.01,0.03,-0.47,-4.20,39.01,-6.21,0.79,8.86,4.11,-0.52,-0.76
0,-1,1,-54,-426,3910,-0.01,-0.01,0.04,-0.54,-4.26,39.10,-6.23,0.79,8.86,4.12,-0.50,-0.84
-1,-1,1,-61,-424,3914,-0.02,-0.02,0.04,-0.61,-4.24,39.14,-6.22,0.81,8.86,4.13,-0.51,-0.84
0,-1,1,-52,-414,3910,-0.02,-0.02,0.04,-0.52,-4.14,39.10,-6.21,0.80,8.85,4.10,-0.50,-0.84
0,0,1,-55,-421,3915,-0.02,-0.02,0.04,-0.55,-4.21,39.15,-6.19,0.80,8.85,4.09,-0.52,-0.84
0,-1,0,-54,-427,3903,-0.01,-0.02,0.04,-0.54,-4.27,39.03,-6.21,0.80,8.85,4.10,-0.50,-0.76
-1,0,0,-52,-422,3900,-0.02,-0.02,0.03,-0.52,-4.22,39.00,-6.19,0.78,8.85,4.11,-0.51,-0.76
-1,-1,0,-52,-426,3900,-0.02,-0.02,0.03,-0.52,-4.26,39.00,-6.21,0.77,8.85,4.13,-0.48,-0.76
0,-1,1,-48,-426,3900,-0.02,-0.03,0.03,-0.48,-4.26,39.00,-6.22,0.76,8.85,4.11,-0.47,-0.85
0,-1,1,-55,-427,3904,-0.02,-0.03,0.04,-0.55,-4.27,39.04,-6.22,0.77,8.85,4.11,-0.48,-0.84
0,0,0,-54,-424,3896,-0.02,-0.03,0.03,-0.54,-4.24,38.96,-6.21,0.79,8.85,4.11,-0.51,-0.76
0,0,0,-57,-422,3908,-0.01,-0.03,0.03,-0.57,-4.22,39.08,-6.20,0.80,8.85,4.10,-0.52,-0.77
0,0,0,-56,-418,3907,-0.01,-0.02,0.03,-0.56,-4.18,39.07,-6.18,0.80,8.85,4.08,-0.52,-0.77
-1,-1,0,-60,-423,3901,-0.02,-0.03,0.02,-0.60,-4.23,39.01,-6.18,0.82,8.85,4.11,-0.51,-0.77
-1,0,1,-58,-422,3913,-0.02,-0.02,0.03,-0.58,-4.22,39.13,-6.17,0.83,8.85,4.10,-0.54,-0.85
-1,0,0,-54,-417,3906,-0.03,-0.02,0.03,-0.54,-4.17,39.06,-6.15,0.82,8.85,4.09,-0.54,-0.77
-1,-1,0,-54,-422,3909,-0.03,-0.03,0.02,-0.54,-4.22,39.09,-6.16,0.80,8.85,4.09,-0.50,-0.77
-1,-1,0,-56,-426,3903,-0.03,-0.03,0.02,-0.56,-4.26,39.03,-6.18,0.81,8.85,4.11,-0.50,-0.78
-1,0,0,-60,-421,3915,-0.04,-0.03,0.02,-0.60,-4.21,39.15,-6.17,0.82,8.85,4.10,-0.54,-0.78
-1,0,1,-60,-423,3892,-0.04,-0.02,0.02,-0.60,-4.23,38.92,-6.18,0.84,8.85,4.11,-0.55,-0.86
-1,0,0,-57,-430,3901,-0.04,-0.02,0.02,-0.57,-4.30,39.01,-6.20,0.84,8.85,4.12,-0.55,-0.78
0,0,1,-58,-427,3898,-0.04,-0.02,0.02,-0.58,-4.27,38.98,-6.21,0.84,8.85,4.11,-0.55,-0.86
0,0,1,-54,-422,3901,-0.03,-0.02,0.03,-0.54,-4.22,39.01,-6.20,0.83,8.85,4.10,-0.54,-0.85
0,0,1,-54,-424,3907,-0.03,-0.02,0.03,-0.54,-4.24,39.07,-6.20,0.81,8.85,4.10,-0.53,-0.85
0,-1,1,-59,-430,3904,-0.03,-0.02,0.03,-0.59,-4.30,39.04,-6.21,0.82,8.85,4.11,-0.51,-0.85
0,0,1,-57,-432,3893,-0.02,-0.02,0.04,-0.57,-4.32,38.93,-6.23,0.82,8.85,4.12,-0.54,-0.84
0,0,0,-60,-432,3901,-0.02,-0.02,0.03,-0.60,-4.32,39.01,-6.25,0.83,8.85,4.13,-0.54,-0.76
-1,1,1,-55,-431,3909,-0.03,-0.01,0.04,-0.55,-4.31,39.09,-6.26,0.82,8.85,4.16,-0.56,-0.84
0,0,1,-53,-428,3911,-0.02,-0.01,0.04,-0.53,-4.28,39.11,-6.26,0.80,8.85,4.14,-0.53,-0.84
0,0,0,-52,-419,3908,-0.02,-0.01,0.03,-0.52,-4.19,39.08,-6.24,0.80,8.85,4.12,-0.52,-0.76
0,0,0,-56,-427,3916,-0.02,-0.01,0.03,-0.56,-4.27,39.16,-6.23,0.81,8.85,4.11,-0.53,-0.76
0,0,1,-47,-424,3905,-0.02,-0.01,0.03,-0.47,-4.24,39.05,-6.22,0.79,8.85,4.11,-0.52,-0.85
0,0,0,-55,-426,3907,-0.02,-0.01,0.03,-0.55,-4.26,39.07,-6.22,0.81,8.85,4.11,-0.53,-0.76
-1,-1,0,-51,-428,3911,-0.02,-0.01,0.03,-0.51,-4.28,39.11,-6.23,0.79,8.85,4.14,-0.50,-0.77
-1,0,0,-52,-426,3908,-0.02,-0.01,0.02,-0.52,-4.26,39.08,-6.22,0.78,8.85,4.14,-0.51,-0.77
0,0,1,-56,-426,3918,-0.02,-0.01,0.03,-0.56,-4.26,39.18,-6.22,0.79,8.85,4.11,-0.52,-0.85
0,0,1,-55,-426,3920,-0.02,-0.01,0.03,-0.55,-4.26,39.20,-6.20,0.80,8.85,4.10,-0.53,-0.85
-1,0,1,-52,-426,3907,-0.02,-0.01,0.03,-0.52,-4.26,39.07,-6.21,0.78,8.85,4.12,-0.52,-0.84
-1,-1,1,-50,-433,3907,-0.03,-0.01,0.04,-0.50,-4.33,39.07,-6.23,0.78,8.85,4.14,-0.49,-0.84
0,0,1,-48,-428,3905,-0.02,-0.01,0.04,-0.48,-4.28,39.05,-6.23,0.76,8.85,4.12,-0.50,-0.84
-1,0,2,-52,-421,3900,-0.03,-0.01,0.05,-0.52,-4.21,39.00,-6.21,0.76,8.85,4.13,-0.50,-0.92
0,-1,1,-51,-420,3903,-0.03,-0.02,0.05,-0.51,-4.20,39.03,-6.20,0.76,8.85,4.10,-0.47,-0.83
0,0,1,-59,-428,3906,-0.02,-0.01,0.05,-0.59,-4.28,39.06,-6.21,0.77,8.85,4.10,-0.51,-0.83
1,0,0,-49,-422,3917,-0.01,-0.01,0.05,-0.49,-4.22,39.17,-6.19,0.76,8.85,4.07,-0.50,-0.75
0,0,1,-52,-421,3908,-0.01,-0.01,0.05,-0.52,-4.21,39.08,-6.17,0.76,8.85,4.08,-0.50,-0.83
0,0,0,-50,-427,3900,-0.01,-0.01,0.04,-0.50,-4.27,39.00,-6.19,0.75,8.85,4.09,-0.49,-0.75
0,0,1,-47,-429,3903,-0.01,-0.01,0.04,-0.47,-4.29,39.03,-6.21,0.74,8.85,4.10,-0.49,-0.83
0,0,0,-56,-421,3911,-0.01,-0.01,0.04,-0.56,-4.21,39.11,-6.19,0.75,8.85,4.09,-0.50,-0.75
0,0,1,-59,-429,3904,-0.01,-0.01,0.04,-0.59,-4.29,39.04,-6.21,0.77,8.85,4.10,-0.51,-0.84
0,0,0,-62,-432,3897,-0.01,-0.01,0.04,-0.62,-4.32,38.97,-6.22,0.78,8.85,4.11,-0.51,-0.76
0,-1,1,-60,-429,3904,-0.01,-0.01,0.04,-0.60,-4.29,39.04,-6.23,0.80,8.85,4.11,-0.50,-0.84
0,-1,1,-48,-431,3890,-0.01,-0.02,0.04,-0.48,-4.31,38.90,-6.24,0.79,8.85,4.12,-0.49,-0.84
0,-1,1,-49,-427,3903,-0.01,-0.02,0.04,-0.49,-4.27,39.03,-6.24,0.77,8.85,4.12,-0.48,-0.83
0,0,1,-44,-427,3909,-0.01,-0.02,0.05,-0.44,-4.27,39.09,-6.24,0.75,8.85,4.12,-0.49,-0.83
0,0,1,-50,-424,3901,-0.00,-0.02,0.05,-0.50,-4.24,39.01,-6.22,0.74,8.85,4.11,-0.48,-0.83
-1,0,1,-48,-434,3901,-0.01,-0.02,0.05,-0.48,-4.34,39.01,-6.24,0.73,8.85,4.14,-0.48,-0.83
-1,0,1,-49,-430,3898,-0.02,-0.01,0.05,-0.49,-4.30,38.98,-6.26,0.73,8.85,4.15,-0.48,-0.83
0,0,1,-56,-425,3909,-0.01,-0.01,0.05,-0.56,-4.25,39.09,-6.25,0.74,8.85,4.13,-0.49,-0.83
0,0,0,-51,-427,3904,-0.01,-0.01,0.05,-0.51,-4.27,39.04,-6.23,0.74,8.85,4.12,-0.49,-0.75
1,0,1,-54,-429,3899,-0.01,-0.01,0.05,-0.54,-4.29,38.99,-6.24,0.76,8.85,4.10,-0.50,-0.83
1,0,1,-52,-423,3893,0.00,-0.01,0.05,-0.52,-4.23,38.93,-6.23,0.76,8.85,4.09,-0.50,-0.83
0,-1,1,-54,-425,3903,0.00,-0.01,0.05,-0.54,-4.25,39.03,-6.22,0.78,8.85,4.10,-0.49,-0.83
0,-1,1,-50,-422,3907,0.00,-0.02,0.05,-0.50,-4.22,39.07,-6.21,0.76,8.85,4.10,-0.48,-0.83
0,0,1,-53,-427,3913,0.00,-0.02,0.05,-0.53,-4.27,39.13,-6.22,0.77,8.85,4.11,-0.50,-0.83
0,0,1,-54,-428,3922,0.00,-0.02,0.05,-0.54,-4.28,39.22,-6.23,0.79,8.85,4.11,-0.51,-0.82
0,0,0,-50,-424,3912,0.00,-0.01,0.05,-0.50,-4.24,39.12,-6.22,0.77,8.85,4.10,-0.51,-0.75
0,0,0,-55,-422,3911,0.00,-0.01,0.04,-0.55,-4.22,39.11,-6.20,0.78,8.85,4.09,-0.51,-0.75
0,0,1,-50,-427,3907,0.00,-0.01,0.04,-0.50,-4.27,39.07,-6.21,0.76,8.84,4.10,-0.50,-0.83
0,0,0,-49,-424,3904,0.00,-0.01,0.04,-0.49,-4.24,39.04,-6.21,0.75,8.84,4.10,-0.49,-0.75
0,-1,1,-57,-423,3910,0.00,-0.02,0.04,-0.57,-4.23,39.10,-6.20,0.76,8.84,4.09,-0.48,-0.84
0,0,2,-61,-420,3906,0.00,-0.01,0.05,-0.61,-4.20,39.06,-6.19,0.78,8.84,4.09,-0.51,-0.91
0,0,0,-62,-426,3905,0.00,-0.01,0.05,-0.62,-4.26,39.05,-6.20,0.80,8.84,4.09,-0.52,-0.75
0,-1,1,-61,-423,3912,0.00,-0.02,0.05,-0.61,-4.23,39.12,-6.19,0.82,8.84,4.09,-0.51,-0.83
0,0,1,-53,-433,3904,0.00,-0.02,0.05,-0.53,-4.33,39.04,-6.21,0.81,8.84,4.10,-0.53,-0.83
-1,0,1,-50,-431,3905,-0.01,-0.01,0.05,-0.50,-4.31,39.05,-6.22,0.80,8.84,4.13,-0.52,-0.83
-1,0,1,-53,-429,3898,-0.01,-0.01,0.05,-0.53,-4.29,38.98,-6.24,0.79,8.84,4.14,-0.52,-0.83
0,-1,1,-51,-431,3907,-0.01,-0.02,0.05,-0.51,-4.31,39.07,-6.25,0.78,8.84,4.13,-0.49,-0.83
0,0,1,-56,-430,3918,-0.01,-0.02,0.05,-0.56,-4.30,39.18,-6.26,0.80,8.84,4.13,-0.52,-0.82
0,0,1,-52,-423,3918,-0.01,-0.01,0.05,-0.52,-4.23,39.18,-6.24,0.79,8.84,4.12,-0.52,-0.82
-1,-1,1,-63,-419,3894,-0.01,-0.02,0.05,-0.63,-4.19,38.94,-6.23,0.80,8.84,4.14,-0.51,-0.82
0,0,1,-65,-430,3898,-0.01,-0.02,0.05,-0.65,-4.30,38.98,-6.24,0.82,8.84,4.12,-0.54,-0.82
0,-1,0,-49,-425,3908,-0.01,-0.02,0.05,-0.49,-4.25,39.08,-6.23,0.80,8.84,4.12,-0.50,-0.74
0,-1,1,-49,-428,3920,-0.01,-0.03,0.05,-0.49,-4.28,39.20,-6.23,0.78,8.84,4.12,-0.49,-0.83
0,-1,0,-50,-436,3908,-0.01,-0.03,0.05,-0.50,-4.36,39.08,-6.25,0.78,8.84,4.13,-0.48,-0.75
-1,0,0,-55,-428,3911,-0.01,-0.03,0.04,-0.55,-4.28,39.11,-6.25,0.80,8.84,4.15,-0.52,-0.75
0,0,1,-60,-415,3909,-0.01,-0.02,0.04,-0.60,-4.15,39.09,-6.23,0.80,8.84,4.11,-0.52,-0.83
0,1,1,-54,-423,3910,-0.01,-0.01,0.04,-0.54,-4.23,39.10,-6.21,0.80,8.84,4.10,-0.54,-0.83
-1,0,1,-47,-426,3915,-0.02,-0.01,0.05,-0.47,-4.26,39.15,-6.21,0.78,8.84,4.12,-0.51,-0.83
-1,0,1,-61,-419,3909,-0.02,-0.01,0.05,-0.61,-4.19,39.09,-6.20,0.79,8.84,4.12,-0.52,-0.83
-1,0,1,-59,-430,3904,-0.02,-0.01,0.05,-0.59,-4.30,39.04,-6.21,0.80,8.84,4.13,-0.53,-0.83
0,0,1,-53,-431,3906,-0.02,-0.01,0.05,-0.53,-4.31,39.06,-6.23,0.80,8.84,4.12,-0.52,-0.83
0,0,1,-56,-423,3904,-0.02,-0.01,0.05,-0.56,-4.23,39.04,-6.21,0.80,8.84,4.11,-0.53,-0.83
0,0,1,-57,-423,3903,-0.02,-0.01,0.05,-0.57,-4.23,39.03,-6.20,0.82,8.84,4.10,-0.54,-0.82
0,0,1,-56,-419,3898,-0.02,-0.01,0.05,-0.56,-4.19,38.98,-6.18,0.82,8.84,4.09,-0.54,-0.82
1,-1,1,-51,-415,3898,-0.01,-0.01,0.05,-0.51,-4.15,38.98,-6.17,0.81,8.84,4.05,-0.51,-0.82
0,0,1,-57,-431,3911,-0.01,-0.01,0.05,-0.57,-4.31,39.11,-6.19,0.81,8.84,4.08,-0.53,-0.82
0,0,1,-58,-432,3902,-0.01,-0.01,0.06,-0.58,-4.32,39.02,-6.20,0.82,8.84,4.10,-0.54,-0.82
-1,-1,0,-56,-423,3908,-0.01,-0.02,0.05,-0.56,-4.23,39.08,-6.19,0.82,8.84,4.11,-0.51,-0.74
0,-1,1,-52,-424,3904,-0.01,-0.02,0.05,-0.52,-4.24,39.04,-6.19,0.80,8.84,4.09,-0.50,-0.83
-1,-1,0,-53,-427,3898,-0.02,-0.02,0.05,-0.53,-4.27,38.98,-6.21,0.79,8.84,4.12,-0.50,-0.75
0,-1,1,-51,-426,3916,-0.01,-0.03,0.05,-0.51,-4.26,39.16,-6.21,0.77,8.84,4.10,-0.48,-0.83
1,0,1,-60,-419,3924,-0.01,-0.02,0.05,-0.60,-4.19,39.24,-6.19,0.78,8.84,4.07,-0.51,-0.83
1,0,1,-60,-434,3914,-0.00,-0.02,0.05,-0.60,-4.34,39.14,-6.21,0.79,8.84,4.08,-0.52,-0.83
0,0,0,-55,-429,3922,-0.00,-0.02,0.04,-0.55,-4.29,39.22,-6.23,0.80,8.84,4.11,-0.52,-0.75
-1,-1,1,-60,-417,3920,-0.01,-0.02,0.05,-0.60,-4.17,39.20,-6.21,0.80,8.84,4.12,-0.50,-0.83
-1,-1,1,-56,-423,3906,-0.01,-0.03,0.05,-0.56,-4.23,39.06,-6.19,0.81,8.84,4.11,-0.51,-0.83
-1,-1,1,-52,-422,3905,-0.02,-0.03,0.05,-0.52,-4.22,39.05,-6.19,0.79,8.84,4.11,-0.50,-0.83
-1,0,1,-52,-420,3906,-0.02,-0.03,0.05,-0.52,-4.20,39.06,-6.17,0.78,8.84,4.10,-0.51,-0.83
-2,-1,1,-55,-425,3913,-0.03,-0.03,0.05,-0.55,-4.25,39.13,-6.19,0.79,8.84,4.13,-0.49,-0.83
-2,0,2,-52,-425,3920,-0.04,-0.03,0.06,-0.52,-4.25,39.20,-6.19,0.77,8.84,4.14,-0.50,-0.90
-2,0,1,-47,-416,3912,-0.05,-0.03,0.06,-0.47,-4.16,39.12,-6.17,0.76,8.84,4.13,-0.50,-0.82
-2,0,0,-56,-426,3912,-0.06,-0.02,0.05,-0.56,-4.26,39.12,-6.18,0.78,8.84,4.14,-0.51,-0.74
-2,0,1,-58,-419,3905,-0.06,-0.02,0.05,-0.58,-4.19,39.05,-6.17,0.79,8.84,4.13,-0.52,-0.82
-1,0,1,-46,-416,3911,-0.06,-0.02,0.05,-0.46,-4.16,39.11,-6.16,0.78,8.83,4.10,-0.51,-0.82
-1,0,1,-49,-425,3916,-0.06,-0.02,0.06,-0.49,-4.25,39.16,-6.17,0.76,8.83,4.11,-0.50,-0.82
-1,0,1,-55,-432,3904,-0.06,-0.02,0.06,-0.55,-4.32,39.04,-6.19,0.77,8.83,4.12,-0.50,-0.82
-1,1,1,-52,-435,3916,-0.06,-0.01,0.06,-0.52,-4.35,39.16,-6.21,0.76,8.83,4.13,-0.52,-0.82
0,0,1,-55,-433,3904,-0.06,-0.01,0.06,-0.55,-4.33,39.04,-6.22,0.77,8.83,4.12,-0.51,-0.82
0,0,1,-56,-431,3906,-0.05,-0.01,0.06,-0.56,-4.31,39.06,-6.24,0.78,8.83,4.13,-0.51,-0.82
0,-1,1,-52,-429,3916,-0.05,-0.01,0.06,-0.52,-4.29,39.16,-6.25,0.76,8.83,4.14,-0.48,-0.82
0,-1,1,-51,-430,3903,-0.04,-0.02,0.06,-0.51,-4.30,39.03,-6.26,0.76,8.83,4.15,-0.47,-0.82
-1,-1,1,-57,-429,3912,-0.04,-0.02,0.06,-0.57,-4.29,39.12,-6.26,0.77,8.83,4.17,-0.48,-0.82
