gyroADC_X,gyroADC_Y,gyroADC_Z,accADC_X,accADC_Y,accADC_Z,GyroX,GyroY,GyroZ,AccX,AccY,AccZ,roll_IMU,pitch_IMU,yaw_IMU,roll_PID,pitch_PID,yaw_PID
3,0,-1,-28,-366,3914,0.00,-0.17,0.00,-0.28,-3.66,39.14,-5.23,0.39,60.94,3.39,-0.21,-3.57
0,0,2,-14,-346,3879,0.00,-0.15,0.01,-0.14,-3.46,38.79,-5.22,0.38,60.94,3.44,-0.21,-3.81
0,-1,3,-24,-346,3889,0.00,-0.14,0.03,-0.24,-3.46,38.89,-5.20,0.37,60.94,3.43,-0.19,-3.87
2,-1,2,-16,-345,3884,0.02,-0.14,0.04,-0.16,-3.45,38.84,-5.19,0.36,60.94,3.38,-0.18,-3.78
1,-3,5,-29,-345,3891,0.02,-0.14,0.07,-0.29,-3.45,38.91,-5.17,0.37,60.94,3.39,-0.14,-4.00
2,-3,5,-25,-346,3881,0.03,-0.14,0.09,-0.25,-3.46,38.81,-5.15,0.37,60.94,3.35,-0.14,-3.97
0,-5,-5,-55,-335,3886,0.03,-0.16,0.05,-0.55,-3.35,38.86,-5.15,0.38,60.94,3.39,-0.11,-3.17
1,-6,-6,-49,-344,3883,0.03,-0.18,0.01,-0.49,-3.44,38.83,-5.14,0.40,60.94,3.36,-0.09,-3.14
1,-6,-8,-59,-351,3887,0.03,-0.20,-0.04,-0.59,-3.51,38.87,-5.14,0.42,60.94,3.36,-0.10,-3.03
3,-7,-8,-42,-355,3884,0.05,-0.22,-0.08,-0.42,-3.55,38.84,-5.15,0.43,60.94,3.32,-0.08,-3.08
3,-8,-9,-32,-360,3877,0.06,-0.25,-0.13,-0.32,-3.60,38.77,-5.17,0.44,60.94,3.33,-0.06,-3.05
4,-6,-4,-25,-363,3885,0.08,-0.26,-0.14,-0.25,-3.63,38.85,-5.18,0.43,60.94,3.32,-0.09,-3.48
4,-5,-4,-20,-355,3902,0.10,-0.27,-0.15,-0.20,-3.55,39.02,-5.18,0.41,60.94,3.31,-0.10,-3.50
3,0,-2,-24,-345,3918,0.11,-0.24,-0.15,-0.24,-3.45,39.18,-5.17,0.40,60.94,3.32,-0.20,-3.66
3,4,1,-20,-339,3904,0.11,-0.19,-0.13,-0.20,-3.39,39.04,-5.15,0.39,60.94,3.31,-0.29,-3.89
2,1,0,-17,-337,3879,0.11,-0.17,-0.12,-0.17,-3.37,38.79,-5.14,0.38,60.94,3.32,-0.23,-3.79
2,0,-1,-20,-357,3904,0.11,-0.15,-0.11,-0.20,-3.57,39.04,-5.15,0.37,60.94,3.33,-0.20,-3.70
1,4,-1,-36,-343,3903,0.11,-0.11,-0.11,-0.36,-3.43,39.03,-5.14,0.38,60.94,3.34,-0.30,-3.69
0,3,-1,-28,-346,3886,0.10,-0.08,-0.10,-0.28,-3.46,38.86,-5.12,0.39,60.94,3.35,-0.30,-3.69
0,-1,-3,-24,-350,3883,0.09,-0.08,-0.11,-0.24,-3.50,38.83,-5.13,0.38,60.94,3.36,-0.21,-3.53
1,0,-2,-23,-355,3889,0.09,-0.07,-0.11,-0.23,-3.55,38.89,-5.15,0.37,60.94,3.35,-0.22,-3.62
1,0,-2,-14,-356,3881,0.08,-0.06,-0.11,-0.14,-3.56,38.81,-5.16,0.35,60.94,3.36,-0.21,-3.62
1,-2,-3,-15,-360,3877,0.08,-0.07,-0.12,-0.15,-3.60,38.77,-5.17,0.34,60.94,3.37,-0.16,-3.54
1,-1,-4,-21,-352,3898,0.08,-0.07,-0.13,-0.21,-3.52,38.98,-5.16,0.32,60.94,3.37,-0.17,-3.47
1,-2,-5,-16,-364,3886,0.08,-0.07,-0.15,-0.16,-3.64,38.86,-5.18,0.31,60.94,3.38,-0.15,-3.41
-1,-5,-5,-23,-353,3886,0.06,-0.10,-0.16,-0.23,-3.53,38.86,-5.19,0.33,60.94,3.43,-0.09,-3.43
0,-5,-6,-27,-352,3902,0.06,-0.12,-0.18,-0.27,-3.52,39.02,-5.18,0.35,60.94,3.40,-0.09,-3.36
-1,-5,-4,-32,-353,3904,0.05,-0.14,-0.19,-0.32,-3.53,39.04,-5.18,0.36,60.95,3.42,-0.10,-3.54
0,-4,-2,-35,-337,3899,0.04,-0.15,-0.18,-0.35,-3.37,38.99,-5.16,0.37,60.95,3.40,-0.12,-3.70
0,-4,-2,-32,-371,3897,0.04,-0.16,-0.18,-0.32,-3.71,38.97,-5.18,0.38,60.95,3.41,-0.13,-3.69
0,-4,0,-27,-390,3894,0.03,-0.17,-0.16,-0.27,-3.90,38.94,-5.20,0.38,60.95,3.42,-0.12,-3.84
0,-1,5,9,-376,3900,0.03,-0.16,-0.11,0.09,-3.76,39.00,-5.21,0.36,60.95,3.43,-0.18,-4.21
1,-1,5,11,-348,3892,0.03,-0.15,-0.07,0.11,-3.48,38.92,-5.20,0.34,60.95,3.40,-0.17,-4.16
0,-4,6,-19,-339,3884,0.03,-0.16,-0.03,-0.19,-3.39,38.84,-5.18,0.34,60.95,3.41,-0.10,-4.20
1,-1,5,-9,-347,3892,0.03,-0.15,0.01,-0.09,-3.47,38.92,-5.18,0.32,60.95,3.39,-0.15,-4.07
1,0,7,-27,-377,3894,0.04,-0.13,0.05,-0.27,-3.77,38.94,-5.19,0.32,60.95,3.40,-0.18,-4.19
0,0,10,-28,-384,3880,0.03,-0.12,0.10,-0.28,-3.84,38.80,-5.21,0.33,60.95,3.43,-0.18,-4.38
1,1,19,-16,-351,3871,0.03,-0.10,0.21,-0.16,-3.51,38.71,-5.21,0.31,60.95,3.41,-0.20,-5.02
3,0,18,-27,-312,3915,0.05,-0.09,0.30,-0.27,-3.12,39.15,-5.19,0.31,60.94,3.35,-0.18,-4.83
2,-2,4,-20,-335,3921,0.06,-0.09,0.29,-0.20,-3.35,39.21,-5.17,0.31,60.94,3.36,-0.14,-3.65
2,-2,5,-13,-341,3880,0.06,-0.10,0.29,-0.13,-3.41,38.80,-5.16,0.30,60.94,3.34,-0.13,-3.74
1,-4,3,-15,-384,3896,0.06,-0.11,0.28,-0.15,-3.84,38.96,-5.17,0.29,60.94,3.38,-0.08,-3.58
0,-6,5,-16,-373,3916,0.06,-0.14,0.29,-0.16,-3.73,39.16,-5.19,0.29,60.94,3.41,-0.03,-3.75
-2,-7,18,-17,-357,3894,0.04,-0.17,0.37,-0.17,-3.57,38.94,-5.20,0.28,60.94,3.46,0.00,-4.75
-1,-7,19,-18,-337,3885,0.03,-0.19,0.45,-0.18,-3.37,38.85,-5.19,0.28,60.94,3.44,0.01,-4.74
0,-8,13,-41,-312,3882,0.03,-0.22,0.48,-0.41,-3.12,38.82,-5.17,0.28,60.93,3.41,0.04,-4.20
1,-7,8,-40,-316,3893,0.03,-0.24,0.48,-0.40,-3.16,38.93,-5.15,0.29,60.93,3.37,0.02,-3.77
2,-3,-1,-29,-329,3896,0.04,-0.24,0.43,-0.29,-3.29,38.96,-5.14,0.30,60.93,3.34,-0.07,-3.07
2,-2,0,-26,-346,3889,0.05,-0.22,0.38,-0.26,-3.46,38.89,-5.13,0.31,60.93,3.33,-0.10,-3.21
2,-1,3,-22,-346,3885,0.05,-0.21,0.36,-0.22,-3.46,38.85,-5.11,0.32,60.93,3.32,-0.13,-3.48
2,0,3,-22,-345,3885,0.06,-0.19,0.35,-0.22,-3.45,38.85,-5.09,0.32,60.93,3.30,-0.16,-3.51
1,1,2,-14,-352,3906,0.06,-0.16,0.32,-0.14,-3.52,39.06,-5.10,0.30,60.92,3.33,-0.18,-3.45
2,1,2,-22,-356,3909,0.07,-0.14,0.30,-0.22,-3.56,39.09,-5.12,0.31,60.92,3.32,-0.18,-3.47
1,1,0,-23,-350,3904,0.07,-0.12,0.27,-0.23,-3.50,39.04,-5.12,0.32,60.92,3.34,-0.20,-3.34
1,0,1,-16,-352,3900,0.07,-0.11,0.25,-0.16,-3.52,39.00,-5.13,0.31,60.92,3.35,-0.17,-3.45
1,0,3,-16,-355,3897,0.07,-0.10,0.25,-0.16,-3.55,38.97,-5.14,0.29,60.92,3.35,-0.17,-3.62
2,0,3,-24,-353,3898,0.07,-0.09,0.24,-0.24,-3.53,38.98,-5.15,0.31,60.92,3.34,-0.18,-3.63
2,1,5,-37,-342,3887,0.08,-0.07,0.25,-0.37,-3.42,38.87,-5.14,0.32,60.92,3.33,-0.21,-3.79
3,1,4,-32,-346,3890,0.09,-0.06,0.25,-0.32,-3.46,38.90,-5.13,0.34,60.92,3.30,-0.23,-3.71
4,2,5,-20,-357,3894,0.10,-0.04,0.25,-0.20,-3.57,38.94,-5.15,0.33,60.92,3.29,-0.25,-3.78
-4,-1,5,-28,-318,3921,0.07,-0.04,0.26,-0.28,-3.18,39.21,-5.13,0.34,60.92,3.45,-0.19,-3.78
0,1,6,-12,-346,3886,0.06,-0.03,0.27,-0.12,-3.46,38.86,-5.13,0.32,60.91,3.37,-0.22,-3.85
3,2,4,-13,-352,3892,0.07,-0.02,0.27,-0.13,-3.52,38.92,-5.13,0.30,60.91,3.31,-0.23,-3.68
2,2,4,-19,-341,3894,0.08,-0.00,0.26,-0.19,-3.41,38.94,-5.11,0.30,60.91,3.31,-0.24,-3.69
2,0,4,-17,-345,3891,0.08,-0.00,0.26,-0.17,-3.45,38.91,-5.10,0.28,60.91,3.30,-0.19,-3.69
1,-1,6,-22,-347,3882,0.08,-0.01,0.27,-0.22,-3.47,38.82,-5.10,0.30,60.91,3.33,-0.18,-3.85
-1,0,7,-13,-331,3903,0.07,-0.01,0.29,-0.13,-3.31,39.03,-5.09,0.30,60.91,3.36,-0.19,-3.91
-2,0,5,-35,-368,3890,0.05,-0.01,0.29,-0.35,-3.68,38.90,-5.10,0.31,60.91,3.39,-0.20,-3.74
2,1,2,-22,-349,3892,0.05,-0.00,0.27,-0.22,-3.49,38.92,-5.12,0.32,60.91,3.32,-0.23,-3.51
4,3,5,-31,-340,3898,0.07,0.02,0.28,-0.31,-3.40,38.98,-5.10,0.33,60.91,3.27,-0.28,-3.76
-1,2,8,-32,-327,3944,0.06,0.03,0.30,-0.32,-3.27,39.44,-5.09,0.34,60.90,3.36,-0.27,-3.99
-3,4,11,-20,-272,3848,0.04,0.05,0.33,-0.20,-2.72,38.48,-5.07,0.34,60.90,3.40,-0.32,-4.20
-4,3,4,-24,-264,3922,0.01,0.06,0.33,-0.24,-2.64,39.22,-5.05,0.34,60.90,3.41,-0.30,-3.61
0,6,-26,-47,-235,3907,0.01,0.09,0.13,-0.47,-2.35,39.07,-5.03,0.34,60.90,3.32,-0.37,-1.29
1,8,-30,-44,-219,3861,0.01,0.13,-0.06,-0.44,-2.19,38.61,-5.01,0.34,60.90,3.28,-0.43,-1.19
-4,3,-59,-31,-198,3883,-0.01,0.14,-0.42,-0.31,-1.98,38.83,-4.99,0.35,60.90,3.38,-0.33,0.86
-5,2,-69,-36,-232,3914,-0.04,0.14,-0.80,-0.36,-2.32,39.14,-4.98,0.35,60.91,3.40,-0.31,1.26
1,8,-83,-22,-286,3930,-0.03,0.17,-1.22,-0.22,-2.86,39.30,-4.96,0.35,60.91,3.26,-0.44,1.95
-4,4,-86,-32,-356,3883,-0.05,0.18,-1.62,-0.32,-3.56,38.83,-4.98,0.36,60.92,3.38,-0.36,1.73
-3,2,-87,-28,-361,3836,-0.07,0.17,-1.99,-0.28,-3.61,38.36,-4.99,0.36,60.93,3.38,-0.32,1.39
6,9,-81,-11,-315,3873,-0.02,0.21,-2.29,-0.11,-3.15,38.73,-4.98,0.35,60.93,3.17,-0.47,0.53
0,5,-97,3,-330,3928,-0.02,0.22,-2.65,0.03,-3.30,39.28,-4.97,0.33,60.94,3.29,-0.38,1.46
-5,-8,-96,-8,-324,3897,-0.05,0.15,-2.97,-0.08,-3.24,38.97,-4.96,0.32,60.96,3.39,-0.09,1.00
-3,0,-82,-30,-451,3937,-0.06,0.13,-3.17,-0.30,-4.51,39.37,-4.98,0.32,60.97,3.36,-0.25,-0.42
-1,3,-75,-25,-420,3853,-0.06,0.14,-3.31,-0.25,-4.20,38.53,-5.00,0.32,60.98,3.33,-0.31,-1.18
7,6,-62,-15,-353,3847,-0.01,0.16,-3.36,-0.15,-3.53,38.47,-5.01,0.31,61.00,3.17,-0.37,-2.34
4,2,-54,-17,-341,3976,0.01,0.16,-3.35,-0.17,-3.41,39.76,-5.00,0.30,61.01,3.21,-0.28,-3.01
-2,-1,-69,-25,-300,3897,-0.00,0.14,-3.44,-0.25,-3.00,38.97,-4.98,0.30,61.02,3.33,-0.22,-1.84
-5,-6,-87,-12,-247,3919,-0.03,0.09,-3.63,-0.12,-2.47,39.19,-4.96,0.30,61.04,3.38,-0.10,-0.53
-1,0,-122,-45,-365,3874,-0.03,0.08,-4.01,-0.45,-3.65,38.74,-4.98,0.31,61.05,3.31,-0.23,1.99
-1,-2,-128,-31,-415,3904,-0.04,0.06,-4.39,-0.31,-4.15,39.04,-4.99,0.31,61.07,3.33,-0.18,2.05
5,-4,-86,-11,-390,3906,-0.00,0.03,-4.47,-0.11,-3.90,39.06,-5.01,0.31,61.09,3.21,-0.13,-1.61
3,-5,-71,-35,-348,3892,0.02,-0.01,-4.46,-0.35,-3.48,38.92,-5.02,0.32,61.11,3.25,-0.11,-2.86
-3,-4,-56,-3,-350,3853,-0.00,-0.03,-4.36,-0.03,-3.50,38.53,-5.03,0.31,61.12,3.38,-0.11,-4.01
-5,-5,-47,6,-369,3897,-0.03,-0.06,-4.21,0.06,-3.69,38.97,-5.04,0.29,61.14,3.44,-0.07,-4.60
-3,-4,-25,-22,-478,3923,-0.05,-0.08,-3.94,-0.22,-4.78,39.23,-5.06,0.29,61.16,3.41,-0.09,-6.15
-3,-5,-24,149,-474,3982,-0.06,-0.10,-3.69,1.49,-4.74,39.82,-5.07,0.27,61.17,3.43,-0.05,-5.95
-1,-9,-45,-41,-360,3889,-0.06,-0.14,-3.60,-0.41,-3.60,38.89,-5.08,0.29,61.19,3.39,0.03,-4.06
-2,-8,-73,-62,-389,3887,-0.07,-0.18,-3.68,-0.62,-3.89,38.87,-5.10,0.30,61.20,3.42,0.02,-1.79
3,-3,-79,-101,-447,3878,-0.04,-0.18,-3.80,-1.01,-4.47,38.78,-5.11,0.31,61.22,3.32,-0.09,-1.42
2,2,-65,-113,-489,3914,-0.03,-0.15,-3.81,-1.13,-4.89,39.14,-5.13,0.31,61.23,3.35,-0.21,-2.62
4,7,-8,-70,-384,3921,0.00,-0.09,-3.48,-0.70,-3.84,39.21,-5.14,0.33,61.24,3.31,-0.33,-7.06
5,6,-2,-63,-321,3919,0.03,-0.05,-3.14,-0.63,-3.21,39.19,-5.12,0.34,61.26,3.27,-0.33,-7.18
4,3,-21,-28,-188,3894,0.05,-0.02,-2.96,-0.28,-1.88,38.94,-5.11,0.34,61.27,3.27,-0.28,-5.35
3,4,-36,-35,-194,3843,0.07,0.00,-2.88,-0.35,-1.94,38.43,-5.09,0.34,61.28,3.28,-0.31,-4.00
1,4,-79,-15,-380,3860,0.06,0.03,-3.08,-0.15,-3.80,38.60,-5.11,0.34,61.29,3.33,-0.31,-0.58
0,-4,-80,-12,-436,3940,0.06,0.00,-3.26,-0.12,-4.36,39.40,-5.12,0.33,61.31,3.37,-0.14,-0.71
0,-4,-35,-17,-519,3884,0.05,-0.02,-3.14,-0.17,-5.19,38.84,-5.14,0.33,61.32,3.38,-0.13,-4.39
-4,-1,-17,-29,-418,3886,0.02,-0.03,-2.93,-0.29,-4.18,38.86,-5.16,0.33,61.33,3.48,-0.19,-5.67
2,3,-12,-25,-395,3901,0.03,-0.01,-2.71,-0.25,-3.95,39.01,-5.18,0.33,61.34,3.37,-0.28,-5.84
2,2,-11,-35,-366,3896,0.04,0.01,-2.51,-0.35,-3.66,38.96,-5.19,0.34,61.35,3.37,-0.27,-5.68
4,6,-7,-28,-294,3887,0.06,0.04,-2.30,-0.28,-2.94,38.87,-5.17,0.34,61.36,3.32,-0.36,-5.78
4,6,-6,-31,-300,3883,0.08,0.07,-2.11,-0.31,-3.00,38.83,-5.15,0.35,61.37,3.30,-0.37,-5.64
3,3,-10,-24,-353,3891,0.09,0.09,-1.96,-0.24,-3.53,38.91,-5.17,0.35,61.38,3.33,-0.31,-5.12
-1,2,-13,-29,-359,3899,0.08,0.09,-1.84,-0.29,-3.59,38.99,-5.19,0.36,61.38,3.42,-0.30,-4.73
-20,-3,-23,-27,-365,3874,-0.05,0.06,-1.80,-0.27,-3.65,38.74,-5.20,0.36,61.39,3.86,-0.20,-3.84
-19,-1,-22,-19,-373,3883,-0.16,0.05,-1.75,-0.19,-3.73,38.83,-5.22,0.36,61.40,3.88,-0.23,-3.87
-4,-2,-16,-24,-373,3872,-0.17,0.03,-1.67,-0.24,-3.73,38.72,-5.24,0.36,61.41,3.59,-0.20,-4.29
0,0,-16,-20,-388,3875,-0.16,0.03,-1.60,-0.20,-3.88,38.75,-5.26,0.35,61.41,3.51,-0.24,-4.20
1,-2,-17,-20,-387,3879,-0.13,0.01,-1.55,-0.20,-3.87,38.79,-5.28,0.35,61.42,3.50,-0.20,-4.05
1,-1,-18,-17,-382,3890,-0.11,0.01,-1.50,-0.17,-3.82,38.90,-5.30,0.35,61.42,3.51,-0.21,-3.92
3,-2,-15,-19,-360,3885,-0.08,-0.01,-1.44,-0.19,-3.60,38.85,-5.30,0.33,61.43,3.46,-0.17,-4.10
11,-1,-16,-16,-356,3875,-0.01,-0.01,-1.40,-0.16,-3.56,38.75,-5.29,0.31,61.44,3.27,-0.18,-3.96
13,0,-17,-39,-354,3894,0.07,-0.01,-1.36,-0.39,-3.54,38.94,-5.28,0.33,61.44,3.20,-0.21,-3.84
11,0,-16,-38,-354,3908,0.13,-0.01,-1.32,-0.38,-3.54,39.08,-5.27,0.34,61.45,3.22,-0.22,-3.88
14,0,-15,-32,-362,3882,0.20,-0.01,-1.28,-0.32,-3.62,38.82,-5.28,0.36,61.45,3.14,-0.23,-3.91
20,1,-16,-23,-364,3876,0.31,-0.00,-1.25,-0.23,-3.64,38.76,-5.30,0.35,61.46,3.01,-0.25,-3.79
6,-3,-22,-24,-365,3887,0.31,-0.02,-1.26,-0.24,-3.65,38.87,-5.31,0.35,61.46,3.30,-0.17,-3.30
4,-5,-25,-21,-357,3898,0.30,-0.05,-1.29,-0.21,-3.57,38.98,-5.30,0.34,61.47,3.33,-0.11,-3.07
1,-5,-29,-17,-361,3880,0.28,-0.07,-1.33,-0.17,-3.61,38.80,-5.30,0.32,61.47,3.40,-0.09,-2.79
1,-3,-25,-13,-360,3879,0.26,-0.08,-1.35,-0.13,-3.60,38.79,-5.30,0.31,61.48,3.41,-0.12,-3.15
3,-1,-15,-7,-377,3898,0.25,-0.08,-1.31,-0.07,-3.77,38.98,-5.31,0.29,61.48,3.38,-0.15,-3.95
2,-2,-10,-15,-387,3900,0.24,-0.09,-1.24,-0.15,-3.87,39.00,-5.33,0.29,61.49,3.41,-0.13,-4.29
5,5,2,-28,-362,3883,0.24,-0.05,-1.10,-0.28,-3.62,38.83,-5.33,0.31,61.49,3.35,-0.29,-5.15
8,5,0,-23,-327,3877,0.27,-0.01,-0.99,-0.23,-3.27,38.77,-5.31,0.31,61.50,3.27,-0.30,-4.85
5,-3,-28,-33,-264,3864,0.27,-0.03,-1.06,-0.33,-2.64,38.64,-5.29,0.31,61.50,3.31,-0.13,-2.56
6,-1,-26,-17,-374,3894,0.28,-0.03,-1.12,-0.17,-3.74,38.94,-5.30,0.30,61.50,3.30,-0.17,-2.79
5,-3,-21,-23,-400,3882,0.28,-0.05,-1.13,-0.23,-4.00,38.82,-5.32,0.30,61.51,3.33,-0.13,-3.24
2,-8,-20,-27,-391,3917,0.27,-0.09,-1.14,-0.27,-3.91,39.17,-5.34,0.31,61.51,3.41,-0.01,-3.33
-1,-10,-1,-12,-467,3900,0.24,-0.14,-1.03,-0.12,-4.67,39.00,-5.36,0.30,61.52,3.49,0.04,-4.81
-1,-10,7,-2,-466,3867,0.21,-0.19,-0.89,-0.02,-4.66,38.67,-5.37,0.30,61.52,3.51,0.06,-5.32
-1,-13,48,-24,-440,3855,0.18,-0.25,-0.51,-0.24,-4.40,38.55,-5.39,0.30,61.52,3.53,0.14,-8.35
-1,-9,54,-15,-422,3927,0.15,-0.28,-0.13,-0.15,-4.22,39.27,-5.41,0.30,61.52,3.55,0.06,-8.41
-1,-6,84,-18,-352,3898,0.13,-0.29,0.40,-0.18,-3.52,38.98,-5.39,0.29,61.52,3.54,0.01,-10.34
-5,-5,96,-21,-331,3912,0.09,-0.29,0.94,-0.21,-3.31,39.12,-5.37,0.29,61.52,3.62,-0.01,-10.72
0,-2,98,-43,-328,3872,0.08,-0.27,1.45,-0.43,-3.28,38.72,-5.35,0.30,61.51,3.51,-0.08,-10.30
3,-8,86,-42,-329,3941,0.09,-0.29,1.83,-0.42,-3.29,39.41,-5.34,0.31,61.50,3.44,0.04,-8.84
-7,4,70,-54,-346,3913,0.04,-0.24,2.07,-0.54,-3.46,39.13,-5.33,0.33,61.50,3.65,-0.23,-7.20
-1,3,66,-41,-337,3868,0.03,-0.20,2.27,-0.41,-3.37,38.68,-5.31,0.34,61.49,3.52,-0.23,-6.63
0,0,69,-20,-317,3875,0.03,-0.18,2.46,-0.20,-3.17,38.75,-5.30,0.34,61.48,3.49,-0.17,-6.66
-3,2,71,-15,-321,3845,0.01,-0.15,2.65,-0.15,-3.21,38.45,-5.28,0.33,61.47,3.54,-0.22,-6.61
2,1,46,-25,-343,3869,0.02,-0.13,2.66,-0.25,-3.43,38.69,-5.26,0.34,61.46,3.43,-0.21,-4.47
6,3,35,-25,-356,3925,0.05,-0.10,2.61,-0.25,-3.56,39.25,-5.24,0.34,61.44,3.32,-0.26,-3.60
3,-5,56,-41,-515,3945,0.06,-0.12,2.69,-0.41,-5.15,39.45,-5.26,0.35,61.43,3.39,-0.09,-5.28
-1,-6,77,102,-475,3927,0.05,-0.14,2.89,1.02,-4.75,39.27,-5.27,0.33,61.42,3.49,-0.06,-6.83
-4,-4,152,5,-313,3877,0.02,-0.15,3.53,0.05,-3.13,38.77,-5.26,0.32,61.41,3.54,-0.09,-12.44
-2,2,155,-8,-315,3842,0.01,-0.13,4.12,-0.08,-3.15,38.42,-5.24,0.32,61.39,3.50,-0.22,-12.00
-5,-9,144,15,-269,3862,-0.02,-0.17,4.59,0.15,-2.69,38.62,-5.22,0.31,61.37,3.55,0.02,-10.52
-3,-5,128,-13,-286,3930,-0.04,-0.18,4.91,-0.13,-2.86,39.30,-5.20,0.31,61.35,3.51,-0.05,-8.79
-3,-3,104,-23,-282,3960,-0.05,-0.18,5.05,-0.23,-2.82,39.60,-5.19,0.31,61.33,3.50,-0.10,-6.58
1,-7,94,-23,-284,3871,-0.04,-0.21,5.12,-0.23,-2.84,38.71,-5.17,0.31,61.31,3.40,-0.01,-5.66
-1,-4,81,-37,-380,3878,-0.04,-0.21,5.10,-0.37,-3.80,38.78,-5.18,0.32,61.29,3.45,-0.07,-4.57
-1,0,81,-23,-387,3864,-0.05,-0.19,5.09,-0.23,-3.87,38.64,-5.20,0.33,61.27,3.47,-0.16,-4.59
-1,1,89,-19,-350,3900,-0.05,-0.16,5.12,-0.19,-3.50,39.00,-5.19,0.32,61.25,3.46,-0.18,-5.23
-3,-7,87,-26,-376,3925,-0.06,-0.19,5.14,-0.26,-3.76,39.25,-5.20,0.32,61.23,3.51,-0.02,-5.04
2,-8,78,-58,-404,3911,-0.04,-0.22,5.10,-0.58,-4.04,39.11,-5.22,0.33,61.21,3.42,0.00,-4.32
3,0,80,-42,-410,3850,-0.02,-0.20,5.08,-0.42,-4.10,38.50,-5.24,0.34,61.19,3.40,-0.17,-4.51
-1,1,111,-34,-403,3819,-0.02,-0.17,5.25,-0.34,-4.03,38.19,-5.25,0.35,61.17,3.49,-0.20,-6.94
-10,-2,124,-8,-326,4022,-0.08,-0.17,5.48,-0.08,-3.26,40.22,-5.24,0.34,61.15,3.68,-0.14,-7.77
-4,-5,135,-88,-286,3974,-0.10,-0.18,5.76,-0.88,-2.86,39.74,-5.22,0.35,61.12,3.56,-0.08,-8.38
-3,-9,135,-92,-310,3819,-0.11,-0.22,6.00,-0.92,-3.10,38.19,-5.22,0.37,61.10,3.53,-0.00,-8.09
-9,0,131,14,-297,3785,-0.15,-0.20,6.20,0.14,-2.97,37.85,-5.20,0.36,61.08,3.66,-0.18,-7.51
-8,7,128,120,-297,3892,-0.19,-0.13,6.36,1.20,-2.97,38.92,-5.20,0.35,61.05,3.64,-0.33,-7.07
2,8,89,-114,-274,3838,-0.15,-0.07,6.27,-1.14,-2.74,38.38,-5.18,0.36,61.03,3.42,-0.38,-3.87
7,-1,70,-132,-315,3949,-0.10,-0.07,6.07,-1.32,-3.15,39.49,-5.18,0.38,61.00,3.30,-0.21,-2.50
8,10,52,378,-422,3949,-0.04,-0.00,5.78,3.78,-4.22,39.49,-5.18,0.36,60.98,3.27,-0.44,-1.31
14,-2,48,305,-536,3753,0.05,-0.01,5.49,3.05,-5.36,37.53,-5.19,0.35,60.96,3.13,-0.19,-1.30
-5,-3,145,-78,-457,3712,0.02,-0.03,5.83,-0.78,-4.57,37.12,-5.21,0.36,60.93,3.53,-0.17,-9.13
-3,0,128,-66,-366,4020,-0.00,-0.03,6.03,-0.66,-3.66,40.20,-5.21,0.38,60.91,3.50,-0.24,-7.45
2,1,107,51,-307,3931,0.01,-0.02,6.08,0.51,-3.07,39.31,-5.20,0.37,60.89,3.39,-0.26,-5.61
4,5,108,68,-319,3834,0.03,0.01,6.13,0.68,-3.19,38.34,-5.19,0.35,60.86,3.33,-0.34,-5.64
2,8,144,67,-426,3874,0.04,0.06,6.39,0.67,-4.26,38.74,-5.20,0.34,60.84,3.38,-0.40,-8.38
1,-1,162,106,-428,3909,0.04,0.05,6.74,1.06,-4.28,39.09,-5.21,0.33,60.81,3.41,-0.21,-9.49
-1,-3,241,125,-546,3925,0.03,0.03,7.54,1.25,-5.46,39.25,-5.22,0.32,60.78,3.46,-0.16,-15.25
-11,7,271,32,-496,3837,-0.04,0.07,8.44,0.32,-4.96,38.37,-5.24,0.32,60.74,3.69,-0.37,-16.74
-2,20,363,53,-436,3973,-0.05,0.18,9.81,0.53,-4.36,39.73,-5.25,0.31,60.71,3.52,-0.66,-20.00
8,8,341,18,-359,3913,0.01,0.21,10.91,0.18,-3.59,39.13,-5.25,0.29,60.66,3.30,-0.41,-19.78
-28,1,396,-65,-405,3763,-0.16,0.20,12.23,-0.65,-4.05,37.63,-5.27,0.31,60.61,4.09,-0.28,-20.00
14,0,361,-47,-390,3896,-0.06,0.18,13.21,-0.47,-3.90,38.96,-5.28,0.33,60.56,3.22,-0.26,-18.78
-16,2,342,-103,-343,3924,-0.15,0.17,13.98,-1.03,-3.43,39.24,-5.28,0.35,60.51,3.85,-0.32,-16.27
1,9,326,-117,-389,3851,-0.13,0.21,14.57,-1.17,-3.89,38.51,-5.28,0.37,60.45,3.50,-0.49,-14.22
-3,5,278,-161,-300,3851,-0.14,0.22,14.81,-1.61,-3.00,38.51,-5.28,0.40,60.39,3.58,-0.42,-9.87
-9,4,261,-144,-280,3906,-0.18,0.22,14.92,-1.44,-2.80,39.06,-5.27,0.42,60.33,3.71,-0.42,-8.29
-2,6,184,-158,-233,3904,-0.17,0.24,14.55,-1.58,-2.33,39.04,-5.25,0.44,60.27,3.56,-0.48,-2.20
-3,3,161,-122,-216,3897,-0.17,0.23,14.08,-1.22,-2.16,38.97,-5.24,0.45,60.22,3.57,-0.42,-0.80
-1,-1,85,-83,-249,3903,-0.16,0.20,13.19,-0.83,-2.49,39.03,-5.22,0.47,60.16,3.51,-0.34,4.60
-1,-2,70,-63,-248,3857,-0.15,0.17,12.30,-0.63,-2.48,38.57,-5.21,0.48,60.11,3.50,-0.32,4.83
1,0,54,-107,-394,3899,-0.13,0.15,11.39,-1.07,-3.94,38.99,-5.21,0.50,60.07,3.46,-0.37,5.14
-3,0,73,-93,-397,3934,-0.14,0.14,10.70,-0.93,-3.97,39.34,-5.22,0.52,60.03,3.55,-0.38,2.72
-4,2,121,-114,-415,3869,-0.15,0.14,10.37,-1.14,-4.15,38.69,-5.24,0.54,59.99,3.58,-0.43,-1.73
3,10,131,-128,-447,3866,-0.11,0.18,10.13,-1.28,-4.47,38.66,-5.25,0.56,59.94,3.43,-0.62,-2.85
-6,5,178,-42,-384,3875,-0.14,0.20,10.20,-0.42,-3.84,38.75,-5.27,0.56,59.90,3.64,-0.53,-6.75
-8,3,184,-65,-356,3914,-0.17,0.19,10.31,-0.65,-3.56,39.14,-5.26,0.58,59.86,3.68,-0.50,-7.13
-6,7,209,-40,-376,3836,-0.19,0.22,10.55,-0.40,-3.76,38.36,-5.28,0.59,59.82,3.66,-0.59,-8.96
-3,9,214,-51,-390,3899,-0.19,0.25,10.80,-0.51,-3.90,38.99,-5.30,0.60,59.78,3.61,-0.65,-9.09
-4,13,215,-27,-338,3883,-0.20,0.30,11.03,-0.27,-3.38,38.83,-5.28,0.60,59.73,3.62,-0.74,-8.90
-9,4,210,-17,-371,3923,-0.23,0.30,11.21,-0.17,-3.71,39.23,-5.29,0.58,59.69,3.74,-0.55,-8.27
-9,1,174,40,-213,3813,-0.26,0.27,11.15,0.40,-2.13,38.13,-5.28,0.58,59.65,3.74,-0.48,-5.29
0,5,134,67,-293,3967,-0.24,0.28,10.85,0.67,-2.93,39.67,-5.27,0.57,59.60,3.54,-0.55,-2.24
8,8,142,-51,-400,3857,-0.17,0.30,10.63,-0.51,-4.00,38.57,-5.28,0.58,59.56,3.37,-0.63,-3.17
-2,15,154,-53,-371,3892,-0.16,0.36,10.51,-0.53,-3.71,38.92,-5.30,0.60,59.52,3.58,-0.80,-4.33
-3,-2,103,110,-204,3983,-0.16,0.31,10.09,1.10,-2.04,39.83,-5.28,0.59,59.48,3.59,-0.44,-0.50
-2,-1,78,76,-221,3831,-0.16,0.27,9.55,0.76,-2.21,38.31,-5.27,0.59,59.44,3.56,-0.44,0.99
1,2,13,9,-320,3889,-0.14,0.26,8.68,0.09,-3.20,38.89,-5.26,0.58,59.41,3.49,-0.49,5.48
-1,-1,4,-13,-355,3879,-0.13,0.23,7.83,-0.13,-3.55,38.79,-5.26,0.56,59.38,3.52,-0.41,5.26
5,-3,-15,-18,-401,3879,-0.09,0.19,6.96,-0.18,-4.01,38.79,-5.27,0.56,59.35,3.40,-0.36,5.84
2,-7,-14,-15,-391,3870,-0.07,0.13,6.18,-0.15,-3.91,38.70,-5.29,0.55,59.32,3.47,-0.25,4.85
8,-2,-5,81,-465,3863,-0.01,0.10,5.53,0.81,-4.65,38.63,-5.30,0.54,59.30,3.34,-0.34,3.33
8,10,36,27,-563,3869,0.04,0.15,5.20,0.27,-5.63,38.69,-5.32,0.54,59.28,3.34,-0.60,-0.53
-2,4,138,39,-479,3843,0.02,0.16,5.52,0.39,-4.79,38.43,-5.33,0.53,59.26,3.55,-0.47,-8.80
-4,13,160,-7,-463,3869,-0.00,0.22,5.94,-0.07,-4.63,38.69,-5.35,0.53,59.24,3.61,-0.67,-10.16
0,11,171,-35,-323,3837,-0.00,0.27,6.39,-0.35,-3.23,38.37,-5.33,0.53,59.21,3.52,-0.65,-10.57
-2,8,168,-71,-307,3917,-0.01,0.29,6.78,-0.71,-3.07,39.17,-5.32,0.54,59.18,3.55,-0.60,-9.86
-6,2,146,-13,-197,3878,-0.05,0.27,6.99,-0.13,-1.97,38.78,-5.30,0.54,59.16,3.63,-0.47,-7.75
-1,7,139,-20,-228,3874,-0.05,0.29,7.14,-0.20,-2.28,38.74,-5.28,0.55,59.13,3.52,-0.58,-6.98
1,6,84,-109,-243,3856,-0.04,0.30,6.94,-1.09,-2.43,38.56,-5.26,0.56,59.10,3.46,-0.57,-2.55
2,5,61,-137,-235,3910,-0.02,0.30,6.62,-1.37,-2.35,39.10,-5.25,0.57,59.07,3.43,-0.56,-0.98
-2,2,13,-31,-336,3870,-0.03,0.28,6.03,-0.31,-3.36,38.70,-5.23,0.57,59.05,3.50,-0.49,2.41
2,3,4,-38,-365,3904,-0.02,0.27,5.45,-0.38,-3.65,39.04,-5.25,0.57,59.03,3.43,-0.51,2.50
2,-1,-5,-44,-361,3882,-0.00,0.24,4.88,-0.44,-3.61,38.82,-5.26,0.59,59.01,3.43,-0.43,2.59
2,-2,-8,-31,-372,3880,0.01,0.20,4.34,-0.31,-3.72,38.80,-5.28,0.58,58.99,3.44,-0.40,2.21
3,1,-12,20,-377,3887,0.03,0.19,3.83,0.20,-3.77,38.87,-5.28,0.56,58.98,3.42,-0.44,1.96
3,4,-18,-3,-371,3877,0.04,0.19,3.34,-0.03,-3.71,38.77,-5.29,0.55,58.96,3.42,-0.50,1.89
2,2,-14,-7,-360,3886,0.05,0.19,2.92,-0.07,-3.60,38.86,-5.29,0.53,58.95,3.44,-0.44,1.06
3,1,-13,11,-367,3878,0.06,0.17,2.55,0.11,-3.67,38.78,-5.29,0.52,58.94,3.41,-0.41,0.55
3,4,-5,24,-388,3911,0.08,0.18,2.26,0.24,-3.88,39.11,-5.30,0.50,58.93,3.41,-0.46,-0.47
4,5,-8,39,-419,3902,0.09,0.19,1.99,0.39,-4.19,39.02,-5.31,0.49,58.92,3.40,-0.48,-0.53
3,4,-6,11,-419,3885,0.10,0.20,1.75,0.11,-4.19,38.85,-5.32,0.48,58.92,3.42,-0.45,-0.98
4,3,-6,12,-426,3884,0.12,0.20,1.54,0.12,-4.26,38.84,-5.34,0.47,58.91,3.41,-0.42,-1.22
5,10,13,-82,-368,3922,0.13,0.24,1.47,-0.82,-3.68,39.22,-5.34,0.49,58.91,3.38,-0.59,-2.92
0,0,11,-55,-400,3937,0.12,0.21,1.39,-0.55,-4.00,39.37,-5.35,0.50,58.90,3.50,-0.39,-2.84
2,5,15,-38,-379,3939,0.12,0.22,1.34,-0.38,-3.79,39.39,-5.37,0.51,58.90,3.47,-0.50,-3.24
-7,0,18,-48,-373,3842,0.07,0.20,1.32,-0.48,-3.73,38.42,-5.38,0.52,58.89,3.68,-0.40,-3.52
-1,11,3,-108,-278,3782,0.05,0.25,1.20,-1.08,-2.78,37.82,-5.37,0.54,58.89,3.55,-0.65,-2.38
4,9,-18,-97,-206,3993,0.07,0.28,0.97,-0.97,-2.06,39.93,-5.35,0.54,58.88,3.43,-0.62,-0.87
4,5,-32,-62,-257,3896,0.09,0.28,0.68,-0.62,-2.57,38.96,-5.33,0.55,58.88,3.41,-0.54,-0.03
4,3,-32,-45,-293,3887,0.11,0.27,0.42,-0.45,-2.93,38.87,-5.31,0.55,58.88,3.40,-0.50,-0.33
4,3,-21,-44,-304,3882,0.12,0.26,0.25,-0.44,-3.04,38.82,-5.29,0.56,58.88,3.38,-0.50,-1.46
4,3,-15,-60,-320,3890,0.13,0.25,0.13,-0.60,-3.20,38.90,-5.28,0.57,58.88,3.37,-0.50,-2.11
2,2,0,-94,-357,3896,0.13,0.24,0.12,-0.94,-3.57,38.96,-5.28,0.59,58.87,3.41,-0.49,-3.39
2,4,2,-70,-364,3887,0.13,0.24,0.12,-0.70,-3.64,38.87,-5.28,0.61,58.87,3.41,-0.55,-3.56
3,8,8,-56,-363,3899,0.14,0.27,0.16,-0.56,-3.63,38.99,-5.28,0.62,58.87,3.39,-0.65,-4.03
3,9,9,-51,-362,3910,0.14,0.29,0.19,-0.51,-3.62,39.10,-5.28,0.64,58.87,3.39,-0.69,-4.07
1,8,25,-22,-309,3866,0.13,0.31,0.33,-0.22,-3.09,38.66,-5.26,0.64,58.87,3.42,-0.67,-5.27
0,6,32,-22,-326,3868,0.12,0.32,0.49,-0.22,-3.26,38.68,-5.25,0.63,58.87,3.43,-0.62,-5.67
0,9,38,-61,-330,3858,0.11,0.34,0.67,-0.61,-3.30,38.58,-5.23,0.64,58.87,3.43,-0.70,-5.96
-1,7,53,-172,-325,3883,0.09,0.35,0.93,-1.72,-3.25,38.83,-5.23,0.66,58.86,3.45,-0.67,-6.94
-1,-4,45,-51,-324,3895,0.07,0.29,1.11,-0.51,-3.24,38.95,-5.21,0.67,58.86,3.44,-0.44,-6.05
0,-1,51,-18,-361,3877,0.07,0.26,1.31,-0.18,-3.61,38.77,-5.22,0.65,58.85,3.42,-0.48,-6.32
-2,-2,59,-25,-369,3884,0.05,0.22,1.54,-0.25,-3.69,38.84,-5.23,0.64,58.85,3.48,-0.44,-6.73
0,-1,56,-35,-329,3901,0.04,0.19,1.73,-0.35,-3.29,39.01,-5.21,0.63,58.84,3.43,-0.45,-6.26
1,-1,31,-18,-367,3885,0.05,0.16,1.74,-0.18,-3.67,38.85,-5.22,0.62,58.83,3.41,-0.43,-4.12
3,-1,19,-23,-405,3881,0.06,0.14,1.69,-0.23,-4.05,38.81,-5.23,0.61,58.83,3.38,-0.42,-3.17
-1,0,-1,-34,-365,3889,0.05,0.13,1.51,-0.34,-3.65,38.89,-5.25,0.60,58.82,3.47,-0.43,-1.68
0,1,-4,-29,-354,3882,0.04,0.12,1.33,-0.29,-3.54,38.82,-5.24,0.58,58.82,3.45,-0.44,-1.63
1,-3,-4,-33,-348,3884,0.04,0.09,1.18,-0.33,-3.48,38.84,-5.23,0.57,58.81,3.42,-0.34,-1.81
1,-4,-2,-22,-351,3884,0.05,0.06,1.05,-0.22,-3.51,38.84,-5.22,0.56,58.81,3.41,-0.30,-2.14
2,-3,0,-31,-346,3889,0.05,0.03,0.94,-0.31,-3.46,38.89,-5.21,0.55,58.80,3.38,-0.31,-2.43
4,1,-2,-4,-367,3887,0.07,0.04,0.84,-0.04,-3.67,38.87,-5.21,0.53,58.80,3.34,-0.38,-2.38
5,3,16,-19,-311,3937,0.10,0.05,0.85,-0.19,-3.11,39.37,-5.20,0.52,58.80,3.30,-0.42,-3.89
3,2,20,-23,-279,3900,0.10,0.06,0.89,-0.23,-2.79,39.00,-5.18,0.52,58.79,3.33,-0.40,-4.19
-1,1,44,9,-345,3877,0.09,0.06,1.07,0.09,-3.45,38.77,-5.18,0.50,58.79,3.41,-0.37,-6.01
-1,2,48,0,-372,3876,0.07,0.06,1.25,0.00,-3.72,38.76,-5.18,0.49,58.78,3.42,-0.38,-6.13
3,3,48,-36,-393,3881,0.08,0.08,1.42,-0.36,-3.93,38.81,-5.20,0.49,58.78,3.35,-0.41,-5.93
6,5,49,-23,-400,3907,0.11,0.10,1.58,-0.23,-4.00,39.07,-5.22,0.49,58.77,3.29,-0.45,-5.83
3,2,51,-54,-349,3930,0.12,0.10,1.73,-0.54,-3.49,39.30,-5.21,0.50,58.77,3.35,-0.40,-5.82
3,3,51,-44,-347,3870,0.13,0.11,1.87,-0.44,-3.47,38.70,-5.20,0.52,58.76,3.34,-0.44,-5.66
5,20,90,12,-513,3654,0.14,0.22,2.23,0.12,-5.13,36.54,-5.22,0.52,58.75,3.30,-0.81,-8.54
-4,1,142,31,-438,4135,0.10,0.20,2.87,0.31,-4.38,41.35,-5.23,0.51,58.74,3.50,-0.41,-12.20
-3,1,153,-2,-394,3815,0.08,0.19,3.52,-0.02,-3.94,38.15,-5.24,0.50,58.72,3.50,-0.40,-12.37
-3,16,150,-27,-376,3834,0.05,0.27,4.08,-0.27,-3.76,38.34,-5.26,0.50,58.71,3.52,-0.73,-11.46
6,13,127,-121,-365,3880,0.08,0.32,4.45,-1.21,-3.65,38.80,-5.26,0.52,58.69,3.33,-0.69,-9.08
-2,0,123,-85,-395,3959,0.06,0.29,4.75,-0.85,-3.95,39.59,-5.27,0.54,58.67,3.50,-0.43,-8.38
-5,-3,183,-52,-573,3950,0.02,0.24,5.40,-0.52,-5.73,39.50,-5.29,0.54,58.65,3.59,-0.36,-12.72
-4,5,221,-61,-688,3851,-0.00,0.25,6.20,-0.61,-6.88,38.51,-5.31,0.54,58.63,3.59,-0.53,-14.99
-1,6,380,-5,-662,3912,-0.01,0.26,7.90,-0.05,-6.62,39.12,-5.33,0.55,58.60,3.54,-0.55,-20.00
-9,-3,433,10,-653,3852,-0.06,0.22,9.75,0.10,-6.53,38.52,-5.34,0.55,58.56,3.73,-0.36,-20.00
-4,8,635,71,-486,3890,-0.08,0.24,12.65,0.71,-4.86,38.90,-5.36,0.54,58.51,3.64,-0.59,-20.00
-16,-3,646,-63,-360,3878,-0.17,0.20,15.33,-0.63,-3.60,38.78,-5.35,0.57,58.45,3.91,-0.37,-20.00
-6,5,478,-141,-70,3807,-0.19,0.21,16.71,-1.41,-0.70,38.07,-5.34,0.58,58.38,3.70,-0.54,-20.00
-12,4,402,-138,-13,3996,-0.24,0.21,17.49,-1.38,-0.13,39.96,-5.32,0.59,58.31,3.82,-0.53,-17.11
3,-7,81,-163,98,4022,-0.20,0.15,16.24,-1.63,0.98,40.22,-5.30,0.60,58.24,3.49,-0.30,8.62
8,-2,11,-104,-60,3806,-0.13,0.12,14.68,-1.04,-0.60,38.06,-5.28,0.61,58.19,3.36,-0.40,12.74
-1,0,-41,62,-256,3852,-0.13,0.11,12.96,0.62,-2.56,38.52,-5.27,0.60,58.13,3.53,-0.43,15.14
0,-6,-22,35,-236,3882,-0.11,0.06,11.53,0.35,-2.36,38.82,-5.26,0.60,58.09,3.50,-0.29,11.86
-1,-6,-6,-4,-342,3899,-0.11,0.02,10.34,-0.04,-3.42,38.99,-5.25,0.59,58.05,3.51,-0.27,9.11
8,-2,-7,-12,-328,3855,-0.05,0.01,9.26,-0.12,-3.28,38.55,-5.24,0.58,58.01,3.31,-0.34,7.94
-9,-8,4,-26,-339,3923,-0.10,-0.04,8.36,-0.26,-3.39,39.23,-5.22,0.57,57.98,3.66,-0.20,5.96
1,-6,-5,-23,-372,3885,-0.08,-0.08,7.50,-0.23,-3.72,38.85,-5.23,0.56,57.95,3.46,-0.23,5.71
-1,-9,-6,-57,-382,3903,-0.08,-0.12,6.71,-0.57,-3.82,39.03,-5.25,0.57,57.92,3.51,-0.16,4.88
0,-8,-8,-53,-373,3893,-0.07,-0.16,5.99,-0.53,-3.73,38.93,-5.26,0.59,57.90,3.49,-0.18,4.21
-1,-11,-10,-46,-362,3880,-0.07,-0.21,5.33,-0.46,-3.62,38.80,-5.27,0.60,57.87,3.52,-0.12,3.60
-1,-11,-11,-32,-384,3860,-0.07,-0.26,4.73,-0.32,-3.84,38.60,-5.29,0.60,57.86,3.53,-0.10,2.99
2,-4,-7,135,-356,3837,-0.05,-0.26,4.21,1.35,-3.56,38.37,-5.29,0.58,57.84,3.47,-0.23,2.05
-3,2,-13,203,-341,3970,-0.06,-0.22,3.71,2.03,-3.41,39.70,-5.29,0.56,57.82,3.57,-0.35,1.97
-6,-4,-8,-27,-225,3936,-0.09,-0.22,3.29,-0.27,-2.25,39.36,-5.27,0.56,57.81,3.63,-0.23,1.06
-2,0,-24,13,-179,3869,-0.10,-0.20,2.82,0.13,-1.79,38.69,-5.25,0.56,57.80,3.53,-0.31,1.86
4,-3,-55,11,-240,3860,-0.06,-0.20,2.20,0.11,-2.40,38.60,-5.24,0.55,57.79,3.39,-0.25,3.76
1,4,-66,-67,-315,3891,-0.05,-0.15,1.58,-0.67,-3.15,38.91,-5.22,0.56,57.78,3.44,-0.41,3.97
9,24,-21,-81,-739,3845,0.01,0.01,1.29,-0.81,-7.39,38.45,-5.24,0.56,57.78,3.27,-0.86,-0.18
10,21,58,5,-951,3940,0.07,0.14,1.52,0.05,-9.51,39.40,-5.26,0.56,57.77,3.25,-0.83,-6.61
4,23,363,-50,-839,3916,0.09,0.26,3.58,-0.50,-8.39,39.16,-5.28,0.56,57.76,3.38,-0.91,-20.00
-7,3,429,-63,-831,4016,0.04,0.25,5.84,-0.63,-8.31,40.16,-5.29,0.57,57.74,3.63,-0.51,-20.00
-9,3,676,43,-673,3954,-0.02,0.25,9.38,0.43,-6.73,39.54,-5.31,0.57,57.70,3.69,-0.50,-20.00
-14,17,718,-12,-605,3763,-0.11,0.33,12.82,-0.12,-6.05,37.63,-5.33,0.57,57.65,3.83,-0.81,-20.00
-28,18,846,-9,-507,3871,-0.27,0.40,16.70,-0.09,-5.07,38.71,-5.35,0.58,57.58,4.17,-0.86,-20.00
-7,25,869,-14,-403,3871,-0.28,0.52,20.33,-0.14,-4.03,38.71,-5.36,0.58,57.50,3.76,-1.03,-20.00
-31,0,983,19,-511,3866,-0.44,0.46,24.29,0.19,-5.11,38.66,-5.38,0.58,57.41,4.30,-0.51,-20.00
-16,21,1018,-68,-497,3887,-0.50,0.55,28.07,-0.68,-4.97,38.87,-5.40,0.60,57.29,4.02,-0.97,-20.00
20,28,1072,-15,-379,4051,-0.32,0.66,31.81,-0.15,-3.79,40.51,-5.40,0.59,57.17,3.24,-1.14,-20.00
-20,17,1083,17,-401,3752,-0.41,0.70,35.23,0.17,-4.01,37.52,-5.41,0.60,57.03,4.09,-0.93,-20.00
-23,17,1190,-20,-396,3776,-0.51,0.73,38.97,-0.20,-3.96,37.76,-5.43,0.61,56.87,4.19,-0.94,-20.00
-23,29,1234,-41,-457,3879,-0.60,0.84,42.60,-0.41,-4.57,38.79,-5.45,0.62,56.70,4.23,-1.23,-20.00
-5,29,1380,-156,-489,3946,-0.57,0.93,46.76,-1.56,-4.89,39.46,-5.46,0.66,56.52,3.86,-1.28,-20.00
-27,10,1411,-121,-552,3921,-0.68,0.90,50.69,-1.21,-5.52,39.21,-5.48,0.69,56.32,4.35,-0.90,-20.00
-31,11,1502,-207,-474,3887,-0.80,0.88,54.78,-2.07,-4.74,38.87,-5.49,0.73,56.10,4.47,-0.94,-20.00
-19,24,1504,-189,-473,3935,-0.84,0.93,58.48,-1.89,-4.73,39.35,-5.50,0.77,55.87,4.24,-1.25,-20.00
-17,31,1467,-139,-385,3918,-0.86,1.03,61.58,-1.39,-3.85,39.18,-5.50,0.82,55.62,4.21,-1.45,-20.00
-5,29,1435,-142,-256,3847,-0.80,1.10,64.17,-1.42,-2.56,38.47,-5.48,0.86,55.37,3.94,-1.46,-20.00
-4,32,1369,-120,-177,3863,-0.75,1.19,66.11,-1.20,-1.77,38.63,-5.46,0.89,55.10,3.89,-1.56,-20.00
-15,20,1342,-59,-229,3952,-0.76,1.19,67.68,-0.59,-2.29,39.52,-5.45,0.92,54.83,4.11,-1.34,-20.00
-33,10,1305,-84,-87,3882,-0.89,1.13,68.88,-0.84,-0.87,38.82,-5.43,0.95,54.56,4.49,-1.14,-20.00
0,18,1296,-72,-162,3853,-0.80,1.13,69.89,-0.72,-1.62,38.53,-5.41,0.99,54.28,3.79,-1.32,-20.00
-26,11,1235,-44,-237,3833,-0.88,1.08,70.44,-0.44,-2.37,38.33,-5.39,1.01,54.00,4.32,-1.19,-20.00
-12,21,1211,-47,-274,3964,-0.86,1.10,70.78,-0.47,-2.74,39.64,-5.37,1.04,53.72,4.02,-1.41,-20.00
-6,17,1136,-39,-294,4021,-0.81,1.10,70.63,-0.39,-2.94,40.21,-5.35,1.06,53.44,3.87,-1.35,-16.89
-24,14,1141,78,-297,3847,-0.88,1.07,70.53,0.78,-2.97,38.47,-5.34,1.08,53.16,4.25,-1.29,-17.42
-22,18,1181,102,-413,3753,-0.92,1.08,70.68,1.02,-4.13,37.53,-5.34,1.09,52.88,4.23,-1.38,-20.00
-26,25,1203,-33,-440,3972,-0.99,1.12,70.95,-0.33,-4.40,39.72,-5.36,1.11,52.59,4.34,-1.55,-20.00
-31,7,1201,30,-412,3997,-1.08,1.05,71.18,0.30,-4.12,39.97,-5.36,1.13,52.31,4.46,-1.17,-20.00
-37,9,1200,-55,-467,3851,-1.20,1.00,71.38,-0.55,-4.67,38.51,-5.38,1.15,52.03,4.63,-1.22,-20.00
-18,13,1250,-23,-351,3816,-1.19,0.98,71.87,-0.23,-3.51,38.16,-5.38,1.17,51.74,4.24,-1.30,-20.00
-25,24,1272,-27,-453,3956,-1.22,1.03,72.44,-0.27,-4.53,39.56,-5.39,1.19,51.45,4.40,-1.55,-20.00
-24,28,1241,36,-298,3905,-1.25,1.10,72.77,0.36,-2.98,39.05,-5.38,1.20,51.16,4.38,-1.66,-20.00
-6,10,1193,-97,-279,3981,-1.16,1.05,72.77,-0.97,-2.79,39.81,-5.36,1.24,50.87,3.98,-1.30,-19.07
-15,11,1063,-81,-269,3899,-1.13,1.01,71.98,-0.81,-2.69,38.99,-5.34,1.27,50.59,4.14,-1.33,-8.96
-18,16,1014,-163,-330,3887,-1.13,1.01,70.96,-1.63,-3.30,38.87,-5.33,1.31,50.31,4.19,-1.47,-5.98
-15,26,961,-116,-385,3902,-1.11,1.06,69.73,-1.16,-3.85,39.02,-5.34,1.36,50.03,4.13,-1.72,-2.91
-14,23,947,-68,-367,3834,-1.08,1.10,68.53,-0.68,-3.67,38.34,-5.34,1.37,49.76,4.11,-1.67,-3.11
-3,20,887,81,-231,3908,-0.99,1.11,67.09,0.81,-2.31,39.08,-5.33,1.39,49.49,3.85,-1.62,0.30
-55,0,849,-99,-229,3837,-1.23,1.00,65.56,-0.99,-2.29,38.37,-5.31,1.41,49.23,4.96,-1.21,1.75
-5,29,760,-107,-370,3821,-1.14,1.08,63.64,-1.07,-3.70,38.21,-5.32,1.45,48.97,3.93,-1.84,7.06
-34,-10,742,-105,-418,4028,-1.23,0.91,61.80,-1.05,-4.18,40.28,-5.34,1.48,48.73,4.55,-1.02,6.45
-4,-8,701,-147,-390,3825,-1.13,0.77,59.90,-1.47,-3.90,38.25,-5.35,1.52,48.49,3.92,-1.05,7.71
0,7,705,-82,-499,3845,-1.02,0.73,58.21,-0.82,-4.99,38.45,-5.37,1.54,48.26,3.82,-1.36,5.42
1,19,749,-181,-483,3938,-0.91,0.78,56.96,-1.81,-4.83,39.38,-5.38,1.58,48.03,3.78,-1.64,0.24
-9,11,770,-63,-480,3993,-0.87,0.77,55.96,-0.63,-4.80,39.93,-5.39,1.60,47.81,3.98,-1.49,-2.70
-26,5,749,-81,-290,3966,-0.95,0.72,54.93,-0.81,-2.90,39.66,-5.37,1.61,47.59,4.33,-1.36,-2.10
-5,4,736,-50,-249,3869,-0.88,0.67,53.93,-0.50,-2.49,38.69,-5.35,1.63,47.38,3.88,-1.34,-2.16
-20,4,659,-59,-197,3806,-0.92,0.63,52.56,-0.59,-1.97,38.06,-5.33,1.64,47.17,4.18,-1.34,2.77
-22,11,622,-96,-220,3907,-0.96,0.63,51.09,-0.96,-2.20,39.07,-5.31,1.66,46.96,4.22,-1.49,4.21
-22,10,534,-113,-344,3949,-1.00,0.63,49.24,-1.13,-3.44,39.49,-5.29,1.68,46.77,4.21,-1.49,9.51
2,5,522,48,-274,3946,-0.88,0.60,47.50,0.48,-2.74,39.46,-5.28,1.69,46.58,3.69,-1.38,8.50
-20,2,547,-57,-469,3866,-0.92,0.55,46.09,-0.57,-4.69,38.66,-5.30,1.70,46.40,4.15,-1.31,4.75
-21,14,540,-93,-451,3934,-0.95,0.58,44.77,-0.93,-4.51,39.34,-5.31,1.71,46.22,4.19,-1.57,3.81
-20,9,578,34,-487,3937,-0.98,0.58,43.82,0.34,-4.87,39.37,-5.32,1.72,46.04,4.19,-1.47,-0.51
-8,7,604,50,-494,3908,-0.93,0.56,43.12,0.50,-4.94,39.08,-5.33,1.72,45.87,3.94,-1.43,-3.52
-18,12,663,70,-363,3865,-0.95,0.58,42.86,0.70,-3.63,38.65,-5.33,1.72,45.70,4.14,-1.54,-8.82
-18,7,664,-16,-315,3944,-0.96,0.56,42.62,-0.16,-3.15,39.44,-5.32,1.72,45.53,4.14,-1.43,-9.17
-24,8,681,47,-418,3899,-1.01,0.56,42.51,0.47,-4.18,38.99,-5.33,1.72,45.36,4.28,-1.45,-10.72
-30,5,665,-33,-421,3880,-1.10,0.53,42.32,-0.33,-4.21,38.80,-5.34,1.72,45.19,4.43,-1.38,-9.59
5,19,668,-33,-454,3912,-0.96,0.59,42.16,-0.33,-4.54,39.12,-5.35,1.73,45.03,3.69,-1.69,-10.01
-2,20,679,80,-526,3820,-0.87,0.66,42.09,0.80,-5.26,38.20,-5.36,1.73,44.86,3.82,-1.73,-11.02
1,5,674,-26,-375,3909,-0.78,0.62,41.99,-0.26,-3.75,39.09,-5.36,1.73,44.69,3.73,-1.42,-10.70
-28,3,663,-48,-379,3836,-0.87,0.58,41.83,-0.48,-3.79,38.36,-5.36,1.73,44.53,4.35,-1.36,-9.94
-19,14,614,-185,-363,3845,-0.90,0.61,41.40,-1.85,-3.63,38.45,-5.36,1.77,44.36,4.17,-1.62,-6.29
-11,-3,639,-135,-343,4020,-0.88,0.53,41.16,-1.35,-3.43,40.20,-5.34,1.79,44.20,3.99,-1.27,-8.68
-27,1,648,-68,-337,3902,-0.95,0.48,40.99,-0.68,-3.37,39.02,-5.33,1.79,44.03,4.33,-1.34,-9.63
-8,21,654,-142,-279,3933,-0.91,0.56,40.88,-1.42,-2.79,39.33,-5.31,1.81,43.87,3.92,-1.78,-10.25
-11,21,674,-114,-350,3919,-0.88,0.63,40.91,-1.14,-3.50,39.19,-5.30,1.82,43.71,3.96,-1.80,-11.91
-8,19,678,-69,-358,3875,-0.84,0.68,40.95,-0.69,-3.58,38.75,-5.30,1.82,43.54,3.89,-1.78,-12.19
-21,10,660,-11,-296,3813,-0.89,0.68,40.88,-0.11,-2.96,38.13,-5.29,1.82,43.38,4.16,-1.59,-10.73
-10,5,671,-151,-243,3913,-0.86,0.64,40.89,-1.51,-2.43,39.13,-5.27,1.84,43.22,3.91,-1.49,-11.65
-1,2,666,-123,-264,3896,-0.78,0.59,40.86,-1.23,-2.64,38.96,-5.24,1.86,43.06,3.69,-1.43,-11.25
-15,11,671,-96,-249,3923,-0.79,0.60,40.87,-0.96,-2.49,39.23,-5.23,1.87,42.89,3.97,-1.62,-11.65
-23,-3,712,-55,-508,3860,-0.85,0.52,41.12,-0.55,-5.08,38.60,-5.24,1.88,42.73,4.16,-1.32,-14.82
-15,7,730,-56,-415,3791,-0.86,0.51,41.46,-0.56,-4.15,37.91,-5.25,1.89,42.56,4.01,-1.53,-15.93
-7,4,853,123,-522,3605,-0.82,0.48,42.52,1.23,-5.22,36.05,-5.26,1.89,42.40,3.84,-1.46,-20.00
-17,12,848,-155,-500,4057,-0.84,0.51,43.44,-1.55,-5.00,40.57,-5.28,1.91,42.22,4.06,-1.64,-20.00
-12,22,901,-79,-399,3945,-0.83,0.59,44.59,-0.79,-3.99,39.45,-5.28,1.91,42.05,3.96,-1.87,-20.00
3,2,907,-124,-410,4093,-0.73,0.54,45.67,-1.24,-4.10,40.93,-5.30,1.93,41.86,3.63,-1.46,-20.00
-1,-14,1017,-205,-264,4021,-0.66,0.40,47.30,-2.05,-2.64,40.21,-5.28,1.95,41.68,3.68,-1.12,-20.00
-22,4,1056,-50,-329,3892,-0.73,0.39,49.02,-0.50,-3.29,38.92,-5.27,1.96,41.48,4.12,-1.48,-20.00
-7,12,1103,23,-274,3898,-0.70,0.42,50.84,0.23,-2.74,38.98,-5.25,1.96,41.28,3.80,-1.65,-20.00
-31,2,1113,-157,-301,3795,-0.82,0.39,52.55,-1.57,-3.01,37.95,-5.23,1.99,41.07,4.31,-1.46,-20.00
-12,-3,1075,-85,-144,3916,-0.81,0.34,53.85,-0.85,-1.44,39.16,-5.21,2.01,40.85,3.90,-1.36,-20.00
-38,4,1075,-79,-370,3822,-0.96,0.33,55.02,-0.79,-3.70,38.22,-5.22,2.01,40.63,4.48,-1.50,-20.00
25,29,1058,-103,-351,3796,-0.71,0.47,55.97,-1.03,-3.51,37.96,-5.21,2.02,40.41,3.13,-2.05,-20.00
-19,11,1060,-114,-507,4019,-0.76,0.49,56.84,-1.14,-5.07,40.19,-5.23,2.03,40.19,4.04,-1.70,-20.00
-35,11,1091,12,-594,3848,-0.89,0.51,57.81,0.12,-5.94,38.48,-5.24,2.05,39.96,4.41,-1.71,-20.00
-30,20,1087,94,-603,3785,-0.99,0.58,58.66,0.94,-6.03,37.85,-5.25,2.06,39.72,4.34,-1.92,-20.00
3,36,1068,13,-460,3812,-0.87,0.74,59.31,0.13,-4.60,38.12,-5.25,2.07,39.49,3.64,-2.30,-20.00
-24,24,1057,-15,-463,3776,-0.93,0.81,59.83,-0.15,-4.63,37.76,-5.26,2.08,39.25,4.21,-2.08,-20.00
-35,20,1017,-173,-253,3803,-1.05,0.85,60.05,-1.73,-2.53,38.03,-5.24,2.11,39.01,4.45,-2.03,-18.31
-24,35,987,-137,-363,4021,-1.09,0.98,60.06,-1.37,-3.63,40.21,-5.23,2.12,38.77,4.23,-2.38,-15.74
-13,25,927,-8,-571,4081,-1.06,1.04,59.71,-0.08,-5.71,40.81,-5.24,2.14,38.53,4.01,-2.20,-11.05
-33,-16,905,33,-593,3817,-1.16,0.84,59.26,0.33,-5.93,38.17,-5.25,2.15,38.30,4.45,-1.32,-9.70
-11,25,896,-148,-486,3717,-1.11,0.90,58.80,-1.48,-4.86,37.17,-5.26,2.18,38.06,4.00,-2.19,-9.46
-12,24,876,55,-706,3939,-1.07,0.96,58.26,0.55,-7.06,39.39,-5.27,2.19,37.83,4.01,-2.20,-8.38
-36,13,788,0,-621,3785,-1.18,0.94,57.25,0.00,-6.21,37.85,-5.28,2.21,37.61,4.54,-1.98,-2.10
-23,4,743,-103,-599,4002,-1.21,0.87,56.05,-1.03,-5.99,40.02,-5.30,2.23,37.38,4.29,-1.79,0.33
-6,23,657,60,-601,3807,-1.12,0.93,54.46,0.60,-6.01,38.07,-5.31,2.24,37.17,3.93,-2.20,5.76
11,25,641,-47,-566,3868,-0.94,0.99,52.92,-0.47,-5.66,38.68,-5.32,2.26,36.96,3.54,-2.27,5.33
-21,8,563,-20,-323,3813,-0.98,0.94,51.06,-0.20,-3.23,38.13,-5.31,2.26,36.75,4.20,-1.91,9.78
-21,9,543,-115,-360,3977,-1.01,0.90,49.27,-1.15,-3.60,39.77,-5.30,2.27,36.56,4.20,-1.92,9.39
17,0,365,175,-208,4113,-0.80,0.81,46.57,1.75,-2.08,41.13,-5.29,2.27,36.37,3.36,-1.72,20.00
16,0,337,237,-551,3765,-0.62,0.73,43.97,2.37,-5.51,37.65,-5.29,2.27,36.20,3.34,-1.70,20.00
8,29,500,89,-929,3833,-0.51,0.83,42.62,0.89,-9.29,38.33,-5.31,2.28,36.03,3.48,-2.32,5.30
3,38,609,121,-644,3857,-0.44,0.98,42.07,1.21,-6.44,38.57,-5.31,2.29,35.86,3.57,-2.55,-4.57
-15,17,587,-41,-360,3921,-0.49,0.99,41.45,-0.41,-3.60,39.21,-5.31,2.29,35.70,3.94,-2.13,-3.43
0,14,567,16,-395,3853,-0.44,0.97,40.76,0.16,-3.95,38.53,-5.31,2.29,35.53,3.62,-2.06,-2.53
-20,11,597,-79,-442,3891,-0.52,0.94,40.33,-0.79,-4.42,38.91,-5.32,2.30,35.37,4.06,-2.00,-5.56
-3,8,595,-54,-299,3974,-0.49,0.90,39.92,-0.54,-2.99,39.74,-5.30,2.30,35.22,3.69,-1.93,-5.86
12,18,606,-47,-378,3879,-0.36,0.92,39.63,-0.47,-3.78,38.79,-5.30,2.30,35.06,3.35,-2.14,-7.13
-8,16,625,-76,-431,3919,-0.38,0.92,39.48,-0.76,-4.31,39.19,-5.31,2.31,34.90,3.77,-2.10,-8.90
-40,10,661,-41,-411,3804,-0.58,0.89,39.56,-0.41,-4.11,38.04,-5.31,2.31,34.74,4.48,-1.97,-11.84
-11,30,668,-57,-501,3922,-0.59,0.99,39.68,-0.57,-5.01,39.22,-5.32,2.32,34.59,3.90,-2.41,-12.29
-21,25,699,-48,-435,3852,-0.66,1.04,39.98,-0.48,-4.35,38.52,-5.33,2.32,34.43,4.12,-2.32,-14.56
-29,3,706,-11,-333,3866,-0.77,0.95,40.29,-0.11,-3.33,38.66,-5.32,2.32,34.27,4.31,-1.85,-14.78
-36,7,701,-75,-374,3777,-0.91,0.90,40.53,-0.75,-3.74,37.77,-5.32,2.32,34.11,4.50,-1.92,-14.06
20,28,702,-56,-348,4037,-0.70,0.98,40.76,-0.56,-3.48,40.37,-5.32,2.32,33.94,3.29,-2.37,-13.87
-32,23,789,-144,-603,3995,-0.83,1.02,41.50,-1.44,-6.03,39.95,-5.33,2.34,33.78,4.39,-2.29,-20.00
30,20,802,-34,-382,4020,-0.56,1.04,42.24,-0.34,-3.82,40.20,-5.33,2.34,33.61,3.06,-2.24,-20.00
-25,-2,874,6,-488,3979,-0.66,0.93,43.35,0.06,-4.88,39.79,-5.33,2.35,33.44,4.21,-1.76,-20.00
-22,25,890,-21,-248,3698,-0.73,0.99,44.44,-0.21,-2.48,36.98,-5.32,2.35,33.26,4.15,-2.33,-20.00
-9,25,847,-77,-441,3814,-0.71,1.04,45.16,-0.77,-4.41,38.14,-5.33,2.36,33.08,3.89,-2.35,-20.00
-43,13,822,-52,-281,3910,-0.90,1.02,45.66,-0.52,-2.81,39.10,-5.31,2.37,32.90,4.63,-2.10,-18.24
-6,10,695,-121,-325,3919,-0.85,0.98,45.34,-1.21,-3.25,39.19,-5.30,2.37,32.72,3.85,-2.04,-7.85
2,15,679,-90,-417,3881,-0.75,0.97,44.94,-0.90,-4.17,38.81,-5.30,2.38,32.54,3.66,-2.14,-6.94
-34,2,631,-56,-492,3854,-0.88,0.88,44.30,-0.56,-4.92,38.54,-5.31,2.39,32.37,4.44,-1.86,-3.62
-14,4,648,-81,-505,3838,-0.88,0.82,43.82,-0.81,-5.05,38.38,-5.33,2.40,32.19,4.04,-1.89,-5.61
-20,-1,706,-85,-442,3810,-0.91,0.73,43.75,-0.85,-4.42,38.10,-5.34,2.41,32.02,4.18,-1.77,-10.60
-34,17,720,-132,-569,3832,-1.03,0.76,43.76,-1.32,-5.69,38.32,-5.35,2.42,31.85,4.50,-2.15,-11.76
2,28,714,132,-277,3918,-0.91,0.86,43.74,1.32,-2.77,39.18,-5.34,2.43,31.67,3.73,-2.40,-11.26
-4,18,708,-168,-542,3944,-0.85,0.88,43.69,-1.68,-5.42,39.44,-5.36,2.45,31.50,3.85,-2.22,-10.81
7,27,671,-169,-300,3933,-0.72,0.96,43.41,-1.69,-3.00,39.33,-5.33,2.47,31.33,3.57,-2.44,-7.98
-10,-2,644,-52,-233,3929,-0.71,0.85,43.00,-0.52,-2.33,39.29,-5.31,2.47,31.15,3.90,-1.82,-6.17
-8,15,544,-131,-370,3930,-0.69,0.86,42.02,-1.31,-3.70,39.30,-5.31,2.47,30.99,3.86,-2.17,1.17
5,22,524,-88,-327,3888,-0.59,0.91,41.01,-0.88,-3.27,38.88,-5.30,2.48,30.82,3.56,-2.33,1.69
-10,12,512,-77,-469,3868,-0.59,0.89,40.03,-0.77,-4.69,38.68,-5.31,2.48,30.67,3.87,-2.12,1.58
-4,30,502,-201,-570,3857,-0.56,0.98,39.09,-2.01,-5.70,38.57,-5.32,2.50,30.51,3.75,-2.53,1.33
-6,21,467,-129,-381,3830,-0.54,1.01,38.03,-1.29,-3.81,38.30,-5.33,2.51,30.36,3.78,-2.36,3.07
-10,25,458,-2,-426,3955,-0.54,1.06,37.02,-0.02,-4.26,39.55,-5.33,2.51,30.21,3.87,-2.45,2.66
4,31,460,-184,-456,3940,-0.46,1.15,36.13,-1.84,-4.56,39.40,-5.34,2.53,30.07,3.57,-2.61,1.45
3,21,471,-150,-489,3873,-0.40,1.16,35.39,-1.50,-4.89,38.73,-5.36,2.54,29.93,3.58,-2.42,-0.34
1,27,526,-80,-366,3925,-0.35,1.21,35.06,-0.80,-3.66,39.25,-5.35,2.54,29.79,3.61,-2.56,-5.37
-15,29,514,-267,-407,3927,-0.41,1.26,34.69,-2.67,-4.07,39.27,-5.35,2.58,29.65,3.95,-2.63,-4.78
-23,21,497,5,-340,3993,-0.51,1.27,34.25,0.05,-3.40,39.93,-5.35,2.58,29.52,4.14,-2.47,-3.84
-7,4,539,-43,-514,3796,-0.50,1.16,34.11,-0.43,-5.14,37.96,-5.36,2.58,29.38,3.81,-2.10,-7.55
-20,19,610,61,-531,3818,-0.57,1.16,34.42,0.61,-5.31,38.18,-5.36,2.58,29.25,4.10,-2.41,-13.20
-10,16,625,47,-484,3874,-0.58,1.14,34.79,0.47,-4.84,38.74,-5.37,2.59,29.11,3.90,-2.34,-14.03
-17,9,663,77,-484,3912,-0.62,1.08,35.36,0.77,-4.84,39.12,-5.37,2.59,28.97,4.06,-2.19,-16.58
-16,11,671,111,-457,3854,-0.66,1.04,35.91,1.11,-4.57,38.54,-5.37,2.59,28.83,4.05,-2.22,-16.60
6,25,725,-14,-433,3969,-0.56,1.09,36.75,-0.14,-4.33,39.69,-5.38,2.59,28.68,3.58,-2.51,-20.00
-25,-1,744,14,-400,3905,-0.65,0.98,37.61,0.14,-4.00,39.05,-5.38,2.59,28.53,4.23,-1.95,-20.00
-25,19,783,34,-479,3949,-0.74,0.99,38.63,0.34,-4.79,39.49,-5.38,2.59,28.38,4.26,-2.37,-20.00
-21,11,806,29,-482,3861,-0.79,0.96,39.68,0.29,-4.82,38.61,-5.38,2.59,28.22,4.20,-2.20,-20.00
-12,38,866,-7,-662,3984,-0.79,1.10,40.99,-0.07,-6.62,39.84,-5.40,2.60,28.06,4.02,-2.79,-20.00
-49,28,923,96,-447,4068,-1.01,1.16,42.52,0.96,-4.47,40.68,-5.40,2.61,27.89,4.83,-2.61,-20.00
-27,28,918,-60,-547,3842,-1.07,1.21,43.87,-0.60,-5.47,38.42,-5.41,2.62,27.71,4.41,-2.63,-20.00
-23,13,924,8,-470,3930,-1.10,1.17,45.12,0.08,-4.70,39.30,-5.41,2.62,27.54,4.34,-2.31,-20.00
-20,14,915,-131,-331,3861,-1.12,1.14,46.19,-1.31,-3.31,38.61,-5.40,2.63,27.35,4.27,-2.33,-20.00
-8,5,912,-107,-304,3928,-1.05,1.06,47.13,-1.07,-3.04,39.28,-5.38,2.64,27.16,4.00,-2.13,-20.00
-13,9,938,-54,-344,3936,-1.03,1.01,48.14,-0.54,-3.44,39.36,-5.37,2.64,26.97,4.09,-2.20,-20.00
-6,15,946,-54,-333,3898,-0.96,1.00,49.10,-0.54,-3.33,38.98,-5.36,2.65,26.78,3.92,-2.32,-20.00
-12,15,888,-25,-431,3903,-0.94,0.99,49.61,-0.25,-4.31,39.03,-5.36,2.65,26.58,4.04,-2.33,-18.84
-18,4,864,20,-406,3899,-0.95,0.91,49.92,0.20,-4.06,38.99,-5.36,2.66,26.38,4.17,-2.08,-16.44
-17,-1,808,-21,-363,3875,-0.96,0.82,49.85,-0.21,-3.63,38.75,-5.36,2.66,26.18,4.14,-1.96,-11.75
-12,12,782,-41,-374,3929,-0.94,0.81,49.64,-0.41,-3.74,39.29,-5.35,2.66,25.98,4.03,-2.22,-9.79
-21,3,788,-49,-528,3934,-0.97,0.75,49.48,-0.49,-5.28,39.34,-5.36,2.67,25.79,4.23,-2.03,-10.47
-28,2,804,-57,-521,3762,-1.05,0.68,49.44,-0.57,-5.21,37.62,-5.37,2.68,25.59,4.40,-2.00,-11.87
-35,-12,768,4,-473,3832,-1.16,0.54,49.18,0.04,-4.73,38.32,-5.38,2.69,25.40,4.58,-1.68,-9.11
-22,-8,772,-82,-491,3932,-1.17,0.44,48.97,-0.82,-4.91,39.32,-5.39,2.70,25.20,4.32,-1.74,-9.68
-17,8,781,-20,-327,3823,-1.16,0.44,48.84,-0.20,-3.27,38.23,-5.38,2.70,25.01,4.21,-2.07,-10.58
-21,9,769,-181,-266,3982,-1.17,0.45,48.64,-1.81,-2.66,39.82,-5.35,2.72,24.81,4.28,-2.10,-9.78
-26,14,792,-176,-475,3854,-1.21,0.49,48.61,-1.76,-4.75,38.54,-5.37,2.74,24.62,4.40,-2.23,-11.76
-7,19,788,-67,-371,3938,-1.14,0.56,48.56,-0.67,-3.71,39.38,-5.36,2.74,24.43,3.99,-2.35,-11.47
-6,17,791,-179,-439,3914,-1.06,0.61,48.53,-1.79,-4.39,39.14,-5.38,2.76,24.23,3.96,-2.33,-11.75
-1,25,798,-146,-460,3901,-0.96,0.70,48.54,-1.46,-4.60,39.01,-5.39,2.77,24.04,3.84,-2.53,-12.31
-16,25,799,-190,-395,3911,-0.96,0.78,48.56,-1.90,-3.95,39.11,-5.40,2.79,23.85,4.15,-2.56,-12.36
-10,9,792,-187,-464,3883,-0.93,0.76,48.54,-1.87,-4.64,38.83,-5.41,2.81,23.66,4.03,-2.25,-11.79
-29,9,798,-100,-361,4007,-1.01,0.74,48.55,-1.00,-3.61,40.07,-5.40,2.82,23.46,4.43,-2.24,-12.27
-9,11,800,-29,-475,3942,-0.96,0.73,48.58,-0.29,-4.75,39.42,-5.41,2.82,23.27,4.02,-2.29,-12.39
2,6,814,-253,-418,3801,-0.86,0.69,48.68,-2.53,-4.18,38.01,-5.41,2.86,23.08,3.77,-2.20,-13.44
-17,25,836,-185,-472,3933,-0.87,0.78,48.91,-1.85,-4.72,39.33,-5.43,2.88,22.88,4.17,-2.62,-15.03
-23,-4,870,69,-526,3859,-0.93,0.68,49.33,0.69,-5.26,38.59,-5.43,2.88,22.69,4.30,-2.00,-17.41
-26,33,882,-177,-611,3830,-0.99,0.81,49.78,-1.77,-6.11,38.30,-5.44,2.90,22.49,4.39,-2.81,-17.89
-23,15,952,177,-540,4124,-1.03,0.82,50.61,1.77,-5.40,41.24,-5.44,2.91,22.29,4.34,-2.45,-20.00
-38,-20,947,-27,-427,3804,-1.16,0.62,51.32,-0.27,-4.27,38.04,-5.44,2.91,22.08,4.68,-1.68,-20.00
-32,14,906,16,-477,3955,-1.24,0.64,51.72,0.16,-4.77,39.55,-5.45,2.92,21.88,4.58,-2.38,-17.62
-12,15,913,-4,-505,3858,-1.19,0.67,52.11,-0.04,-5.05,38.58,-5.45,2.92,21.67,4.17,-2.42,-17.74
-32,14,1007,-139,-496,3861,-1.27,0.69,53.05,-1.39,-4.96,38.61,-5.46,2.94,21.46,4.60,-2.41,-20.00
-42,0,1045,-43,-511,3853,-1.40,0.62,54.12,-0.43,-5.11,38.53,-5.47,2.95,21.25,4.84,-2.11,-20.00
-79,17,1127,-98,-616,3787,-1.74,0.66,55.58,-0.98,-6.16,37.87,-5.48,2.97,21.03,5.70,-2.48,-20.00
-2,20,1131,-23,-418,4057,-1.58,0.72,56.92,-0.23,-4.18,40.57,-5.48,2.97,20.80,4.09,-2.56,-20.00
-12,21,1120,-88,-426,4018,-1.49,0.77,58.06,-0.88,-4.26,40.18,-5.48,2.98,20.57,4.27,-2.60,-20.00
6,-2,1107,-91,-264,3861,-1.31,0.68,59.01,-0.91,-2.64,38.61,-5.46,2.99,20.33,3.84,-2.12,-20.00
-19,46,1025,62,-584,3975,-1.29,0.89,59.36,0.62,-5.84,39.75,-5.46,3.00,20.10,4.34,-3.16,-18.66
0,23,985,67,-273,3820,-1.16,0.95,59.43,0.67,-2.73,38.20,-5.45,3.01,19.86,3.91,-2.71,-15.17
-10,22,841,125,-423,3907,-1.11,0.99,58.62,1.25,-4.23,39.07,-5.44,3.02,19.63,4.10,-2.71,-3.91
-10,24,786,93,-481,3843,-1.06,1.03,57.55,0.93,-4.81,38.43,-5.44,3.03,19.40,4.08,-2.77,-0.48
-11,11,568,-52,-402,3921,-1.02,1.00,55.26,-0.52,-4.02,39.21,-5.44,3.04,19.18,4.09,-2.50,15.32
-2,3,537,-38,-458,3882,-0.93,0.92,53.01,-0.38,-4.58,38.82,-5.44,3.04,18.97,3.88,-2.32,15.33
-15,3,503,25,-562,3863,-0.93,0.84,50.78,0.25,-5.62,38.63,-5.44,3.05,18.77,4.15,-2.31,15.61
-9,9,451,6,-406,3945,-0.89,0.81,48.45,0.06,-4.06,39.45,-5.44,3.06,18.57,4.02,-2.42,17.31
-21,15,367,5,-505,3873,-0.93,0.82,45.84,0.05,-5.05,38.73,-5.44,3.06,18.39,4.27,-2.55,20.00
9,32,368,-149,-446,3783,-0.78,0.94,43.50,-1.49,-4.46,37.83,-5.45,3.07,18.22,3.63,-2.93,18.58
-27,7,455,-17,-563,3982,-0.87,0.89,41.93,-0.17,-5.63,39.82,-5.46,3.08,18.05,4.39,-2.42,9.38
-1,15,518,-93,-622,3772,-0.79,0.89,40.90,-0.93,-6.22,37.72,-5.47,3.09,17.89,3.85,-2.59,2.84
-1,19,588,-18,-441,3979,-0.71,0.92,40.39,-0.18,-4.41,39.79,-5.47,3.09,17.73,3.82,-2.68,-3.66
-5,13,611,-67,-417,3943,-0.67,0.90,40.08,-0.67,-4.17,39.43,-5.47,3.09,17.57,3.89,-2.55,-5.97
-11,18,647,-117,-348,3881,-0.67,0.92,40.02,-1.17,-3.48,38.81,-5.46,3.09,17.41,4.01,-2.66,-9.08
2,35,663,-152,-490,3730,-0.59,1.04,40.06,-1.52,-4.90,37.30,-5.47,3.11,17.25,3.73,-3.05,-10.38
-37,13,632,-31,-406,3901,-0.76,1.02,39.91,-0.31,-4.06,39.01,-5.47,3.11,17.10,4.57,-2.59,-7.92
-10,23,616,22,-466,3818,-0.75,1.06,39.68,0.22,-4.66,38.18,-5.47,3.11,16.94,4.02,-2.81,-6.83
3,18,541,49,-380,3905,-0.65,1.06,39.01,0.49,-3.80,39.05,-5.46,3.11,16.78,3.72,-2.71,-1.24
-10,2,522,48,-454,3881,-0.65,0.97,38.29,0.48,-4.54,38.81,-5.46,3.11,16.63,3.99,-2.36,-0.46
-18,-3,434,-16,-386,3761,-0.69,0.85,37.11,-0.16,-3.86,37.61,-5.46,3.11,16.48,4.16,-2.23,5.62
-9,3,413,8,-407,3979,-0.68,0.79,35.92,0.08,-4.07,39.79,-5.46,3.11,16.34,3.97,-2.33,6.02
1,15,385,26,-488,4013,-0.60,0.80,34.68,0.26,-4.88,40.13,-5.46,3.11,16.20,3.75,-2.58,6.94
-8,8,383,58,-502,3844,-0.59,0.77,33.54,0.58,-5.02,38.44,-5.46,3.11,16.07,3.93,-2.42,5.80
-7,3,284,47,-437,3942,-0.58,0.71,31.92,0.47,-4.37,39.42,-5.46,3.11,15.94,3.90,-2.30,12.30
-3,-7,262,71,-507,3847,-0.54,0.60,30.33,0.71,-5.07,38.47,-5.47,3.10,15.82,3.81,-2.07,12.30
-3,9,259,79,-561,3831,-0.50,0.59,28.88,0.79,-5.61,38.31,-5.47,3.10,15.71,3.81,-2.39,10.87
-1,-6,271,79,-560,3960,-0.46,0.49,27.64,0.79,-5.60,39.60,-5.48,3.10,15.60,3.76,-2.06,8.41
-13,-5,306,62,-537,3853,-0.49,0.41,26.74,0.62,-5.37,38.53,-5.48,3.09,15.49,4.02,-2.05,4.41
-4,6,333,17,-586,3873,-0.47,0.41,26.10,0.17,-5.86,38.73,-5.49,3.09,15.39,3.83,-2.28,1.37
-16,-16,353,-41,-471,3840,-0.52,0.27,25.64,-0.41,-4.71,38.40,-5.50,3.09,15.29,4.09,-1.79,-0.85
-5,-8,387,37,-605,3916,-0.50,0.20,25.44,0.37,-6.05,39.16,-5.51,3.09,15.19,3.87,-1.93,-3.96
-5,-7,466,37,-587,4019,-0.48,0.13,25.74,0.37,-5.87,40.19,-5.51,3.08,15.09,3.87,-1.93,-10.30
-16,1,476,-52,-443,3747,-0.53,0.13,26.07,-0.52,-4.43,37.47,-5.52,3.08,14.98,4.11,-2.08,-10.76
-9,15,486,-38,-480,3915,-0.53,0.20,26.43,-0.38,-4.80,39.15,-5.53,3.07,14.88,3.97,-2.39,-11.18
2,-6,503,52,-414,3940,-0.46,0.15,26.85,0.52,-4.14,39.40,-5.52,3.06,14.77,3.73,-1.94,-12.11
-17,-6,541,163,-450,3772,-0.52,0.10,27.47,1.63,-4.50,37.72,-5.52,3.06,14.66,4.13,-1.92,-14.61
-15,0,556,61,-451,3899,-0.56,0.09,28.11,0.61,-4.51,38.99,-5.53,3.05,14.55,4.10,-2.04,-15.12
-28,-18,566,88,-394,3873,-0.68,-0.03,28.75,0.88,-3.94,38.73,-5.52,3.04,14.43,4.40,-1.63,-15.21
-6,10,583,25,-478,3833,-0.64,0.03,29.43,0.25,-4.78,38.33,-5.53,3.04,14.32,3.95,-2.22,-15.85
-31,-3,574,4,-444,3844,-0.77,0.01,29.99,0.04,-4.44,38.44,-5.53,3.03,14.20,4.49,-1.94,-14.43
-9,-7,601,79,-254,3905,-0.75,-0.03,30.66,0.79,-2.54,39.05,-5.52,3.03,14.08,4.03,-1.85,-15.93
-10,18,624,-36,-623,3880,-0.73,0.08,31.40,-0.36,-6.23,38.80,-5.53,3.03,13.95,4.05,-2.39,-17.00
-1,-14,645,121,-569,4029,-0.67,-0.01,32.19,1.21,-5.69,40.29,-5.53,3.03,13.82,3.85,-1.71,-17.84
5,13,704,-14,-509,4002,-0.57,0.07,33.27,-0.14,-5.09,40.02,-5.54,3.02,13.69,3.71,-2.28,-20.00
-22,7,725,120,-403,4008,-0.65,0.10,34.36,1.20,-4.03,40.08,-5.54,3.02,13.55,4.28,-2.16,-20.00
-5,30,837,-230,-523,3958,-0.61,0.28,36.03,-2.30,-5.23,39.58,-5.55,3.04,13.41,3.93,-2.69,-20.00
-24,36,847,-47,-600,3878,-0.70,0.47,37.60,-0.47,-6.00,38.78,-5.56,3.04,13.26,4.35,-2.87,-20.00
-16,25,899,76,-592,3886,-0.73,0.57,39.32,0.76,-5.92,38.86,-5.56,3.04,13.11,4.20,-2.67,-20.00
-42,39,945,21,-417,3986,-0.91,0.75,41.15,0.21,-4.17,39.86,-5.56,3.04,12.94,4.77,-3.01,-20.00
3,25,1035,-258,-582,3839,-0.80,0.83,43.35,-2.58,-5.82,38.39,-5.57,3.07,12.77,3.84,-2.76,-20.00
-38,-1,1036,-1,-351,3878,-0.95,0.74,45.34,-0.01,-3.51,38.78,-5.56,3.07,12.59,4.70,-2.21,-20.00
-41,23,1034,103,-497,3931,-1.11,0.81,47.11,1.03,-4.97,39.31,-5.57,3.08,12.40,4.81,-2.72,-20.00
-4,26,1017,44,-376,3935,-1.02,0.89,48.60,0.44,-3.76,39.35,-5.56,3.08,12.21,4.03,-2.80,-20.00
-10,15,900,25,-451,3829,-0.98,0.89,49.23,0.25,-4.51,38.29,-5.56,3.09,12.02,4.14,-2.58,-19.42
-12,15,871,-25,-419,3995,-0.95,0.89,49.62,-0.25,-4.19,39.95,-5.55,3.09,11.82,4.17,-2.59,-16.50
0,12,762,121,-510,3818,-0.86,0.88,49.31,1.21,-5.10,38.18,-5.55,3.10,11.62,3.90,-2.53,-7.62
-1,28,761,46,-492,3887,-0.78,0.96,49.02,0.46,-4.92,38.87,-5.55,3.10,11.43,3.90,-2.88,-7.86
-3,18,712,-21,-578,3949,-0.72,0.97,48.46,-0.21,-5.78,39.49,-5.56,3.11,11.24,3.93,-2.68,-4.35
-6,18,722,-30,-542,3850,-0.68,0.99,48.02,-0.30,-5.42,38.50,-5.56,3.12,11.04,3.98,-2.69,-5.70
-19,5,735,-128,-447,3886,-0.73,0.92,47.70,-1.28,-4.47,38.86,-5.57,3.13,10.86,4.26,-2.42,-7.17
-23,-1,724,-136,-381,3907,-0.80,0.82,47.35,-1.36,-3.81,39.07,-5.56,3.13,10.67,4.36,-2.27,-6.64
-28,-16,702,-124,-371,3881,-0.89,0.64,46.89,-1.24,-3.71,38.81,-5.55,3.13,10.48,4.48,-1.92,-5.29
-6,10,673,-199,-454,4085,-0.84,0.64,46.31,-1.99,-4.54,40.85,-5.56,3.15,10.30,4.02,-2.45,-3.50
-2,1,629,-61,-533,3872,-0.77,0.58,45.52,-0.61,-5.33,38.72,-5.57,3.15,10.12,3.92,-2.26,-0.69
-9,11,580,-52,-483,3801,-0.74,0.59,44.50,-0.52,-4.83,38.01,-5.57,3.16,9.94,4.06,-2.47,2.28
3,8,555,64,-605,3914,-0.65,0.58,43.44,0.64,-6.05,39.14,-5.58,3.16,9.77,3.80,-2.41,3.17
-16,1,549,38,-546,3842,-0.68,0.53,42.44,0.38,-5.46,38.42,-5.58,3.17,9.60,4.20,-2.25,2.52
-10,-10,576,-63,-19,4202,-0.68,0.41,41.71,-0.63,-0.19,42.02,-5.56,3.18,9.43,4.06,-2.01,-0.61
-18,30,565,-248,-462,3787,-0.72,0.55,40.99,-2.48,-4.62,37.87,-5.57,3.20,9.27,4.24,-2.87,-0.51
10,17,559,10,-438,4092,-0.59,0.60,40.30,0.10,-4.38,40.92,-5.56,3.20,9.11,3.63,-2.62,-0.80
-6,2,545,114,-517,3846,-0.56,0.55,39.59,1.14,-5.17,38.46,-5.57,3.20,8.95,3.95,-2.31,-0.43
-10,25,599,-159,-474,3763,-0.57,0.65,39.29,-1.59,-4.74,37.63,-5.58,3.21,8.80,4.04,-2.81,-5.35
-12,32,615,-156,-482,4085,-0.58,0.78,39.11,-1.56,-4.82,40.85,-5.58,3.22,8.64,4.09,-2.99,-6.91
6,48,592,-110,-375,3991,-0.49,1.00,38.81,-1.10,-3.75,39.91,-5.57,3.22,8.49,3.69,-3.37,-5.30
-14,20,595,-122,-425,3920,-0.53,1.02,38.56,-1.22,-4.25,39.20,-5.57,3.22,8.33,4.11,-2.81,-5.84
-14,12,600,-62,-414,3731,-0.56,0.99,38.36,-0.62,-4.14,37.31,-5.57,3.22,8.18,4.12,-2.64,-6.48
-14,14,586,-1,-518,3907,-0.59,0.98,38.10,-0.01,-5.18,39.07,-5.58,3.23,8.03,4.13,-2.68,-5.59
-13,30,549,151,-540,3957,-0.61,1.06,37.64,1.51,-5.40,39.57,-5.58,3.23,7.88,4.11,-3.03,-2.99
6,40,529,9,-559,4000,-0.51,1.20,37.10,0.09,-5.59,40.00,-5.58,3.23,7.73,3.70,-3.27,-1.91
18,37,543,-66,-565,3887,-0.35,1.31,36.71,-0.66,-5.65,38.87,-5.59,3.24,7.59,3.42,-3.25,-3.56
6,21,524,194,-467,3813,-0.28,1.30,36.23,1.94,-4.67,38.13,-5.59,3.24,7.45,3.64,-2.92,-2.49
-4,19,512,-20,-530,3933,-0.28,1.29,35.73,-0.20,-5.30,39.33,-5.59,3.25,7.30,3.85,-2.88,-2.05
2,11,529,183,-408,3995,-0.24,1.23,35.38,1.83,-4.08,39.95,-5.58,3.25,7.16,3.71,-2.70,-3.89
-15,3,494,52,-463,3862,-0.30,1.12,34.86,0.52,-4.63,38.62,-5.58,3.25,7.03,4.07,-2.51,-1.53
7,40,493,62,-543,3890,-0.23,1.25,34.38,0.62,-5.43,38.90,-5.59,3.25,6.89,3.61,-3.30,-1.99
3,15,514,-89,-486,3861,-0.19,1.22,34.08,-0.89,-4.86,38.61,-5.59,3.25,6.75,3.68,-2.78,-4.12
-8,11,527,-96,-490,3848,-0.22,1.17,33.89,-0.96,-4.90,38.48,-5.60,3.26,6.62,3.92,-2.69,-5.44
-23,15,569,-118,-320,3964,-0.34,1.14,33.97,-1.18,-3.20,39.64,-5.58,3.26,6.49,4.24,-2.77,-8.89
8,-2,529,59,-219,4061,-0.25,1.01,33.80,0.59,-2.19,40.61,-5.56,3.26,6.35,3.58,-2.39,-5.69
-1,26,557,58,-511,3922,-0.24,1.07,33.82,0.58,-5.11,39.22,-5.56,3.26,6.22,3.76,-2.97,-8.04
-21,5,589,-54,-410,3875,-0.34,0.99,34.03,-0.54,-4.10,38.75,-5.56,3.26,6.08,4.19,-2.52,-10.49
2,40,619,17,-351,4029,-0.29,1.14,34.40,0.17,-3.51,40.29,-5.55,3.26,5.94,3.70,-3.28,-12.59
-16,8,661,-104,-310,3941,-0.36,1.07,34.99,-1.04,-3.10,39.41,-5.54,3.26,5.80,4.08,-2.61,-15.45
-21,30,744,115,-571,3753,-0.45,1.15,36.03,1.15,-5.71,37.53,-5.54,3.27,5.66,4.21,-3.08,-20.00
-2,38,743,140,-570,3940,-0.42,1.27,36.96,1.40,-5.70,39.40,-5.54,3.27,5.52,3.81,-3.28,-20.00
-9,14,723,-5,-467,3852,-0.43,1.23,37.67,-0.05,-4.67,38.52,-5.54,3.27,5.37,3.96,-2.78,-17.54
7,32,718,-78,-242,4007,-0.35,1.30,38.29,-0.78,-2.42,40.07,-5.52,3.28,5.21,3.60,-3.17,-16.39
5,20,642,111,-582,3841,-0.28,1.29,38.37,1.11,-5.82,38.41,-5.52,3.28,5.06,3.62,-2.92,-9.84
-13,27,635,135,-470,3742,-0.33,1.33,38.41,1.35,-4.70,37.42,-5.52,3.28,4.91,4.00,-3.08,-9.20
-12,9,519,14,-321,3787,-0.37,1.25,37.74,0.14,-3.21,37.87,-5.51,3.29,4.76,3.98,-2.69,-0.15
-1,27,477,-12,-463,3893,-0.34,1.29,36.87,-0.12,-4.63,38.93,-5.51,3.29,4.61,3.75,-3.07,2.41
-3,30,411,-128,-341,3915,-0.33,1.34,35.69,-1.28,-3.41,39.15,-5.50,3.29,4.47,3.78,-3.15,6.63
4,40,380,-239,-253,3931,-0.27,1.45,34.44,-2.39,-2.53,39.31,-5.47,3.31,4.33,3.60,-3.39,7.80
8,50,370,-748,-648,3876,-0.19,1.61,33.25,-7.48,-6.48,38.76,-5.47,3.35,4.20,3.50,-3.67,7.27
9,43,380,-784,-427,4091,-0.12,1.71,32.25,-7.84,-4.27,40.91,-5.47,3.38,4.07,3.46,-3.57,5.25
20,41,349,18,-386,3839,0.01,1.79,31.15,0.18,-3.86,38.39,-5.46,3.38,3.95,3.19,-3.56,6.61
6,38,294,-3,-339,3832,0.05,1.84,29.83,-0.03,-3.39,38.32,-5.45,3.39,3.83,3.46,-3.51,9.73
15,21,141,22,-353,3802,0.14,1.79,27.71,0.22,-3.53,38.02,-5.45,3.38,3.72,3.25,-3.15,20.00
-1,17,116,39,-375,3938,0.12,1.71,25.64,0.39,-3.75,39.38,-5.44,3.38,3.62,3.58,-3.05,19.93
5,16,63,2,-428,3888,0.14,1.64,23.46,0.02,-4.28,38.88,-5.44,3.38,3.53,3.45,-3.00,20.00
6,5,38,-16,-366,3999,0.16,1.51,21.35,-0.16,-3.66,39.99,-5.43,3.38,3.44,3.42,-2.74,20.00
1,-2,47,-78,-437,3882,0.15,1.34,19.50,-0.78,-4.37,38.82,-5.43,3.37,3.37,3.52,-2.55,18.61
9,-2,56,3,-497,3871,0.19,1.20,17.89,0.03,-4.97,38.71,-5.44,3.37,3.30,3.35,-2.51,15.97
4,6,59,87,-509,3937,0.19,1.11,16.46,0.87,-5.09,39.37,-5.44,3.36,3.23,3.46,-2.64,14.05
5,14,72,69,-568,3831,0.21,1.09,15.26,0.69,-5.68,38.31,-5.44,3.36,3.17,3.44,-2.80,11.54
-3,8,102,62,-502,3844,0.17,1.03,14.35,0.62,-5.02,38.44,-5.45,3.35,3.11,3.61,-2.65,7.95
0,10,100,-1,-507,3965,0.15,0.99,13.53,-0.01,-5.07,39.65,-5.45,3.34,3.06,3.56,-2.68,7.16
10,0,130,22,-441,3938,0.20,0.89,12.97,0.22,-4.41,39.38,-5.45,3.33,3.01,3.34,-2.44,3.96
0,6,120,64,-403,3894,0.18,0.84,12.40,0.64,-4.03,38.94,-5.45,3.32,2.96,3.55,-2.54,4.15
4,12,86,64,-469,3887,0.18,0.82,11.69,0.64,-4.69,38.87,-5.46,3.31,2.91,3.47,-2.66,6.20
1,4,77,47,-376,3907,0.17,0.77,10.99,0.47,-3.76,39.07,-5.45,3.30,2.87,3.53,-2.47,6.15
2,13,59,74,-533,3872,0.17,0.77,10.25,0.74,-5.33,38.72,-5.46,3.29,2.83,3.52,-2.65,6.81
-1,15,57,139,-517,3889,0.14,0.78,9.57,1.39,-5.17,38.89,-5.46,3.28,2.79,3.59,-2.69,6.19
3,21,39,92,-551,3887,0.15,0.83,8.85,0.92,-5.51,38.87,-5.47,3.27,2.76,3.51,-2.81,6.88
3,19,41,93,-567,3888,0.15,0.87,8.22,0.93,-5.67,38.88,-5.48,3.26,2.73,3.51,-2.78,5.97
0,4,32,115,-493,3831,0.14,0.80,7.59,1.15,-4.93,38.31,-5.48,3.25,2.70,3.58,-2.45,6.00
-6,5,48,94,-528,3812,0.09,0.75,7.12,0.94,-5.28,38.12,-5.49,3.24,2.67,3.72,-2.45,4.10
-8,-12,179,-141,-529,3896,0.03,0.61,7.50,-1.41,-5.29,38.96,-5.50,3.24,2.64,3.79,-2.06,-6.55
-8,-14,214,35,-539,3863,-0.02,0.46,8.06,0.35,-5.39,38.63,-5.51,3.23,2.61,3.81,-1.97,-8.87
-5,-1,303,-61,-465,3919,-0.05,0.41,9.10,-0.61,-4.65,39.19,-5.52,3.22,2.57,3.76,-2.21,-15.19
-9,-9,325,17,-536,3864,-0.10,0.31,10.17,0.17,-5.36,38.64,-5.52,3.21,2.53,3.86,-2.02,-15.79
-12,-14,330,38,-493,3879,-0.16,0.20,11.17,0.38,-4.93,38.79,-5.53,3.20,2.49,3.94,-1.88,-15.05
-4,-9,330,17,-467,3889,-0.17,0.12,12.07,0.17,-4.67,38.89,-5.53,3.18,2.44,3.78,-1.95,-14.00
-4,-7,392,-52,-439,3951,-0.18,0.07,13.25,-0.52,-4.39,39.51,-5.54,3.17,2.39,3.79,-1.97,-17.87
-8,-1,411,-63,-436,3896,-0.21,0.05,14.43,-0.63,-4.36,38.96,-5.54,3.16,2.33,3.88,-2.08,-18.09
1,9,486,-146,-311,3963,-0.18,0.10,15.95,-1.46,-3.11,39.63,-5.53,3.16,2.27,3.68,-2.29,-20.00
2,5,510,-163,-290,3918,-0.15,0.12,17.47,-1.63,-2.90,39.18,-5.51,3.15,2.20,3.64,-2.22,-20.00
-15,10,553,-50,-310,3824,-0.23,0.17,19.10,-0.50,-3.10,38.24,-5.50,3.14,2.12,4.00,-2.33,-20.00
-12,16,540,-79,-378,3879,-0.28,0.25,20.48,-0.79,-3.78,38.79,-5.50,3.13,2.04,3.95,-2.46,-20.00
-15,-7,467,45,-407,3950,-0.34,0.18,21.28,0.45,-4.07,39.50,-5.49,3.12,1.96,4.02,-1.97,-14.81
-15,-7,429,-22,-386,3928,-0.40,0.12,21.77,-0.22,-3.86,39.28,-5.49,3.12,1.87,4.04,-1.95,-11.01
8,4,393,14,-431,3917,-0.31,0.14,21.99,0.14,-4.31,39.17,-5.49,3.11,1.78,3.55,-2.17,-7.70
0,12,378,97,-638,3812,-0.28,0.19,22.10,0.97,-6.38,38.12,-5.50,3.10,1.69,3.71,-2.34,-6.30
-1,4,361,-66,-468,3913,-0.26,0.20,22.09,-0.66,-4.68,39.13,-5.51,3.10,1.61,3.73,-2.18,-4.86
-14,7,394,-76,-564,3899,-0.32,0.22,22.28,-0.76,-5.64,38.99,-5.52,3.09,1.52,4.01,-2.25,-7.42
-1,10,517,-142,-411,3893,-0.29,0.26,23.21,-1.42,-4.11,38.93,-5.52,3.09,1.43,3.75,-2.31,-16.76
3,8,523,-121,-398,3837,-0.24,0.28,24.08,-1.21,-3.98,38.37,-5.52,3.08,1.33,3.65,-2.27,-16.24
1,3,502,-122,-275,3885,-0.21,0.27,24.73,-1.22,-2.75,38.85,-5.51,3.08,1.23,3.67,-2.17,-13.69
-4,8,486,-163,-235,3880,-0.22,0.30,25.22,-1.63,-2.35,38.80,-5.48,3.08,1.13,3.76,-2.28,-11.76
-3,6,380,95,-341,3848,-0.21,0.30,25.02,0.95,-3.41,38.48,-5.48,3.08,1.03,3.73,-2.24,-3.01
-3,3,330,-3,-290,3931,-0.21,0.29,24.53,-0.03,-2.90,39.31,-5.47,3.07,0.93,3.73,-2.17,0.66
-3,5,235,100,-520,3936,-0.21,0.29,23.51,1.00,-5.20,39.36,-5.47,3.06,0.84,3.73,-2.20,7.52
0,0,231,37,-454,3883,-0.19,0.26,22.57,0.37,-4.54,38.83,-5.47,3.06,0.75,3.66,-2.09,6.76
0,-3,180,20,-555,3898,-0.17,0.22,21.41,0.20,-5.55,38.98,-5.48,3.05,0.67,3.66,-2.01,9.74
2,-1,186,-30,-401,3891,-0.14,0.19,20.40,-0.30,-4.01,38.91,-5.48,3.04,0.58,3.61,-2.04,8.06
5,8,221,-20,-582,3934,-0.09,0.22,19.71,-0.20,-5.82,39.34,-5.49,3.04,0.51,3.55,-2.23,4.29
21,16,204,88,-578,3859,0.04,0.30,18.98,0.88,-5.78,38.59,-5.49,3.03,0.43,3.19,-2.41,4.88
3,-9,81,62,-512,3918,0.06,0.21,17.58,0.62,-5.12,39.18,-5.50,3.02,0.36,3.55,-1.87,13.67
4,-2,67,45,-509,3914,0.08,0.18,16.23,0.45,-5.09,39.14,-5.50,3.01,0.30,3.53,-2.00,13.28
2,3,26,-56,-538,3904,0.08,0.18,14.77,-0.56,-5.38,39.04,-5.51,3.01,0.24,3.58,-2.09,15.04
0,2,76,-58,-516,3844,0.07,0.17,13.75,-0.58,-5.16,38.44,-5.52,3.00,0.19,3.63,-2.07,9.63
2,1,52,30,-432,3860,0.08,0.16,12.70,0.30,-4.32,38.60,-5.52,2.99,0.13,3.58,-2.04,10.43
3,1,39,78,-442,3895,0.09,0.15,11.66,0.78,-4.42,38.95,-5.53,2.97,0.09,3.56,-2.02,10.32
2,-2,32,77,-403,3905,0.09,0.12,10.69,0.77,-4.03,39.05,-5.52,2.96,0.05,3.58,-1.95,9.78
-2,1,32,67,-435,3856,0.07,0.12,9.82,0.67,-4.35,38.56,-5.53,2.95,0.01,3.67,-2.00,8.77
-5,-4,140,130,-681,3912,0.03,0.08,9.69,1.30,-6.81,39.12,-5.54,2.94,-0.03,3.75,-1.88,-0.53
-9,-9,188,44,-522,3894,-0.03,0.02,9.87,0.44,-5.22,38.94,-5.54,2.93,-0.07,3.85,-1.75,-4.39
-3,-5,89,-108,-363,3880,-0.04,-0.01,9.42,-1.08,-3.63,38.80,-5.54,2.91,-0.11,3.73,-1.82,3.48
-1,-3,60,-77,-463,3915,-0.04,-0.03,8.85,-0.77,-4.63,39.15,-5.55,2.90,-0.14,3.69,-1.84,5.27
0,3,16,-52,-470,3909,-0.04,-0.01,8.06,-0.52,-4.70,39.09,-5.56,2.89,-0.17,3.68,-1.96,8.08
1,6,33,-82,-511,3916,-0.03,0.03,7.46,-0.82,-5.11,39.16,-5.57,2.88,-0.20,3.66,-2.03,5.93
-4,14,192,-191,-512,3917,-0.05,0.11,7.88,-1.91,-5.12,39.17,-5.59,2.88,-0.23,3.78,-2.22,-7.04
1,13,240,-111,-515,3883,-0.04,0.18,8.56,-1.11,-5.15,38.83,-5.60,2.87,-0.27,3.69,-2.21,-10.31
10,12,322,22,-558,3883,0.03,0.23,9.67,0.22,-5.58,38.83,-5.61,2.86,-0.30,3.49,-2.20,-15.96
-4,1,313,140,-562,3859,-0.00,0.22,10.61,1.40,-5.62,38.59,-5.62,2.85,-0.35,3.79,-1.96,-14.10
-12,-2,229,208,-530,3920,-0.07,0.18,10.94,2.08,-5.30,39.20,-5.62,2.84,-0.39,3.97,-1.88,-6.58
1,2,204,151,-523,3893,-0.06,0.18,11.09,1.51,-5.23,38.93,-5.63,2.83,-0.43,3.71,-1.96,-4.29
2,6,208,-2,-555,3893,-0.04,0.20,11.25,-0.02,-5.55,38.93,-5.64,2.82,-0.48,3.69,-2.04,-4.44
4,12,237,30,-620,3832,-0.01,0.25,11.57,0.30,-6.20,38.32,-5.65,2.81,-0.52,3.65,-2.17,-6.52
-17,0,326,131,-644,3951,-0.12,0.22,12.41,1.31,-6.44,39.51,-5.66,2.81,-0.57,4.11,-1.91,-13.08
-22,4,372,61,-648,3745,-0.24,0.23,13.43,0.61,-6.48,37.45,-5.67,2.80,-0.62,4.25,-1.99,-15.78
-13,11,474,32,-516,3700,-0.29,0.27,14.98,0.32,-5.16,37.00,-5.68,2.79,-0.68,4.09,-2.14,-20.00
1,8,496,-133,-372,3832,-0.26,0.29,16.51,-1.33,-3.72,38.32,-5.67,2.78,-0.75,3.79,-2.08,-20.00
4,17,477,-178,-278,3869,-0.21,0.37,17.77,-1.78,-2.78,38.69,-5.65,2.79,-0.82,3.70,-2.29,-19.59
-16,12,460,-126,-304,3865,-0.29,0.40,18.80,-1.26,-3.04,38.65,-5.63,2.79,-0.90,4.12,-2.19,-16.95
-10,11,373,31,-328,3880,-0.32,0.43,19.19,0.31,-3.28,38.80,-5.63,2.78,-0.97,4.00,-2.17,-9.11
0,8,352,12,-364,3922,-0.29,0.44,19.42,0.12,-3.64,39.22,-5.62,2.77,-1.05,3.79,-2.11,-7.06
1,10,340,193,-558,3953,-0.25,0.45,19.55,1.93,-5.58,39.53,-5.63,2.76,-1.13,3.76,-2.15,-5.88
-3,3,345,181,-551,3806,-0.24,0.43,19.70,1.81,-5.51,38.06,-5.63,2.75,-1.21,3.84,-1.99,-6.13
-12,-5,380,67,-599,3774,-0.29,0.35,20.05,0.67,-5.99,37.74,-5.64,2.75,-1.28,4.05,-1.81,-8.68
-22,-15,416,68,-593,3948,-0.40,0.23,20.58,0.68,-5.93,39.48,-5.65,2.74,-1.37,4.29,-1.57,-11.10
-15,8,522,-32,-412,3890,-0.45,0.25,21.71,-0.32,-4.12,38.90,-5.65,2.74,-1.45,4.16,-2.04,-18.76
-15,4,548,-37,-399,3923,-0.50,0.25,22.88,-0.37,-3.99,39.23,-5.65,2.73,-1.54,4.17,-1.95,-19.59
-12,10,527,-108,-321,3879,-0.52,0.29,23.81,-1.08,-3.21,38.79,-5.64,2.72,-1.64,4.11,-2.08,-16.72
14,27,505,-84,-236,3905,-0.38,0.42,24.51,-0.84,-2.36,39.05,-5.62,2.72,-1.74,3.53,-2.46,-14.03
3,4,413,-69,-348,3667,-0.33,0.41,24.58,-0.69,-3.48,36.67,-5.61,2.72,-1.83,3.73,-1.99,-6.15
-16,7,396,4,-420,3896,-0.39,0.41,24.53,0.04,-4.20,38.96,-5.61,2.71,-1.93,4.14,-2.04,-4.76
-18,-21,299,-9,-361,3799,-0.46,0.24,23.90,-0.09,-3.61,37.99,-5.61,2.70,-2.03,4.19,-1.42,2.73
8,-2,265,97,-429,4048,-0.37,0.20,23.13,0.97,-4.29,40.48,-5.61,2.69,-2.12,3.64,-1.79,4.71
-4,-2,238,128,-554,3957,-0.35,0.17,22.27,1.28,-5.54,39.57,-5.61,2.69,-2.21,3.88,-1.78,6.00
-7,6,256,80,-549,3835,-0.36,0.19,21.60,0.80,-5.49,38.35,-5.62,2.68,-2.29,3.95,-1.94,3.70
-2,-3,290,13,-489,3856,-0.34,0.15,21.21,0.13,-4.89,38.56,-5.63,2.67,-2.38,3.85,-1.75,0.37
-5,-11,295,2,-493,3890,-0.33,0.07,20.89,0.02,-4.93,38.90,-5.63,2.67,-2.46,3.91,-1.56,-0.43
-10,-5,271,56,-589,3853,-0.36,0.03,20.45,0.56,-5.89,38.53,-5.64,2.66,-2.54,4.03,-1.66,1.10
-9,-13,264,19,-563,3951,-0.38,-0.05,20.02,0.19,-5.63,39.51,-5.65,2.65,-2.62,4.02,-1.47,1.19
-12,-9,255,-126,-399,3911,-0.42,-0.10,19.57,-1.26,-3.99,39.11,-5.66,2.64,-2.70,4.09,-1.53,1.44
-5,0,224,-77,-386,3868,-0.40,-0.09,18.98,-0.77,-3.86,38.68,-5.65,2.63,-2.77,3.94,-1.71,3.38
-1,-10,183,-34,-482,3903,-0.37,-0.14,18.20,-0.34,-4.82,39.03,-5.66,2.62,-2.85,3.86,-1.49,5.94
-8,-7,198,-74,-516,3869,-0.38,-0.17,17.59,-0.74,-5.16,38.69,-5.68,2.62,-2.92,4.01,-1.54,3.96
-11,0,264,-1,-535,3863,-0.41,-0.15,17.44,-0.01,-5.35,38.63,-5.69,2.61,-2.98,4.09,-1.68,-1.80
-13,-4,259,66,-539,3928,-0.45,-0.16,17.28,0.66,-5.39,39.28,-5.69,2.60,-3.05,4.14,-1.59,-1.57
-1,8,278,149,-582,3868,-0.41,-0.10,17.24,1.49,-5.82,38.68,-5.70,2.59,-3.12,3.90,-1.85,-3.21
-8,-12,295,189,-667,3936,-0.42,-0.16,17.32,1.89,-6.67,39.36,-5.71,2.58,-3.19,4.05,-1.42,-4.56
-15,-14,288,67,-467,3951,-0.47,-0.23,17.34,0.67,-4.67,39.51,-5.72,2.57,-3.26,4.20,-1.35,-3.93
-6,3,274,8,-502,3832,-0.46,-0.19,17.28,0.08,-5.02,38.32,-5.72,2.56,-3.33,4.02,-1.70,-2.81
-3,5,239,-44,-452,3832,-0.43,-0.14,17.01,-0.44,-4.52,38.32,-5.73,2.55,-3.39,3.96,-1.75,-0.16
1,5,224,-47,-448,3910,-0.38,-0.09,16.68,-0.47,-4.48,39.10,-5.74,2.54,-3.46,3.87,-1.75,0.72
3,-1,199,-45,-453,3941,-0.32,-0.09,16.22,-0.45,-4.53,39.41,-5.74,2.53,-3.52,3.82,-1.63,2.31
-11,-5,199,-18,-500,3886,-0.36,-0.11,15.81,-0.18,-5.00,38.86,-5.75,2.52,-3.59,4.12,-1.53,1.84
3,20,236,-82,-445,3814,-0.31,0.02,15.67,-0.82,-4.45,38.14,-5.76,2.51,-3.65,3.82,-2.07,-1.46
-12,-18,197,-138,-312,3789,-0.35,-0.09,15.31,-1.38,-3.12,37.89,-5.74,2.51,-3.71,4.13,-1.27,1.42
8,0,135,16,-461,3847,-0.26,-0.08,14.60,0.16,-4.61,38.47,-5.75,2.50,-3.77,3.70,-1.63,5.85
3,0,125,49,-468,3872,-0.22,-0.07,13.90,0.49,-4.68,38.72,-5.75,2.49,-3.82,3.80,-1.62,5.89
6,0,193,200,-781,3899,-0.16,-0.07,13.69,2.00,-7.81,38.99,-5.76,2.48,-3.88,3.73,-1.62,-0.12
-21,-8,234,130,-664,3887,-0.27,-0.11,13.75,1.30,-6.64,38.87,-5.78,2.47,-3.93,4.31,-1.44,-3.52
1,9,315,8,-411,3836,-0.24,-0.04,14.29,0.08,-4.11,38.36,-5.78,2.46,-3.99,3.86,-1.80,-9.74
0,11,294,-21,-325,3909,-0.22,0.03,14.66,-0.21,-3.25,39.09,-5.77,2.45,-4.05,3.86,-1.85,-7.53
9,16,194,-43,-209,3983,-0.14,0.12,14.38,-0.43,-2.09,39.83,-5.75,2.45,-4.11,3.65,-1.97,0.61
4,-2,149,-14,-168,3894,-0.10,0.10,13.85,-0.14,-1.68,38.94,-5.73,2.44,-4.16,3.73,-1.60,3.81
7,4,48,63,-481,3861,-0.05,0.11,12.76,0.63,-4.81,38.61,-5.74,2.43,-4.21,3.66,-1.72,11.10
-3,-1,42,171,-592,3906,-0.06,0.10,11.74,1.71,-5.92,39.06,-5.74,2.42,-4.26,3.87,-1.60,10.42
-3,0,8,144,-608,3865,-0.07,0.09,10.61,1.44,-6.08,38.65,-5.75,2.41,-4.30,3.88,-1.61,11.98
2,12,17,58,-628,3880,-0.05,0.15,9.65,0.58,-6.28,38.80,-5.77,2.40,-4.34,3.78,-1.87,10.10
7,10,70,-52,-587,3909,-0.01,0.20,9.12,-0.52,-5.87,39.09,-5.78,2.40,-4.37,3.67,-1.84,4.99
-5,10,103,-73,-595,3866,-0.04,0.24,8.83,-0.73,-5.95,38.66,-5.80,2.39,-4.41,3.94,-1.85,1.86
7,25,149,-89,-405,3859,0.01,0.37,8.86,-0.89,-4.05,38.59,-5.80,2.38,-4.44,3.68,-2.18,-2.00
6,14,145,-122,-369,3934,0.05,0.42,8.86,-1.22,-3.69,39.34,-5.79,2.37,-4.48,3.68,-1.96,-1.66
1,10,89,-56,-317,3878,0.05,0.43,8.51,-0.56,-3.17,38.78,-5.77,2.36,-4.51,3.78,-1.88,2.68
4,17,73,-35,-299,3846,0.07,0.50,8.11,-0.35,-2.99,38.46,-5.76,2.35,-4.55,3.70,-2.03,3.57
5,11,16,-35,-262,3895,0.09,0.51,7.39,-0.35,-2.62,38.95,-5.75,2.34,-4.58,3.67,-1.91,7.56
5,6,7,19,-387,3883,0.11,0.50,6.70,0.19,-3.87,38.83,-5.74,2.33,-4.60,3.66,-1.80,7.51
3,-8,9,55,-446,3859,0.12,0.40,6.08,0.55,-4.46,38.59,-5.75,2.32,-4.63,3.70,-1.48,6.63
0,-2,12,63,-431,3930,0.11,0.35,5.55,0.63,-4.31,39.30,-5.75,2.30,-4.65,3.76,-1.57,5.75
-2,-3,-4,104,-516,3931,0.08,0.29,4.97,1.04,-5.16,39.31,-5.76,2.29,-4.67,3.82,-1.53,6.43
-7,-4,-4,111,-492,3861,0.03,0.24,4.45,1.11,-4.92,38.61,-5.76,2.27,-4.68,3.94,-1.49,5.82
3,4,-11,5,-446,3864,0.05,0.24,3.94,0.05,-4.46,38.64,-5.77,2.26,-4.70,3.73,-1.64,5.81
3,1,-8,-21,-444,3927,0.06,0.22,3.49,-0.21,-4.44,39.27,-5.77,2.24,-4.71,3.73,-1.56,5.04
0,0,-4,-76,-446,3885,0.06,0.20,3.12,-0.76,-4.46,38.85,-5.78,2.23,-4.72,3.80,-1.53,4.27
1,1,-2,-89,-453,3868,0.06,0.19,2.80,-0.89,-4.53,38.68,-5.79,2.22,-4.74,3.79,-1.54,3.72
2,7,6,4,-444,3891,0.06,0.21,2.55,0.04,-4.44,38.91,-5.80,2.20,-4.75,3.77,-1.65,2.76
4,8,-4,19,-413,3892,0.08,0.24,2.27,0.19,-4.13,38.92,-5.80,2.19,-4.75,3.72,-1.67,3.28
6,11,-11,36,-421,3891,0.11,0.28,1.98,0.36,-4.21,38.91,-5.80,2.17,-4.76,3.68,-1.73,3.53
6,14,-20,58,-442,3877,0.14,0.34,1.66,0.58,-4.42,38.77,-5.80,2.16,-4.77,3.67,-1.80,3.92
8,11,-27,88,-404,3892,0.17,0.37,1.33,0.88,-4.04,38.92,-5.80,2.14,-4.77,3.62,-1.74,4.13
-4,2,-79,47,-454,3891,0.13,0.35,0.71,0.47,-4.54,38.91,-5.81,2.12,-4.78,3.88,-1.54,7.81
3,1,-88,35,-434,3907,0.13,0.32,0.11,0.35,-4.34,39.07,-5.81,2.11,-4.78,3.74,-1.50,7.87
1,2,-106,-102,-452,3893,0.13,0.30,-0.55,-1.02,-4.52,38.93,-5.83,2.10,-4.77,3.79,-1.51,8.62
5,-1,-94,-125,-412,3908,0.14,0.26,-1.07,-1.25,-4.12,39.08,-5.84,2.08,-4.77,3.71,-1.43,7.00
7,4,-62,-66,-410,3898,0.17,0.26,-1.34,-0.66,-4.10,38.98,-5.84,2.07,-4.76,3.66,-1.52,3.97
7,9,-61,-61,-392,3844,0.20,0.29,-1.58,-0.61,-3.92,38.44,-5.84,2.05,-4.76,3.66,-1.61,3.61
3,2,-61,-104,-346,3879,0.20,0.27,-1.79,-1.04,-3.46,38.79,-5.82,2.04,-4.75,3.73,-1.46,3.36
0,-6,-94,-50,-403,3832,0.18,0.21,-2.19,-0.50,-4.03,38.32,-5.82,2.02,-4.74,3.80,-1.27,5.69
1,1,-121,-38,-408,3825,0.17,0.19,-2.71,-0.38,-4.08,38.25,-5.83,2.00,-4.73,3.78,-1.39,7.37
-1,-7,-180,34,-542,3843,0.14,0.13,-3.53,0.34,-5.42,38.43,-5.84,1.99,-4.72,3.84,-1.20,11.40
6,-8,-189,60,-529,3947,0.17,0.07,-4.33,0.60,-5.29,39.47,-5.85,1.97,-4.70,3.69,-1.16,11.23
-4,-13,-151,108,-648,3940,0.12,-0.02,-4.82,1.08,-6.48,39.40,-5.86,1.95,-4.68,3.92,-1.02,7.44
-3,-10,-119,133,-640,3826,0.09,-0.08,-5.07,1.33,-6.40,38.26,-5.88,1.94,-4.66,3.91,-1.06,4.44
-4,-5,-24,63,-543,3854,0.06,-0.10,-4.71,0.63,-5.43,38.54,-5.89,1.92,-4.64,3.95,-1.14,-3.19
-2,-5,-17,32,-509,3919,0.04,-0.12,-4.34,0.32,-5.09,39.19,-5.90,1.90,-4.62,3.92,-1.12,-3.35
-4,-7,-17,30,-468,3891,0.01,-0.15,-4.01,0.30,-4.68,38.91,-5.90,1.88,-4.60,3.97,-1.06,-2.97
-3,-7,-15,17,-481,3881,-0.01,-0.18,-3.70,0.17,-4.81,38.81,-5.91,1.87,-4.59,3.97,-1.04,-2.78
-5,-14,-19,6,-472,3876,-0.04,-0.25,-3.44,0.06,-4.72,38.76,-5.92,1.85,-4.58,4.02,-0.87,-2.14
-6,-16,-18,6,-470,3901,-0.07,-0.32,-3.21,0.06,-4.70,39.01,-5.93,1.83,-4.56,4.06,-0.79,-1.95
-4,-13,-11,-16,-464,3888,-0.09,-0.37,-2.96,-0.16,-4.64,38.88,-5.94,1.81,-4.55,4.03,-0.83,-2.25
-3,-13,-8,-19,-459,3898,-0.10,-0.41,-2.71,-0.19,-4.59,38.98,-5.95,1.79,-4.54,4.01,-0.81,-2.22
-5,-13,3,-7,-435,3878,-0.12,-0.45,-2.42,-0.07,-4.35,38.78,-5.96,1.77,-4.53,4.06,-0.78,-2.81
-3,-11,5,0,-454,3894,-0.12,-0.47,-2.15,0.00,-4.54,38.94,-5.96,1.75,-4.52,4.03,-0.80,-2.66
-1,-6,5,22,-459,3886,-0.12,-0.46,-1.90,0.22,-4.59,38.86,-5.97,1.73,-4.51,3.99,-0.89,-2.38
-2,-5,5,23,-465,3887,-0.12,-0.44,-1.68,0.23,-4.65,38.87,-5.98,1.71,-4.51,4.02,-0.91,-2.12
2,0,0,29,-469,3887,-0.09,-0.40,-1.51,0.29,-4.69,38.87,-5.99,1.69,-4.50,3.94,-1.01,-1.50
0,-2,-2,7,-479,3896,-0.08,-0.37,-1.37,0.07,-4.79,38.96,-5.99,1.67,-4.50,3.98,-0.96,-1.17
0,1,-6,13,-469,3879,-0.08,-0.33,-1.27,0.13,-4.69,38.79,-6.00,1.66,-4.49,3.98,-1.02,-0.71
0,-1,-8,2,-458,3891,-0.07,-0.30,-1.19,0.02,-4.58,38.91,-6.01,1.64,-4.49,3.99,-0.98,-0.45
-2,-5,0,-2,-458,3883,-0.07,-0.30,-1.08,-0.02,-4.58,38.83,-6.02,1.62,-4.48,4.03,-0.88,-0.99
-1,-4,1,17,-456,3882,-0.07,-0.30,-0.96,0.17,-4.56,38.82,-6.03,1.60,-4.48,4.02,-0.89,-0.94
3,-5,6,18,-478,3921,-0.05,-0.30,-0.83,0.18,-4.78,39.21,-6.03,1.58,-4.47,3.93,-0.86,-1.21
-1,-15,10,8,-431,3890,-0.05,-0.36,-0.69,0.08,-4.31,38.90,-6.04,1.56,-4.47,4.02,-0.63,-1.38
0,-5,1,-70,-433,3940,-0.04,-0.35,-0.61,-0.70,-4.33,39.40,-6.04,1.54,-4.47,4.00,-0.82,-0.53
3,0,2,-79,-451,3879,-0.02,-0.32,-0.54,-0.79,-4.51,38.79,-6.06,1.53,-4.47,3.94,-0.92,-0.53
3,5,10,-157,-451,3804,-0.00,-0.26,-0.42,-1.57,-4.51,38.04,-6.07,1.54,-4.47,3.95,-1.05,-1.07
5,8,17,-201,-397,3915,0.03,-0.18,-0.28,-2.01,-3.97,39.15,-6.07,1.56,-4.46,3.90,-1.14,-1.50
-2,3,18,-32,-431,3792,0.01,-0.14,-0.14,-0.32,-4.31,37.92,-6.07,1.54,-4.46,4.05,-1.04,-1.42
4,16,2,40,-396,3847,0.04,-0.03,-0.11,0.40,-3.96,38.47,-6.07,1.53,-4.46,3.92,-1.32,-0.03
1,3,-24,121,-427,3835,0.04,-0.01,-0.25,1.21,-4.27,38.35,-6.07,1.51,-4.46,3.98,-1.05,2.01
-3,-5,-22,159,-442,3933,0.02,-0.04,-0.36,1.59,-4.42,39.33,-6.08,1.49,-4.46,4.07,-0.87,1.71
-5,-15,-13,129,-443,3876,-0.01,-0.13,-0.40,1.29,-4.43,38.76,-6.08,1.47,-4.46,4.12,-0.63,0.90
-1,-9,-14,93,-449,3907,-0.02,-0.17,-0.45,0.93,-4.49,39.07,-6.08,1.45,-4.46,4.04,-0.73,0.93
-4,-3,-18,89,-555,3879,-0.04,-0.17,-0.51,0.89,-5.55,38.79,-6.09,1.44,-4.46,4.11,-0.84,1.19
-3,-4,-11,115,-569,3907,-0.06,-0.18,-0.53,1.15,-5.69,39.07,-6.10,1.42,-4.45,4.10,-0.81,0.58
-2,-1,20,-54,-433,3874,-0.06,-0.17,-0.35,-0.54,-4.33,38.74,-6.11,1.40,-4.45,4.09,-0.86,-1.84
-4,-7,5,27,-502,3878,-0.08,-0.19,-0.29,0.27,-5.02,38.78,-6.12,1.39,-4.45,4.14,-0.72,-0.49
-3,-9,5,40,-503,3889,-0.09,-0.23,-0.23,0.40,-5.03,38.89,-6.13,1.37,-4.45,4.13,-0.66,-0.42
-2,-8,3,41,-475,3879,-0.09,-0.25,-0.19,0.41,-4.75,38.79,-6.14,1.35,-4.45,4.12,-0.66,-0.21
-1,-9,3,25,-465,3878,-0.09,-0.28,-0.15,0.25,-4.65,38.78,-6.15,1.33,-4.45,4.10,-0.62,-0.16
-2,-10,4,17,-453,3881,-0.09,-0.32,-0.11,0.17,-4.53,38.81,-6.15,1.31,-4.45,4.13,-0.58,-0.20
-3,-10,7,18,-451,3887,-0.10,-0.35,-0.06,0.18,-4.51,38.87,-6.16,1.30,-4.45,4.15,-0.56,-0.39
-5,-10,11,-2,-458,3889,-0.12,-0.37,0.02,-0.02,-4.58,38.89,-6.17,1.28,-4.45,4.21,-0.54,-0.65
-3,-6,20,-29,-450,3884,-0.13,-0.37,0.14,-0.29,-4.50,38.84,-6.18,1.26,-4.45,4.17,-0.61,-1.27
-3,-8,22,-21,-453,3876,-0.13,-0.38,0.26,-0.21,-4.53,38.76,-6.18,1.24,-4.45,4.18,-0.55,-1.30
-5,-12,5,75,-486,3898,-0.15,-0.42,0.26,0.75,-4.86,38.98,-6.19,1.22,-4.45,4.23,-0.45,0.15
-4,-9,-2,19,-462,3902,-0.16,-0.43,0.22,0.19,-4.62,39.02,-6.20,1.20,-4.45,4.22,-0.49,0.70
-3,-2,-3,17,-454,3900,-0.16,-0.40,0.18,0.17,-4.54,39.00,-6.20,1.19,-4.45,4.20,-0.63,0.73
-1,-1,-4,15,-453,3893,-0.15,-0.37,0.14,0.15,-4.53,38.93,-6.21,1.17,-4.45,4.16,-0.65,0.77
4,0,0,41,-483,3884,-0.11,-0.33,0.13,0.41,-4.83,38.84,-6.22,1.15,-4.45,4.05,-0.67,0.41
4,4,4,38,-484,3894,-0.08,-0.27,0.14,0.38,-4.84,38.94,-6.23,1.13,-4.45,4.05,-0.75,0.09
6,5,4,2,-437,3885,-0.03,-0.21,0.15,0.02,-4.37,38.85,-6.23,1.11,-4.45,4.00,-0.78,0.10
4,4,6,18,-455,3878,-0.01,-0.17,0.17,0.18,-4.55,38.78,-6.24,1.09,-4.45,4.04,-0.76,-0.04
5,1,8,16,-467,3882,0.03,-0.15,0.20,0.16,-4.67,38.82,-6.24,1.08,-4.45,4.01,-0.69,-0.17
5,1,9,15,-471,3895,0.05,-0.13,0.24,0.15,-4.71,38.95,-6.25,1.06,-4.46,4.01,-0.69,-0.22
4,5,6,20,-473,3893,0.07,-0.08,0.25,0.20,-4.73,38.93,-6.26,1.04,-4.46,4.03,-0.77,0.05
4,6,7,21,-464,3880,0.09,-0.04,0.27,0.21,-4.64,38.80,-6.27,1.03,-4.46,4.03,-0.79,-0.01
3,0,11,0,-463,3889,0.10,-0.03,0.31,0.00,-4.63,38.89,-6.27,1.01,-4.46,4.05,-0.66,-0.30
3,-2,14,12,-464,3881,0.11,-0.04,0.36,0.12,-4.64,38.81,-6.28,0.99,-4.46,4.06,-0.60,-0.49
-2,-8,13,27,-474,3875,0.08,-0.09,0.41,0.27,-4.74,38.75,-6.29,0.98,-4.46,4.17,-0.46,-0.36
-2,-9,13,40,-472,3867,0.06,-0.13,0.44,0.40,-4.72,38.67,-6.30,0.96,-4.46,4.18,-0.41,-0.31
1,-3,15,3,-448,3863,0.06,-0.14,0.49,0.03,-4.48,38.63,-6.30,0.94,-4.46,4.12,-0.52,-0.43
4,-2,14,12,-502,3842,0.08,-0.14,0.53,0.12,-5.02,38.42,-6.31,0.93,-4.47,4.06,-0.54,-0.30
-5,-7,25,48,-444,3940,0.04,-0.17,0.63,0.48,-4.44,39.40,-6.32,0.91,-4.47,4.26,-0.41,-1.12
0,-8,24,34,-472,3852,0.04,-0.20,0.71,0.34,-4.72,38.52,-6.32,0.89,-4.47,4.16,-0.37,-0.93
1,-8,20,8,-481,3882,0.04,-0.23,0.76,0.08,-4.81,38.82,-6.33,0.88,-4.48,4.15,-0.36,-0.54
-2,-9,23,7,-464,3883,0.02,-0.26,0.83,0.07,-4.64,38.83,-6.34,0.86,-4.48,4.22,-0.31,-0.71
-3,-13,23,32,-439,3876,0.00,-0.31,0.88,0.32,-4.39,38.76,-6.34,0.84,-4.48,4.25,-0.21,-0.65
-4,-14,26,2,-474,3876,-0.02,-0.37,0.95,0.02,-4.74,38.76,-6.35,0.83,-4.49,4.28,-0.16,-0.82
-7,-17,15,16,-456,3887,-0.06,-0.43,0.95,0.16,-4.56,38.87,-6.36,0.81,-4.49,4.36,-0.07,0.11
-7,-15,14,22,-475,3895,-0.10,-0.48,0.94,0.22,-4.75,38.95,-6.37,0.79,-4.49,4.37,-0.08,0.18
-3,-10,9,32,-486,3890,-0.11,-0.49,0.90,0.32,-4.86,38.90,-6.38,0.77,-4.50,4.30,-0.17,0.56
-2,-9,7,11,-494,3887,-0.11,-0.50,0.85,0.11,-4.94,38.87,-6.39,0.76,-4.50,4.29,-0.18,0.68
-2,-5,7,12,-472,3886,-0.11,-0.48,0.81,0.12,-4.72,38.86,-6.40,0.74,-4.50,4.30,-0.26,0.63
-2,-5,7,15,-474,3881,-0.11,-0.46,0.77,0.15,-4.74,38.81,-6.41,0.72,-4.51,4.30,-0.25,0.58
-2,-6,7,11,-461,3879,-0.11,-0.45,0.74,0.11,-4.61,38.79,-6.42,0.70,-4.51,4.31,-0.22,0.54
-2,-6,8,26,-468,3876,-0.11,-0.44,0.71,0.26,-4.68,38.76,-6.43,0.69,-4.51,4.31,-0.21,0.43
-1,-9,9,27,-473,3869,-0.11,-0.46,0.70,0.27,-4.73,38.69,-6.43,0.67,-4.52,4.30,-0.13,0.32
-2,-9,8,23,-468,3870,-0.11,-0.46,0.68,0.23,-4.68,38.70,-6.44,0.65,-4.52,4.32,-0.12,0.38
6,10,32,-126,-405,3947,-0.06,-0.36,0.80,-1.26,-4.05,39.47,-6.43,0.67,-4.52,4.14,-0.55,-1.50
-3,0,34,-42,-411,3943,-0.07,-0.32,0.93,-0.42,-4.11,39.43,-6.42,0.66,-4.53,4.32,-0.35,-1.52
3,-7,3,64,-490,3892,-0.05,-0.33,0.86,0.64,-4.90,38.92,-6.42,0.64,-4.53,4.19,-0.19,1.02
7,2,-4,77,-497,3851,-0.00,-0.29,0.75,0.77,-4.97,38.51,-6.43,0.63,-4.53,4.10,-0.38,1.48
-1,-2,6,74,-521,3889,-0.01,-0.27,0.71,0.74,-5.21,38.89,-6.44,0.61,-4.54,4.27,-0.29,0.59
1,1,3,39,-491,3893,0.00,-0.24,0.66,0.39,-4.91,38.93,-6.45,0.60,-4.54,4.24,-0.35,0.78
2,3,1,32,-475,3892,0.01,-0.19,0.60,0.32,-4.75,38.92,-6.46,0.58,-4.54,4.22,-0.39,0.88
0,1,0,21,-482,3882,0.01,-0.17,0.54,0.21,-4.82,38.82,-6.47,0.56,-4.54,4.27,-0.35,0.90
1,-1,0,15,-466,3888,0.02,-0.16,0.48,0.15,-4.66,38.88,-6.48,0.55,-4.54,4.25,-0.30,0.84
1,1,1,26,-461,3891,0.02,-0.14,0.44,0.26,-4.61,38.91,-6.48,0.53,-4.55,4.25,-0.33,0.70
1,0,4,32,-469,3876,0.02,-0.12,0.42,0.32,-4.69,38.76,-6.49,0.51,-4.55,4.26,-0.30,0.43
1,0,4,28,-464,3885,0.03,-0.11,0.40,0.28,-4.64,38.85,-6.50,0.49,-4.55,4.26,-0.30,0.41
1,1,5,27,-475,3883,0.03,-0.09,0.39,0.27,-4.75,38.83,-6.51,0.48,-4.55,4.26,-0.31,0.31
2,0,5,28,-475,3875,0.04,-0.08,0.38,0.28,-4.75,38.75,-6.51,0.46,-4.55,4.25,-0.28,0.30
2,-1,6,15,-468,3891,0.05,-0.08,0.38,0.15,-4.68,38.91,-6.52,0.44,-4.55,4.25,-0.25,0.21
3,-1,5,31,-478,3876,0.06,-0.08,0.37,0.31,-4.78,38.76,-6.53,0.43,-4.56,4.23,-0.24,0.29
1,-3,7,28,-462,3883,0.06,-0.09,0.38,0.28,-4.62,38.83,-6.54,0.41,-4.56,4.28,-0.19,0.12
1,-6,10,37,-457,3882,0.06,-0.12,0.40,0.37,-4.57,38.82,-6.54,0.39,-4.56,4.28,-0.11,-0.10
-5,-7,10,-16,-400,3888,0.03,-0.15,0.42,-0.16,-4.00,38.88,-6.52,0.39,-4.56,4.40,-0.07,-0.08
-6,-14,6,-39,-395,3907,-0.01,-0.22,0.42,-0.39,-3.95,39.07,-6.50,0.39,-4.56,4.42,0.09,0.25
-12,-8,19,-154,-382,3989,-0.09,-0.25,0.49,-1.54,-3.82,39.89,-6.49,0.41,-4.56,4.55,-0.04,-0.76
8,-12,1,-48,-314,3832,-0.03,-0.29,0.45,-0.48,-3.14,38.32,-6.48,0.41,-4.57,4.12,0.05,0.71
-24,-45,-29,-67,-209,3744,-0.17,-0.54,0.23,-0.67,-2.09,37.44,-6.46,0.41,-4.57,4.80,0.79,3.00
50,6,-83,227,-487,4126,0.15,-0.45,-0.30,2.27,-4.87,41.26,-6.46,0.39,-4.57,3.21,-0.26,6.95
2,-3,-58,184,-763,3938,0.15,-0.42,-0.63,1.84,-7.63,39.38,-6.48,0.38,-4.56,4.19,-0.07,4.46
-9,-9,-21,187,-658,3848,0.08,-0.44,-0.69,1.87,-6.58,38.48,-6.49,0.36,-4.56,4.44,0.06,1.25
-4,-2,-1,36,-462,3905,0.05,-0.40,-0.63,0.36,-4.62,39.05,-6.49,0.34,-4.56,4.35,-0.08,-0.38
-1,-2,-8,9,-445,3842,0.03,-0.38,-0.61,0.09,-4.45,38.42,-6.50,0.32,-4.56,4.30,-0.07,0.23
4,3,-36,7,-429,3912,0.06,-0.32,-0.77,0.07,-4.29,39.12,-6.49,0.31,-4.55,4.19,-0.18,2.42
4,0,-45,-14,-385,3916,0.07,-0.29,-0.97,-0.14,-3.85,39.16,-6.47,0.30,-4.55,4.17,-0.12,2.95
9,5,-108,45,-438,3986,0.12,-0.23,-1.53,0.45,-4.38,39.86,-6.47,0.28,-4.54,4.05,-0.23,7.63
7,3,-112,33,-463,3855,0.15,-0.19,-2.06,0.33,-4.63,38.55,-6.47,0.27,-4.54,4.09,-0.18,7.35
-1,-9,-81,2,-535,3867,0.13,-0.22,-2.35,0.02,-5.35,38.67,-6.49,0.26,-4.53,4.27,0.07,4.39
0,-8,-74,15,-503,3885,0.12,-0.25,-2.57,0.15,-5.03,38.85,-6.51,0.25,-4.52,4.26,0.07,3.54
-2,-11,-84,-65,-365,3855,0.09,-0.29,-2.82,-0.65,-3.65,38.55,-6.49,0.26,-4.51,4.30,0.13,4.09
-13,-19,-100,-70,-298,3877,0.01,-0.38,-3.15,-0.70,-2.98,38.77,-6.47,0.26,-4.49,4.54,0.32,5.06
12,13,-93,80,-713,3906,0.08,-0.26,-3.40,0.80,-7.13,39.06,-6.49,0.25,-4.48,4.02,-0.36,4.17
0,2,-27,88,-633,3832,0.07,-0.22,-3.23,0.88,-6.33,38.32,-6.51,0.24,-4.47,4.27,-0.14,-1.22
1,-1,5,22,-514,3887,0.07,-0.21,-2.87,0.22,-5.14,38.87,-6.52,0.23,-4.46,4.27,-0.07,-3.51
0,-1,12,0,-465,3883,0.06,-0.19,-2.51,0.00,-4.65,38.83,-6.54,0.22,-4.45,4.30,-0.07,-3.69
1,7,-4,18,-423,3879,0.06,-0.13,-2.29,0.18,-4.23,38.79,-6.53,0.20,-4.44,4.27,-0.24,-2.07
2,3,-13,34,-434,3868,0.07,-0.10,-2.14,0.34,-4.34,38.68,-6.52,0.18,-4.43,4.25,-0.15,-1.13
8,-1,-26,10,-538,3870,0.11,-0.10,-2.08,0.10,-5.38,38.70,-6.54,0.17,-4.42,4.12,-0.07,0.03
5,-3,-16,-12,-536,3884,0.13,-0.10,-1.97,-0.12,-5.36,38.84,-6.56,0.17,-4.41,4.19,-0.02,-0.68
3,-1,2,1,-482,3880,0.14,-0.10,-1.76,0.01,-4.82,38.80,-6.57,0.17,-4.41,4.24,-0.06,-1.96
0,-1,5,7,-478,3874,0.12,-0.10,-1.55,0.07,-4.78,38.74,-6.59,0.16,-4.40,4.32,-0.06,-1.98
1,0,6,15,-460,3889,0.12,-0.09,-1.36,0.15,-4.60,38.89,-6.60,0.14,-4.39,4.30,-0.07,-1.84
1,-2,8,17,-449,3886,0.11,-0.09,-1.18,0.17,-4.49,38.86,-6.60,0.12,-4.39,4.30,-0.01,-1.79
1,-5,7,13,-458,3884,0.11,-0.11,-1.02,0.13,-4.58,38.84,-6.60,0.10,-4.39,4.31,0.07,-1.52
2,-5,7,19,-461,3885,0.11,-0.13,-0.87,0.19,-4.61,38.85,-6.61,0.08,-4.38,4.29,0.08,-1.35
1,0,4,39,-458,3856,0.10,-0.12,-0.76,0.39,-4.58,38.56,-6.61,0.06,-4.38,4.32,-0.01,-0.97
1,-1,0,27,-465,3895,0.10,-0.11,-0.69,0.27,-4.65,38.95,-6.62,0.05,-4.38,4.32,0.02,-0.54
-1,-6,0,25,-441,3896,0.08,-0.14,-0.62,0.25,-4.41,38.96,-6.61,0.03,-4.37,4.36,0.14,-0.46
-1,-9,-3,13,-433,3867,0.07,-0.18,-0.57,0.13,-4.33,38.67,-6.60,0.01,-4.37,4.36,0.22,-0.15
-1,-11,-19,-9,-436,3892,0.05,-0.23,-0.63,-0.09,-4.36,38.92,-6.58,0.02,-4.37,4.35,0.27,1.13
-2,-12,-21,-12,-441,3886,0.04,-0.28,-0.70,-0.12,-4.41,38.86,-6.57,0.04,-4.37,4.37,0.30,1.23
0,-14,-36,-6,-434,3890,0.03,-0.34,-0.85,-0.06,-4.34,38.90,-6.55,0.04,-4.36,4.32,0.35,2.32
-3,-14,-49,-52,-391,3830,0.01,-0.39,-1.06,-0.52,-3.91,38.30,-6.54,0.05,-4.36,4.38,0.36,3.17
-9,-21,-107,-55,-327,3862,-0.04,-0.48,-1.61,-0.55,-3.27,38.62,-6.53,0.05,-4.35,4.50,0.52,7.45
2,-20,-126,1,-368,3939,-0.03,-0.55,-2.22,0.01,-3.68,39.39,-6.51,0.05,-4.35,4.26,0.52,8.35
0,11,-99,3,-522,3743,-0.02,-0.43,-2.60,0.03,-5.22,37.43,-6.53,0.05,-4.33,4.31,-0.14,5.61
7,7,-92,66,-571,3943,0.02,-0.34,-2.90,0.66,-5.71,39.43,-6.54,0.03,-4.32,4.17,-0.07,4.67
4,0,-34,149,-682,3883,0.04,-0.31,-2.82,1.49,-6.82,38.83,-6.56,0.02,-4.31,4.23,0.07,-0.15
1,2,-7,117,-627,3867,0.04,-0.27,-2.58,1.17,-6.27,38.67,-6.57,0.01,-4.30,4.30,0.03,-2.16
-1,-1,6,40,-508,3888,0.03,-0.25,-2.28,0.40,-5.08,38.88,-6.59,-0.00,-4.29,4.36,0.09,-2.92
-1,-2,7,18,-471,3888,0.02,-0.23,-2.01,0.18,-4.71,38.88,-6.60,-0.02,-4.29,4.37,0.11,-2.69
-1,-2,8,22,-453,3893,0.02,-0.22,-1.76,0.22,-4.53,38.93,-6.60,-0.04,-4.28,4.37,0.12,-2.48
2,-2,2,35,-471,3899,0.03,-0.21,-1.57,0.35,-4.71,38.99,-6.61,-0.05,-4.27,4.32,0.13,-1.75
3,-2,1,22,-484,3893,0.04,-0.20,-1.41,0.22,-4.84,38.93,-6.63,-0.06,-4.27,4.30,0.14,-1.48
0,-1,4,13,-480,3892,0.04,-0.19,-1.24,0.13,-4.80,38.92,-6.65,-0.07,-4.26,4.38,0.12,-1.54
0,-1,3,15,-483,3892,0.03,-0.18,-1.10,0.15,-4.83,38.92,-6.66,-0.08,-4.26,4.39,0.12,-1.29
-1,-4,3,14,-466,3886,0.02,-0.18,-0.97,0.14,-4.66,38.86,-6.68,-0.09,-4.25,4.42,0.19,-1.14
1,-4,5,31,-458,3872,0.03,-0.19,-0.85,0.31,-4.58,38.72,-6.68,-0.11,-4.25,4.38,0.20,-1.16
2,-5,5,30,-460,3877,0.04,-0.20,-0.73,0.30,-4.60,38.77,-6.68,-0.13,-4.25,4.36,0.24,-1.02
1,-4,2,33,-472,3893,0.04,-0.20,-0.65,0.33,-4.72,38.93,-6.69,-0.14,-4.25,4.39,0.23,-0.67
1,-3,3,35,-482,3872,0.04,-0.20,-0.56,0.35,-4.82,38.72,-6.71,-0.16,-4.24,4.40,0.22,-0.66
0,-5,3,22,-468,3882,0.04,-0.21,-0.49,0.22,-4.68,38.82,-6.72,-0.17,-4.24,4.43,0.27,-0.57
-2,-5,9,33,-462,3882,0.02,-0.22,-0.38,0.33,-4.62,38.82,-6.72,-0.19,-4.24,4.47,0.29,-0.96
1,-3,14,23,-475,3896,0.03,-0.22,-0.26,0.23,-4.75,38.96,-6.74,-0.20,-4.24,4.42,0.25,-1.24
1,-3,12,28,-468,3884,0.03,-0.21,-0.16,0.28,-4.68,38.84,-6.75,-0.22,-4.24,4.43,0.26,-0.95
1,-1,9,19,-467,3900,0.03,-0.20,-0.09,0.19,-4.67,39.00,-6.76,-0.23,-4.24,4.43,0.23,-0.61
1,-2,6,20,-470,3885,0.04,-0.19,-0.04,0.20,-4.70,38.85,-6.78,-0.24,-4.24,4.44,0.25,-0.31
1,1,2,17,-468,3884,0.04,-0.17,-0.03,0.17,-4.68,38.84,-6.80,-0.24,-4.24,4.46,0.18,0.05
1,1,2,18,-477,3877,0.04,-0.14,-0.01,0.18,-4.77,38.77,-6.82,-0.24,-4.24,4.47,0.18,0.07
1,2,0,23,-477,3878,0.04,-0.12,-0.01,0.23,-4.77,38.78,-6.83,-0.25,-4.24,4.48,0.16,0.24
1,2,0,25,-481,3879,0.04,-0.09,-0.01,0.25,-4.81,38.79,-6.85,-0.26,-4.24,4.49,0.16,0.24
2,0,-1,29,-482,3886,0.05,-0.08,-0.02,0.29,-4.82,38.86,-6.86,-0.27,-4.24,4.47,0.20,0.32
1,0,-1,47,-487,3910,0.05,-0.08,-0.02,0.47,-4.87,39.10,-6.87,-0.29,-4.24,4.50,0.21,0.32
5,2,3,17,-446,3886,0.08,-0.06,0.00,0.17,-4.46,38.86,-6.85,-0.29,-4.24,4.40,0.16,0.00
5,-1,1,14,-452,3873,0.10,-0.06,0.01,0.14,-4.52,38.73,-6.84,-0.28,-4.24,4.38,0.22,0.18
0,-4,0,31,-466,3891,0.09,-0.08,0.01,0.31,-4.66,38.91,-6.83,-0.30,-4.24,4.49,0.30,0.26
1,-4,-1,24,-472,3871,0.09,-0.09,-0.00,0.24,-4.72,38.71,-6.85,-0.31,-4.24,4.48,0.31,0.34
-2,-9,1,3,-464,3888,0.07,-0.14,0.01,0.03,-4.64,38.88,-6.85,-0.29,-4.24,4.54,0.41,0.18
-2,-10,3,1,-462,3892,0.05,-0.18,0.02,0.01,-4.62,38.92,-6.84,-0.27,-4.24,4.54,0.43,0.03
-2,-13,7,22,-469,3879,0.03,-0.25,0.06,0.22,-4.69,38.79,-6.86,-0.28,-4.24,4.56,0.52,-0.26
-5,-17,10,33,-489,3867,-0.00,-0.32,0.12,0.33,-4.89,38.67,-6.87,-0.30,-4.24,4.64,0.63,-0.45
-5,-22,8,26,-465,3889,-0.03,-0.43,0.16,0.26,-4.65,38.89,-6.86,-0.31,-4.24,4.64,0.77,-0.24
-4,-20,12,13,-449,3873,-0.05,-0.51,0.21,0.13,-4.49,38.73,-6.85,-0.31,-4.24,4.61,0.75,-0.51
-5,-20,10,49,-475,3868,-0.08,-0.58,0.25,0.49,-4.75,38.68,-6.85,-0.33,-4.24,4.65,0.78,-0.30
-5,-17,8,50,-485,3875,-0.10,-0.62,0.28,0.50,-4.85,38.75,-6.86,-0.34,-4.24,4.66,0.74,-0.10
-1,-15,1,-20,-518,3813,-0.10,-0.65,0.25,-0.20,-5.18,38.13,-6.88,-0.33,-4.25,4.59,0.70,0.47
14,0,5,5,-586,3843,-0.00,-0.59,0.26,0.05,-5.86,38.43,-6.90,-0.33,-4.25,4.27,0.38,0.13
-3,-14,11,41,-450,3943,-0.02,-0.61,0.30,0.41,-4.50,39.43,-6.88,-0.35,-4.25,4.61,0.68,-0.33
-3,-16,5,15,-463,3885,-0.04,-0.65,0.30,0.15,-4.63,38.85,-6.87,-0.33,-4.25,4.61,0.72,0.18
0,-9,6,57,-506,3859,-0.03,-0.64,0.31,0.57,-5.06,38.59,-6.89,-0.35,-4.25,4.55,0.59,0.11
-1,-6,9,52,-499,3874,-0.04,-0.61,0.33,0.52,-4.99,38.74,-6.90,-0.36,-4.25,4.58,0.53,-0.12
-3,-9,24,40,-426,3898,-0.05,-0.61,0.44,0.40,-4.26,38.98,-6.88,-0.37,-4.26,4.62,0.59,-1.26
-3,-8,23,38,-409,3901,-0.06,-0.59,0.54,0.38,-4.09,39.01,-6.86,-0.38,-4.26,4.61,0.57,-1.06
0,-6,14,37,-457,3890,-0.06,-0.57,0.57,0.37,-4.57,38.90,-6.85,-0.39,-4.26,4.54,0.54,-0.26
0,-3,17,46,-466,3883,-0.05,-0.53,0.62,0.46,-4.66,38.83,-6.85,-0.41,-4.26,4.54,0.48,-0.46
2,-3,30,78,-507,3879,-0.03,-0.50,0.74,0.78,-5.07,38.79,-6.86,-0.43,-4.27,4.50,0.48,-1.42
3,-3,38,86,-508,3883,-0.01,-0.47,0.90,0.86,-5.08,38.83,-6.87,-0.44,-4.27,4.48,0.48,-1.91
2,2,96,34,-517,3907,0.00,-0.41,1.39,0.34,-5.17,39.07,-6.89,-0.45,-4.28,4.51,0.36,-6.25
-9,-2,100,13,-417,3857,-0.05,-0.38,1.86,0.13,-4.17,38.57,-6.87,-0.44,-4.28,4.74,0.43,-6.04
4,-4,29,14,-480,3882,-0.02,-0.37,1.85,0.14,-4.80,38.82,-6.89,-0.43,-4.29,4.47,0.46,-0.03
0,-2,24,22,-492,3888,-0.02,-0.34,1.82,0.22,-4.92,38.88,-6.90,-0.42,-4.30,4.56,0.41,0.35
4,8,6,9,-486,3889,0.00,-0.26,1.67,0.09,-4.86,38.89,-6.91,-0.41,-4.31,4.48,0.18,1.70
6,5,6,31,-506,3890,0.04,-0.20,1.54,0.31,-5.06,38.90,-6.93,-0.41,-4.31,4.44,0.22,1.55
5,10,11,51,-508,3884,0.07,-0.12,1.45,0.51,-5.08,38.84,-6.95,-0.42,-4.32,4.47,0.11,1.03
5,9,32,53,-477,3890,0.09,-0.05,1.50,0.53,-4.77,38.90,-6.95,-0.44,-4.32,4.46,0.12,-0.69
1,7,40,33,-459,3870,0.09,-0.01,1.60,0.33,-4.59,38.70,-6.93,-0.44,-4.33,4.53,0.15,-1.26
4,3,33,8,-405,3887,0.10,0.01,1.64,0.08,-4.05,38.87,-6.91,-0.43,-4.34,4.45,0.22,-0.62
7,4,23,2,-422,3870,0.14,0.04,1.61,0.02,-4.22,38.70,-6.90,-0.42,-4.34,4.37,0.19,0.20
5,5,12,38,-466,3878,0.15,0.06,1.53,0.38,-4.66,38.78,-6.89,-0.44,-4.35,4.40,0.17,1.03
5,4,10,29,-488,3885,0.17,0.08,1.43,0.29,-4.88,38.85,-6.91,-0.44,-4.35,4.41,0.19,1.09
3,5,2,40,-491,3891,0.17,0.10,1.30,0.40,-4.91,38.91,-6.92,-0.44,-4.36,4.46,0.16,1.62
3,5,1,34,-493,3885,0.17,0.12,1.18,0.34,-4.93,38.85,-6.94,-0.45,-4.36,4.47,0.16,1.56
3,4,-2,50,-492,3881,0.17,0.14,1.05,0.50,-4.92,38.81,-6.95,-0.46,-4.37,4.48,0.18,1.66
5,7,-1,80,-515,3868,0.19,0.16,0.94,0.80,-5.15,38.68,-6.97,-0.47,-4.37,4.44,0.12,1.44
5,9,2,87,-508,3875,0.20,0.20,0.86,0.87,-5.08,38.75,-6.97,-0.49,-4.38,4.45,0.08,1.09
6,6,-47,387,-627,3807,0.21,0.22,0.48,3.87,-6.27,38.07,-6.98,-0.50,-4.38,4.43,0.15,4.81
3,13,-58,350,-673,3813,0.21,0.28,0.08,3.50,-6.73,38.13,-6.99,-0.52,-4.38,4.49,0.00,5.27
-32,-15,-27,139,-692,3699,-0.01,0.16,-0.09,1.39,-6.92,36.99,-7.01,-0.52,-4.38,5.28,0.61,2.44
-31,-20,20,-157,-408,3740,-0.19,0.02,0.04,-1.57,-4.08,37.40,-7.00,-0.50,-4.38,5.30,0.73,-1.38
13,27,14,-149,-445,3963,-0.10,0.18,0.12,-1.49,-4.45,39.63,-7.00,-0.49,-4.38,4.38,-0.28,-0.78
9,10,30,-146,-479,3911,-0.03,0.23,0.29,-1.46,-4.79,39.11,-7.00,-0.47,-4.38,4.44,0.04,-1.94
9,10,50,69,-660,3931,0.03,0.26,0.57,0.69,-6.60,39.31,-7.02,-0.47,-4.38,4.44,0.03,-3.31
-46,-21,34,-24,-356,3620,-0.26,0.11,0.72,-0.24,-3.56,36.20,-7.00,-0.46,-4.38,5.63,0.70,-1.78
11,-7,-62,-170,-381,3959,-0.16,0.06,0.27,-1.70,-3.81,39.59,-6.99,-0.44,-4.39,4.44,0.42,5.83
11,13,-39,-110,-448,3946,-0.08,0.13,0.00,-1.10,-4.48,39.46,-6.99,-0.42,-4.39,4.41,-0.02,3.57
10,15,-29,4,-452,3882,-0.01,0.21,-0.17,0.04,-4.52,38.82,-6.98,-0.41,-4.38,4.40,-0.09,2.52
6,6,-34,67,-518,3860,0.03,0.22,-0.36,0.67,-5.18,38.60,-6.99,-0.42,-4.38,4.48,0.09,2.72
0,10,-45,197,-602,3861,0.02,0.26,-0.60,1.97,-6.02,38.61,-7.00,-0.43,-4.38,4.61,0.01,3.37
0,11,-41,144,-556,3829,0.02,0.30,-0.79,1.44,-5.56,38.29,-7.01,-0.45,-4.38,4.62,-0.01,2.81
2,5,-36,172,-590,3906,0.03,0.30,-0.93,1.72,-5.90,39.06,-7.02,-0.46,-4.37,4.59,0.12,2.22
-9,-3,-34,84,-494,3831,-0.03,0.25,-1.05,0.84,-4.94,38.31,-7.03,-0.48,-4.37,4.83,0.31,1.92
11,-6,-118,71,-342,4081,0.04,0.19,-1.66,0.71,-3.42,40.81,-7.01,-0.48,-4.36,4.39,0.39,8.32
8,-3,-157,150,-459,3760,0.09,0.16,-2.45,1.50,-4.59,37.60,-7.01,-0.50,-4.35,4.44,0.35,10.70
4,-11,-219,17,-427,3770,0.10,0.07,-3.54,0.17,-4.27,37.70,-6.99,-0.50,-4.34,4.51,0.53,14.67
7,-5,-231,-23,-445,3920,0.14,0.03,-4.60,-0.23,-4.45,39.20,-6.98,-0.48,-4.32,4.43,0.41,14.46
0,-15,-174,17,-534,3838,0.12,-0.06,-5.20,0.17,-5.34,38.38,-7.00,-0.48,-4.30,4.59,0.64,8.92
13,9,-148,-118,-502,3912,0.19,0.00,-5.58,-1.18,-5.02,39.12,-7.00,-0.47,-4.28,4.31,0.12,6.27
4,4,-84,-56,-510,3927,0.19,0.03,-5.54,-0.56,-5.10,39.27,-7.01,-0.45,-4.26,4.49,0.21,0.90
12,4,-86,41,-448,3875,0.25,0.05,-5.51,0.41,-4.48,38.75,-6.99,-0.46,-4.23,4.30,0.21,1.10
30,-21,-545,96,284,4059,0.41,-0.09,-8.28,0.96,2.84,40.59,-6.97,-0.47,-4.20,3.88,0.76,20.00
13,-27,-754,-6,312,3796,0.45,-0.24,-12.05,-0.06,3.12,37.96,-6.95,-0.47,-4.15,4.20,0.93,20.00
53,-28,-1223,-84,-78,3985,0.72,-0.39,-18.31,-0.84,-0.78,39.85,-6.93,-0.48,-4.08,3.30,0.99,20.00
53,-33,-1319,-71,-330,3828,0.97,-0.55,-24.52,-0.71,-3.30,38.28,-6.91,-0.48,-3.98,3.22,1.14,20.00
12,-70,-1192,159,-1000,3648,0.95,-0.92,-29.34,1.59,-10.00,36.48,-6.92,-0.50,-3.87,4.07,2.01,20.00
23,-3,-1200,215,-882,3738,1.00,-0.85,-33.73,2.15,-8.82,37.38,-6.93,-0.53,-3.73,3.84,0.64,20.00
-3,-26,-900,242,-1035,3851,0.88,-0.92,-35.84,2.42,-10.35,38.51,-6.95,-0.56,-3.59,4.41,1.15,20.00
35,-46,-875,202,-860,3916,1.00,-1.11,-37.60,2.02,-8.60,39.16,-6.96,-0.59,-3.44,3.61,1.62,20.00
8,0,-598,-135,-628,3973,0.95,-1.00,-37.49,-1.35,-6.28,39.73,-6.96,-0.59,-3.29,4.17,0.66,7.04
-30,-35,-537,108,-900,3866,0.67,-1.11,-37.01,1.08,-9.00,38.66,-6.98,-0.62,-3.15,5.03,1.42,2.42
-3,-22,-470,50,-423,3868,0.59,-1.14,-36.18,0.50,-4.23,38.68,-6.95,-0.64,-3.01,4.49,1.18,-2.29
0,-13,-445,52,-596,3801,0.53,-1.10,-35.28,0.52,-5.96,38.01,-6.97,-0.67,-2.87,4.46,1.00,-3.36
30,6,-424,-33,-400,3865,0.66,-0.96,-34.33,-0.33,-4.00,38.65,-6.95,-0.67,-2.73,3.80,0.58,-4.05
26,1,-424,-38,-478,3855,0.75,-0.85,-33.49,-0.38,-4.78,38.55,-6.95,-0.67,-2.60,3.85,0.66,-3.06
8,-19,-443,-32,-573,3801,0.73,-0.88,-32.84,-0.32,-5.73,38.01,-6.96,-0.68,-2.47,4.23,1.08,-0.71
7,-9,-474,53,-554,3857,0.70,-0.85,-32.45,0.53,-5.54,38.57,-6.97,-0.70,-2.34,4.27,0.88,2.37
3,-4,-500,-222,-416,4046,0.64,-0.79,-32.25,-2.22,-4.16,40.46,-6.96,-0.70,-2.21,4.36,0.76,4.79
20,7,-522,-115,-446,3884,0.70,-0.67,-32.21,-1.15,-4.46,38.84,-6.96,-0.71,-2.08,3.99,0.51,6.70
42,-14,-669,6,-380,3910,0.89,-0.69,-33.07,0.06,-3.80,39.10,-6.94,-0.72,-1.95,3.48,0.94,18.14
31,18,-663,-211,-269,3970,0.99,-0.51,-33.81,-2.11,-2.69,39.70,-6.92,-0.72,-1.82,3.67,0.25,16.76
-12,2,-795,42,-568,3747,0.82,-0.45,-35.28,0.42,-5.68,37.47,-6.93,-0.74,-1.68,4.60,0.57,20.00
15,-35,-823,-32,-451,3949,0.83,-0.61,-36.77,-0.32,-4.51,39.49,-6.92,-0.74,-1.53,4.04,1.37,20.00
32,-5,-861,-40,-560,3794,0.94,-0.58,-38.35,-0.40,-5.60,37.94,-6.93,-0.75,-1.38,3.67,0.76,20.00
50,-7,-921,54,-753,3870,1.15,-0.57,-40.13,0.54,-7.53,38.70,-6.94,-0.77,-1.22,3.25,0.81,20.00
2,-43,-962,31,-694,3664,1.05,-0.77,-41.98,0.31,-6.94,36.64,-6.95,-0.79,-1.06,4.26,1.61,20.00
-7,-27,-995,-35,-435,3795,0.90,-0.86,-43.86,-0.35,-4.35,37.95,-6.94,-0.80,-0.88,4.48,1.31,20.00
18,-40,-1016,30,-217,3715,0.92,-1.02,-45.67,0.30,-2.17,37.15,-6.92,-0.83,-0.70,3.95,1.64,20.00
58,16,-980,-104,-490,4125,1.18,-0.82,-47.08,-1.04,-4.90,41.25,-6.91,-0.83,-0.51,3.06,0.45,20.00
28,17,-1023,30,-492,3945,1.23,-0.63,-48.61,0.30,-4.92,39.45,-6.91,-0.84,-0.32,3.65,0.38,20.00
39,-2,-978,-67,-315,4133,1.35,-0.58,-49.72,-0.67,-3.15,41.33,-6.88,-0.86,-0.12,3.38,0.77,20.00
-33,-58,-944,-3,-745,4113,1.01,-0.88,-50.50,-0.03,-7.45,41.13,-6.89,-0.88,0.07,4.95,2.00,20.00
29,-18,-996,116,-579,3656,1.09,-0.90,-51.53,1.16,-5.79,36.56,-6.90,-0.92,0.28,3.67,1.22,20.00
51,-14,-1003,-44,-101,4122,1.29,-0.90,-52.49,-0.44,-1.01,41.22,-6.88,-0.94,0.49,3.15,1.15,20.00
45,-66,-1036,112,-569,3721,1.44,-1.21,-53.56,1.12,-5.69,37.21,-6.89,-0.98,0.70,3.24,2.32,20.00
-4,-81,-989,-45,-616,3691,1.27,-1.58,-54.24,-0.45,-6.16,36.91,-6.89,-1.00,0.91,4.28,2.74,20.00
-22,-110,-992,34,-381,4089,1.01,-2.09,-54.87,0.34,-3.81,40.89,-6.87,-1.03,1.13,4.70,3.49,19.84
7,-158,-992,-19,-427,3890,0.95,-2.85,-55.43,-0.19,-4.27,38.90,-6.85,-1.05,1.35,4.12,4.68,19.17
45,-157,-988,-42,-467,4045,1.13,-3.52,-55.92,-0.42,-4.67,40.45,-6.84,-1.07,1.57,3.29,4.86,18.25
38,-171,-1003,-31,-525,3992,1.25,-4.21,-56.44,-0.31,-5.25,39.92,-6.84,-1.10,1.79,3.40,5.35,18.89
23,-200,-991,32,-367,3831,1.26,-5.01,-56.84,0.32,-3.67,38.31,-6.81,-1.14,2.02,3.68,6.19,17.40
42,-183,-1025,93,-545,3953,1.39,-5.63,-57.41,0.93,-5.45,39.53,-6.82,-1.19,2.24,3.27,6.04,19.60
41,-177,-1061,103,-509,3670,1.50,-6.14,-58.14,1.03,-5.09,36.70,-6.83,-1.25,2.47,3.26,6.10,20.00
52,-130,-1078,132,-553,3825,1.67,-6.32,-58.90,1.32,-5.53,38.25,-6.83,-1.31,2.70,2.99,5.23,20.00
114,-157,-1092,192,-281,3764,2.20,-6.65,-59.67,1.92,-2.81,37.64,-6.80,-1.38,2.93,1.57,5.91,20.00
36,-178,-1100,23,-441,3966,2.20,-7.07,-60.42,0.23,-4.41,39.66,-6.78,-1.42,3.17,3.14,6.48,20.00
44,-164,-1105,92,-387,3804,2.25,-7.36,-61.12,0.92,-3.87,38.04,-6.75,-1.47,3.41,2.94,6.31,20.00
37,-167,-1091,106,-417,3858,2.25,-7.64,-61.66,1.06,-4.17,38.58,-6.71,-1.54,3.65,3.06,6.49,20.00
34,-151,-1080,78,-333,3793,2.23,-7.80,-62.08,0.78,-3.33,37.93,-6.68,-1.59,3.90,3.11,6.25,18.70
48,-133,-1086,100,-331,3951,2.30,-7.83,-62.50,1.00,-3.31,39.51,-6.64,-1.65,4.14,2.78,5.93,18.71
52,-141,-1088,75,-386,3885,2.39,-7.91,-62.88,0.75,-3.86,38.85,-6.61,-1.70,4.39,2.66,6.15,18.41
66,-169,-1090,160,-510,3927,2.55,-8.15,-63.25,1.60,-5.10,39.27,-6.61,-1.77,4.64,2.32,6.83,18.14
62,-174,-1083,195,-366,3913,2.67,-8.40,-63.53,1.95,-3.66,39.13,-6.58,-1.85,4.88,2.35,7.05,17.20
54,-184,-1035,94,-393,3728,2.74,-8.68,-63.49,0.94,-3.93,37.28,-6.54,-1.90,5.13,2.47,7.36,13.17
52,-163,-1002,117,-355,3872,2.78,-8.81,-63.25,1.17,-3.55,38.72,-6.50,-1.96,5.38,2.48,7.01,10.63
28,-193,-973,151,-414,4003,2.67,-9.10,-62.86,1.51,-4.14,40.03,-6.47,-2.03,5.63,2.97,7.75,8.62
39,-208,-971,142,-410,3929,2.64,-9.46,-62.50,1.42,-4.10,39.29,-6.43,-2.10,5.87,2.73,8.19,8.86
80,-267,-977,159,-346,4000,2.87,-10.14,-62.21,1.59,-3.46,40.00,-6.39,-2.17,6.12,1.81,9.63,9.69
74,-278,-962,90,-335,3921,3.03,-10.82,-61.86,0.90,-3.35,39.21,-6.35,-2.23,6.36,1.86,10.08,8.82
50,-270,-1014,271,-593,3863,3.03,-11.39,-61.86,2.71,-5.93,38.63,-6.35,-2.31,6.60,2.35,10.12,13.21
52,-247,-1029,264,-609,3750,3.05,-11.76,-61.95,2.64,-6.09,37.50,-6.34,-2.40,6.84,2.30,9.81,14.36
61,-178,-1065,247,-568,3831,3.11,-11.67,-62.25,2.47,-5.68,38.31,-6.33,-2.48,7.08,2.09,8.44,17.04
89,-153,-1077,257,-627,3768,3.35,-11.43,-62.59,2.57,-6.27,37.68,-6.33,-2.56,7.32,1.45,7.92,17.64
54,-92,-1075,150,-631,3816,3.34,-10.85,-62.89,1.50,-6.31,38.16,-6.32,-2.63,7.57,2.16,6.57,17.11
58,-83,-1089,149,-493,3726,3.36,-10.27,-63.25,1.49,-4.93,37.26,-6.31,-2.69,7.82,2.07,6.27,17.87
57,-60,-1078,181,-356,3897,3.37,-9.61,-63.50,1.81,-3.56,38.97,-6.27,-2.76,8.06,2.06,5.66,16.63
64,-63,-1060,73,-401,3964,3.43,-9.03,-63.61,0.73,-4.01,39.64,-6.24,-2.81,8.31,1.88,5.60,14.95
94,-82,-1032,122,-491,3723,3.66,-8.63,-63.55,1.22,-4.91,37.23,-6.23,-2.86,8.56,1.20,5.91,12.64
55,-79,-1021,198,-478,3942,3.63,-8.25,-63.42,1.98,-4.78,39.42,-6.22,-2.92,8.81,2.00,5.78,11.84
98,-10,-972,189,-426,3878,3.86,-7.49,-63.01,1.89,-4.26,38.78,-6.20,-2.96,9.06,1.04,4.20,8.16
67,-24,-969,205,-628,3851,3.88,-6.88,-62.62,2.05,-6.28,38.51,-6.19,-3.01,9.30,1.66,4.35,8.34
64,14,-1012,216,-642,3718,3.89,-6.11,-62.53,2.16,-6.42,37.18,-6.17,-3.06,9.55,1.71,3.40,12.08
90,28,-1011,234,-462,3893,4.05,-5.33,-62.44,2.34,-4.62,38.93,-6.16,-3.12,9.79,1.13,2.94,12.08
53,42,-981,53,-426,3796,3.97,-4.54,-62.18,0.53,-4.26,37.96,-6.13,-3.15,10.04,1.89,2.46,9.83
57,82,-988,190,-370,3907,3.92,-3.59,-61.99,1.90,-3.70,39.07,-6.09,-3.18,10.29,1.79,1.41,10.63
61,60,-1003,146,-476,3964,3.90,-2.86,-61.91,1.46,-4.76,39.64,-6.07,-3.20,10.53,1.70,1.67,11.98
40,34,-999,48,-415,4022,3.75,-2.37,-61.81,0.48,-4.15,40.22,-6.04,-3.22,10.78,2.15,2.08,11.74
56,6,-993,140,-540,3772,3.72,-2.09,-61.69,1.40,-5.40,37.72,-6.03,-3.25,11.02,1.83,2.59,11.36
85,3,-961,52,-370,3948,3.86,-1.87,-61.38,0.52,-3.70,39.48,-5.99,-3.26,11.26,1.17,2.60,8.99
45,21,-838,187,-235,3882,3.75,-1.55,-60.36,1.87,-2.35,38.82,-5.95,-3.29,11.51,1.99,2.17,-0.24
66,49,-789,122,-463,3951,3.78,-1.10,-59.13,1.22,-4.63,39.51,-5.93,-3.30,11.74,1.54,1.48,-2.98
58,-18,-693,156,-393,4117,3.76,-1.10,-57.45,1.56,-3.93,41.17,-5.89,-3.31,11.97,1.68,2.85,-9.16
44,-32,-691,129,-379,3880,3.65,-1.18,-55.92,1.29,-3.79,38.80,-5.86,-3.32,12.19,1.98,3.17,-7.55
26,-52,-680,139,-301,3849,3.44,-1.38,-54.47,1.39,-3.01,38.49,-5.82,-3.34,12.41,2.37,3.64,-6.81
35,-50,-694,162,-434,3950,3.31,-1.55,-53.26,1.62,-4.34,39.50,-5.80,-3.35,12.62,2.21,3.65,-4.21
36,-103,-700,139,-397,3793,3.20,-2.02,-52.20,1.39,-3.97,37.93,-5.78,-3.36,12.83,2.21,4.86,-2.48
44,-114,-715,50,-388,3951,3.15,-2.52,-51.35,0.50,-3.88,39.51,-5.75,-3.37,13.03,2.04,5.23,-0.22
45,-162,-734,124,-427,4012,3.11,-3.25,-50.69,1.24,-4.27,40.12,-5.73,-3.39,13.23,2.02,6.42,2.14
85,-151,-747,171,-491,3715,3.32,-3.85,-50.18,1.71,-4.91,37.15,-5.72,-3.41,13.43,1.15,6.37,3.83
80,-107,-777,275,-457,3785,3.47,-4.12,-49.90,2.75,-4.57,37.85,-5.71,-3.46,13.63,1.20,5.58,6.69
64,-85,-773,277,-440,3986,3.52,-4.22,-49.62,2.77,-4.40,39.86,-5.70,-3.51,13.82,1.50,5.20,6.66
60,-113,-811,141,-527,3819,3.53,-4.49,-49.61,1.41,-5.27,38.19,-5.69,-3.54,14.02,1.57,5.86,9.88
55,-127,-827,156,-543,3980,3.51,-4.82,-49.69,1.56,-5.43,39.80,-5.68,-3.57,14.21,1.67,6.25,11.13
55,-119,-843,174,-459,3896,3.50,-5.06,-49.87,1.74,-4.59,38.96,-5.67,-3.59,14.41,1.67,6.17,12.27
35,-123,-833,157,-470,3911,3.36,-5.30,-49.96,1.57,-4.70,39.11,-5.65,-3.62,14.60,2.10,6.34,11.30
52,-55,-829,169,-589,3809,3.34,-5.11,-50.02,1.69,-5.89,38.09,-5.65,-3.65,14.80,1.76,4.92,10.88
67,-42,-842,235,-583,3886,3.42,-4.85,-50.15,2.35,-5.83,38.86,-5.64,-3.69,15.00,1.43,4.61,11.81
106,62,-819,-26,-652,3668,3.72,-3.99,-50.14,-0.26,-6.52,36.68,-5.62,-3.71,15.20,0.54,2.28,9.87
42,73,-834,147,-586,3859,3.61,-3.15,-50.21,1.47,-5.86,38.59,-5.61,-3.74,15.39,1.87,1.84,11.05
58,207,-836,149,-312,3659,3.60,-1.57,-50.29,1.49,-3.12,36.59,-5.58,-3.75,15.59,1.52,-1.31,11.11
21,190,-844,148,-438,4019,3.37,-0.25,-50.41,1.48,-4.38,40.19,-5.56,-3.75,15.79,2.32,-1.32,11.64
-4,142,-820,210,-432,4015,3.01,0.64,-50.37,2.10,-4.32,40.15,-5.54,-3.75,15.99,2.92,-0.58,9.64
103,148,-842,114,-406,3740,3.33,1.48,-50.47,1.14,-4.06,37.40,-5.52,-3.75,16.20,0.64,-0.94,11.37
38,91,-847,45,-355,4009,3.23,1.88,-50.59,0.45,-3.55,40.09,-5.49,-3.74,16.40,1.97,0.11,11.64
21,70,-842,93,-410,3828,3.04,2.12,-50.67,0.93,-4.10,38.28,-5.47,-3.74,16.60,2.36,0.46,11.12
65,77,-799,85,-311,3926,3.13,2.38,-50.47,0.85,-3.11,39.26,-5.44,-3.73,16.80,1.41,0.25,7.69
63,46,-793,91,-396,3798,3.20,2.42,-50.26,0.91,-3.96,37.98,-5.42,-3.72,17.01,1.42,0.86,7.41
79,104,-767,316,-297,4000,3.36,2.82,-49.92,3.16,-2.97,40.00,-5.38,-3.74,17.21,1.02,-0.41,5.60
40,97,-715,50,-384,4023,3.27,3.13,-49.29,0.50,-3.84,40.23,-5.35,-3.73,17.40,1.83,-0.37,1.92
35,135,-813,48,-451,3878,3.16,3.64,-49.32,0.48,-4.51,38.78,-5.33,-3.71,17.60,1.95,-1.29,10.18
37,132,-839,112,-485,4051,3.07,4.08,-49.50,1.12,-4.85,40.51,-5.32,-3.70,17.80,1.92,-1.35,12.15
90,136,-876,-20,-314,3918,3.31,4.50,-49.90,-0.20,-3.14,39.18,-5.29,-3.68,18.00,0.76,-1.56,14.81
38,145,-889,49,-474,3974,3.21,4.93,-50.33,0.49,-4.74,39.74,-5.27,-3.67,18.20,1.83,-1.87,15.40
32,170,-915,49,-299,3765,3.08,5.48,-50.88,0.49,-2.99,37.65,-5.24,-3.64,18.41,1.97,-2.54,16.95
33,138,-901,77,-288,3866,2.98,5.77,-51.29,0.77,-2.88,38.66,-5.21,-3.62,18.62,1.95,-1.99,15.27
42,68,-896,57,-339,3979,2.94,5.61,-51.62,0.57,-3.39,39.79,-5.18,-3.60,18.82,1.77,-0.54,14.44
61,57,-900,8,-266,3807,3.01,5.40,-51.95,0.08,-2.66,38.07,-5.15,-3.58,19.03,1.34,-0.27,14.38
37,57,-938,6,-498,3911,2.94,5.20,-52.48,0.06,-4.98,39.11,-5.13,-3.56,19.25,1.84,-0.23,16.97
23,39,-956,0,-414,3927,2.78,4.92,-53.06,0.00,-4.14,39.27,-5.11,-3.55,19.46,2.15,0.21,17.80
63,38,-1036,-20,-383,3943,2.89,4.66,-54.07,-0.20,-3.83,39.43,-5.09,-3.53,19.68,1.29,0.28,20.00
33,30,-1037,7,-439,3747,2.80,4.38,-54.99,0.07,-4.39,37.47,-5.07,-3.51,19.90,1.91,0.52,20.00
52,41,-1034,-170,-416,3932,2.84,4.19,-55.80,-1.70,-4.16,39.32,-5.05,-3.50,20.12,1.50,0.33,20.00
22,39,-1053,148,-393,3667,2.69,4.01,-56.64,1.48,-3.93,36.67,-5.04,-3.49,20.35,2.15,0.42,20.00
38,58,-1052,-62,-438,4024,2.65,3.96,-57.40,-0.62,-4.38,40.24,-5.02,-3.48,20.58,1.82,0.03,20.00
46,48,-1041,5,-389,3806,2.67,3.86,-58.01,0.05,-3.89,38.06,-5.00,-3.46,20.81,1.64,0.26,19.14
32,46,-991,-32,-389,3753,2.60,3.75,-58.25,-0.32,-3.89,37.53,-4.98,-3.45,21.04,1.93,0.32,14.61
34,73,-985,-47,-361,3797,2.54,3.82,-58.44,-0.47,-3.61,37.97,-4.96,-3.44,21.28,1.89,-0.26,13.87
39,95,-925,24,-511,3967,2.53,4.02,-58.23,0.24,-5.11,39.67,-4.94,-3.43,21.51,1.78,-0.77,9.01
36,83,-899,41,-390,3927,2.49,4.12,-57.89,0.41,-3.90,39.27,-4.93,-3.41,21.74,1.84,-0.56,7.19
49,60,-845,0,-419,3897,2.54,4.08,-57.26,0.00,-4.19,38.97,-4.91,-3.40,21.97,1.55,-0.09,3.34
43,68,-848,47,-501,3869,2.55,4.09,-56.71,0.47,-5.01,38.69,-4.90,-3.39,22.20,1.66,-0.26,4.23
26,74,-770,60,-543,3899,2.46,4.13,-55.73,0.60,-5.43,38.99,-4.89,-3.38,22.42,2.03,-0.40,-1.25
6,81,-759,14,-489,3805,2.25,4.21,-54.79,0.14,-4.89,38.05,-4.88,-3.37,22.64,2.48,-0.57,-1.10
32,32,-680,1,-311,3985,2.22,3.98,-53.46,0.01,-3.11,39.85,-4.85,-3.35,22.86,1.95,0.47,-6.25
31,-20,-623,44,-146,3985,2.18,3.46,-51.91,0.44,-1.46,39.85,-4.82,-3.34,23.07,1.95,1.67,-9.28
-3,36,-578,193,-315,3817,1.95,3.34,-50.25,1.93,-3.15,38.17,-4.80,-3.33,23.27,2.70,0.55,-11.16
46,49,-582,-6,-527,3808,2.03,3.30,-48.77,-0.06,-5.27,38.08,-4.79,-3.32,23.46,1.67,0.29,-9.11
4,65,-574,342,-503,4061,1.85,3.37,-47.40,3.42,-5.03,40.61,-4.79,-3.33,23.65,2.57,-0.04,-8.19
-2,47,-555,308,-627,4035,1.66,3.32,-46.04,3.08,-6.27,40.35,-4.79,-3.33,23.84,2.75,0.34,-8.23
47,-15,-639,-18,-595,3742,1.78,2.89,-45.34,-0.18,-5.95,37.42,-4.78,-3.33,24.02,1.72,1.71,-0.30
1,38,-677,160,-602,3691,1.61,2.84,-44.93,1.60,-6.02,36.91,-4.78,-3.33,24.20,2.70,0.65,3.38
46,65,-759,129,-533,4154,1.73,2.95,-45.07,1.29,-5.33,41.54,-4.78,-3.32,24.38,1.75,0.07,10.16
40,-2,-735,77,-526,4180,1.80,2.64,-45.05,0.77,-5.26,41.80,-4.78,-3.31,24.56,1.85,1.51,8.14
16,-62,-775,63,-397,3764,1.72,2.00,-45.27,0.63,-3.97,37.64,-4.77,-3.30,24.74,2.35,2.90,11.26
21,-14,-780,-56,-346,3709,1.67,1.71,-45.50,-0.56,-3.46,37.09,-4.75,-3.29,24.92,2.25,1.99,11.40
20,-26,-733,-63,-431,3969,1.63,1.38,-45.42,-0.63,-4.31,39.69,-4.74,-3.29,25.10,2.28,2.32,7.50
45,-25,-725,6,-298,3893,1.74,1.09,-45.30,0.06,-2.98,38.93,-4.72,-3.28,25.28,1.73,2.37,6.95
23,12,-692,26,-298,3894,1.71,1.06,-44.99,0.26,-2.98,38.94,-4.70,-3.27,25.46,2.17,1.63,4.51
-5,24,-689,20,-300,3838,1.50,1.10,-44.70,0.20,-3.00,38.38,-4.69,-3.26,25.64,2.78,1.37,4.59
34,32,-681,89,-448,3945,1.56,1.18,-44.38,0.89,-4.48,39.45,-4.68,-3.26,25.82,1.97,1.18,4.27
24,18,-676,57,-491,3840,1.55,1.18,-44.07,0.57,-4.91,38.40,-4.68,-3.26,26.00,2.18,1.46,4.20
32,37,-717,130,-597,3949,1.59,1.28,-44.03,1.30,-5.97,39.49,-4.68,-3.26,26.17,2.00,1.05,7.71
23,25,-717,56,-578,3811,1.57,1.31,-44.00,0.56,-5.78,38.11,-4.68,-3.26,26.35,2.19,1.29,7.73
7,26,-770,6,-450,3992,1.46,1.34,-44.30,0.06,-4.50,39.92,-4.67,-3.25,26.52,2.54,1.25,11.86
44,47,-815,27,-502,3822,1.58,1.49,-44.84,0.27,-5.02,38.22,-4.67,-3.25,26.70,1.76,0.78,15.03
34,-36,-786,-29,-267,4246,1.63,1.12,-45.15,-0.29,-2.67,42.46,-4.65,-3.24,26.88,1.93,2.56,12.20
-19,-29,-794,367,-363,3837,1.35,0.83,-45.48,3.67,-3.63,38.37,-4.64,-3.27,27.06,3.08,2.52,12.48
24,-3,-789,-56,-341,3901,1.36,0.73,-45.75,-0.56,-3.41,39.01,-4.62,-3.26,27.25,2.19,2.02,11.74
-3,34,-830,125,-344,3735,1.21,0.86,-46.23,1.25,-3.44,37.35,-4.62,-3.26,27.43,2.78,1.22,14.63
16,32,-913,-130,-453,4043,1.18,0.97,-47.18,-1.30,-4.53,40.43,-4.61,-3.25,27.62,2.39,1.23,20.00
31,-25,-924,-2,-571,4140,1.26,0.72,-48.10,-0.02,-5.71,41.40,-4.60,-3.25,27.81,2.07,2.46,20.00
78,-89,-981,-205,-367,3777,1.61,0.11,-49.27,-2.05,-3.67,37.77,-4.59,-3.25,28.01,1.00,3.92,20.00
46,-92,-988,-115,-398,4022,1.73,-0.46,-50.37,-1.15,-3.98,40.22,-4.57,-3.25,28.21,1.61,4.14,20.00
57,-75,-976,-189,-331,3852,1.90,-0.88,-51.29,-1.89,-3.31,38.52,-4.56,-3.25,28.41,1.33,3.91,20.00
17,-76,-1001,-21,-492,3800,1.81,-1.25,-52.27,-0.21,-4.92,38.00,-4.55,-3.26,28.62,2.16,4.04,20.00
54,-162,-1074,-19,-411,4038,1.96,-2.11,-53.59,-0.19,-4.11,40.38,-4.53,-3.26,28.83,1.36,6.03,20.00
107,-161,-1060,38,-516,4014,2.42,-2.89,-54.70,0.38,-5.16,40.14,-4.53,-3.28,29.05,0.15,6.23,20.00
57,-216,-1124,-138,-451,3779,2.52,-3.91,-56.08,-1.38,-4.51,37.79,-4.51,-3.30,29.27,1.13,7.64,20.00
41,-197,-1122,-13,-368,3795,2.52,-4.72,-57.32,-0.13,-3.68,37.95,-4.49,-3.32,29.50,1.44,7.48,20.00
61,-182,-1177,-103,-404,3915,2.64,-5.36,-58.77,-1.03,-4.04,39.15,-4.47,-3.34,29.73,0.99,7.37,20.00
72,-210,-1175,-47,-260,3986,2.82,-6.11,-60.06,-0.47,-2.60,39.86,-4.44,-3.36,29.97,0.70,8.16,20.00
48,-183,-1137,39,-422,3804,2.83,-6.61,-60.99,0.39,-4.22,38.04,-4.43,-3.39,30.21,1.18,7.76,20.00
31,-187,-1132,29,-295,3949,2.73,-7.09,-61.79,0.29,-2.95,39.49,-4.40,-3.42,30.46,1.53,8.00,20.00
74,-241,-1118,-36,-346,3922,2.91,-7.85,-62.43,-0.36,-3.46,39.22,-4.38,-3.46,30.70,0.59,9.32,19.90
78,-247,-1157,-14,-575,3837,3.10,-8.57,-63.25,-0.14,-5.75,38.37,-4.37,-3.50,30.95,0.45,9.67,20.00
47,-181,-1214,-55,-287,3785,3.07,-8.82,-64.33,-0.55,-2.87,37.85,-4.34,-3.53,31.21,1.07,8.42,20.00
129,-136,-1205,27,-235,3898,3.55,-8.77,-65.25,0.27,-2.35,38.98,-4.30,-3.57,31.47,-0.75,7.51,20.00
60,-125,-1264,40,-527,3875,3.56,-8.65,-66.43,0.40,-5.27,38.75,-4.29,-3.61,31.73,0.64,7.29,20.00
87,-97,-1280,1,-405,3683,3.74,-8.38,-67.60,0.01,-4.05,36.83,-4.26,-3.65,32.00,0.02,6.67,20.00
67,-71,-1290,128,-484,4002,3.77,-7.98,-68.71,1.28,-4.84,40.02,-4.24,-3.69,32.27,0.41,6.05,20.00
105,-52,-1288,67,-489,3709,4.04,-7.50,-69.69,0.67,-4.89,37.09,-4.22,-3.73,32.54,-0.45,5.56,20.00
59,-14,-1239,75,-265,3875,3.99,-6.83,-70.28,0.75,-2.65,38.75,-4.19,-3.76,32.82,0.48,4.63,20.00
73,-1,-1234,128,-250,3774,4.04,-6.15,-70.78,1.28,-2.50,37.74,-4.15,-3.79,33.10,0.15,4.20,19.83
139,80,-1196,181,-266,3958,4.48,-5.05,-71.00,1.81,-2.66,39.58,-4.11,-3.81,33.39,-1.34,2.27,16.34
57,49,-1180,31,-302,3777,4.38,-4.25,-71.10,0.31,-3.02,37.77,-4.07,-3.83,33.67,0.34,2.69,14.85
48,141,-1181,149,-307,3805,4.24,-2.96,-71.19,1.49,-3.07,38.05,-4.04,-3.84,33.95,0.54,0.48,14.81
65,164,-1175,41,-342,3801,4.21,-1.67,-71.24,0.41,-3.42,38.01,-4.01,-3.85,34.24,0.18,-0.34,14.22
17,176,-1116,44,-418,3768,3.89,-0.43,-70.92,0.44,-4.18,37.68,-3.99,-3.86,34.52,1.23,-0.92,9.58
101,220,-1092,-63,-267,3767,4.12,0.96,-70.49,-0.63,-2.67,37.67,-3.96,-3.86,34.80,-0.57,-2.19,8.03
44,345,-987,54,-479,3906,3.98,2.97,-69.46,0.54,-4.79,39.06,-3.93,-3.85,35.08,0.62,-5.28,0.32
-9,352,-969,17,-501,3855,3.52,4.82,-68.43,0.17,-5.01,38.55,-3.91,-3.84,35.35,1.81,-5.94,-0.01
36,335,-939,-159,-431,3956,3.39,6.38,-67.31,-1.59,-4.31,39.56,-3.89,-3.81,35.62,0.91,-6.03,-1.26
9,348,-934,-73,-320,3778,3.11,7.86,-66.28,-0.73,-3.20,37.78,-3.86,-3.78,35.89,1.52,-6.72,-0.50
-18,274,-910,7,-330,4327,2.69,8.75,-65.20,0.07,-3.30,43.27,-3.84,-3.75,36.15,2.17,-5.48,-1.29
6,84,-977,-117,-147,4303,2.45,8.39,-64.64,-1.17,-1.47,43.03,-3.80,-3.71,36.41,1.72,-1.54,5.03
80,-113,-1079,-44,-376,3862,2.70,6.86,-64.76,-0.44,-3.76,38.62,-3.78,-3.69,36.67,0.14,2.86,13.52
37,-84,-1086,57,-517,3618,2.65,5.66,-64.91,0.57,-5.17,36.18,-3.77,-3.67,36.93,1.01,2.59,13.92
21,76,-1094,-59,-402,3800,2.52,5.56,-65.09,-0.59,-4.02,38.00,-3.75,-3.65,37.20,1.36,-0.65,14.37
31,84,-1091,19,-257,3974,2.45,5.51,-65.24,0.19,-2.57,39.74,-3.73,-3.63,37.46,1.16,-0.82,13.93
9,-9,-1123,-46,-446,4016,2.26,4.91,-65.56,-0.46,-4.46,40.16,-3.71,-3.61,37.72,1.65,1.23,16.24
38,-30,-1114,-60,-436,3988,2.27,4.23,-65.80,-0.60,-4.36,39.88,-3.69,-3.59,37.98,1.05,1.83,15.19
45,-32,-996,197,-472,3739,2.32,3.62,-65.30,1.97,-4.72,37.39,-3.69,-3.59,38.25,0.89,2.03,5.76
32,-3,-985,123,-424,3695,2.28,3.24,-64.78,1.23,-4.24,36.95,-3.68,-3.59,38.50,1.15,1.55,5.42
-13,98,-960,99,-486,3820,1.97,3.51,-64.15,0.99,-4.86,38.20,-3.67,-3.58,38.76,2.15,-0.59,4.02
15,79,-981,42,-414,3931,1.87,3.64,-63.72,0.42,-4.14,39.31,-3.66,-3.57,39.02,1.60,-0.25,6.29
46,-15,-1015,-58,-347,3898,1.96,3.19,-63.54,-0.58,-3.47,38.98,-3.64,-3.55,39.27,0.93,1.78,9.36
33,-14,-996,-109,-401,3951,1.97,2.78,-63.26,-1.09,-4.01,39.51,-3.62,-3.54,39.52,1.18,1.86,8.06
-18,36,-976,9,-416,3805,1.66,2.72,-62.89,0.09,-4.16,38.05,-3.61,-3.53,39.78,2.30,0.86,6.79
-22,64,-976,-81,-421,3806,1.36,2.84,-62.56,-0.81,-4.21,38.06,-3.60,-3.52,40.03,2.45,0.25,7.17
31,8,-1007,-176,-389,3959,1.41,2.61,-62.44,-1.76,-3.89,39.59,-3.58,-3.51,40.28,1.35,1.44,9.91
-2,14,-1017,-155,-463,3738,1.26,2.43,-62.40,-1.55,-4.63,37.38,-3.57,-3.50,40.53,2.06,1.36,10.79
16,6,-963,-86,-479,3957,1.23,2.22,-62.04,-0.86,-4.79,39.57,-3.56,-3.49,40.77,1.69,1.57,6.63
20,-9,-943,84,-395,3906,1.23,1.95,-61.58,0.84,-3.95,39.06,-3.56,-3.48,41.02,1.61,1.95,5.45
29,10,-875,69,-359,3904,1.28,1.81,-60.76,0.69,-3.59,39.04,-3.55,-3.48,41.26,1.40,1.60,0.63
25,-18,-884,-36,-316,3850,1.31,1.52,-60.08,-0.36,-3.16,38.50,-3.53,-3.47,41.50,1.47,2.24,2.18
15,2,-849,-75,-459,3964,1.27,1.38,-59.25,-0.75,-4.59,39.64,-3.52,-3.46,41.74,1.67,1.87,0.17
15,-4,-838,-47,-520,3852,1.23,1.22,-58.44,-0.47,-5.20,38.52,-3.52,-3.46,41.97,1.68,2.03,0.17
20,1,-791,-140,-356,3865,1.23,1.10,-57.42,-1.40,-3.56,38.65,-3.50,-3.45,42.20,1.57,1.96,-2.63
8,-9,-806,-156,-453,3900,1.16,0.94,-56.59,-1.56,-4.53,39.00,-3.49,-3.44,42.43,1.83,2.20,-0.41
26,-9,-820,-79,-383,3954,1.20,0.79,-55.94,-0.79,-3.83,39.54,-3.48,-3.44,42.65,1.44,2.24,1.53
17,-2,-812,-49,-443,3758,1.18,0.70,-55.30,-0.49,-4.43,37.58,-3.48,-3.43,42.87,1.63,2.12,1.59
18,9,-784,-15,-376,3751,1.18,0.68,-54.55,-0.15,-3.76,37.51,-3.47,-3.43,43.09,1.60,1.89,0.08
43,3,-774,64,-359,4133,1.32,0.63,-53.82,0.64,-3.59,41.33,-3.46,-3.42,43.31,1.05,2.03,0.07
9,9,-750,29,-432,3872,1.24,0.63,-53.01,0.29,-4.32,38.72,-3.45,-3.42,43.52,1.76,1.90,-1.03
28,9,-721,28,-410,3846,1.29,0.62,-52.11,0.28,-4.10,38.46,-3.45,-3.42,43.72,1.36,1.90,-2.44
0,1,-674,3,-370,3962,1.16,0.56,-51.01,0.03,-3.70,39.62,-3.44,-3.41,43.93,1.95,2.08,-5.15
15,-6,-646,-95,-402,4079,1.14,0.47,-49.85,-0.95,-4.02,40.79,-3.43,-3.40,44.13,1.65,2.24,-6.18
14,-14,-626,121,-360,3896,1.11,0.34,-48.68,1.21,-3.60,38.96,-3.43,-3.40,44.32,1.68,2.44,-6.53
10,-17,-648,-48,-305,3881,1.06,0.20,-47.77,-0.48,-3.05,38.81,-3.42,-3.39,44.51,1.77,2.53,-3.60
9,-4,-656,-52,-456,3825,1.01,0.15,-46.99,-0.52,-4.56,38.25,-3.42,-3.39,44.70,1.80,2.28,-2.03
-2,-22,-667,-2,-425,3951,0.89,0.01,-46.36,-0.02,-4.25,39.51,-3.41,-3.39,44.88,2.05,2.68,-0.37
13,-27,-653,23,-326,4052,0.88,-0.16,-45.71,0.23,-3.26,40.52,-3.41,-3.38,45.07,1.74,2.82,-0.81
14,-14,-632,10,-314,3888,0.88,-0.23,-44.99,0.10,-3.14,38.88,-3.40,-3.38,45.25,1.72,2.58,-1.76
-2,-11,-606,-40,-352,3851,0.78,-0.27,-44.19,-0.40,-3.52,38.51,-3.39,-3.37,45.42,2.07,2.52,-3.04
17,14,-603,-72,-386,4003,0.81,-0.16,-43.45,-0.72,-3.86,40.03,-3.39,-3.37,45.60,1.67,1.98,-2.43
5,-2,-581,-20,-363,3893,0.76,-0.16,-42.65,-0.20,-3.63,38.93,-3.38,-3.36,45.77,1.92,2.30,-3.37
10,-6,-577,-17,-408,3844,0.74,-0.18,-41.90,-0.17,-4.08,38.44,-3.38,-3.36,45.93,1.83,2.39,-2.85
1,-30,-597,-8,-572,3916,0.67,-0.34,-41.35,-0.08,-5.72,39.16,-3.38,-3.36,46.10,2.03,2.92,-0.53
7,-31,-589,-21,-423,4072,0.65,-0.50,-40.81,-0.21,-4.23,40.72,-3.38,-3.35,46.26,1.91,2.98,-0.58
-2,-17,-593,-135,-432,3823,0.57,-0.55,-40.35,-1.35,-4.32,38.23,-3.38,-3.35,46.42,2.11,2.71,0.29
19,-7,-619,-119,-387,3943,0.63,-0.54,-40.09,-1.19,-3.87,39.43,-3.37,-3.34,46.58,1.67,2.50,2.79
19,2,-582,75,-309,3972,0.68,-0.47,-39.63,0.75,-3.09,39.72,-3.37,-3.34,46.74,1.65,2.29,0.18
1,9,-551,62,-218,3855,0.62,-0.37,-39.03,0.62,-2.18,38.55,-3.36,-3.33,46.89,2.03,2.12,-1.75
-3,-51,-539,91,-246,3949,0.54,-0.64,-38.41,0.91,-2.46,39.49,-3.35,-3.32,47.05,2.12,3.41,-2.06
-3,-42,-446,-26,174,4059,0.47,-0.84,-37.29,-0.26,1.74,40.59,-3.32,-3.33,47.20,2.13,3.28,-8.64
-11,0,-281,130,1233,4719,0.35,-0.75,-35.28,1.30,12.33,47.19,-3.29,-3.34,47.34,2.30,2.41,-20.00
-16,-124,-164,9,649,4118,0.22,-1.43,-32.75,0.09,6.49,41.18,-3.27,-3.34,47.47,2.42,5.12,-20.00
8,44,-137,21,-761,3732,0.25,-1.02,-30.31,0.21,-7.61,37.32,-3.28,-3.35,47.59,1.93,1.59,-20.00
27,64,-175,-53,-839,3852,0.39,-0.53,-28.35,-0.53,-8.39,38.52,-3.29,-3.35,47.70,1.51,1.05,-20.00
26,54,-552,-538,-960,3673,0.51,-0.15,-28.88,-5.38,-9.60,36.73,-3.29,-3.34,47.82,1.50,1.15,10.14
24,34,-671,-479,-683,3879,0.60,0.07,-30.08,-4.79,-6.83,38.79,-3.29,-3.34,47.94,1.52,1.49,18.81
41,1,-850,-249,-726,3941,0.79,0.07,-32.26,-2.49,-7.26,39.41,-3.29,-3.33,48.07,1.12,2.16,20.00
32,-14,-894,-211,-638,3946,0.91,-0.02,-34.49,-2.11,-6.38,39.46,-3.29,-3.33,48.20,1.28,2.48,20.00
2,-82,-944,-26,-417,3825,0.83,-0.52,-36.80,-0.26,-4.17,38.25,-3.29,-3.32,48.35,1.91,4.00,20.00
22,-54,-948,-27,-427,4026,0.88,-0.80,-38.90,-0.27,-4.27,40.26,-3.29,-3.32,48.50,1.48,3.51,20.00
0,-42,-937,-115,-393,3963,0.79,-0.97,-40.73,-1.15,-3.93,39.63,-3.29,-3.32,48.67,1.95,3.31,20.00
6,-39,-941,-98,-318,3950,0.75,-1.11,-42.39,-0.98,-3.18,39.50,-3.28,-3.31,48.84,1.84,3.28,20.00
41,-20,-960,-190,-273,3839,0.93,-1.12,-44.01,-1.90,-2.73,38.39,-3.27,-3.31,49.01,1.07,2.90,20.00
12,-9,-964,-160,-407,3837,0.91,-1.07,-45.49,-1.60,-4.07,38.37,-3.26,-3.31,49.19,1.66,2.66,20.00
13,-8,-1015,-129,-456,3735,0.89,-1.01,-47.13,-1.29,-4.56,37.35,-3.26,-3.31,49.38,1.64,2.62,20.00
10,-40,-1022,106,-464,3960,0.87,-1.15,-48.65,1.06,-4.64,39.60,-3.26,-3.31,49.57,1.71,3.31,20.00
4,-18,-960,30,-409,3958,0.80,-1.15,-49.64,0.30,-4.09,39.58,-3.26,-3.32,49.77,1.85,2.87,20.00
24,-16,-960,-161,-310,3858,0.87,-1.13,-50.54,-1.61,-3.10,38.58,-3.25,-3.31,49.97,1.42,2.82,19.26
-8,-21,-1087,-432,-609,3762,0.73,-1.14,-52.11,-4.32,-6.09,37.62,-3.24,-3.31,50.18,2.10,2.93,20.00
1,-35,-1102,59,-303,3955,0.67,-1.24,-53.62,0.59,-3.03,39.55,-3.23,-3.31,50.39,1.93,3.24,20.00
-1,-10,-961,210,-287,3940,0.59,-1.18,-54.12,2.10,-2.87,39.40,-3.24,-3.33,50.61,1.99,2.72,15.12
8,-11,-931,127,-303,3781,0.58,-1.13,-54.39,1.27,-3.03,37.81,-3.23,-3.33,50.83,1.81,2.73,12.25
2,-5,-817,53,-227,3790,0.54,-1.05,-53.93,0.53,-2.27,37.90,-3.22,-3.33,51.04,1.94,2.58,3.11
13,-11,-803,25,-252,3966,0.56,-1.01,-53.44,0.25,-2.52,39.66,-3.21,-3.33,51.26,1.70,2.69,2.49
8,-11,-845,73,-153,3965,0.56,-0.98,-53.25,0.73,-1.53,39.65,-3.19,-3.33,51.47,1.79,2.68,6.26
6,-8,-812,189,-271,3795,0.54,-0.93,-52.88,1.89,-2.71,37.95,-3.19,-3.33,51.68,1.84,2.61,3.88
9,-22,-645,215,-407,3993,0.54,-0.97,-51.53,2.15,-4.07,39.93,-3.19,-3.35,51.88,1.78,2.92,-8.69
11,-24,-607,122,-275,3915,0.55,-1.02,-50.08,1.22,-2.75,39.15,-3.19,-3.34,52.08,1.73,2.97,-10.23
17,-15,-538,142,-417,3915,0.60,-1.01,-48.35,1.42,-4.17,39.15,-3.19,-3.35,52.28,1.60,2.79,-14.07
18,-15,-478,93,-405,3896,0.65,-1.00,-46.43,0.93,-4.05,38.96,-3.19,-3.36,52.46,1.56,2.79,-16.92
25,-16,-441,29,-399,3853,0.74,-1.00,-44.48,0.29,-3.99,38.53,-3.19,-3.36,52.64,1.40,2.81,-17.78
22,-13,-457,-67,-300,3964,0.80,-0.98,-42.82,-0.67,-3.00,39.64,-3.18,-3.35,52.81,1.44,2.74,-14.50
24,-22,-466,-70,-193,3893,0.86,-1.01,-41.38,-0.70,-1.93,38.93,-3.17,-3.35,52.97,1.37,2.93,-12.06
19,-26,-465,-166,-141,3854,0.89,-1.07,-40.08,-1.66,-1.41,38.54,-3.15,-3.34,53.13,1.45,3.03,-10.64
17,-9,-489,-167,-334,3929,0.91,-1.02,-39.05,-1.67,-3.34,39.29,-3.14,-3.34,53.29,1.48,2.66,-7.42
-11,-32,-483,-85,-275,4153,0.75,-1.11,-38.09,-0.85,-2.75,41.53,-3.13,-3.33,53.44,2.09,3.15,-6.81
7,-19,-546,-318,-296,3957,0.72,-1.12,-37.61,-3.18,-2.96,39.57,-3.13,-3.33,53.59,1.72,2.89,-0.92
13,-4,-582,-374,-281,3679,0.73,-1.03,-37.40,-3.74,-2.81,36.79,-3.12,-3.32,53.74,1.59,2.55,2.36
18,-3,-697,-239,-405,3751,0.76,-0.94,-37.91,-2.39,-4.05,37.51,-3.11,-3.32,53.89,1.48,2.51,11.50
5,-12,-736,-245,-355,4016,0.72,-0.92,-38.61,-2.45,-3.55,40.16,-3.11,-3.31,54.05,1.75,2.68,13.98
14,-5,-808,-123,-317,3842,0.73,-0.86,-39.68,-1.23,-3.17,38.42,-3.10,-3.30,54.20,1.56,2.52,18.82
1,-18,-821,-97,-153,3778,0.66,-0.88,-40.72,-0.97,-1.53,37.78,-3.08,-3.30,54.37,1.83,2.78,18.70
14,-42,-789,40,-233,3733,0.68,-1.05,-41.46,0.40,-2.33,37.33,-3.07,-3.29,54.53,1.56,3.31,15.11
29,-24,-800,-36,-162,3932,0.79,-1.09,-42.20,-0.36,-1.62,39.32,-3.06,-3.29,54.70,1.21,2.96,15.17
17,-39,-881,-29,-225,3862,0.82,-1.22,-43.35,-0.29,-2.25,38.62,-3.05,-3.29,54.87,1.44,3.29,20.00
0,-37,-880,16,-249,3895,0.73,-1.33,-44.38,0.16,-2.49,38.95,-3.04,-3.28,55.05,1.80,3.28,19.37
31,-26,-917,37,-397,4123,0.85,-1.35,-45.54,0.37,-3.97,41.23,-3.04,-3.28,55.23,1.14,3.06,20.00
16,-44,-909,-23,-372,3621,0.86,-1.48,-46.53,-0.23,-3.72,36.21,-3.03,-3.28,55.42,1.44,3.47,19.30
55,-17,-840,174,-507,3806,1.11,-1.44,-47.00,1.74,-5.07,38.06,-3.04,-3.30,55.60,0.58,2.91,12.89
7,-44,-795,151,-373,3982,1.04,-1.56,-47.15,1.51,-3.73,39.82,-3.04,-3.31,55.79,1.58,3.50,8.89
10,-25,-770,158,-288,3795,1.00,-1.56,-47.13,1.58,-2.88,37.95,-3.04,-3.31,55.98,1.53,3.12,6.79
7,-34,-774,108,-279,3979,0.94,-1.61,-47.14,1.08,-2.79,39.79,-3.03,-3.31,56.17,1.60,3.32,7.10
15,-49,-784,38,-262,3978,0.94,-1.75,-47.21,0.38,-2.62,39.78,-3.02,-3.31,56.36,1.43,3.66,7.86
26,-45,-772,52,-399,3898,1.00,-1.85,-47.20,0.52,-3.99,38.98,-3.02,-3.32,56.54,1.19,3.61,6.85
-10,-34,-619,61,-468,3828,0.84,-1.87,-46.25,0.61,-4.68,38.28,-3.02,-3.32,56.73,1.97,3.40,-5.03
-7,1,-581,62,-409,3758,0.72,-1.68,-45.17,0.62,-4.09,37.58,-3.02,-3.33,56.91,1.94,2.63,-6.99
19,26,-402,-14,-502,3643,0.76,-1.35,-43.11,-0.14,-5.02,36.43,-3.03,-3.33,57.08,1.40,2.04,-19.75
17,8,-362,-93,-596,4068,0.79,-1.17,-41.00,-0.93,-5.96,40.68,-3.03,-3.33,57.24,1.44,2.36,-20.00
12,-3,-374,-49,-371,4048,0.78,-1.07,-39.19,-0.49,-3.71,40.48,-3.02,-3.33,57.40,1.54,2.55,-17.56
