gyroADC_X,gyroADC_Y,gyroADC_Z,accADC_X,accADC_Y,accADC_Z,GyroX,GyroY,GyroZ,AccX,AccY,AccZ,roll_IMU,pitch_IMU,yaw_IMU,roll_PID,pitch_PID,yaw_PID
-59,-63,14,-20,-306,3899,-2.75,-2.76,2.43,-0.20,-3.06,38.99,-4.34,-0.04,63.00,4.82,2.06,-0.17
-25,-28,-12,-97,-407,3969,-2.63,-2.65,2.11,-0.97,-4.07,39.69,-4.37,-0.03,62.99,4.11,1.31,-0.13
-6,-11,-19,-75,-429,3959,-2.40,-2.46,1.78,-0.75,-4.29,39.59,-4.39,-0.03,62.99,3.68,0.91,-0.13
-5,-11,-21,-93,-409,3924,-2.19,-2.28,1.48,-0.93,-4.09,39.24,-4.41,-0.03,62.98,3.61,0.86,-0.13
-1,-2,-15,-59,-361,3927,-1.98,-2.06,1.24,-0.59,-3.61,39.27,-4.43,-0.02,62.97,3.49,0.62,-0.14
0,-1,-13,-55,-350,3920,-1.78,-1.86,1.03,-0.55,-3.50,39.20,-4.45,-0.02,62.97,3.42,0.54,-0.15
1,1,-9,-51,-353,3912,-1.60,-1.67,0.88,-0.51,-3.53,39.12,-4.47,-0.01,62.97,3.37,0.44,-0.16
1,0,-12,-39,-360,3928,-1.43,-1.50,0.72,-0.39,-3.60,39.28,-4.49,-0.00,62.96,3.33,0.41,-0.16
4,4,-27,24,-436,3913,-1.26,-1.33,0.48,0.24,-4.36,39.13,-4.51,-0.01,62.96,3.24,0.29,-0.14
2,3,-27,-14,-403,3921,-1.13,-1.18,0.27,-0.14,-4.03,39.21,-4.54,-0.01,62.96,3.26,0.27,-0.14
0,-5,-17,-18,-305,3907,-1.01,-1.09,0.14,-0.18,-3.05,39.07,-4.54,-0.00,62.96,3.27,0.40,-0.16
-1,-6,-19,-12,-329,3908,-0.92,-1.02,0.01,-0.12,-3.29,39.08,-4.56,0.00,62.96,3.28,0.40,-0.16
-1,-7,-8,65,-293,3909,-0.83,-0.96,-0.04,0.65,-2.93,39.09,-4.55,-0.02,62.96,3.25,0.41,-0.18
-1,-1,-9,169,-355,3953,-0.76,-0.87,-0.09,1.69,-3.55,39.53,-4.56,-0.04,62.96,3.24,0.28,-0.18
0,-7,-19,-176,-305,3937,-0.68,-0.82,-0.20,-1.76,-3.05,39.37,-4.56,-0.02,62.96,3.20,0.38,-0.16
-5,-10,-13,-107,-345,3925,-0.64,-0.80,-0.26,-1.07,-3.45,39.25,-4.57,-0.01,62.96,3.29,0.43,-0.17
36,-4,-27,-94,-356,3886,-0.36,-0.75,-0.40,-0.94,-3.56,38.86,-4.58,0.00,62.96,2.39,0.28,-0.15
9,-6,-14,-71,-304,3940,-0.27,-0.71,-0.44,-0.71,-3.04,39.40,-4.58,0.02,62.96,2.91,0.30,-0.17
4,4,-7,-43,-366,3950,-0.22,-0.61,-0.44,-0.43,-3.66,39.50,-4.59,0.03,62.96,3.01,0.07,-0.18
3,4,-8,-34,-389,3937,-0.18,-0.53,-0.45,-0.34,-3.89,39.37,-4.61,0.03,62.96,3.03,0.04,-0.18
3,13,-6,-26,-421,3915,-0.14,-0.40,-0.44,-0.26,-4.21,39.15,-4.63,0.04,62.97,3.03,-0.18,-0.19
9,18,-2,-36,-397,3903,-0.07,-0.25,-0.41,-0.36,-3.97,39.03,-4.65,0.04,62.97,2.90,-0.33,-0.19
34,34,15,-66,-334,3908,0.14,-0.01,-0.27,-0.66,-3.34,39.08,-4.65,0.06,62.97,2.34,-0.73,-0.22
30,28,14,-70,-319,3933,0.31,0.16,-0.16,-0.70,-3.19,39.33,-4.65,0.08,62.97,2.37,-0.66,-0.22
7,5,11,-31,-229,3928,0.32,0.17,-0.08,-0.31,-2.29,39.28,-4.63,0.08,62.97,2.83,-0.20,-0.21
-1,-3,9,-28,-221,3900,0.28,0.14,-0.02,-0.28,-2.21,39.00,-4.61,0.09,62.97,2.99,-0.04,-0.20
-3,-1,8,3,-295,3906,0.24,0.12,0.03,0.03,-2.95,39.06,-4.59,0.08,62.97,3.03,-0.07,-0.20
-9,-4,8,-14,-320,3925,0.16,0.08,0.08,-0.14,-3.20,39.25,-4.60,0.10,62.97,3.18,-0.01,-0.20
-42,-42,30,-54,-338,3917,-0.11,-0.18,0.25,-0.54,-3.38,39.17,-4.61,0.11,62.97,3.93,0.83,-0.24
-29,-36,25,-67,-345,3901,-0.28,-0.38,0.38,-0.67,-3.45,39.01,-4.62,0.13,62.97,3.71,0.75,-0.22
-5,-17,17,-70,-319,3927,-0.28,-0.45,0.45,-0.70,-3.19,39.27,-4.62,0.15,62.96,3.23,0.37,-0.21
-2,-14,16,-59,-336,3927,-0.27,-0.49,0.50,-0.59,-3.36,39.27,-4.63,0.16,62.96,3.17,0.31,-0.21
0,-5,12,-39,-336,3922,-0.24,-0.47,0.52,-0.39,-3.36,39.22,-4.64,0.17,62.96,3.13,0.11,-0.20
0,-7,12,-39,-344,3932,-0.21,-0.47,0.54,-0.39,-3.44,39.32,-4.65,0.19,62.96,3.13,0.15,-0.20
0,-11,16,-25,-350,3927,-0.19,-0.49,0.59,-0.25,-3.50,39.27,-4.67,0.19,62.96,3.14,0.23,-0.21
-15,-25,22,14,-352,3885,-0.27,-0.59,0.66,0.14,-3.52,38.85,-4.69,0.18,62.95,3.47,0.55,-0.22
-4,-14,23,-36,-341,3893,-0.26,-0.62,0.74,-0.36,-3.41,38.93,-4.70,0.19,62.95,3.25,0.33,-0.22
-4,-14,16,-46,-346,3929,-0.26,-0.64,0.76,-0.46,-3.46,39.29,-4.71,0.20,62.95,3.26,0.33,-0.20
-2,-10,19,-46,-307,3911,-0.25,-0.64,0.80,-0.46,-3.07,39.11,-4.70,0.22,62.94,3.21,0.23,-0.21
-2,-9,18,-43,-325,3912,-0.23,-0.63,0.83,-0.43,-3.25,39.12,-4.71,0.23,62.94,3.21,0.20,-0.21
0,-3,14,7,-391,3920,-0.21,-0.58,0.83,0.07,-3.91,39.20,-4.73,0.22,62.94,3.18,0.07,-0.20
-1,-4,9,7,-373,3913,-0.20,-0.55,0.80,0.07,-3.73,39.13,-4.74,0.22,62.93,3.20,0.09,-0.19
-1,-39,4,-19,-340,3981,-0.18,-0.73,0.75,-0.19,-3.40,39.81,-4.76,0.22,62.93,3.21,0.85,-0.18
-3,-56,0,-10,-312,3952,-0.18,-1.00,0.67,-0.10,-3.12,39.52,-4.74,0.21,62.93,3.24,1.27,-0.18
-2,-16,-1,-41,-360,3902,-0.18,-1.00,0.60,-0.41,-3.60,39.02,-4.76,0.22,62.92,3.23,0.45,-0.18
2,-8,-2,-9,-346,3948,-0.15,-0.95,0.53,-0.09,-3.46,39.48,-4.78,0.21,62.92,3.15,0.28,-0.18
6,6,7,54,-317,3944,-0.10,-0.82,0.52,0.54,-3.17,39.44,-4.77,0.19,62.92,3.05,-0.02,-0.19
4,6,6,13,-338,3920,-0.06,-0.70,0.50,0.13,-3.38,39.20,-4.78,0.17,62.92,3.09,-0.04,-0.19
3,8,10,-81,-360,3903,-0.04,-0.58,0.51,-0.81,-3.60,39.03,-4.79,0.18,62.91,3.11,-0.12,-0.20
4,7,12,-133,-358,3947,-0.01,-0.48,0.54,-1.33,-3.58,39.47,-4.79,0.20,62.91,3.08,-0.14,-0.20
0,2,5,-66,-345,3913,-0.01,-0.42,0.51,-0.66,-3.45,39.13,-4.80,0.21,62.91,3.17,-0.07,-0.19
1,2,6,-47,-329,3924,-0.00,-0.36,0.50,-0.47,-3.29,39.24,-4.80,0.23,62.91,3.15,-0.09,-0.19
2,3,9,-32,-308,3923,0.01,-0.31,0.50,-0.32,-3.08,39.23,-4.78,0.24,62.91,3.11,-0.14,-0.20
0,9,11,-45,-300,3936,0.01,-0.22,0.52,-0.45,-3.00,39.36,-4.77,0.25,62.90,3.15,-0.29,-0.20
4,42,8,-11,-347,3870,0.03,0.05,0.52,-0.11,-3.47,38.70,-4.79,0.25,62.90,3.07,-1.03,-0.19
3,63,3,-20,-354,3844,0.05,0.43,0.48,-0.20,-3.54,38.44,-4.81,0.25,62.90,3.10,-1.57,-0.19
4,33,-12,-67,-334,3999,0.07,0.59,0.36,-0.67,-3.34,39.99,-4.81,0.27,62.90,3.07,-1.01,-0.16
7,18,-22,-90,-427,3907,0.10,0.64,0.19,-0.90,-4.27,39.07,-4.82,0.29,62.90,3.01,-0.73,-0.15
1,-1,-13,-57,-330,3918,0.10,0.57,0.09,-0.57,-3.30,39.18,-4.82,0.31,62.90,3.13,-0.34,-0.17
0,-3,-9,-56,-349,3928,0.09,0.50,0.03,-0.56,-3.49,39.28,-4.83,0.33,62.90,3.16,-0.29,-0.17
0,-5,-8,-54,-348,3929,0.08,0.42,-0.02,-0.54,-3.48,39.29,-4.83,0.34,62.90,3.17,-0.24,-0.18
1,-4,-6,-35,-364,3931,0.08,0.35,-0.06,-0.35,-3.64,39.31,-4.85,0.35,62.90,3.16,-0.25,-0.18
-1,-2,-6,-55,-359,3934,0.06,0.30,-0.09,-0.55,-3.59,39.34,-4.86,0.37,62.90,3.21,-0.28,-0.18
-1,-2,-6,-49,-348,3918,0.05,0.26,-0.12,-0.49,-3.48,39.18,-4.87,0.38,62.90,3.22,-0.28,-0.18
0,-3,-5,-49,-343,3916,0.05,0.22,-0.13,-0.49,-3.43,39.16,-4.88,0.40,62.90,3.21,-0.26,-0.18
0,-3,-5,-50,-358,3923,0.04,0.18,-0.15,-0.50,-3.58,39.23,-4.89,0.41,62.90,3.22,-0.26,-0.18
2,0,-3,-28,-319,3948,0.05,0.16,-0.16,-0.28,-3.19,39.48,-4.87,0.41,62.90,3.16,-0.32,-0.19
1,2,1,-33,-305,3913,0.05,0.15,-0.13,-0.33,-3.05,39.13,-4.86,0.42,62.90,3.17,-0.36,-0.19
0,-2,-2,-38,-330,3905,0.05,0.13,-0.13,-0.38,-3.30,39.05,-4.85,0.44,62.90,3.19,-0.28,-0.19
-1,-5,-2,-54,-328,3928,0.04,0.08,-0.13,-0.54,-3.28,39.28,-4.85,0.45,62.90,3.21,-0.22,-0.19
1,-4,-2,-29,-335,3932,0.04,0.05,-0.13,-0.29,-3.35,39.32,-4.86,0.44,62.90,3.18,-0.22,-0.19
2,-3,-3,-40,-338,3933,0.05,0.03,-0.14,-0.40,-3.38,39.33,-4.86,0.46,62.90,3.16,-0.25,-0.19
2,-2,1,-42,-332,3918,0.05,0.01,-0.12,-0.42,-3.32,39.18,-4.86,0.47,62.91,3.15,-0.28,-0.19
3,-1,1,-38,-337,3926,0.07,0.01,-0.10,-0.38,-3.37,39.26,-4.87,0.49,62.91,3.14,-0.30,-0.19
2,0,0,-46,-351,3924,0.07,0.00,-0.09,-0.46,-3.51,39.24,-4.88,0.50,62.91,3.16,-0.33,-0.19
3,-2,-2,-63,-344,3935,0.08,-0.01,-0.09,-0.63,-3.44,39.35,-4.89,0.52,62.91,3.14,-0.30,-0.19
4,-1,-1,-163,-349,3912,0.10,-0.01,-0.09,-1.63,-3.49,39.12,-4.89,0.54,62.91,3.12,-0.33,-0.19
1,-2,-6,-141,-377,3911,0.10,-0.02,-0.12,-1.41,-3.77,39.11,-4.90,0.55,62.91,3.19,-0.32,-0.18
-1,-5,9,-33,-379,3906,0.08,-0.05,-0.05,-0.33,-3.79,39.06,-4.92,0.55,62.91,3.24,-0.25,-0.20
1,-5,11,-27,-361,3879,0.08,-0.08,0.02,-0.27,-3.61,38.79,-4.93,0.54,62.91,3.21,-0.24,-0.21
-1,-11,-13,-18,-320,3912,0.06,-0.14,-0.06,-0.18,-3.20,39.12,-4.92,0.53,62.91,3.25,-0.09,-0.17
-1,-12,-18,-23,-313,3921,0.05,-0.20,-0.16,-0.23,-3.13,39.21,-4.90,0.52,62.91,3.24,-0.05,-0.16
-7,-10,-42,-69,-374,3889,0.00,-0.24,-0.40,-0.69,-3.74,38.89,-4.92,0.53,62.91,3.39,-0.08,-0.12
-2,-16,-49,-52,-402,3964,-0.01,-0.31,-0.66,-0.52,-4.02,39.64,-4.93,0.53,62.91,3.30,0.06,-0.12
-3,-10,-20,-71,-468,3914,-0.03,-0.34,-0.72,-0.71,-4.68,39.14,-4.95,0.54,62.92,3.34,-0.06,-0.17
-2,-7,6,-68,-485,3910,-0.04,-0.35,-0.61,-0.68,-4.85,39.10,-4.97,0.54,62.92,3.33,-0.12,-0.21
-3,-36,70,-13,-491,3989,-0.05,-0.53,-0.12,-0.13,-4.91,39.89,-4.99,0.53,62.92,3.37,0.52,-0.31
-9,-91,84,-8,-371,3886,-0.10,-1.04,0.40,-0.08,-3.71,38.86,-5.00,0.52,62.92,3.51,1.79,-0.32
3,-23,72,-13,-300,3962,-0.07,-1.07,0.80,-0.13,-3.00,39.62,-4.99,0.51,62.91,3.25,0.43,-0.30
3,-6,52,1,-343,3781,-0.05,-1.00,1.04,0.01,-3.43,37.81,-4.99,0.49,62.91,3.25,0.07,-0.26
1,-6,33,-36,-364,3837,-0.04,-0.94,1.14,-0.36,-3.64,38.37,-5.01,0.48,62.90,3.30,0.06,-0.23
1,1,44,0,-397,3878,-0.03,-0.84,1.29,0.00,-3.97,38.78,-5.03,0.47,62.90,3.30,-0.10,-0.24
-2,-2,91,14,-349,3889,-0.04,-0.77,1.72,0.14,-3.49,38.89,-5.03,0.45,62.89,3.37,-0.05,-0.31
-3,0,104,6,-369,3910,-0.05,-0.69,2.18,0.06,-3.69,39.10,-5.04,0.43,62.88,3.40,-0.10,-0.33
1,3,126,-11,-288,3906,-0.04,-0.60,2.73,-0.11,-2.88,39.06,-5.02,0.43,62.87,3.31,-0.18,-0.36
-1,-3,127,3,-261,3965,-0.04,-0.56,3.23,0.03,-2.61,39.65,-5.01,0.42,62.86,3.34,-0.06,-0.35
5,3,119,-68,-283,3974,-0.01,-0.49,3.63,-0.68,-2.83,39.74,-4.99,0.43,62.84,3.19,-0.21,-0.33
0,12,117,-56,-221,3923,-0.01,-0.36,3.99,-0.56,-2.21,39.23,-4.97,0.43,62.83,3.28,-0.43,-0.32
2,8,81,-18,-193,3894,0.01,-0.28,4.08,-0.18,-1.93,38.94,-4.95,0.43,62.81,3.23,-0.37,-0.26
2,7,73,-27,-209,3905,0.02,-0.21,4.12,-0.27,-2.09,39.05,-4.94,0.43,62.79,3.21,-0.37,-0.24
2,4,39,-93,-331,3906,0.03,-0.16,3.94,-0.93,-3.31,39.06,-4.93,0.45,62.78,3.21,-0.33,-0.19
1,3,33,-78,-326,3921,0.03,-0.13,3.75,-0.78,-3.26,39.21,-4.93,0.47,62.76,3.22,-0.34,-0.18
-1,1,56,5,-177,3915,0.02,-0.11,3.72,0.05,-1.77,39.15,-4.91,0.47,62.75,3.26,-0.30,-0.22
-3,1,67,17,-130,3908,0.00,-0.09,3.75,0.17,-1.30,39.08,-4.89,0.46,62.73,3.29,-0.30,-0.24
-30,-10,180,-3,-23,3750,-0.18,-0.14,4.48,-0.03,-0.23,37.50,-4.88,0.46,62.72,3.88,-0.06,-0.42
-17,-3,176,-29,23,3900,-0.27,-0.15,5.10,-0.29,0.23,39.00,-4.86,0.46,62.69,3.62,-0.20,-0.40
-1,0,39,-134,-385,3868,-0.25,-0.13,4.83,-1.34,-3.85,38.68,-4.87,0.48,62.68,3.30,-0.28,-0.17
-19,-19,-52,-148,-381,3868,-0.34,-0.24,4.03,-1.48,-3.81,38.68,-4.88,0.50,62.66,3.70,0.12,-0.03
-1,-2,-113,-31,-417,3917,-0.31,-0.22,2.94,-0.31,-4.17,39.17,-4.90,0.50,62.65,3.34,-0.23,0.05
2,-2,-118,6,-449,4005,-0.27,-0.21,1.92,0.06,-4.49,40.05,-4.91,0.49,62.64,3.28,-0.22,0.04
8,10,-92,8,-360,3963,-0.19,-0.13,1.17,0.08,-3.60,39.63,-4.92,0.47,62.64,3.14,-0.48,-0.01
11,12,-81,9,-324,3920,-0.10,-0.05,0.56,0.09,-3.24,39.20,-4.92,0.46,62.63,3.05,-0.53,-0.04
-8,-11,-56,27,-282,3925,-0.14,-0.11,0.16,0.27,-2.82,39.25,-4.90,0.44,62.63,3.44,-0.04,-0.09
10,7,-91,2,-252,3965,-0.07,-0.05,-0.41,0.02,-2.52,39.65,-4.89,0.43,62.63,3.04,-0.41,-0.04
15,14,-111,4,-447,3909,0.03,0.04,-1.05,0.04,-4.47,39.09,-4.91,0.43,62.64,2.92,-0.58,-0.02
12,17,-116,-8,-410,3846,0.10,0.14,-1.65,-0.08,-4.10,38.46,-4.92,0.42,62.65,2.98,-0.66,-0.02
11,-2,-95,49,-428,3893,0.16,0.11,-2.06,0.49,-4.28,38.93,-4.94,0.41,62.65,2.99,-0.26,-0.06
6,-5,-90,29,-431,3932,0.18,0.07,-2.41,0.29,-4.31,39.32,-4.95,0.40,62.66,3.10,-0.18,-0.08
2,-1,-93,42,-323,3926,0.17,0.06,-2.73,0.42,-3.23,39.26,-4.95,0.38,62.67,3.18,-0.25,-0.08
2,6,-98,12,-330,3914,0.17,0.09,-3.06,0.12,-3.30,39.14,-4.94,0.37,62.69,3.17,-0.39,-0.07
8,61,-124,-27,-363,3838,0.20,0.45,-3.51,-0.27,-3.63,38.38,-4.96,0.37,62.70,3.06,-1.61,-0.04
8,100,-124,-53,-380,3823,0.23,1.02,-3.91,-0.53,-3.80,38.23,-4.97,0.38,62.72,3.06,-2.56,-0.04
8,36,-99,-24,-370,3834,0.25,1.13,-4.13,-0.24,-3.70,38.34,-4.99,0.38,62.73,3.06,-1.29,-0.09
23,39,-87,-47,-372,3915,0.37,1.26,-4.24,-0.47,-3.72,39.15,-5.00,0.40,62.75,2.73,-1.40,-0.11
76,75,-64,-36,-373,3906,0.80,1.59,-4.21,-0.36,-3.73,39.06,-5.02,0.41,62.77,1.55,-2.23,-0.15
78,74,-68,-59,-386,3952,1.19,1.88,-4.20,-0.59,-3.86,39.52,-5.03,0.42,62.79,1.41,-2.30,-0.14
49,41,-76,-99,-399,3879,1.37,1.94,-4.25,-0.99,-3.99,38.79,-5.04,0.44,62.80,1.95,-1.66,-0.13
55,39,-73,-87,-442,3926,1.57,1.99,-4.27,-0.87,-4.42,39.26,-5.04,0.46,62.82,1.78,-1.64,-0.14
22,14,-31,-93,-431,3907,1.55,1.87,-4.03,-0.93,-4.31,39.07,-5.05,0.48,62.84,2.47,-1.11,-0.20
13,7,-16,-70,-361,3930,1.47,1.73,-3.72,-0.70,-3.61,39.30,-5.05,0.50,62.85,2.67,-0.94,-0.22
26,22,-11,-14,-273,3951,1.48,1.69,-3.42,-0.14,-2.73,39.51,-5.03,0.50,62.87,2.39,-1.24,-0.23
18,18,-23,-42,-266,3946,1.44,1.63,-3.22,-0.42,-2.66,39.46,-5.01,0.51,62.88,2.54,-1.15,-0.20
-36,-21,-14,-1,-251,3879,1.08,1.34,-2.98,-0.01,-2.51,38.79,-4.99,0.50,62.89,3.73,-0.27,-0.21
-32,-24,-15,-13,-267,3866,0.78,1.06,-2.77,-0.13,-2.67,38.66,-4.96,0.50,62.90,3.72,-0.13,-0.21
4,-19,-55,-74,-273,3924,0.72,0.84,-2.83,-0.74,-2.73,39.24,-4.95,0.51,62.92,2.99,-0.18,-0.14
-9,-20,-64,-64,-308,3977,0.60,0.63,-2.94,-0.64,-3.08,39.77,-4.93,0.53,62.93,3.27,-0.11,-0.13
-2,-9,-81,-111,-399,3945,0.52,0.51,-3.14,-1.11,-3.99,39.45,-4.94,0.54,62.94,3.16,-0.31,-0.10
-10,-14,-72,-88,-450,3919,0.41,0.38,-3.27,-0.88,-4.50,39.19,-4.95,0.55,62.95,3.36,-0.18,-0.12
-2,-2,-15,-55,-381,3937,0.36,0.33,-3.03,-0.55,-3.81,39.37,-4.97,0.56,62.97,3.22,-0.42,-0.21
3,0,-6,-58,-331,3946,0.34,0.29,-2.76,-0.58,-3.31,39.46,-4.96,0.57,62.98,3.12,-0.46,-0.23
2,2,3,-41,-355,3913,0.32,0.28,-2.47,-0.41,-3.55,39.13,-4.98,0.58,62.99,3.16,-0.50,-0.24
1,-1,1,-37,-346,3913,0.29,0.24,-2.22,-0.37,-3.46,39.13,-4.99,0.57,63.00,3.19,-0.42,-0.23
0,-2,3,-36,-313,3912,0.26,0.21,-1.98,-0.36,-3.13,39.12,-4.97,0.57,63.00,3.21,-0.39,-0.23
-7,-6,1,-32,-308,3914,0.19,0.15,-1.77,-0.32,-3.08,39.14,-4.95,0.56,63.01,3.36,-0.29,-0.22
-15,-14,-2,-40,-320,3930,0.08,0.05,-1.61,-0.40,-3.20,39.30,-4.93,0.56,63.02,3.54,-0.10,-0.21
-19,-19,-3,-31,-301,3915,-0.04,-0.07,-1.46,-0.31,-3.01,39.15,-4.92,0.56,63.02,3.64,0.04,-0.21
-28,-30,-12,-43,-316,3939,-0.21,-0.25,-1.39,-0.43,-3.16,39.39,-4.90,0.56,63.03,3.86,0.31,-0.19
-24,-28,-22,-55,-336,3923,-0.33,-0.39,-1.39,-0.55,-3.36,39.23,-4.90,0.58,63.03,3.81,0.30,-0.18
-20,-23,-19,-97,-407,3914,-0.42,-0.49,-1.36,-0.97,-4.07,39.14,-4.92,0.59,63.04,3.77,0.22,-0.18
-35,-33,-11,-97,-401,3896,-0.59,-0.65,-1.29,-0.97,-4.01,38.96,-4.93,0.60,63.04,4.13,0.45,-0.19
-60,-56,-7,-53,-356,3934,-0.90,-0.92,-1.21,-0.53,-3.56,39.34,-4.95,0.60,63.05,4.73,0.99,-0.20
-37,-39,-4,-58,-343,3903,-1.04,-1.07,-1.11,-0.58,-3.43,39.03,-4.96,0.61,63.05,4.31,0.68,-0.20
-9,-11,0,-26,-319,3919,-0.99,-1.03,-1.00,-0.26,-3.19,39.19,-4.95,0.60,63.06,3.72,0.11,-0.21
-6,-8,2,-23,-332,3936,-0.92,-0.97,-0.89,-0.23,-3.32,39.36,-4.95,0.58,63.06,3.64,0.05,-0.21
-2,-4,4,-36,-348,3927,-0.84,-0.90,-0.77,-0.36,-3.48,39.27,-4.97,0.57,63.06,3.55,-0.05,-0.21
-2,-5,5,-31,-356,3920,-0.77,-0.84,-0.67,-0.31,-3.56,39.20,-4.99,0.55,63.06,3.54,-0.03,-0.21
-2,-5,9,-16,-355,3920,-0.71,-0.79,-0.55,-0.16,-3.55,39.20,-5.00,0.54,63.07,3.53,-0.04,-0.21
-2,-6,8,13,-340,3911,-0.65,-0.75,-0.44,0.13,-3.40,39.11,-5.00,0.51,63.07,3.52,-0.01,-0.21
-4,-10,-5,-21,-354,3914,-0.61,-0.73,-0.43,-0.21,-3.54,39.14,-5.01,0.50,63.07,3.56,0.08,-0.19
-4,-13,-4,-22,-357,3917,-0.57,-0.74,-0.41,-0.22,-3.57,39.17,-5.03,0.48,63.07,3.56,0.15,-0.19
-4,-10,-5,-11,-388,3941,-0.54,-0.73,-0.40,-0.11,-3.88,39.41,-5.05,0.47,63.07,3.56,0.09,-0.19
-3,-14,-1,-32,-381,3948,-0.50,-0.74,-0.37,-0.32,-3.81,39.48,-5.07,0.47,63.07,3.54,0.18,-0.19
-11,-109,13,-37,-324,3806,-0.52,-1.33,-0.25,-0.37,-3.24,38.06,-5.05,0.47,63.07,3.70,2.27,-0.22
-6,-59,14,-27,-328,3722,-0.50,-1.56,-0.14,-0.27,-3.28,37.22,-5.05,0.44,63.07,3.59,1.33,-0.22
-1,-9,14,-20,-325,3906,-0.46,-1.46,-0.04,-0.20,-3.25,39.06,-5.04,0.43,63.07,3.47,0.30,-0.21
-1,-8,13,-24,-327,3937,-0.42,-1.36,0.04,-0.24,-3.27,39.37,-5.02,0.42,63.07,3.45,0.26,-0.21
4,-4,0,-12,-365,3913,-0.35,-1.25,0.04,-0.12,-3.65,39.13,-5.04,0.40,63.07,3.34,0.16,-0.19
21,-4,0,-132,-462,3863,-0.19,-1.15,0.04,-1.32,-4.62,38.63,-5.05,0.41,63.07,2.96,0.12,-0.19
7,-8,-7,56,-390,3910,-0.13,-1.08,-0.01,0.56,-3.90,39.10,-5.06,0.39,63.07,3.23,0.20,-0.18
4,-4,-12,51,-417,3931,-0.09,-1.00,-0.08,0.51,-4.17,39.31,-5.07,0.37,63.07,3.29,0.11,-0.17
-8,-22,4,-185,-319,3886,-0.13,-1.03,-0.05,-1.85,-3.19,38.86,-5.07,0.39,63.07,3.54,0.47,-0.20
-7,-29,58,-286,-394,3971,-0.16,-1.11,0.31,-2.86,-3.94,39.71,-5.07,0.40,63.07,3.53,0.63,-0.28
-5,-6,61,118,-265,3979,-0.18,-1.03,0.65,1.18,-2.65,39.79,-5.06,0.38,63.07,3.49,0.15,-0.28
1,0,64,88,-288,3891,-0.15,-0.93,0.98,0.88,-2.88,38.91,-5.06,0.36,63.06,3.36,0.01,-0.28
-8,-2,123,-96,-367,3972,-0.19,-0.85,1.63,-0.96,-3.67,39.72,-5.06,0.38,63.06,3.55,0.02,-0.37
-5,-4,137,10,-381,3946,-0.20,-0.79,2.30,0.10,-3.81,39.46,-5.07,0.36,63.05,3.50,0.06,-0.38
-4,10,149,-42,-280,3925,-0.20,-0.65,2.98,-0.42,-2.80,39.25,-5.06,0.36,63.03,3.47,-0.27,-0.39
-7,7,131,-53,-276,3904,-0.22,-0.54,3.48,-0.53,-2.76,39.04,-5.04,0.37,63.02,3.53,-0.24,-0.35
-17,10,126,-30,-318,3855,-0.31,-0.43,3.90,-0.30,-3.18,38.55,-5.02,0.37,63.00,3.74,-0.33,-0.34
-13,5,128,-14,-317,3883,-0.35,-0.35,4.29,-0.14,-3.17,38.83,-5.01,0.37,62.99,3.67,-0.25,-0.33
-2,-2,171,118,-382,3921,-0.33,-0.33,4.91,1.18,-3.82,39.21,-5.01,0.35,62.97,3.44,-0.10,-0.40
2,-3,180,75,-326,3927,-0.29,-0.31,5.51,0.75,-3.26,39.27,-5.01,0.33,62.95,3.35,-0.07,-0.40
-1,-5,145,-7,-272,3926,-0.26,-0.31,5.85,-0.07,-2.72,39.26,-5.00,0.33,62.92,3.39,-0.03,-0.34
-4,-9,124,-15,-290,3906,-0.26,-0.34,6.02,-0.15,-2.90,39.06,-4.98,0.33,62.90,3.44,0.06,-0.30
-4,-13,112,-34,-338,3887,-0.26,-0.38,6.10,-0.34,-3.38,38.87,-4.98,0.34,62.87,3.44,0.14,-0.28
-1,-9,117,-13,-397,3876,-0.24,-0.40,6.20,-0.13,-3.97,38.76,-5.00,0.34,62.85,3.38,0.07,-0.28
22,-15,136,-57,-321,4047,-0.08,-0.45,6.41,-0.57,-3.21,40.47,-4.98,0.36,62.82,2.86,0.19,-0.31
-14,-12,146,-73,-320,3831,-0.16,-0.48,6.66,-0.73,-3.20,38.31,-4.98,0.37,62.80,3.61,0.13,-0.32
-8,-5,119,-99,-283,3934,-0.19,-0.46,6.72,-0.99,-2.83,39.34,-4.97,0.39,62.77,3.49,-0.03,-0.28
-14,-1,104,-92,-326,3929,-0.26,-0.42,6.68,-0.92,-3.26,39.29,-4.97,0.41,62.74,3.63,-0.13,-0.25
-15,-4,60,-83,-382,3866,-0.32,-0.40,6.38,-0.83,-3.82,38.66,-4.98,0.42,62.72,3.68,-0.09,-0.18
2,-2,50,-92,-394,3855,-0.28,-0.38,6.05,-0.92,-3.94,38.55,-4.99,0.44,62.69,3.33,-0.14,-0.17
13,-4,23,-42,-372,3948,-0.17,-0.36,5.58,-0.42,-3.72,39.48,-5.01,0.44,62.67,3.09,-0.11,-0.13
9,-10,23,-76,-395,3934,-0.10,-0.39,5.17,-0.76,-3.95,39.34,-5.02,0.46,62.65,3.16,0.01,-0.14
-3,-13,81,-50,-466,3958,-0.11,-0.43,5.14,-0.50,-4.66,39.58,-5.04,0.46,62.63,3.42,0.08,-0.24
-7,-11,99,-16,-428,3895,-0.14,-0.45,5.23,-0.16,-4.28,38.95,-5.06,0.46,62.61,3.52,0.05,-0.27
-5,-2,140,39,-454,3896,-0.16,-0.42,5.56,0.39,-4.54,38.96,-5.07,0.45,62.59,3.49,-0.14,-0.33
-9,-11,164,-42,-401,3930,-0.20,-0.44,6.01,-0.42,-4.01,39.30,-5.09,0.45,62.56,3.60,0.05,-0.36
-2,-5,241,63,-399,3920,-0.19,-0.43,6.88,0.63,-3.99,39.20,-5.10,0.43,62.54,3.46,-0.07,-0.48
-10,-15,261,35,-386,3908,-0.23,-0.48,7.78,0.35,-3.86,39.08,-5.11,0.42,62.50,3.64,0.16,-0.50
-9,-9,301,-87,-446,3933,-0.26,-0.49,8.84,-0.87,-4.46,39.33,-5.13,0.43,62.47,3.64,0.03,-0.55
-8,-11,314,-143,-457,3879,-0.28,-0.50,9.87,-1.43,-4.57,38.79,-5.14,0.45,62.43,3.63,0.07,-0.55
-12,-12,360,-176,-570,3930,-0.33,-0.53,11.08,-1.76,-5.70,39.30,-5.16,0.46,62.39,3.74,0.09,-0.61
-9,-22,375,-126,-575,3862,-0.35,-0.61,12.26,-1.26,-5.75,38.62,-5.18,0.47,62.34,3.69,0.31,-0.62
-28,-33,481,70,-507,3928,-0.49,-0.75,13.97,0.70,-5.07,39.28,-5.19,0.46,62.28,4.13,0.57,-0.77
-23,-39,510,240,-485,4010,-0.58,-0.91,15.68,2.40,-4.85,40.10,-5.20,0.44,62.22,4.06,0.75,-0.79
-15,-13,689,320,-299,4067,-0.61,-0.90,18.32,3.20,-2.99,40.67,-5.20,0.43,62.14,3.90,0.23,-1.05
-8,22,776,288,-280,3856,-0.60,-0.68,21.22,2.88,-2.80,38.56,-5.20,0.42,62.06,3.76,-0.54,-1.15
-22,5,890,-193,-506,3754,-0.67,-0.58,24.53,-1.93,-5.06,37.54,-5.21,0.44,61.96,4.07,-0.23,-1.28
-22,7,895,-233,-490,3946,-0.74,-0.48,27.53,-2.33,-4.90,39.46,-5.22,0.46,61.85,4.10,-0.31,-1.24
-23,-28,875,-147,-438,3909,-0.81,-0.60,30.12,-1.47,-4.38,39.09,-5.24,0.48,61.73,4.14,0.41,-1.16
-25,-14,876,-94,-383,3865,-0.88,-0.63,32.45,-0.94,-3.83,38.65,-5.25,0.51,61.60,4.21,0.12,-1.12
-10,36,828,-1,-370,3963,-0.85,-0.34,34.25,-0.01,-3.70,39.63,-5.25,0.50,61.47,3.90,-0.97,-1.01
-24,30,806,-39,-377,3953,-0.91,-0.13,35.75,-0.39,-3.77,39.53,-5.27,0.52,61.32,4.22,-0.92,-0.95
-11,44,730,12,-280,4024,-0.89,0.15,36.62,0.12,-2.80,40.24,-5.26,0.52,61.18,3.94,-1.28,-0.81
8,49,704,64,-216,3940,-0.75,0.44,37.26,0.64,-2.16,39.40,-5.25,0.53,61.03,3.50,-1.47,-0.75
-4,35,624,154,-195,3958,-0.70,0.61,37.34,1.54,-1.95,39.58,-5.23,0.53,60.88,3.73,-1.23,-0.61
-4,29,595,53,-219,3887,-0.65,0.72,37.23,0.53,-2.19,38.87,-5.22,0.54,60.73,3.71,-1.14,-0.57
-1,5,522,-69,-157,3995,-0.60,0.68,36.69,-0.69,-1.57,39.95,-5.20,0.56,60.59,3.62,-0.66,-0.45
-13,-1,498,-32,-229,3837,-0.62,0.61,36.06,-0.32,-2.29,38.37,-5.19,0.57,60.44,3.85,-0.52,-0.42
-2,7,416,-49,-103,3852,-0.57,0.59,34.99,-0.49,-1.03,38.52,-5.17,0.59,60.30,3.61,-0.69,-0.30
-7,8,390,-81,-156,3894,-0.55,0.58,33.87,-0.81,-1.56,38.94,-5.15,0.61,60.17,3.69,-0.72,-0.27
-7,-6,286,-97,-212,3939,-0.54,0.48,32.23,-0.97,-2.12,39.39,-5.14,0.63,60.04,3.68,-0.42,-0.12
1,-5,249,-56,-171,3939,-0.48,0.41,30.53,-0.56,-1.71,39.39,-5.12,0.64,59.92,3.49,-0.43,-0.09
0,7,160,20,-242,3929,-0.43,0.41,28.45,0.20,-2.42,39.29,-5.10,0.64,59.80,3.49,-0.68,0.03
1,12,149,25,-255,3888,-0.38,0.44,26.51,0.25,-2.55,38.88,-5.09,0.64,59.70,3.44,-0.79,0.01
2,24,152,114,-337,3908,-0.33,0.54,24.79,1.14,-3.37,39.08,-5.09,0.64,59.60,3.41,-1.06,-0.02
10,25,177,43,-359,3982,-0.24,0.64,23.39,0.43,-3.59,39.82,-5.09,0.63,59.51,3.22,-1.10,-0.09
7,17,214,-59,-429,3941,-0.17,0.68,22.36,-0.59,-4.29,39.41,-5.11,0.64,59.42,3.27,-0.96,-0.17
1,9,222,-70,-419,3984,-0.15,0.67,21.48,-0.70,-4.19,39.84,-5.12,0.66,59.33,3.40,-0.80,-0.19
-9,-10,281,-188,-431,3928,-0.19,0.54,21.04,-1.88,-4.31,39.28,-5.13,0.69,59.25,3.62,-0.40,-0.30
-12,-22,288,-172,-427,3928,-0.24,0.35,20.69,-1.72,-4.27,39.28,-5.14,0.71,59.17,3.70,-0.12,-0.32
-15,-30,300,-201,-416,3911,-0.31,0.13,20.45,-2.01,-4.16,39.11,-5.15,0.73,59.09,3.79,0.09,-0.34
-16,-37,304,-228,-400,3900,-0.38,-0.11,20.26,-2.28,-4.00,39.00,-5.15,0.76,59.01,3.83,0.28,-0.35
-19,-36,327,-63,-382,3985,-0.45,-0.31,20.23,-0.63,-3.82,39.85,-5.17,0.77,58.93,3.92,0.31,-0.39
-10,-21,338,19,-374,3960,-0.47,-0.41,20.27,0.19,-3.74,39.60,-5.17,0.76,58.84,3.75,0.04,-0.41
8,42,389,-5,-334,3891,-0.37,-0.11,20.62,-0.05,-3.34,38.91,-5.17,0.75,58.76,3.35,-1.32,-0.49
12,46,397,-17,-345,3924,-0.26,0.18,20.98,-0.17,-3.45,39.24,-5.16,0.74,58.68,3.24,-1.47,-0.50
4,38,379,19,-280,3925,-0.21,0.39,21.19,0.19,-2.80,39.25,-5.15,0.74,58.59,3.38,-1.37,-0.46
6,30,384,29,-237,3897,-0.16,0.54,21.41,0.29,-2.37,38.97,-5.13,0.74,58.51,3.31,-1.24,-0.47
4,13,377,31,-323,3911,-0.12,0.56,21.57,0.31,-3.23,39.11,-5.13,0.73,58.42,3.33,-0.90,-0.45
-5,5,371,82,-312,3918,-0.13,0.54,21.68,0.82,-3.12,39.18,-5.12,0.72,58.34,3.52,-0.72,-0.44
-12,-5,391,50,-329,3851,-0.19,0.45,21.90,0.50,-3.29,38.51,-5.12,0.71,58.25,3.68,-0.49,-0.47
-18,-9,396,-7,-323,3929,-0.28,0.35,22.12,-0.07,-3.23,39.29,-5.11,0.71,58.16,3.82,-0.38,-0.47
-5,-8,390,3,-407,3915,-0.29,0.27,22.29,0.03,-4.07,39.15,-5.12,0.70,58.07,3.56,-0.38,-0.46
-21,-18,384,-7,-394,3926,-0.39,0.13,22.40,-0.07,-3.94,39.26,-5.14,0.70,57.98,3.92,-0.13,-0.45
-7,-15,378,-10,-311,3981,-0.39,0.03,22.47,-0.10,-3.11,39.81,-5.12,0.70,57.89,3.63,-0.16,-0.44
-4,-4,382,9,-353,3919,-0.38,-0.00,22.55,0.09,-3.53,39.19,-5.12,0.69,57.80,3.56,-0.37,-0.44
0,4,385,-32,-365,3879,-0.34,0.02,22.64,-0.32,-3.65,38.79,-5.14,0.68,57.71,3.48,-0.54,-0.45
-11,8,391,11,-359,3877,-0.37,0.07,22.77,0.11,-3.59,38.77,-5.14,0.67,57.62,3.72,-0.63,-0.45
5,12,431,156,-359,3925,-0.30,0.14,23.12,1.56,-3.59,39.25,-5.14,0.66,57.53,3.37,-0.72,-0.52
-24,2,450,73,-383,3863,-0.42,0.14,23.55,0.73,-3.83,38.63,-5.15,0.65,57.44,4.00,-0.51,-0.54
-9,10,515,99,-360,3941,-0.43,0.18,24.34,0.99,-3.60,39.41,-5.15,0.65,57.34,3.70,-0.68,-0.64
-5,16,522,124,-319,3915,-0.42,0.26,25.09,1.24,-3.19,39.15,-5.15,0.64,57.24,3.61,-0.82,-0.64
-3,18,544,64,-313,3941,-0.40,0.35,25.90,0.64,-3.13,39.41,-5.14,0.63,57.14,3.56,-0.88,-0.66
-4,19,550,15,-343,3862,-0.38,0.43,26.66,0.15,-3.43,38.62,-5.14,0.62,57.03,3.58,-0.91,-0.66
-1,21,567,0,-354,3864,-0.35,0.51,27.46,0.00,-3.54,38.64,-5.14,0.62,56.92,3.51,-0.97,-0.67
3,24,586,17,-339,3980,-0.30,0.61,28.28,0.17,-3.39,39.80,-5.14,0.61,56.81,3.41,-1.06,-0.69
-16,4,609,-24,-420,3923,-0.36,0.57,29.17,-0.24,-4.20,39.23,-5.15,0.62,56.69,3.83,-0.65,-0.71
-13,-9,611,-46,-385,3869,-0.41,0.46,29.98,-0.46,-3.85,38.69,-5.17,0.64,56.58,3.79,-0.36,-0.70
-21,-12,595,-223,-565,3877,-0.49,0.34,30.61,-2.23,-5.65,38.77,-5.19,0.66,56.45,3.98,-0.28,-0.66
-24,-35,566,-98,-522,4016,-0.59,0.09,31.00,-0.98,-5.22,40.16,-5.20,0.68,56.33,4.08,0.24,-0.61
-8,-2,533,52,-356,4081,-0.58,0.07,31.15,0.52,-3.56,40.81,-5.20,0.67,56.21,3.76,-0.42,-0.55
1,18,541,62,-387,3935,-0.52,0.17,31.34,0.62,-3.87,39.35,-5.21,0.67,56.08,3.56,-0.85,-0.56
-10,44,613,117,-325,3897,-0.53,0.42,31.94,1.17,-3.25,38.97,-5.21,0.66,55.95,3.78,-1.45,-0.67
10,57,643,227,-207,3814,-0.41,0.73,32.67,2.27,-2.07,38.14,-5.20,0.66,55.82,3.34,-1.79,-0.71
-20,21,772,198,-223,3791,-0.49,0.79,34.11,1.98,-2.23,37.91,-5.19,0.66,55.69,3.97,-1.08,-0.90
-9,6,818,-41,-217,4000,-0.50,0.74,35.69,-0.41,-2.17,40.00,-5.17,0.67,55.55,3.73,-0.77,-0.95
-27,-5,759,-172,-440,4014,-0.61,0.64,36.75,-1.72,-4.40,40.14,-5.18,0.70,55.40,4.14,-0.54,-0.84
-5,1,721,-200,-429,3868,-0.58,0.58,37.48,-2.00,-4.29,38.68,-5.19,0.74,55.25,3.69,-0.66,-0.76
-6,5,570,-160,-514,3854,-0.56,0.55,37.21,-1.60,-5.14,38.54,-5.21,0.76,55.10,3.71,-0.76,-0.51
-25,-4,528,-167,-508,3898,-0.66,0.47,36.71,-1.67,-5.08,38.98,-5.22,0.79,54.96,4.13,-0.57,-0.44
-9,-5,440,-149,-395,3898,-0.65,0.40,35.72,-1.49,-3.95,38.98,-5.23,0.82,54.82,3.81,-0.55,-0.31
-3,-4,430,-99,-402,3966,-0.60,0.33,34.77,-0.99,-4.02,39.66,-5.24,0.85,54.68,3.68,-0.57,-0.31
0,23,448,8,-408,4010,-0.54,0.44,34.03,0.08,-4.08,40.10,-5.25,0.85,54.54,3.61,-1.15,-0.35
-11,6,454,90,-352,3998,-0.55,0.43,33.39,0.90,-3.52,39.98,-5.25,0.84,54.41,3.84,-0.80,-0.37
-6,29,477,-11,-294,3862,-0.53,0.57,32.96,-0.11,-2.94,38.62,-5.24,0.85,54.28,3.72,-1.30,-0.42
-11,25,493,-74,-406,3982,-0.55,0.66,32.67,-0.74,-4.06,39.82,-5.25,0.87,54.15,3.84,-1.26,-0.45
-8,4,513,23,-374,4049,-0.54,0.62,32.54,0.23,-3.74,40.49,-5.25,0.86,54.02,3.78,-0.82,-0.49
1,3,510,25,-403,3951,-0.48,0.58,32.39,0.25,-4.03,39.51,-5.26,0.86,53.89,3.58,-0.79,-0.48
-21,2,523,-28,-320,4025,-0.56,0.53,32.34,-0.28,-3.20,40.25,-5.25,0.86,53.76,4.04,-0.76,-0.50
-9,11,532,5,-327,3820,-0.56,0.54,32.36,0.05,-3.27,38.20,-5.24,0.86,53.63,3.79,-0.94,-0.52
5,8,552,-51,-378,3824,-0.47,0.54,32.49,-0.51,-3.78,38.24,-5.26,0.87,53.50,3.50,-0.88,-0.55
-6,5,553,-163,-415,3921,-0.46,0.52,32.61,-1.63,-4.15,39.21,-5.27,0.90,53.37,3.72,-0.84,-0.55
-11,5,537,-235,-374,3904,-0.48,0.49,32.63,-2.35,-3.74,39.04,-5.27,0.93,53.24,3.83,-0.85,-0.52
-23,-8,531,-210,-359,4020,-0.58,0.40,32.60,-2.10,-3.59,40.20,-5.27,0.96,53.11,4.10,-0.58,-0.51
-18,-4,543,-102,-356,3980,-0.63,0.33,32.65,-1.02,-3.56,39.80,-5.26,1.00,52.98,4.01,-0.67,-0.53
0,3,565,-173,-213,3954,-0.57,0.32,32.84,-1.73,-2.13,39.54,-5.25,1.02,52.85,3.62,-0.82,-0.57
-10,8,582,-35,-353,3930,-0.57,0.33,33.10,-0.35,-3.53,39.30,-5.24,1.01,52.72,3.82,-0.92,-0.59
5,23,567,-56,-431,3987,-0.48,0.44,33.25,-0.56,-4.31,39.87,-5.26,1.02,52.59,3.50,-1.26,-0.56
-4,21,470,-105,-533,3957,-0.46,0.53,32.79,-1.05,-5.33,39.57,-5.28,1.04,52.46,3.69,-1.26,-0.40
3,17,438,-51,-505,3897,-0.39,0.58,32.19,-0.51,-5.05,38.97,-5.29,1.05,52.33,3.54,-1.20,-0.36
-2,18,335,-144,-601,3923,-0.37,0.63,31.01,-1.44,-6.01,39.23,-5.31,1.07,52.21,3.65,-1.25,-0.20
-1,16,304,-160,-545,3922,-0.34,0.66,29.76,-1.60,-5.45,39.22,-5.33,1.09,52.09,3.63,-1.23,-0.17
3,15,212,-196,-487,3905,-0.28,0.69,28.08,-1.96,-4.87,39.05,-5.34,1.12,51.98,3.54,-1.23,-0.04
-3,8,196,-158,-455,3945,-0.27,0.67,26.47,-1.58,-4.55,39.45,-5.35,1.15,51.87,3.67,-1.10,-0.04
4,10,159,-16,-359,3921,-0.22,0.66,24.79,-0.16,-3.59,39.21,-5.35,1.14,51.78,3.51,-1.14,-0.01
2,4,155,-3,-339,3904,-0.19,0.62,23.26,-0.03,-3.39,39.04,-5.34,1.13,51.68,3.53,-1.00,-0.03
-2,-1,182,-38,-335,3927,-0.18,0.55,22.04,-0.38,-3.35,39.27,-5.33,1.13,51.60,3.61,-0.88,-0.09
-1,1,198,-31,-336,3933,-0.17,0.50,21.05,-0.31,-3.36,39.33,-5.32,1.12,51.51,3.58,-0.90,-0.14
-7,9,259,-31,-337,3887,-0.20,0.51,20.52,-0.31,-3.37,38.87,-5.31,1.12,51.43,3.70,-1.06,-0.25
-4,2,277,-46,-367,3970,-0.20,0.47,20.16,-0.46,-3.67,39.70,-5.31,1.11,51.35,3.64,-0.90,-0.29
0,-3,264,31,-454,3942,-0.18,0.40,19.75,0.31,-4.54,39.42,-5.32,1.10,51.27,3.56,-0.78,-0.27
-3,0,254,71,-464,3872,-0.18,0.36,19.33,0.71,-4.64,38.72,-5.33,1.10,51.20,3.63,-0.82,-0.26
8,21,260,164,-601,3878,-0.11,0.46,18.98,1.64,-6.01,38.78,-5.34,1.09,51.12,3.39,-1.27,-0.28
0,22,281,151,-641,3895,-0.10,0.54,18.80,1.51,-6.41,38.95,-5.35,1.09,51.05,3.56,-1.32,-0.31
3,27,426,-80,-693,3925,-0.07,0.65,19.52,-0.80,-6.93,39.25,-5.37,1.10,50.97,3.50,-1.45,-0.55
-3,7,533,-336,-743,3915,-0.08,0.63,20.82,-3.36,-7.43,39.15,-5.38,1.12,50.89,3.64,-1.05,-0.71
-16,-11,733,-190,-811,3984,-0.17,0.50,23.20,-1.90,-8.11,39.84,-5.40,1.14,50.79,3.94,-0.66,-1.01
-21,-7,768,2,-770,3874,-0.28,0.41,25.57,0.02,-7.70,38.74,-5.42,1.14,50.69,4.08,-0.72,-1.02
-4,12,865,-21,-712,3868,-0.28,0.44,28.29,-0.21,-7.12,38.68,-5.43,1.15,50.58,3.74,-1.13,-1.14
-19,1,883,-127,-758,3922,-0.37,0.40,30.85,-1.27,-7.58,39.22,-5.45,1.17,50.46,4.08,-0.90,-1.13
-18,11,941,-10,-497,3945,-0.44,0.43,33.50,-0.10,-4.97,39.45,-5.46,1.17,50.33,4.09,-1.12,-1.18
-30,4,956,-35,-476,3983,-0.58,0.41,35.98,-0.35,-4.76,39.83,-5.48,1.18,50.18,4.38,-0.97,-1.17
-16,15,1026,-33,-240,4062,-0.62,0.46,38.64,-0.33,-2.40,40.62,-5.46,1.19,50.03,4.10,-1.22,-1.24
-26,30,1050,20,-274,3887,-0.72,0.60,41.18,0.20,-2.74,38.87,-5.45,1.20,49.86,4.32,-1.56,-1.24
0,34,1070,71,-212,3969,-0.64,0.75,43.59,0.71,-2.12,39.69,-5.43,1.20,49.69,3.76,-1.69,-1.23
-13,44,1061,21,-301,3890,-0.66,0.94,45.71,0.21,-3.01,38.90,-5.42,1.21,49.51,4.02,-1.95,-1.18
-3,33,1030,-88,-218,3878,-0.61,1.05,47.42,-0.88,-2.18,38.78,-5.40,1.23,49.32,3.79,-1.77,-1.10
-11,36,1022,-100,-297,3853,-0.62,1.16,48.91,-1.00,-2.97,38.53,-5.38,1.26,49.13,3.95,-1.88,-1.06
-5,27,925,-128,-243,3855,-0.59,1.21,49.66,-1.28,-2.43,38.55,-5.36,1.29,48.93,3.80,-1.73,-0.88
-13,25,885,-167,-323,3851,-0.61,1.24,50.09,-1.67,-3.23,38.51,-5.35,1.33,48.73,3.96,-1.72,-0.81
-16,8,736,-87,-169,3814,-0.64,1.17,49.57,-0.87,-1.69,38.14,-5.33,1.35,48.53,4.02,-1.37,-0.56
-12,11,696,-101,-155,3945,-0.65,1.12,48.86,-1.01,-1.55,39.45,-5.31,1.38,48.34,3.93,-1.44,-0.50
2,14,611,-93,-62,4001,-0.58,1.09,47.70,-0.93,-0.62,40.01,-5.29,1.40,48.15,3.61,-1.50,-0.38
-3,-5,587,-32,-27,4008,-0.54,0.95,46.51,-0.32,-0.27,40.08,-5.27,1.42,47.96,3.69,-1.09,-0.36
0,14,481,-77,-158,3930,-0.48,0.94,44.80,-0.77,-1.58,39.30,-5.25,1.43,47.78,3.60,-1.49,-0.21
-6,5,407,-54,-187,3877,-0.47,0.88,42.80,-0.54,-1.87,38.77,-5.23,1.45,47.61,3.70,-1.30,-0.11
-7,4,329,-107,-190,3870,-0.47,0.81,40.53,-1.07,-1.90,38.70,-5.21,1.47,47.45,3.71,-1.27,-0.02
-5,8,308,-129,-178,3899,-0.45,0.78,38.35,-1.29,-1.78,38.99,-5.19,1.49,47.30,3.65,-1.36,-0.02
-5,-3,233,-150,-218,3916,-0.44,0.69,35.94,-1.50,-2.18,39.16,-5.17,1.51,47.15,3.63,-1.12,0.07
-12,-12,213,-152,-242,3996,-0.47,0.54,33.64,-1.52,-2.42,39.96,-5.15,1.53,47.02,3.77,-0.91,0.06
-8,-3,135,-91,-233,3965,-0.47,0.47,31.10,-0.91,-2.33,39.65,-5.13,1.54,46.89,3.68,-1.08,0.15
-3,-1,111,-82,-259,3909,-0.44,0.42,28.67,-0.82,-2.59,39.09,-5.11,1.55,46.78,3.56,-1.12,0.15
3,3,64,-32,-353,3898,-0.38,0.39,26.19,-0.32,-3.53,38.98,-5.11,1.54,46.68,3.42,-1.19,0.19
3,8,63,-42,-375,3937,-0.32,0.40,23.96,-0.42,-3.75,39.37,-5.12,1.53,46.58,3.41,-1.28,0.16
6,9,70,12,-375,3940,-0.25,0.42,21.99,0.12,-3.75,39.40,-5.12,1.53,46.49,3.33,-1.30,0.11
8,13,92,15,-416,3896,-0.18,0.46,20.35,0.15,-4.16,38.96,-5.13,1.52,46.41,3.27,-1.39,0.05
3,12,192,-19,-420,3932,-0.14,0.48,19.49,-0.19,-4.20,39.32,-5.14,1.51,46.34,3.37,-1.37,-0.14
5,8,225,-8,-404,3948,-0.10,0.48,18.91,-0.08,-4.04,39.48,-5.15,1.51,46.26,3.32,-1.29,-0.20
0,7,364,-114,-369,3922,-0.09,0.48,19.24,-1.14,-3.69,39.22,-5.16,1.52,46.18,3.43,-1.28,-0.43
-11,0,412,-105,-343,3875,-0.15,0.43,19.83,-1.05,-3.43,38.75,-5.14,1.54,46.11,3.66,-1.13,-0.50
-9,0,543,-9,-382,3924,-0.19,0.39,21.16,-0.09,-3.82,39.24,-5.14,1.53,46.02,3.63,-1.11,-0.70
-10,11,561,24,-457,3941,-0.23,0.42,22.47,0.24,-4.57,39.41,-5.15,1.52,45.93,3.67,-1.34,-0.71
4,22,608,-34,-437,3920,-0.18,0.51,23.93,-0.34,-4.37,39.20,-5.17,1.52,45.84,3.38,-1.59,-0.77
11,5,617,-42,-457,3983,-0.10,0.49,25.30,-0.42,-4.57,39.83,-5.18,1.52,45.74,3.22,-1.24,-0.76
-7,14,645,59,-583,4009,-0.13,0.52,26.70,0.59,-5.83,40.09,-5.19,1.52,45.63,3.60,-1.43,-0.78
1,32,673,5,-648,3886,-0.11,0.67,28.14,0.05,-6.48,38.86,-5.20,1.53,45.52,3.44,-1.84,-0.80
-11,24,738,-23,-713,3792,-0.17,0.75,29.83,-0.23,-7.13,37.92,-5.22,1.54,45.40,3.71,-1.71,-0.89
-5,16,765,-54,-783,3950,-0.18,0.77,31.51,-0.54,-7.83,39.50,-5.24,1.55,45.28,3.61,-1.56,-0.90
0,48,938,63,-646,3837,-0.16,0.99,34.08,0.63,-6.46,38.37,-5.25,1.56,45.14,3.51,-2.27,-1.15
-8,41,1006,-23,-733,3963,-0.19,1.14,36.81,-0.23,-7.33,39.63,-5.26,1.57,45.00,3.69,-2.18,-1.22
-9,23,1210,-22,-759,4228,-0.23,1.16,40.51,-0.22,-7.59,42.28,-5.28,1.59,44.84,3.73,-1.83,-1.51
-6,28,1276,34,-682,3938,-0.24,1.22,44.24,0.34,-6.82,39.38,-5.29,1.60,44.66,3.68,-1.96,-1.55
-17,31,1527,-83,-674,3929,-0.32,1.29,49.13,-0.83,-6.74,39.29,-5.30,1.62,44.47,3.93,-2.05,-1.90
-16,31,1592,-51,-650,3816,-0.39,1.35,53.93,-0.51,-6.50,38.16,-5.32,1.65,44.25,3.94,-2.08,-1.93
-33,8,1771,-69,-660,3868,-0.55,1.26,59.34,-0.69,-6.60,38.68,-5.33,1.67,44.02,4.34,-1.61,-2.14
-30,1,1832,-141,-623,3983,-0.68,1.14,64.58,-1.41,-6.23,39.83,-5.34,1.70,43.76,4.32,-1.45,-2.15
-38,7,1913,-113,-515,3949,-0.84,1.07,69.79,-1.13,-5.15,39.49,-5.36,1.73,43.48,4.54,-1.58,-2.20
-44,2,1924,-132,-493,3846,-1.03,0.97,74.55,-1.32,-4.93,38.46,-5.37,1.76,43.19,4.72,-1.47,-2.14
-29,16,1984,-222,-333,3905,-1.10,0.97,79.20,-2.22,-3.33,39.05,-5.36,1.81,42.87,4.43,-1.79,-2.16
-39,25,1998,-208,-314,3957,-1.23,1.03,83.47,-2.08,-3.14,39.57,-5.34,1.86,42.54,4.65,-2.02,-2.11
-36,28,1971,-204,-405,3923,-1.33,1.10,87.14,-2.04,-4.05,39.23,-5.35,1.92,42.19,4.62,-2.13,-2.00
-47,16,1939,-139,-429,4071,-1.48,1.09,90.26,-1.39,-4.29,40.71,-5.36,1.96,41.83,4.89,-1.91,-1.90
-28,34,1754,-146,-494,4025,-1.50,1.18,91.93,-1.46,-4.94,40.25,-5.37,2.00,41.47,4.52,-2.33,-1.55
-28,26,1710,-200,-457,3901,-1.52,1.22,93.17,-2.00,-4.57,39.01,-5.38,2.05,41.10,4.53,-2.21,-1.46
-28,13,1621,-202,-291,3859,-1.54,1.18,93.74,-2.02,-2.91,38.59,-5.36,2.10,40.72,4.52,-1.97,-1.30
-28,25,1586,-163,-338,3975,-1.56,1.22,94.04,-1.63,-3.38,39.75,-5.33,2.15,40.35,4.51,-2.26,-1.23
-28,32,1492,-137,-303,3951,-1.57,1.29,93.74,-1.37,-3.03,39.51,-5.31,2.18,39.98,4.50,-2.44,-1.08
-28,22,1454,-75,-264,4039,-1.59,1.29,93.23,-0.75,-2.64,40.39,-5.28,2.21,39.60,4.49,-2.26,-1.02
-13,18,1326,-136,-143,3931,-1.51,1.27,92.00,-1.36,-1.43,39.31,-5.26,2.25,39.24,4.14,-2.20,-0.82
-30,13,1282,-154,-206,3854,-1.54,1.23,90.62,-1.54,-2.06,38.54,-5.23,2.29,38.88,4.48,-2.11,-0.77
-29,10,1075,-55,-42,3854,-1.56,1.16,88.11,-0.55,-0.42,38.54,-5.21,2.32,38.52,4.45,-2.05,-0.46
-14,20,1003,-19,-94,3978,-1.49,1.17,85.42,-0.19,-0.94,39.78,-5.18,2.35,38.18,4.11,-2.27,-0.38
-15,21,760,-118,-31,3974,-1.43,1.18,81.51,-1.18,-0.31,39.74,-5.16,2.38,37.86,4.10,-2.32,-0.03
-1,12,700,-163,-33,3934,-1.30,1.14,77.63,-1.63,-0.33,39.34,-5.13,2.41,37.55,3.76,-2.15,0.00
-11,2,507,-118,52,3914,-1.23,1.04,72.96,-1.18,0.52,39.14,-5.10,2.44,37.26,3.93,-1.93,0.25
-13,-1,404,-149,27,3917,-1.19,0.93,68.13,-1.49,0.27,39.17,-5.08,2.47,36.98,3.94,-1.86,0.35
-7,-6,201,-62,-46,3928,-1.11,0.80,62.54,-0.62,-0.46,39.28,-5.06,2.49,36.73,3.78,-1.74,0.60
-1,-5,143,-98,-139,3910,-1.01,0.69,57.16,-0.98,-1.39,39.10,-5.03,2.50,36.51,3.62,-1.74,0.61
1,-15,-1,-33,-357,3924,-0.90,0.53,51.44,-0.33,-3.57,39.24,-5.03,2.50,36.30,3.54,-1.49,0.76
0,-18,-21,14,-439,3914,-0.81,0.36,46.17,0.14,-4.39,39.14,-5.03,2.51,36.12,3.54,-1.39,0.70
1,-13,-44,45,-543,3937,-0.72,0.25,41.28,0.45,-5.43,39.37,-5.04,2.51,35.95,3.50,-1.46,0.66
3,-7,-31,-16,-515,3907,-0.63,0.18,36.96,-0.16,-5.15,39.07,-5.05,2.51,35.81,3.44,-1.56,0.57
2,-1,45,-153,-396,3911,-0.56,0.16,33.54,-1.53,-3.96,39.11,-5.06,2.51,35.67,3.45,-1.68,0.38
-1,-7,62,-133,-379,3920,-0.51,0.10,30.57,-1.33,-3.79,39.20,-5.07,2.51,35.55,3.51,-1.54,0.30
-7,-6,108,-24,-329,3957,-0.50,0.05,28.17,-0.24,-3.29,39.57,-5.07,2.50,35.44,3.62,-1.54,0.18
-2,10,123,-56,-318,3954,-0.46,0.11,26.10,-0.56,-3.18,39.54,-5.06,2.50,35.34,3.50,-1.88,0.12
-3,4,106,-89,-311,3912,-0.43,0.12,24.14,-0.89,-3.11,39.12,-5.05,2.49,35.24,3.51,-1.76,0.12
0,-1,89,-101,-295,3921,-0.39,0.10,22.27,-1.01,-2.95,39.21,-5.03,2.48,35.15,3.43,-1.65,0.12
-2,-11,35,-72,-406,3914,-0.36,0.03,20.25,-0.72,-4.06,39.14,-5.04,2.47,35.07,3.47,-1.42,0.18
-5,-14,26,-64,-408,3915,-0.36,-0.06,18.39,-0.64,-4.08,39.15,-5.05,2.46,35.00,3.53,-1.32,0.16
-3,-11,6,-66,-412,3933,-0.34,-0.12,16.59,-0.66,-4.12,39.33,-5.06,2.45,34.93,3.49,-1.36,0.16
1,-7,8,-60,-392,3952,-0.30,-0.15,14.98,-0.60,-3.92,39.52,-5.06,2.44,34.87,3.40,-1.43,0.13
1,-2,19,-79,-433,3923,-0.26,-0.15,13.59,-0.79,-4.33,39.23,-5.07,2.43,34.82,3.40,-1.52,0.09
-1,-2,23,-82,-447,3933,-0.24,-0.15,12.37,-0.82,-4.47,39.33,-5.09,2.42,34.77,3.44,-1.52,0.06
0,-4,61,-34,-543,3925,-0.22,-0.16,11.51,-0.34,-5.43,39.25,-5.10,2.42,34.72,3.43,-1.47,-0.01
-3,-6,102,-47,-597,3895,-0.22,-0.18,10.98,-0.47,-5.97,38.95,-5.12,2.41,34.68,3.50,-1.42,-0.09
-10,-1,247,-33,-629,3927,-0.26,-0.17,11.39,-0.33,-6.29,39.27,-5.13,2.41,34.64,3.66,-1.52,-0.33
-10,-1,298,-22,-633,3953,-0.29,-0.16,12.07,-0.22,-6.33,39.53,-5.15,2.40,34.59,3.68,-1.52,-0.41
-5,8,454,-44,-565,3932,-0.29,-0.09,13.63,-0.44,-5.65,39.32,-5.16,2.40,34.53,3.59,-1.72,-0.64
-10,13,493,-16,-613,3870,-0.32,-0.00,15.28,-0.16,-6.13,38.70,-5.18,2.39,34.47,3.71,-1.84,-0.68
20,44,693,883,-640,3956,-0.17,0.27,17.97,8.83,-6.40,39.56,-5.18,2.38,34.40,3.06,-2.54,-0.98
6,40,765,304,-869,3951,-0.12,0.48,20.84,3.04,-8.69,39.51,-5.19,2.38,34.32,3.34,-2.52,-1.05
-10,27,979,-668,-1051,3760,-0.17,0.60,24.73,-6.68,-10.51,37.60,-5.20,2.40,34.22,3.68,-2.30,-1.35
-27,14,1032,-637,-1003,3876,-0.31,0.62,28.55,-6.37,-10.03,38.76,-5.21,2.43,34.11,4.08,-2.06,-1.37
-24,15,1275,146,-681,3895,-0.43,0.65,33.48,1.46,-6.81,38.95,-5.22,2.43,33.98,4.05,-2.09,-1.70
-16,26,1383,267,-667,3982,-0.48,0.75,38.56,2.67,-6.67,39.82,-5.23,2.43,33.82,3.91,-2.34,-1.80
-46,17,1543,-388,-857,3967,-0.72,0.78,44.12,-3.88,-8.57,39.67,-5.24,2.46,33.65,4.59,-2.18,-1.98
-40,10,1585,-436,-806,3865,-0.89,0.76,49.38,-4.36,-8.06,38.65,-5.25,2.49,33.45,4.52,-2.05,-1.96
-52,14,1655,-172,-661,3965,-1.12,0.77,54.53,-1.72,-6.61,39.65,-5.26,2.51,33.24,4.84,-2.15,-1.99
-35,35,1661,-53,-503,3886,-1.22,0.91,59.21,-0.53,-5.03,38.86,-5.27,2.52,33.00,4.52,-2.62,-1.92
-22,52,1634,-4,-402,3942,-1.23,1.13,63.26,-0.04,-4.02,39.42,-5.27,2.53,32.75,4.26,-3.04,-1.81
-4,63,1608,690,-218,3985,-1.13,1.40,66.74,6.90,-2.18,39.85,-5.26,2.55,32.48,3.86,-3.34,-1.70
-13,50,1624,-76,-417,3865,-1.10,1.57,69.97,-0.76,-4.17,38.65,-5.26,2.56,32.21,4.04,-3.14,-1.67
-30,53,1606,-665,-477,3662,-1.17,1.73,72.77,-6.65,-4.77,36.62,-5.26,2.61,31.92,4.40,-3.28,-1.60
-31,18,1538,-804,-363,3807,-1.24,1.67,74.88,-8.04,-3.63,38.07,-5.25,2.67,31.62,4.43,-2.58,-1.44
-38,-7,1524,-162,-196,3972,-1.35,1.46,76.69,-1.62,-1.96,39.72,-5.22,2.70,31.31,4.59,-2.04,-1.39
-32,12,1409,-87,-36,4036,-1.41,1.39,77.61,-0.87,-0.36,40.36,-5.20,2.73,31.00,4.47,-2.42,-1.18
-23,24,1367,-41,-57,3964,-1.41,1.40,78.19,-0.41,-0.57,39.64,-5.17,2.75,30.69,4.27,-2.68,-1.10
-5,42,1099,-82,44,3943,-1.30,1.51,77.08,-0.82,0.44,39.43,-5.14,2.78,30.38,3.85,-3.10,-0.66
-1,39,1030,-151,85,3943,-1.18,1.60,75.65,-1.51,0.85,39.43,-5.12,2.81,30.08,3.72,-3.08,-0.57
-10,30,771,-143,168,3972,-1.12,1.62,72.79,-1.43,1.68,39.72,-5.09,2.84,29.79,3.87,-2.93,-0.17
-9,34,689,-146,186,3875,-1.06,1.67,69.71,-1.46,1.86,38.75,-5.06,2.87,29.51,3.81,-3.04,-0.09
9,29,391,-80,135,3898,-0.90,1.68,65.13,-0.80,1.35,38.98,-5.03,2.90,29.25,3.38,-2.96,0.34
7,26,299,-77,84,3915,-0.77,1.67,60.44,-0.77,0.84,39.15,-5.01,2.92,29.01,3.37,-2.91,0.42
11,11,45,-15,-200,3949,-0.62,1.57,54.67,-0.15,-2.00,39.49,-4.99,2.93,28.79,3.24,-2.59,0.75
9,8,-3,-20,-336,3877,-0.51,1.46,49.18,-0.20,-3.36,38.77,-4.98,2.94,28.60,3.24,-2.50,0.74
-4,-17,-18,-91,-445,3883,-0.48,1.21,44.16,-0.91,-4.45,38.83,-4.98,2.94,28.42,3.50,-1.93,0.69
-2,-20,-14,-51,-442,3922,-0.44,0.97,39.65,-0.51,-4.42,39.22,-4.99,2.95,28.26,3.45,-1.80,0.60
-6,-20,-16,-53,-440,3928,-0.44,0.75,35.59,-0.53,-4.40,39.28,-4.99,2.95,28.12,3.54,-1.74,0.54
-2,-16,-17,-69,-441,3908,-0.41,0.58,31.93,-0.69,-4.41,39.08,-5.00,2.94,28.00,3.45,-1.77,0.48
0,-6,-12,-78,-425,3918,-0.36,0.48,28.66,-0.78,-4.25,39.18,-5.00,2.94,27.88,3.40,-1.95,0.42
1,1,-8,-73,-423,3965,-0.32,0.44,25.75,-0.73,-4.23,39.65,-5.01,2.94,27.78,3.37,-2.08,0.36
5,12,-5,-65,-432,3916,-0.26,0.47,23.14,-0.65,-4.32,39.16,-5.02,2.93,27.69,3.28,-2.31,0.31
9,15,-4,-70,-445,3902,-0.18,0.51,20.80,-0.70,-4.45,39.02,-5.02,2.92,27.61,3.18,-2.38,0.27
3,8,8,-74,-479,3925,-0.14,0.51,18.77,-0.74,-4.79,39.25,-5.03,2.92,27.53,3.30,-2.23,0.22
5,12,9,-54,-428,3946,-0.10,0.53,16.95,-0.54,-4.28,39.46,-5.04,2.91,27.47,3.25,-2.31,0.19
10,18,13,-107,-452,3923,-0.03,0.59,15.33,-1.07,-4.52,39.23,-5.05,2.91,27.40,3.14,-2.45,0.15
7,16,14,-80,-436,3920,0.02,0.63,13.89,-0.80,-4.36,39.20,-5.06,2.90,27.35,3.19,-2.41,0.13
7,13,25,-114,-411,3938,0.06,0.64,12.65,-1.14,-4.11,39.38,-5.07,2.89,27.30,3.18,-2.35,0.09
8,11,31,-129,-430,3915,0.10,0.65,11.57,-1.29,-4.30,39.15,-5.08,2.89,27.26,3.16,-2.31,0.06
4,7,58,-120,-431,3899,0.12,0.63,10.77,-1.20,-4.31,38.99,-5.09,2.88,27.21,3.24,-2.21,0.00
2,8,66,-104,-430,3918,0.12,0.61,10.10,-1.04,-4.30,39.18,-5.10,2.87,27.17,3.29,-2.23,-0.02
0,9,101,-79,-428,3957,0.11,0.61,9.70,-0.79,-4.28,39.57,-5.10,2.86,27.14,3.34,-2.24,-0.09
3,9,109,-62,-456,3944,0.11,0.60,9.40,-0.62,-4.56,39.44,-5.11,2.86,27.10,3.28,-2.23,-0.11
2,10,132,-39,-429,3918,0.11,0.60,9.26,-0.39,-4.29,39.18,-5.12,2.84,27.06,3.31,-2.24,-0.15
2,10,135,-26,-413,3918,0.11,0.60,9.16,-0.26,-4.13,39.18,-5.12,2.83,27.03,3.31,-2.24,-0.16
1,6,141,4,-452,3901,0.11,0.58,9.10,0.04,-4.52,39.01,-5.13,2.82,26.99,3.34,-2.14,-0.17
-3,3,133,23,-458,3904,0.08,0.54,9.00,0.23,-4.58,39.04,-5.14,2.81,26.96,3.43,-2.06,-0.16
-4,-13,79,28,-431,3906,0.05,0.41,8.59,0.28,-4.31,39.06,-5.14,2.80,26.92,3.46,-1.69,-0.07
-3,-15,66,24,-437,3911,0.02,0.27,8.13,0.24,-4.37,39.11,-5.14,2.79,26.89,3.45,-1.61,-0.06
-1,-6,51,6,-452,3934,0.02,0.21,7.63,0.06,-4.52,39.34,-5.15,2.77,26.86,3.42,-1.77,-0.04
-2,-3,52,13,-442,3937,0.00,0.17,7.18,0.13,-4.42,39.37,-5.16,2.76,26.83,3.44,-1.81,-0.05
3,7,61,-35,-420,3939,0.02,0.20,6.84,-0.35,-4.20,39.39,-5.16,2.75,26.80,3.34,-2.01,-0.07
3,6,65,-53,-414,3929,0.04,0.21,6.55,-0.53,-4.14,39.29,-5.17,2.73,26.78,3.34,-1.98,-0.08
1,1,58,-11,-465,3894,0.04,0.20,6.25,-0.11,-4.65,38.94,-5.18,2.72,26.75,3.39,-1.87,-0.07
-3,-3,50,37,-479,3926,0.02,0.16,5.93,0.37,-4.79,39.26,-5.18,2.71,26.73,3.48,-1.77,-0.07
1,-7,25,121,-492,3942,0.02,0.10,5.49,1.21,-4.92,39.42,-5.19,2.69,26.71,3.40,-1.66,-0.03
-2,-12,20,60,-461,3908,0.01,0.02,5.06,0.60,-4.61,39.08,-5.20,2.68,26.69,3.47,-1.53,-0.03
-4,-14,8,-66,-406,3901,-0.02,-0.07,4.60,-0.66,-4.06,39.01,-5.20,2.66,26.67,3.52,-1.45,-0.02
0,-9,13,-107,-357,3908,-0.02,-0.12,4.22,-1.07,-3.57,39.08,-5.20,2.64,26.66,3.44,-1.53,-0.03
1,-8,33,-223,-318,3939,-0.01,-0.15,4.00,-2.23,-3.18,39.39,-5.19,2.66,26.64,3.41,-1.55,-0.07
-3,-8,40,-242,-303,3940,-0.03,-0.19,3.85,-2.42,-3.03,39.40,-5.18,2.67,26.62,3.48,-1.55,-0.08
0,3,67,-147,-284,3973,-0.02,-0.15,3.87,-1.47,-2.84,39.73,-5.16,2.66,26.61,3.41,-1.78,-0.13
4,9,72,-113,-268,3942,0.00,-0.08,3.92,-1.13,-2.68,39.42,-5.14,2.65,26.59,3.31,-1.91,-0.14
7,17,77,-134,-427,3860,0.05,0.03,4.00,-1.34,-4.27,38.60,-5.16,2.65,26.58,3.25,-2.10,-0.14
7,12,85,-83,-506,3907,0.08,0.10,4.12,-0.83,-5.06,39.07,-5.17,2.64,26.56,3.25,-2.01,-0.15
2,5,56,-18,-523,3942,0.09,0.12,4.05,-0.18,-5.23,39.42,-5.19,2.63,26.54,3.36,-1.87,-0.11
0,2,44,-1,-533,3897,0.08,0.12,3.91,-0.01,-5.33,38.97,-5.20,2.62,26.53,3.41,-1.80,-0.09
-3,-5,5,-41,-473,3925,0.05,0.08,3.55,-0.41,-4.73,39.25,-5.21,2.60,26.52,3.48,-1.64,-0.03
0,-3,3,-47,-444,3938,0.05,0.05,3.21,-0.47,-4.44,39.38,-5.22,2.59,26.50,3.43,-1.66,-0.03
3,-1,7,-60,-420,3938,0.06,0.04,2.94,-0.60,-4.20,39.38,-5.23,2.57,26.49,3.37,-1.69,-0.04
1,1,10,-58,-424,3929,0.06,0.04,2.70,-0.58,-4.24,39.29,-5.23,2.56,26.48,3.42,-1.72,-0.05
0,5,18,-67,-387,3936,0.05,0.07,2.54,-0.67,-3.87,39.36,-5.24,2.54,26.47,3.44,-1.80,-0.07
2,5,23,-68,-385,3915,0.06,0.09,2.43,-0.68,-3.85,39.15,-5.24,2.53,26.46,3.40,-1.79,-0.08
-1,1,33,-77,-434,3891,0.05,0.09,2.39,-0.77,-4.34,38.91,-5.25,2.51,26.45,3.47,-1.70,-0.10
-1,3,39,-79,-425,3913,0.04,0.10,2.39,-0.79,-4.25,39.13,-5.26,2.50,26.44,3.48,-1.74,-0.11
2,-1,32,-13,-478,3916,0.05,0.08,2.34,-0.13,-4.78,39.16,-5.27,2.49,26.44,3.43,-1.64,-0.09
1,-3,27,-20,-474,3924,0.05,0.06,2.27,-0.20,-4.74,39.24,-5.28,2.47,26.43,3.45,-1.59,-0.09
-2,-5,26,-51,-458,3923,0.03,0.02,2.20,-0.51,-4.58,39.23,-5.29,2.46,26.42,3.53,-1.53,-0.09
-4,-6,23,-42,-449,3920,0.00,-0.02,2.12,-0.42,-4.49,39.20,-5.30,2.44,26.41,3.58,-1.49,-0.08
0,-4,7,-66,-435,3925,0.00,-0.04,1.95,-0.66,-4.35,39.25,-5.31,2.43,26.40,3.51,-1.51,-0.06
-1,-2,9,-69,-429,3930,-0.00,-0.05,1.81,-0.69,-4.29,39.30,-5.32,2.41,26.40,3.53,-1.54,-0.06
1,6,16,-48,-426,3918,0.00,-0.01,1.73,-0.48,-4.26,39.18,-5.33,2.40,26.39,3.50,-1.70,-0.08
5,12,31,-47,-426,3938,0.03,0.07,1.75,-0.47,-4.26,39.38,-5.34,2.38,26.38,3.41,-1.84,-0.10
2,12,61,-103,-411,3916,0.04,0.13,1.94,-1.03,-4.11,39.16,-5.35,2.37,26.38,3.48,-1.84,-0.15
4,10,71,-94,-374,3925,0.06,0.18,2.18,-0.94,-3.74,39.25,-5.35,2.35,26.37,3.43,-1.81,-0.16
-2,6,136,-58,-467,3923,0.04,0.20,2.79,-0.58,-4.67,39.23,-5.36,2.34,26.36,3.57,-1.72,-0.26
-6,0,143,-52,-471,3916,0.00,0.18,3.39,-0.52,-4.71,39.16,-5.37,2.33,26.34,3.67,-1.59,-0.26
-3,-1,123,42,-541,3915,-0.02,0.16,3.80,0.42,-5.41,39.15,-5.38,2.32,26.33,3.62,-1.55,-0.22
-3,-4,110,61,-544,3908,-0.03,0.12,4.09,0.61,-5.44,39.08,-5.40,2.31,26.31,3.63,-1.47,-0.20
-2,-7,83,50,-607,3923,-0.04,0.06,4.19,0.50,-6.07,39.23,-5.41,2.30,26.30,3.62,-1.39,-0.15
-1,-5,82,45,-593,3931,-0.04,0.02,4.27,0.45,-5.93,39.31,-5.42,2.29,26.28,3.61,-1.41,-0.15
-2,0,138,-41,-490,3978,-0.05,0.02,4.68,-0.41,-4.90,39.78,-5.43,2.27,26.26,3.64,-1.51,-0.23
-5,2,167,-75,-489,3905,-0.08,0.03,5.23,-0.75,-4.89,39.05,-5.45,2.27,26.24,3.72,-1.54,-0.27
-6,11,250,-44,-411,3883,-0.11,0.10,6.24,-0.44,-4.11,38.83,-5.45,2.25,26.22,3.75,-1.74,-0.40
-3,12,274,18,-390,4006,-0.11,0.16,7.28,0.18,-3.90,40.06,-5.45,2.24,26.19,3.69,-1.76,-0.42
-11,8,311,-82,-393,3943,-0.17,0.19,8.45,-0.82,-3.93,39.43,-5.46,2.22,26.16,3.87,-1.68,-0.46
-1,5,311,-111,-371,3937,-0.16,0.20,9.50,-1.11,-3.71,39.37,-5.45,2.21,26.12,3.66,-1.61,-0.45
-4,-2,321,-89,-363,3927,-0.17,0.17,10.51,-0.89,-3.63,39.27,-5.45,2.20,26.08,3.72,-1.45,-0.45
-8,6,331,-70,-341,3864,-0.20,0.19,11.48,-0.70,-3.41,38.64,-5.44,2.18,26.03,3.81,-1.61,-0.45
0,9,355,-91,-395,3907,-0.18,0.23,12.50,-0.91,-3.95,39.07,-5.45,2.17,25.98,3.64,-1.68,-0.47
-13,2,351,-54,-425,3939,-0.24,0.22,13.39,-0.54,-4.25,39.39,-5.46,2.16,25.93,3.93,-1.53,-0.45
-5,0,318,-8,-406,3916,-0.25,0.19,13.99,-0.08,-4.06,39.16,-5.46,2.15,25.87,3.77,-1.47,-0.38
-2,8,305,-21,-430,3875,-0.23,0.22,14.45,-0.21,-4.30,38.75,-5.47,2.14,25.81,3.71,-1.64,-0.35
-3,2,253,-43,-459,3908,-0.23,0.21,14.55,-0.43,-4.59,39.08,-5.48,2.13,25.76,3.74,-1.51,-0.26
-2,3,248,-57,-492,3954,-0.22,0.21,14.61,-0.57,-4.92,39.54,-5.49,2.13,25.70,3.72,-1.52,-0.25
-2,7,270,-88,-447,3934,-0.21,0.23,14.79,-0.88,-4.47,39.34,-5.50,2.12,25.64,3.73,-1.61,-0.29
6,21,279,-112,-509,3888,-0.15,0.34,15.02,-1.12,-5.09,38.88,-5.52,2.12,25.58,3.56,-1.92,-0.30
1,13,299,-113,-502,3902,-0.13,0.38,15.34,-1.13,-5.02,39.02,-5.53,2.13,25.52,3.67,-1.77,-0.33
1,15,302,-111,-467,3903,-0.11,0.44,15.65,-1.11,-4.67,39.03,-5.55,2.13,25.46,3.67,-1.83,-0.33
-6,11,321,-94,-479,3914,-0.14,0.46,16.04,-0.94,-4.79,39.14,-5.56,2.13,25.40,3.83,-1.75,-0.35
-15,7,319,-82,-491,3951,-0.21,0.46,16.38,-0.82,-4.91,39.51,-5.58,2.13,25.33,4.04,-1.67,-0.34
-2,21,372,-108,-477,3879,-0.21,0.54,17.01,-1.08,-4.77,38.79,-5.59,2.13,25.27,3.79,-1.98,-0.42
-6,11,380,-19,-461,3937,-0.22,0.55,17.63,-0.19,-4.61,39.37,-5.60,2.12,25.20,3.88,-1.77,-0.42
-2,7,360,33,-440,3974,-0.21,0.54,18.06,0.33,-4.40,39.74,-5.60,2.11,25.12,3.80,-1.68,-0.38
-2,5,350,56,-474,3907,-0.20,0.52,18.39,0.56,-4.74,39.07,-5.61,2.11,25.05,3.80,-1.63,-0.36
-6,3,318,-46,-505,3937,-0.22,0.48,18.49,-0.46,-5.05,39.37,-5.62,2.10,24.98,3.89,-1.58,-0.30
1,11,317,-61,-436,3966,-0.19,0.50,18.58,-0.61,-4.36,39.66,-5.63,2.10,24.91,3.75,-1.74,-0.30
-7,18,341,-183,-510,3892,-0.21,0.56,18.80,-1.83,-5.10,38.92,-5.64,2.11,24.83,3.93,-1.91,-0.34
-12,16,353,-143,-456,3901,-0.27,0.60,19.07,-1.43,-4.56,39.01,-5.66,2.12,24.76,4.05,-1.89,-0.35
-10,10,388,-103,-459,3865,-0.30,0.60,19.53,-1.03,-4.59,38.65,-5.67,2.12,24.68,4.03,-1.77,-0.40
-9,21,396,-93,-526,3855,-0.33,0.67,19.99,-0.93,-5.26,38.55,-5.69,2.13,24.60,4.03,-2.01,-0.41
-3,42,395,9,-471,3961,-0.31,0.86,20.40,0.09,-4.71,39.61,-5.70,2.12,24.52,3.91,-2.49,-0.40
-7,22,376,49,-448,3979,-0.32,0.91,20.66,0.49,-4.48,39.79,-5.70,2.11,24.44,3.99,-2.09,-0.36
2,-1,306,50,-447,3892,-0.28,0.81,20.46,0.50,-4.47,38.92,-5.70,2.11,24.36,3.80,-1.59,-0.25
2,-11,284,30,-414,3995,-0.24,0.66,20.14,0.30,-4.14,39.95,-5.70,2.10,24.28,3.79,-1.34,-0.22
-5,-5,271,-10,-350,3980,-0.24,0.57,19.78,-0.10,-3.50,39.80,-5.69,2.09,24.20,3.93,-1.43,-0.20
-9,-11,275,-34,-334,3952,-0.28,0.44,19.48,-0.34,-3.34,39.52,-5.68,2.09,24.12,4.01,-1.27,-0.21
-9,-17,281,-91,-300,3987,-0.30,0.29,19.25,-0.91,-3.00,39.87,-5.67,2.09,24.04,4.01,-1.11,-0.23
-5,-38,273,-59,-256,3994,-0.30,0.03,18.99,-0.59,-2.56,39.94,-5.65,2.09,23.97,3.91,-0.61,-0.22
-10,-10,239,-40,-335,3986,-0.33,-0.03,18.55,-0.40,-3.35,39.86,-5.64,2.08,23.89,4.02,-1.16,-0.17
-2,-6,224,-39,-337,3860,-0.31,-0.06,18.06,-0.39,-3.37,38.60,-5.63,2.07,23.82,3.84,-1.22,-0.15
14,1,150,80,-362,3907,-0.20,-0.05,17.17,0.80,-3.62,39.07,-5.63,2.05,23.75,3.48,-1.36,-0.04
8,-3,129,61,-378,3945,-0.13,-0.07,16.24,0.61,-3.78,39.45,-5.62,2.04,23.69,3.58,-1.27,-0.02
-1,-10,90,-36,-460,3931,-0.12,-0.12,15.16,-0.36,-4.60,39.31,-5.63,2.03,23.63,3.77,-1.11,0.03
-3,-10,99,-58,-487,3919,-0.13,-0.17,14.25,-0.58,-4.87,39.19,-5.65,2.03,23.57,3.82,-1.09,0.00
-3,-10,128,-186,-392,3922,-0.13,-0.21,13.61,-1.86,-3.92,39.22,-5.65,2.05,23.52,3.82,-1.09,-0.06
-10,-14,143,-221,-396,3911,-0.18,-0.28,13.12,-2.21,-3.96,39.11,-5.65,2.07,23.46,3.98,-1.01,-0.09
-12,-12,186,-180,-390,3927,-0.24,-0.32,12.94,-1.80,-3.90,39.27,-5.65,2.09,23.41,4.03,-1.05,-0.17
-12,-16,192,-146,-354,3920,-0.29,-0.39,12.82,-1.46,-3.54,39.20,-5.63,2.10,23.36,4.04,-0.95,-0.18
-2,-6,224,-226,-300,3902,-0.27,-0.39,12.90,-2.26,-3.00,39.02,-5.61,2.11,23.31,3.82,-1.17,-0.23
-11,-8,225,-177,-366,3918,-0.31,-0.40,12.99,-1.77,-3.66,39.18,-5.60,2.13,23.26,4.01,-1.14,-0.23
6,10,187,-163,-362,3926,-0.24,-0.30,12.83,-1.63,-3.62,39.26,-5.59,2.15,23.21,3.63,-1.54,-0.17
-1,9,183,-129,-397,3872,-0.22,-0.21,12.66,-1.29,-3.97,38.72,-5.60,2.14,23.15,3.78,-1.54,-0.17
-2,8,172,-45,-411,3904,-0.21,-0.14,12.44,-0.45,-4.11,39.04,-5.60,2.13,23.11,3.80,-1.53,-0.15
-2,6,162,-51,-389,3906,-0.20,-0.09,12.19,-0.51,-3.89,39.06,-5.60,2.11,23.06,3.79,-1.49,-0.14
1,7,126,-36,-470,3882,-0.18,-0.04,11.74,-0.36,-4.70,38.82,-5.61,2.10,23.01,3.73,-1.52,-0.09
3,12,128,-68,-432,3936,-0.14,0.04,11.34,-0.68,-4.32,39.36,-5.62,2.09,22.97,3.69,-1.63,-0.10
-2,6,132,-56,-430,3919,-0.14,0.07,11.02,-0.56,-4.30,39.19,-5.63,2.08,22.92,3.79,-1.51,-0.11
4,9,132,-71,-418,3916,-0.10,0.12,10.72,-0.71,-4.18,39.16,-5.64,2.07,22.88,3.67,-1.58,-0.11
2,7,126,-70,-512,3907,-0.08,0.15,10.42,-0.70,-5.12,39.07,-5.65,2.06,22.84,3.71,-1.54,-0.11
4,3,114,-43,-529,3884,-0.05,0.15,10.07,-0.43,-5.29,38.84,-5.66,2.06,22.80,3.67,-1.46,-0.09
-1,-8,64,46,-512,3908,-0.05,0.09,9.45,0.46,-5.12,39.08,-5.67,2.05,22.76,3.78,-1.21,-0.02
-3,-13,52,11,-516,3927,-0.06,0.00,8.82,0.11,-5.16,39.27,-5.68,2.04,22.73,3.83,-1.08,-0.01
-5,-14,35,12,-497,3912,-0.09,-0.08,8.16,0.12,-4.97,39.12,-5.69,2.02,22.70,3.88,-1.03,0.01
-2,-10,41,36,-513,3937,-0.09,-0.14,7.59,0.36,-5.13,39.37,-5.70,2.01,22.67,3.83,-1.09,-0.01
2,1,76,-83,-461,3903,-0.07,-0.12,7.29,-0.83,-4.61,39.03,-5.72,2.00,22.64,3.75,-1.31,-0.07
-1,-6,77,-60,-436,3949,-0.07,-0.14,7.04,-0.60,-4.36,39.49,-5.72,1.99,22.61,3.82,-1.15,-0.08
-5,-5,77,-86,-494,3921,-0.09,-0.16,6.80,-0.86,-4.94,39.21,-5.74,1.98,22.58,3.92,-1.16,-0.08
0,0,80,-81,-480,3945,-0.08,-0.14,6.61,-0.81,-4.80,39.45,-5.76,1.97,22.56,3.82,-1.26,-0.09
-8,-11,75,-64,-518,3895,-0.12,-0.20,6.41,-0.64,-5.18,38.95,-5.77,1.97,22.53,4.00,-1.02,-0.09
-12,-13,66,-75,-441,3909,-0.18,-0.26,6.17,-0.75,-4.41,39.09,-5.78,1.95,22.51,4.11,-0.95,-0.08
-3,-11,39,-116,-343,3891,-0.18,-0.30,5.79,-1.16,-3.43,38.91,-5.76,1.95,22.48,3.92,-0.98,-0.04
-4,-10,35,-112,-337,3941,-0.19,-0.33,5.42,-1.12,-3.37,39.41,-5.75,1.94,22.46,3.93,-0.99,-0.04
3,-4,15,-48,-403,3895,-0.15,-0.32,4.97,-0.48,-4.03,38.95,-5.75,1.93,22.44,3.78,-1.10,-0.01
6,4,20,0,-444,3908,-0.10,-0.26,4.60,0.00,-4.44,39.08,-5.76,1.91,22.42,3.70,-1.27,-0.02
0,11,66,31,-515,3912,-0.09,-0.17,4.54,0.31,-5.15,39.12,-5.77,1.90,22.41,3.83,-1.43,-0.10
3,14,79,-2,-545,3892,-0.06,-0.07,4.57,-0.02,-5.45,38.92,-5.78,1.89,22.39,3.77,-1.51,-0.12
1,9,129,20,-538,3914,-0.05,-0.01,4.90,0.20,-5.38,39.14,-5.79,1.87,22.37,3.82,-1.42,-0.20
3,11,145,0,-544,3897,-0.03,0.06,5.29,0.00,-5.44,38.97,-5.81,1.86,22.35,3.78,-1.47,-0.22
8,20,193,-4,-470,3828,0.02,0.18,5.94,-0.04,-4.70,38.28,-5.81,1.85,22.32,3.67,-1.68,-0.29
-4,0,207,-102,-440,4010,-0.00,0.16,6.61,-1.02,-4.40,40.10,-5.83,1.84,22.30,3.93,-1.26,-0.31
-2,1,300,-165,-551,3975,-0.01,0.15,7.78,-1.65,-5.51,39.75,-5.84,1.85,22.27,3.90,-1.28,-0.44
-13,-14,359,7,-595,3974,-0.09,0.05,9.19,0.07,-5.95,39.74,-5.86,1.84,22.23,4.16,-0.95,-0.52
-10,11,657,17,-719,3951,-0.14,0.11,12.28,0.17,-7.19,39.51,-5.87,1.84,22.18,4.12,-1.47,-0.97
-11,18,812,34,-710,3972,-0.20,0.21,16.00,0.34,-7.10,39.72,-5.89,1.84,22.12,4.16,-1.64,-1.17
-20,7,1002,12,-757,4009,-0.30,0.23,20.52,0.12,-7.57,40.09,-5.90,1.84,22.04,4.38,-1.42,-1.42
-34,3,1017,19,-704,3853,-0.48,0.23,24.67,0.19,-7.04,38.53,-5.92,1.85,21.94,4.73,-1.34,-1.38
-29,-8,1030,-9,-621,3829,-0.61,0.16,28.48,-0.09,-6.21,38.29,-5.93,1.85,21.83,4.67,-1.10,-1.33
-29,9,1007,-65,-694,3827,-0.72,0.19,31.78,-0.65,-6.94,38.27,-5.95,1.86,21.70,4.71,-1.46,-1.24
-20,-1,911,-88,-418,3872,-0.77,0.17,34.16,-0.88,-4.18,38.72,-5.96,1.86,21.57,4.55,-1.25,-1.04
-21,2,884,-111,-543,3916,-0.82,0.16,36.13,-1.11,-5.43,39.16,-5.97,1.87,21.42,4.59,-1.32,-0.96
-16,4,721,-75,-303,4002,-0.84,0.17,36.92,-0.75,-3.03,40.02,-5.95,1.88,21.28,4.48,-1.37,-0.67
-22,-4,678,-129,-330,3925,-0.89,0.13,37.36,-1.29,-3.30,39.25,-5.94,1.90,21.13,4.61,-1.21,-0.59
1,12,527,-121,-192,3819,-0.79,0.19,36.84,-1.21,-1.92,38.19,-5.92,1.91,20.98,4.10,-1.56,-0.34
1,17,444,-77,-160,4106,-0.71,0.28,35.87,-0.77,-1.60,41.06,-5.90,1.92,20.84,4.06,-1.69,-0.21
10,13,333,-42,-143,4221,-0.58,0.33,34.31,-0.42,-1.43,42.21,-5.88,1.93,20.70,3.83,-1.63,-0.05
-7,-2,313,-155,-169,3831,-0.56,0.28,32.79,-1.55,-1.69,38.31,-5.86,1.95,20.57,4.16,-1.32,-0.04
0,10,256,-79,-355,3738,-0.51,0.32,31.07,-0.79,-3.55,37.38,-5.84,1.95,20.45,4.00,-1.57,0.03
-1,21,264,-60,-439,3852,-0.46,0.41,29.57,-0.60,-4.39,38.52,-5.85,1.95,20.33,4.01,-1.82,-0.01
8,12,326,-51,-522,3885,-0.37,0.44,28.61,-0.51,-5.22,38.85,-5.86,1.95,20.22,3.81,-1.65,-0.13
-9,6,357,-20,-483,4167,-0.38,0.44,27.92,-0.20,-4.83,41.67,-5.87,1.94,20.10,4.16,-1.52,-0.20
-7,11,432,-15,-467,3978,-0.39,0.46,27.77,-0.15,-4.67,39.78,-5.88,1.94,19.99,4.13,-1.63,-0.33
0,12,447,-19,-440,3862,-0.35,0.49,27.72,-0.19,-4.40,38.62,-5.88,1.94,19.88,3.98,-1.66,-0.35
-11,-10,469,-2,-464,3894,-0.38,0.38,27.81,-0.02,-4.64,38.94,-5.89,1.93,19.77,4.21,-1.18,-0.39
-4,9,466,5,-464,3914,-0.37,0.39,27.87,0.05,-4.64,39.14,-5.89,1.93,19.66,4.07,-1.56,-0.38
-11,9,476,-95,-476,3963,-0.40,0.41,27.98,-0.95,-4.76,39.63,-5.90,1.93,19.55,4.23,-1.57,-0.40
-9,9,478,-55,-460,3995,-0.41,0.42,28.10,-0.55,-4.60,39.95,-5.91,1.93,19.44,4.20,-1.57,-0.40
1,14,469,-75,-342,4001,-0.37,0.47,28.15,-0.75,-3.42,40.01,-5.90,1.93,19.33,3.97,-1.69,-0.38
0,17,470,-84,-383,3916,-0.33,0.52,28.20,-0.84,-3.83,39.16,-5.89,1.93,19.22,3.97,-1.76,-0.38
-2,10,440,-8,-408,3971,-0.31,0.53,28.07,-0.08,-4.08,39.71,-5.88,1.93,19.11,4.01,-1.62,-0.33
0,6,434,-32,-410,3900,-0.28,0.52,27.91,-0.32,-4.10,39.00,-5.88,1.92,18.99,3.96,-1.53,-0.32
-3,-5,429,-9,-525,3889,-0.27,0.43,27.73,-0.09,-5.25,38.89,-5.89,1.92,18.88,4.02,-1.28,-0.32
-6,3,432,-5,-549,3861,-0.28,0.41,27.60,-0.05,-5.49,38.61,-5.90,1.92,18.78,4.09,-1.44,-0.33
-13,-1,491,-48,-542,3892,-0.33,0.36,27.83,-0.48,-5.42,38.92,-5.92,1.93,18.67,4.26,-1.35,-0.42
-12,-2,525,-61,-568,3935,-0.37,0.31,28.25,-0.61,-5.68,39.35,-5.93,1.93,18.55,4.26,-1.32,-0.47
0,12,581,-68,-502,3909,-0.33,0.36,28.97,-0.68,-5.02,39.09,-5.94,1.93,18.44,4.01,-1.62,-0.55
-12,12,590,-58,-497,3922,-0.37,0.39,29.67,-0.58,-4.97,39.22,-5.96,1.94,18.32,4.28,-1.63,-0.56
-7,12,568,-73,-408,3894,-0.38,0.43,30.17,-0.73,-4.08,38.94,-5.95,1.93,18.20,4.17,-1.64,-0.51
4,23,548,-44,-417,3879,-0.32,0.52,30.50,-0.44,-4.17,38.79,-5.95,1.93,18.08,3.93,-1.88,-0.47
-4,18,416,-104,-137,3892,-0.31,0.58,29.98,-1.04,-1.37,38.92,-5.93,1.94,17.96,4.08,-1.81,-0.26
-7,27,361,-55,-240,3895,-0.32,0.69,29.19,-0.55,-2.40,38.95,-5.91,1.95,17.84,4.13,-2.02,-0.18
-5,21,471,6,-612,3886,-0.32,0.75,29.14,0.06,-6.12,38.86,-5.93,1.95,17.73,4.10,-1.92,-0.36
-5,18,484,5,-517,3879,-0.32,0.78,29.18,0.05,-5.17,38.79,-5.93,1.95,17.61,4.10,-1.87,-0.38
-6,11,483,-33,-476,3919,-0.32,0.77,29.21,-0.33,-4.76,39.19,-5.94,1.95,17.50,4.13,-1.72,-0.38
-7,0,484,-32,-495,3844,-0.33,0.69,29.24,-0.32,-4.95,38.44,-5.95,1.96,17.38,4.16,-1.48,-0.38
-3,3,507,-1,-529,3895,-0.32,0.64,29.41,-0.01,-5.29,38.95,-5.96,1.96,17.27,4.08,-1.53,-0.42
-14,-5,506,19,-506,3998,-0.37,0.55,29.55,0.19,-5.06,39.98,-5.97,1.96,17.15,4.32,-1.34,-0.41
-17,-4,510,-3,-457,3947,-0.44,0.47,29.71,-0.03,-4.57,39.47,-5.97,1.95,17.03,4.41,-1.33,-0.42
0,-13,511,6,-385,4052,-0.39,0.34,29.86,0.06,-3.85,40.52,-5.96,1.95,16.91,4.04,-1.11,-0.42
-15,-4,507,-103,-366,3961,-0.45,0.28,29.96,-1.03,-3.66,39.61,-5.95,1.95,16.79,4.35,-1.28,-0.41
-4,14,497,-65,-340,3813,-0.43,0.34,30.00,-0.65,-3.40,38.13,-5.93,1.95,16.67,4.11,-1.67,-0.39
-5,6,435,-83,-304,3951,-0.41,0.34,29.65,-0.83,-3.04,39.51,-5.91,1.96,16.55,4.12,-1.51,-0.29
-21,-9,416,-85,-326,3974,-0.50,0.25,29.22,-0.85,-3.26,39.74,-5.90,1.96,16.44,4.46,-1.18,-0.26
-26,-11,376,-17,-360,3885,-0.61,0.16,28.60,-0.17,-3.60,38.85,-5.89,1.96,16.32,4.58,-1.11,-0.21
-17,-9,369,-52,-406,3929,-0.65,0.09,27.99,-0.52,-4.06,39.29,-5.89,1.95,16.21,4.41,-1.13,-0.20
-15,-6,361,-57,-479,3861,-0.68,0.05,27.39,-0.57,-4.79,38.61,-5.90,1.95,16.10,4.38,-1.18,-0.20
-8,-6,353,-36,-451,3887,-0.66,0.00,26.80,-0.36,-4.51,38.87,-5.91,1.94,16.00,4.24,-1.16,-0.20
1,-23,315,22,-458,3945,-0.59,-0.14,26.05,0.22,-4.58,39.45,-5.91,1.94,15.89,4.04,-0.77,-0.14
-9,-40,306,26,-449,3925,-0.58,-0.37,25.31,0.26,-4.49,39.25,-5.92,1.93,15.79,4.25,-0.36,-0.14
3,-46,266,21,-401,3951,-0.51,-0.61,24.40,0.21,-4.01,39.51,-5.91,1.92,15.70,3.98,-0.16,-0.09
-3,-44,251,-37,-399,3903,-0.47,-0.82,23.49,-0.37,-3.99,39.03,-5.91,1.90,15.60,4.09,-0.14,-0.08
0,-41,201,-119,-354,3941,-0.43,-0.99,22.37,-1.19,-3.54,39.41,-5.89,1.91,15.51,4.01,-0.16,-0.01
-2,-46,189,-158,-333,3954,-0.40,-1.17,21.28,-1.58,-3.33,39.54,-5.87,1.92,15.43,4.03,-0.01,-0.01
-1,-51,154,-144,-335,3951,-0.36,-1.36,20.09,-1.44,-3.35,39.51,-5.85,1.92,15.34,3.98,0.14,0.03
-5,-47,142,-107,-370,3917,-0.36,-1.51,18.95,-1.07,-3.70,39.17,-5.84,1.91,15.27,4.05,0.11,0.03
5,-38,152,-38,-436,3906,-0.29,-1.59,17.98,-0.38,-4.36,39.06,-5.84,1.90,15.20,3.83,-0.04,-0.00
-1,-36,152,-9,-453,3885,-0.27,-1.65,17.11,-0.09,-4.53,38.85,-5.85,1.88,15.13,3.95,-0.06,-0.02
0,-21,167,-9,-477,3878,-0.24,-1.62,16.42,-0.09,-4.77,38.78,-5.86,1.86,15.06,3.93,-0.36,-0.05
2,-22,172,22,-464,3912,-0.20,-1.59,15.83,0.22,-4.64,39.12,-5.87,1.85,15.00,3.89,-0.34,-0.07
-3,-38,178,38,-534,3919,-0.20,-1.66,15.33,0.38,-5.34,39.19,-5.88,1.83,14.94,3.99,0.02,-0.09
3,-38,179,49,-504,3894,-0.16,-1.73,14.89,0.49,-5.04,38.94,-5.88,1.82,14.88,3.87,0.05,-0.10
-6,-32,188,15,-521,3927,-0.18,-1.75,14.55,0.15,-5.21,39.27,-5.89,1.80,14.82,4.06,-0.06,-0.12
-3,-34,194,8,-531,3944,-0.18,-1.78,14.28,0.08,-5.31,39.44,-5.91,1.79,14.76,4.01,-0.00,-0.13
-8,-24,210,-53,-432,3855,-0.21,-1.75,14.13,-0.53,-4.32,38.55,-5.91,1.77,14.71,4.12,-0.20,-0.16
-5,8,208,-43,-451,3856,-0.22,-1.53,13.98,-0.43,-4.51,38.56,-5.92,1.75,14.65,4.07,-0.90,-0.16
-10,43,213,-11,-484,3914,-0.26,-1.11,13.89,-0.11,-4.84,39.14,-5.93,1.74,14.59,4.19,-1.72,-0.17
-9,49,219,-3,-502,3905,-0.29,-0.70,13.83,-0.03,-5.02,39.05,-5.94,1.73,14.54,4.18,-1.95,-0.18
-1,34,243,-28,-481,3954,-0.27,-0.42,13.93,-0.28,-4.81,39.54,-5.95,1.72,14.48,4.02,-1.71,-0.22
-5,29,252,-1,-508,3942,-0.27,-0.20,14.08,-0.01,-5.08,39.42,-5.96,1.71,14.43,4.11,-1.66,-0.23
-5,17,292,4,-518,3934,-0.27,-0.08,14.45,0.04,-5.18,39.34,-5.98,1.70,14.37,4.12,-1.45,-0.30
-1,18,293,18,-523,3874,-0.25,0.04,14.79,0.18,-5.23,38.74,-5.99,1.69,14.31,4.04,-1.49,-0.29
-4,43,281,14,-440,3838,-0.25,0.30,15.03,0.14,-4.40,38.38,-5.99,1.68,14.25,4.10,-2.07,-0.27
-7,57,275,5,-438,3851,-0.27,0.61,15.20,0.05,-4.38,38.51,-6.00,1.67,14.19,4.17,-2.43,-0.25
-6,64,250,25,-505,3974,-0.28,0.94,15.21,0.25,-5.05,39.74,-6.00,1.67,14.13,4.16,-2.66,-0.21
-1,39,255,20,-529,3983,-0.26,1.09,15.24,0.20,-5.29,39.83,-6.02,1.66,14.07,4.06,-2.19,-0.22
-5,3,255,11,-489,3959,-0.26,1.00,15.27,0.11,-4.89,39.59,-6.02,1.66,14.01,4.15,-1.43,-0.22
-2,-3,254,-12,-456,3932,-0.25,0.88,15.29,-0.12,-4.56,39.32,-6.03,1.65,13.95,4.09,-1.27,-0.22
-4,19,247,-66,-403,3870,-0.25,0.91,15.27,-0.66,-4.03,38.70,-6.03,1.64,13.89,4.13,-1.72,-0.20
-3,29,245,-48,-411,3877,-0.24,0.99,15.24,-0.48,-4.11,38.77,-6.03,1.64,13.83,4.10,-1.94,-0.20
-11,39,244,-35,-449,3961,-0.28,1.13,15.20,-0.35,-4.49,39.61,-6.03,1.63,13.77,4.28,-2.18,-0.20
-4,29,243,-37,-449,3982,-0.28,1.20,15.17,-0.37,-4.49,39.82,-6.04,1.62,13.71,4.14,-1.99,-0.20
-2,-28,257,-38,-432,3967,-0.26,0.90,15.22,-0.38,-4.32,39.67,-6.04,1.62,13.65,4.10,-0.74,-0.22
-2,-35,257,-45,-428,3917,-0.25,0.60,15.26,-0.45,-4.28,39.17,-6.04,1.61,13.59,4.10,-0.51,-0.22
-5,-36,252,6,-441,3890,-0.26,0.32,15.27,0.06,-4.41,38.90,-6.05,1.60,13.53,4.16,-0.41,-0.21
-7,-29,250,-21,-437,3916,-0.27,0.11,15.27,-0.21,-4.37,39.16,-6.05,1.59,13.47,4.21,-0.49,-0.21
-5,-26,243,-10,-455,3898,-0.28,-0.06,15.23,-0.10,-4.55,38.98,-6.06,1.57,13.41,4.18,-0.50,-0.20
-6,-19,243,-20,-452,3877,-0.29,-0.17,15.19,-0.20,-4.52,38.77,-6.06,1.56,13.35,4.20,-0.60,-0.20
-3,7,259,13,-373,3886,-0.27,-0.11,15.25,0.13,-3.73,38.86,-6.06,1.55,13.29,4.13,-1.14,-0.22
-1,29,261,37,-393,3862,-0.25,0.08,15.31,0.37,-3.93,38.62,-6.06,1.54,13.23,4.09,-1.63,-0.22
-1,135,288,27,-434,3756,-0.23,0.89,15.54,0.27,-4.34,37.56,-6.06,1.53,13.17,4.08,-4.00,-0.27
-4,162,294,13,-442,3780,-0.24,1.79,15.78,0.13,-4.42,37.80,-6.07,1.53,13.10,4.15,-4.79,-0.27
24,94,272,-114,-406,4055,-0.07,2.19,15.86,-1.14,-4.06,40.55,-6.05,1.55,13.04,3.52,-3.53,-0.23
7,65,264,-104,-415,3893,-0.02,2.37,15.89,-1.04,-4.15,38.93,-6.06,1.55,12.98,3.86,-2.99,-0.22
-6,-12,196,133,-514,3834,-0.05,2.06,15.49,1.33,-5.14,38.34,-6.07,1.55,12.92,4.14,-1.34,-0.11
-8,-24,167,97,-546,3986,-0.09,1.70,14.96,0.97,-5.46,39.86,-6.07,1.55,12.86,4.20,-1.00,-0.07
-3,-17,150,-46,-508,3953,-0.10,1.43,14.38,-0.46,-5.08,39.53,-6.09,1.55,12.81,4.11,-1.07,-0.05
1,-10,144,-29,-556,3895,-0.09,1.23,13.82,-0.29,-5.56,38.95,-6.10,1.55,12.75,4.03,-1.16,-0.05
1,0,130,-11,-524,3928,-0.07,1.10,13.23,-0.11,-5.24,39.28,-6.11,1.55,12.70,4.03,-1.32,-0.04
0,2,124,-63,-496,3937,-0.07,1.00,12.66,-0.63,-4.96,39.37,-6.13,1.55,12.65,4.06,-1.34,-0.04
-4,17,115,-59,-477,3879,-0.08,1.01,12.10,-0.59,-4.77,38.79,-6.14,1.55,12.60,4.16,-1.64,-0.03
-4,19,117,-40,-455,3932,-0.10,1.02,11.60,-0.40,-4.55,39.32,-6.15,1.54,12.56,4.17,-1.68,-0.04
9,23,112,36,-549,3952,-0.03,1.06,11.13,0.36,-5.49,39.52,-6.16,1.54,12.51,3.89,-1.77,-0.04
7,17,118,27,-569,3895,0.01,1.06,10.73,0.27,-5.69,38.95,-6.17,1.53,12.47,3.93,-1.65,-0.06
7,15,151,50,-564,3931,0.05,1.04,10.58,0.50,-5.64,39.31,-6.18,1.53,12.43,3.92,-1.60,-0.12
-2,4,181,32,-592,3872,0.04,0.96,10.63,0.32,-5.92,38.72,-6.20,1.52,12.39,4.12,-1.35,-0.17
-7,-7,235,-35,-507,3828,-0.01,0.83,11.00,-0.35,-5.07,38.28,-6.21,1.52,12.35,4.24,-1.09,-0.25
-2,3,242,-58,-418,3962,-0.02,0.76,11.37,-0.58,-4.18,39.62,-6.20,1.51,12.30,4.14,-1.27,-0.26
-5,-4,245,-97,-395,3975,-0.05,0.66,11.73,-0.97,-3.95,39.75,-6.19,1.52,12.25,4.20,-1.10,-0.26
1,-1,239,-97,-404,3934,-0.04,0.59,12.02,-0.97,-4.04,39.34,-6.17,1.52,12.21,4.06,-1.14,-0.24
-1,-9,242,-28,-406,3987,-0.04,0.47,12.29,-0.28,-4.06,39.87,-6.16,1.51,12.16,4.10,-0.94,-0.24
-12,-20,251,-78,-469,3949,-0.11,0.31,12.59,-0.78,-4.69,39.49,-6.18,1.50,12.11,4.35,-0.67,-0.25
-7,-13,265,-53,-471,3941,-0.14,0.20,12.95,-0.53,-4.71,39.41,-6.19,1.50,12.06,4.26,-0.78,-0.27
-7,-7,275,-43,-477,3838,-0.17,0.13,13.33,-0.43,-4.77,38.38,-6.20,1.49,12.00,4.28,-0.88,-0.28
-4,-2,293,-62,-463,3802,-0.18,0.11,13.79,-0.62,-4.63,38.02,-6.21,1.49,11.95,4.23,-0.97,-0.30
-8,-3,296,-30,-457,4016,-0.21,0.08,14.21,-0.30,-4.57,40.16,-6.22,1.47,11.89,4.32,-0.93,-0.30
-4,0,317,-82,-458,4004,-0.21,0.07,14.73,-0.82,-4.58,40.04,-6.23,1.47,11.83,4.25,-0.99,-0.33
-8,-7,326,-80,-451,3909,-0.24,0.02,15.24,-0.80,-4.51,39.09,-6.24,1.46,11.77,4.35,-0.83,-0.33
-18,-9,354,-15,-462,3880,-0.33,-0.04,15.88,-0.15,-4.62,38.80,-6.25,1.45,11.71,4.58,-0.77,-0.37
-11,-1,344,-44,-401,3862,-0.36,-0.04,16.39,-0.44,-4.01,38.62,-6.24,1.44,11.65,4.44,-0.92,-0.34
-4,1,311,-6,-437,3871,-0.35,-0.03,16.65,-0.06,-4.37,38.71,-6.24,1.43,11.58,4.30,-0.96,-0.28
-8,2,300,-77,-415,3943,-0.36,-0.01,16.81,-0.77,-4.15,39.43,-6.23,1.42,11.51,4.38,-0.98,-0.26
1,1,289,12,-520,3926,-0.32,-0.01,16.89,0.12,-5.20,39.26,-6.24,1.42,11.45,4.19,-0.95,-0.24
-12,-3,294,-7,-575,3900,-0.36,-0.02,17.00,-0.07,-5.75,39.00,-6.26,1.42,11.38,4.47,-0.87,-0.25
-4,13,309,106,-398,3834,-0.35,0.06,17.18,1.06,-3.98,38.34,-6.26,1.40,11.31,4.31,-1.21,-0.27
6,20,325,150,-491,3996,-0.28,0.17,17.45,1.50,-4.91,39.96,-6.26,1.40,11.24,4.09,-1.37,-0.29
-11,12,357,90,-547,4020,-0.32,0.23,17.88,0.90,-5.47,40.20,-6.27,1.39,11.17,4.45,-1.22,-0.34
7,20,363,55,-535,3945,-0.24,0.33,18.31,0.55,-5.35,39.45,-6.28,1.38,11.10,4.07,-1.41,-0.34
0,28,409,35,-565,3884,-0.22,0.47,18.97,0.35,-5.65,38.84,-6.29,1.38,11.02,4.21,-1.61,-0.41
-3,16,416,-12,-568,4007,-0.22,0.52,19.61,-0.12,-5.68,40.07,-6.31,1.38,10.95,4.28,-1.38,-0.41
-3,6,464,-46,-508,4007,-0.21,0.50,20.48,-0.46,-5.08,40.07,-6.32,1.38,10.86,4.29,-1.17,-0.48
-10,16,483,-24,-596,3759,-0.25,0.55,21.38,-0.24,-5.96,37.59,-6.33,1.38,10.78,4.45,-1.39,-0.49
-18,2,494,7,-460,3934,-0.34,0.51,22.25,0.07,-4.60,39.34,-6.34,1.38,10.69,4.64,-1.09,-0.50
-28,-19,483,-58,-416,3985,-0.47,0.34,22.97,-0.58,-4.16,39.85,-6.33,1.38,10.60,4.87,-0.61,-0.46
-3,6,425,-49,-409,3884,-0.44,0.34,23.27,-0.49,-4.09,38.84,-6.32,1.37,10.51,4.35,-1.12,-0.36
-9,-1,402,-73,-475,3950,-0.45,0.30,23.40,-0.73,-4.75,39.50,-6.33,1.37,10.42,4.49,-0.97,-0.32
-4,-23,428,-24,-579,3999,-0.43,0.13,23.67,-0.24,-5.79,39.99,-6.35,1.37,10.32,4.39,-0.48,-0.36
-12,-37,446,-57,-613,3969,-0.46,-0.11,24.02,-0.57,-6.13,39.69,-6.37,1.38,10.23,4.57,-0.13,-0.38
-13,-60,528,68,-565,3948,-0.50,-0.46,24.84,0.68,-5.65,39.48,-6.38,1.38,10.13,4.61,0.44,-0.51
-13,-61,543,154,-533,3961,-0.53,-0.79,25.67,1.54,-5.33,39.61,-6.38,1.37,10.03,4.62,0.55,-0.52
-6,-46,575,102,-607,3782,-0.51,-0.99,26.61,1.02,-6.07,37.82,-6.40,1.36,9.92,4.48,0.31,-0.56
-9,-30,586,44,-618,3871,-0.51,-1.07,27.52,0.44,-6.18,38.71,-6.41,1.36,9.81,4.55,0.01,-0.56
-10,0,622,109,-603,3905,-0.52,-0.97,28.56,1.09,-6.03,39.05,-6.42,1.35,9.70,4.58,-0.63,-0.60
-8,-2,637,90,-593,3864,-0.52,-0.88,29.59,0.90,-5.93,38.64,-6.43,1.35,9.58,4.55,-0.61,-0.61
-8,17,653,-75,-466,3879,-0.52,-0.69,30.62,-0.75,-4.66,38.79,-6.45,1.35,9.46,4.56,-1.05,-0.62
-15,42,640,-90,-431,3909,-0.56,-0.36,31.46,-0.90,-4.31,39.09,-6.43,1.36,9.33,4.70,-1.65,-0.58
-11,31,594,-28,-375,3966,-0.57,-0.14,31.94,-0.28,-3.75,39.66,-6.41,1.36,9.20,4.61,-1.49,-0.50
-2,26,582,4,-376,3972,-0.52,0.03,32.29,0.04,-3.76,39.72,-6.40,1.36,9.08,4.41,-1.43,-0.47
-18,33,548,-111,-343,3889,-0.58,0.23,32.41,-1.11,-3.43,38.89,-6.38,1.38,8.95,4.74,-1.64,-0.41
-10,46,528,-147,-359,3870,-0.58,0.49,32.39,-1.47,-3.59,38.70,-6.37,1.41,8.82,4.57,-2.00,-0.38
-13,73,483,-51,-301,3868,-0.60,0.89,32.09,-0.51,-3.01,38.68,-6.35,1.42,8.69,4.62,-2.66,-0.31
-2,82,470,-91,-413,3915,-0.56,1.30,31.75,-0.91,-4.13,39.15,-6.33,1.43,8.56,4.37,-2.97,-0.29
-12,49,512,-169,-577,3931,-0.57,1.47,31.70,-1.69,-5.77,39.31,-6.35,1.46,8.44,4.59,-2.36,-0.36
2,55,530,-77,-574,3922,-0.50,1.65,31.76,-0.77,-5.74,39.22,-6.36,1.48,8.31,4.30,-2.54,-0.39
-3,16,599,-37,-650,3873,-0.47,1.59,32.24,-0.37,-6.50,38.73,-6.38,1.49,8.19,4.40,-1.74,-0.50
-22,2,601,153,-486,4129,-0.56,1.44,32.68,1.53,-4.86,41.29,-6.38,1.49,8.06,4.81,-1.42,-0.49
-28,-13,539,18,-393,3916,-0.67,1.22,32.70,0.18,-3.93,39.16,-6.37,1.50,7.93,4.96,-1.06,-0.39
-2,0,500,-29,-306,3839,-0.62,1.10,32.48,-0.29,-3.06,38.39,-6.36,1.51,7.80,4.41,-1.29,-0.33
-7,10,343,-174,-296,4082,-0.60,1.05,31.33,-1.74,-2.96,40.82,-6.34,1.53,7.67,4.49,-1.50,-0.08
-5,3,314,-220,-334,3905,-0.57,0.96,30.11,-2.20,-3.34,39.05,-6.33,1.56,7.55,4.43,-1.35,-0.05
-1,10,332,-36,-560,3871,-0.52,0.93,29.12,-0.36,-5.60,38.71,-6.34,1.57,7.44,4.35,-1.49,-0.10
-2,18,338,-38,-573,3886,-0.48,0.94,28.27,-0.38,-5.73,38.86,-6.36,1.58,7.33,4.37,-1.66,-0.12
3,13,344,-2,-431,3937,-0.41,0.93,27.54,-0.02,-4.31,39.37,-6.35,1.58,7.22,4.25,-1.56,-0.14
-1,15,344,-45,-409,3864,-0.38,0.93,26.89,-0.45,-4.09,38.64,-6.35,1.57,7.11,4.31,-1.60,-0.15
0,18,315,-99,-318,3907,-0.34,0.94,26.12,-0.99,-3.18,39.07,-6.33,1.59,7.01,4.27,-1.67,-0.12
1,16,287,-77,-287,3921,-0.30,0.95,25.26,-0.77,-2.87,39.21,-6.31,1.60,6.91,4.22,-1.64,-0.08
9,12,246,-126,-320,3917,-0.22,0.93,24.23,-1.26,-3.20,39.17,-6.29,1.62,6.81,4.03,-1.56,-0.03
2,10,233,-80,-346,3919,-0.18,0.89,23.23,-0.80,-3.46,39.19,-6.27,1.62,6.72,4.15,-1.52,-0.03
-1,-5,219,1,-541,3969,-0.17,0.77,22.24,0.01,-5.41,39.69,-6.28,1.62,6.63,4.21,-1.18,-0.02
-14,-15,221,49,-532,3897,-0.24,0.61,21.37,0.49,-5.32,38.97,-6.29,1.62,6.55,4.50,-0.93,-0.04
-14,-19,247,44,-515,3854,-0.30,0.43,20.74,0.44,-5.15,38.54,-6.30,1.61,6.46,4.52,-0.80,-0.09
-9,-11,248,37,-534,3941,-0.32,0.32,20.18,0.37,-5.34,39.41,-6.31,1.61,6.38,4.43,-0.93,-0.10
-18,-16,265,3,-524,3920,-0.40,0.19,19.78,0.03,-5.24,39.20,-6.32,1.60,6.31,4.64,-0.78,-0.14
-5,-9,281,-66,-518,3900,-0.39,0.12,19.51,-0.66,-5.18,39.00,-6.33,1.60,6.23,4.39,-0.91,-0.17
-3,19,301,-27,-500,3869,-0.37,0.22,19.40,-0.27,-5.00,38.69,-6.34,1.60,6.15,4.35,-1.50,-0.20
2,21,308,-91,-524,3920,-0.32,0.33,19.34,-0.91,-5.24,39.20,-6.36,1.61,6.08,4.24,-1.58,-0.22
-5,15,284,-66,-444,3936,-0.32,0.38,19.14,-0.66,-4.44,39.36,-6.36,1.60,6.00,4.39,-1.46,-0.18
-4,15,274,-71,-441,3931,-0.31,0.44,18.89,-0.71,-4.41,39.31,-6.36,1.59,5.92,4.37,-1.47,-0.17
7,16,223,-6,-399,3908,-0.24,0.49,18.36,-0.06,-3.99,39.08,-6.35,1.58,5.85,4.12,-1.50,-0.09
6,14,212,-10,-417,3926,-0.18,0.53,17.82,-0.10,-4.17,39.26,-6.35,1.57,5.78,4.12,-1.47,-0.08
0,11,171,45,-501,3898,-0.16,0.54,17.08,0.45,-5.01,38.98,-6.36,1.57,5.71,4.24,-1.41,-0.02
1,7,163,57,-495,3926,-0.14,0.53,16.37,0.57,-4.95,39.26,-6.36,1.56,5.65,4.22,-1.32,-0.02
-1,-1,149,41,-505,3912,-0.13,0.47,15.64,0.41,-5.05,39.12,-6.37,1.55,5.59,4.26,-1.13,-0.01
-2,1,155,10,-529,3932,-0.13,0.43,15.02,0.10,-5.29,39.32,-6.38,1.55,5.53,4.28,-1.16,-0.03
-4,2,198,39,-578,3890,-0.14,0.40,14.73,0.39,-5.78,38.90,-6.39,1.54,5.47,4.34,-1.17,-0.10
-2,6,217,65,-550,3901,-0.14,0.40,14.58,0.65,-5.50,39.01,-6.40,1.53,5.41,4.30,-1.24,-0.14
-4,-2,230,11,-507,3922,-0.15,0.34,14.52,0.11,-5.07,39.22,-6.41,1.53,5.35,4.35,-1.06,-0.16
0,1,235,9,-516,3876,-0.13,0.32,14.50,0.09,-5.16,38.76,-6.42,1.52,5.30,4.27,-1.11,-0.17
-2,0,273,61,-595,3911,-0.13,0.28,14.72,0.61,-5.95,39.11,-6.43,1.51,5.24,4.32,-1.08,-0.23
-14,-3,292,50,-631,3899,-0.21,0.24,15.03,0.50,-6.31,38.99,-6.44,1.51,5.18,4.59,-1.00,-0.26
-15,-11,252,77,-234,3931,-0.28,0.15,15.06,0.77,-2.34,39.31,-6.43,1.50,5.12,4.62,-0.81,-0.19
-3,-9,197,-66,-166,4009,-0.27,0.08,14.76,-0.66,-1.66,40.09,-6.41,1.51,5.06,4.36,-0.83,-0.10
-26,-36,-188,418,654,3818,-0.40,-0.15,12.14,4.18,6.54,38.18,-6.39,1.51,5.01,4.86,-0.22,0.51
18,-27,-391,-245,604,3838,-0.25,-0.30,8.54,-2.45,6.04,38.38,-6.37,1.51,4.98,3.91,-0.37,0.79
-3,-1,-567,-43,-51,3904,-0.24,-0.28,4.22,-0.43,-0.51,39.04,-6.36,1.51,4.96,4.32,-0.90,1.02
-35,-27,-733,245,-95,4006,-0.43,-0.41,-0.67,2.45,-0.95,40.06,-6.35,1.49,4.96,5.02,-0.32,1.22
11,-6,-386,-235,-1644,4115,-0.32,-0.41,-2.96,-2.35,-16.44,41.15,-6.37,1.49,4.97,4.06,-0.75,0.59
-2,14,-177,101,-1530,3561,-0.30,-0.28,-3.74,1.01,-15.30,35.61,-6.38,1.49,4.99,4.34,-1.19,0.22
-18,1,295,126,-903,3803,-0.38,-0.25,-1.57,1.26,-9.03,38.03,-6.40,1.48,5.00,4.70,-0.93,-0.54
-5,17,334,123,-630,3877,-0.37,-0.12,0.63,1.23,-6.30,38.77,-6.42,1.46,4.99,4.44,-1.28,-0.57
-1,-5,295,40,-414,3788,-0.34,-0.14,2.36,0.40,-4.14,37.88,-6.42,1.45,4.98,4.35,-0.81,-0.48
0,0,273,-22,-340,4005,-0.31,-0.12,3.79,-0.22,-3.40,40.05,-6.40,1.44,4.97,4.31,-0.91,-0.41
-11,-11,265,-3,-485,4004,-0.34,-0.18,5.03,-0.03,-4.85,40.04,-6.41,1.42,4.95,4.55,-0.66,-0.38
-11,-11,264,6,-460,3897,-0.38,-0.23,6.14,0.06,-4.60,38.97,-6.41,1.40,4.92,4.56,-0.64,-0.36
-8,-8,234,19,-453,3894,-0.39,-0.25,6.95,0.19,-4.53,38.94,-6.42,1.39,4.90,4.50,-0.68,-0.29
1,7,198,-45,-396,3973,-0.34,-0.19,7.46,-0.45,-3.96,39.73,-6.40,1.38,4.87,4.30,-1.00,-0.22
-1,8,154,-42,-426,3908,-0.32,-0.12,7.66,-0.42,-4.26,39.08,-6.40,1.36,4.84,4.33,-1.03,-0.15
4,6,145,-51,-417,3923,-0.26,-0.07,7.78,-0.51,-4.17,39.23,-6.39,1.35,4.81,4.21,-0.99,-0.13
-1,9,106,-87,-398,3909,-0.24,-0.01,7.64,-0.87,-3.98,39.09,-6.37,1.35,4.77,4.29,-1.07,-0.07
-1,10,101,-82,-443,3934,-0.22,0.05,7.50,-0.82,-4.43,39.34,-6.38,1.34,4.74,4.29,-1.10,-0.06
2,11,118,-6,-523,3891,-0.19,0.12,7.47,-0.06,-5.23,38.91,-6.39,1.33,4.72,4.23,-1.13,-0.09
2,9,128,-9,-511,3930,-0.16,0.16,7.50,-0.09,-5.11,39.30,-6.41,1.32,4.69,4.23,-1.10,-0.11
1,5,176,4,-558,3941,-0.13,0.17,7.82,0.04,-5.58,39.41,-6.42,1.31,4.66,4.25,-1.01,-0.18
-1,1,192,-8,-549,3930,-0.13,0.16,8.21,-0.08,-5.49,39.30,-6.43,1.30,4.62,4.30,-0.92,-0.20
-8,4,234,-48,-517,3922,-0.16,0.17,8.82,-0.48,-5.17,39.22,-6.45,1.30,4.59,4.46,-0.98,-0.26
1,11,248,-16,-505,3948,-0.14,0.22,9.45,-0.16,-5.05,39.48,-6.46,1.29,4.55,4.28,-1.13,-0.28
-9,4,302,12,-578,3930,-0.18,0.22,10.35,0.12,-5.78,39.30,-6.47,1.28,4.51,4.51,-0.99,-0.35
-4,0,321,38,-574,3941,-0.19,0.20,11.27,0.38,-5.74,39.41,-6.49,1.28,4.47,4.41,-0.90,-0.37
-12,-8,379,41,-553,3908,-0.24,0.13,12.46,0.41,-5.53,39.08,-6.50,1.27,4.42,4.60,-0.71,-0.45
-2,-8,395,12,-539,3894,-0.23,0.07,13.62,0.12,-5.39,38.94,-6.51,1.26,4.36,4.40,-0.69,-0.45
7,8,438,77,-472,3967,-0.16,0.11,14.93,0.77,-4.72,39.67,-6.51,1.25,4.30,4.20,-1.02,-0.50
-6,7,454,33,-544,3966,-0.18,0.14,16.21,0.33,-5.44,39.66,-6.52,1.24,4.24,4.48,-1.00,-0.51
-2,18,483,-69,-526,3996,-0.18,0.24,17.53,-0.69,-5.26,39.96,-6.54,1.25,4.17,4.41,-1.26,-0.54
-14,12,480,-76,-458,3820,-0.25,0.29,18.71,-0.76,-4.58,38.20,-6.56,1.25,4.10,4.68,-1.15,-0.51
-9,7,441,-72,-415,3922,-0.28,0.30,19.53,-0.72,-4.15,39.22,-6.54,1.25,4.02,4.57,-1.05,-0.43
-6,-6,426,-57,-478,3908,-0.29,0.24,20.17,-0.57,-4.78,39.08,-6.55,1.25,3.94,4.52,-0.77,-0.40
-19,14,434,61,-573,3821,-0.37,0.30,20.80,0.61,-5.73,38.21,-6.56,1.25,3.86,4.82,-1.19,-0.40
6,18,435,69,-492,3963,-0.30,0.38,21.38,0.69,-4.92,39.63,-6.57,1.24,3.77,4.29,-1.29,-0.39
-5,3,434,-8,-523,3868,-0.30,0.36,21.89,-0.08,-5.23,38.68,-6.58,1.24,3.69,4.53,-0.98,-0.38
8,14,423,-34,-478,3910,-0.22,0.41,22.28,-0.34,-4.78,39.10,-6.59,1.24,3.60,4.24,-1.21,-0.35
5,13,422,1,-442,3893,-0.17,0.45,22.62,0.01,-4.42,38.93,-6.58,1.23,3.51,4.29,-1.20,-0.35
-11,5,420,-41,-460,4018,-0.22,0.43,22.92,-0.41,-4.60,40.18,-6.58,1.22,3.42,4.63,-1.03,-0.34
-4,11,408,-97,-410,3917,-0.22,0.46,23.12,-0.97,-4.10,39.17,-6.56,1.24,3.32,4.47,-1.17,-0.31
-6,9,402,-88,-433,3902,-0.24,0.47,23.26,-0.88,-4.33,39.02,-6.54,1.26,3.23,4.50,-1.14,-0.30
2,11,395,11,-504,3921,-0.20,0.49,23.34,0.11,-5.04,39.21,-6.55,1.25,3.14,4.34,-1.18,-0.29
-2,12,405,83,-510,3866,-0.19,0.51,23.48,0.83,-5.10,38.66,-6.56,1.25,3.05,4.42,-1.21,-0.30
-2,17,425,19,-501,3893,-0.18,0.56,23.72,0.19,-5.01,38.93,-6.56,1.25,2.95,4.42,-1.32,-0.33
5,14,424,32,-471,3979,-0.14,0.59,23.94,0.32,-4.71,39.79,-6.56,1.24,2.86,4.27,-1.27,-0.33
4,15,407,-5,-471,3939,-0.10,0.62,24.03,-0.05,-4.71,39.39,-6.57,1.24,2.76,4.28,-1.29,-0.29
-2,14,398,-51,-438,3895,-0.10,0.65,24.05,-0.51,-4.38,38.95,-6.56,1.23,2.67,4.40,-1.28,-0.28
1,0,355,-53,-388,3899,-0.08,0.58,23.81,-0.53,-3.88,38.99,-6.54,1.24,2.57,4.32,-0.98,-0.21
-6,6,352,-42,-447,3817,-0.11,0.56,23.58,-0.42,-4.47,38.17,-6.54,1.23,2.48,4.47,-1.09,-0.21
-6,0,341,-50,-499,3881,-0.14,0.50,23.30,-0.50,-4.99,38.81,-6.56,1.24,2.39,4.49,-0.95,-0.19
2,7,348,12,-497,3928,-0.11,0.50,23.09,0.12,-4.97,39.28,-6.56,1.23,2.30,4.32,-1.09,-0.21
-10,-5,361,-1,-488,3844,-0.16,0.42,22.99,-0.01,-4.88,38.44,-6.57,1.23,2.20,4.58,-0.82,-0.23
2,10,343,-22,-426,3889,-0.13,0.44,22.78,-0.22,-4.26,38.89,-6.56,1.22,2.11,4.33,-1.13,-0.21
-2,9,287,-139,-320,3931,-0.13,0.45,22.25,-1.39,-3.20,39.31,-6.55,1.24,2.03,4.40,-1.13,-0.12
9,4,265,-181,-299,4001,-0.06,0.43,21.64,-1.81,-2.99,40.01,-6.53,1.26,1.94,4.14,-1.03,-0.09
-2,3,238,-118,-441,3934,-0.07,0.40,20.93,-1.18,-4.41,39.34,-6.52,1.29,1.86,4.36,-1.02,-0.06
-5,-4,239,-50,-405,3918,-0.09,0.34,20.30,-0.50,-4.05,39.18,-6.51,1.29,1.78,4.42,-0.86,-0.07
3,2,214,33,-459,3860,-0.07,0.32,19.57,0.33,-4.59,38.60,-6.51,1.28,1.70,4.25,-0.97,-0.04
-7,-1,207,36,-488,3987,-0.10,0.28,18.88,0.36,-4.88,39.87,-6.51,1.27,1.62,4.47,-0.90,-0.04
2,13,238,-42,-581,3946,-0.08,0.33,18.44,-0.42,-5.81,39.46,-6.53,1.28,1.55,4.29,-1.20,-0.10
-5,0,252,52,-540,4028,-0.10,0.30,18.13,0.52,-5.40,40.28,-6.53,1.27,1.48,4.44,-0.92,-0.13
-2,3,238,25,-510,3946,-0.10,0.29,17.77,0.25,-5.10,39.46,-6.54,1.26,1.41,4.39,-0.97,-0.11
1,15,245,39,-556,3878,-0.09,0.35,17.49,0.39,-5.56,38.78,-6.55,1.26,1.34,4.33,-1.23,-0.13
1,20,273,70,-513,3820,-0.07,0.44,17.41,0.70,-5.13,38.20,-6.56,1.25,1.27,4.33,-1.35,-0.17
8,33,287,44,-558,3914,-0.02,0.59,17.42,0.44,-5.58,39.14,-6.57,1.25,1.20,4.18,-1.66,-0.20
16,49,310,161,-359,3838,0.08,0.83,17.57,1.61,-3.59,38.38,-6.56,1.24,1.13,3.98,-2.04,-0.23
9,25,289,-59,-437,4046,0.13,0.90,17.57,-0.59,-4.37,40.46,-6.55,1.24,1.06,4.10,-1.57,-0.20
-5,0,275,95,-595,3968,0.09,0.81,17.49,0.95,-5.95,39.68,-6.56,1.24,0.99,4.41,-1.04,-0.18
2,6,290,108,-599,3891,0.09,0.77,17.51,1.08,-5.99,38.91,-6.57,1.23,0.92,4.27,-1.15,-0.20
11,44,341,61,-542,3932,0.15,0.96,17.84,0.61,-5.42,39.32,-6.57,1.23,0.85,4.07,-1.97,-0.28
17,41,352,54,-536,3975,0.24,1.11,18.20,0.54,-5.36,39.75,-6.58,1.23,0.78,3.93,-1.95,-0.29
26,60,363,76,-462,4007,0.37,1.37,18.60,0.76,-4.62,40.07,-6.58,1.22,0.71,3.71,-2.40,-0.31
11,46,395,-149,-617,3944,0.40,1.51,19.15,-1.49,-6.17,39.44,-6.59,1.24,0.63,4.02,-2.17,-0.35
5,29,425,1,-563,3910,0.39,1.54,19.83,0.01,-5.63,39.10,-6.60,1.25,0.56,4.15,-1.83,-0.39
0,21,428,8,-523,3949,0.35,1.51,20.45,0.08,-5.23,39.49,-6.61,1.25,0.48,4.27,-1.66,-0.38
3,12,411,66,-562,3911,0.34,1.43,20.92,0.66,-5.62,39.11,-6.62,1.25,0.39,4.21,-1.46,-0.35
0,8,416,101,-568,3917,0.30,1.34,21.36,1.01,-5.68,39.17,-6.62,1.25,0.31,4.29,-1.35,-0.35
-7,-9,425,83,-540,3941,0.23,1.15,21.82,0.83,-5.40,39.41,-6.63,1.25,0.22,4.45,-0.95,-0.35
-1,0,443,151,-547,3853,0.20,1.04,22.34,1.51,-5.47,38.53,-6.63,1.24,0.14,4.34,-1.10,-0.38
-15,-5,463,-153,-434,3959,0.09,0.90,22.93,-1.53,-4.34,39.59,-6.62,1.28,0.04,4.65,-0.99,-0.40
-7,-2,451,-148,-438,3917,0.04,0.80,23.39,-1.48,-4.38,39.17,-6.62,1.31,-0.05,4.50,-1.04,-0.37
1,16,409,-192,-312,3851,0.04,0.82,23.54,-1.92,-3.12,38.51,-6.60,1.33,-0.14,4.32,-1.43,-0.30
14,18,346,-101,-318,3856,0.12,0.84,23.30,-1.01,-3.18,38.56,-6.58,1.35,-0.23,4.02,-1.49,-0.19
-10,10,308,-57,-431,3925,0.05,0.82,22.85,-0.57,-4.31,39.25,-6.57,1.35,-0.32,4.52,-1.32,-0.14
-11,4,309,-46,-488,3936,-0.02,0.76,22.45,-0.46,-4.88,39.36,-6.58,1.35,-0.41,4.57,-1.18,-0.15
1,4,310,49,-481,3898,-0.02,0.71,22.09,0.49,-4.81,38.98,-6.58,1.34,-0.50,4.33,-1.16,-0.15
8,9,308,50,-461,3870,0.03,0.70,21.76,0.50,-4.61,38.70,-6.58,1.33,-0.59,4.17,-1.25,-0.15
0,20,328,43,-535,3861,0.03,0.75,21.59,0.43,-5.35,38.61,-6.59,1.33,-0.67,4.34,-1.49,-0.19
14,34,329,87,-396,3944,0.11,0.88,21.44,0.87,-3.96,39.44,-6.58,1.33,-0.76,4.03,-1.81,-0.20
2,23,299,-43,-442,3935,0.11,0.93,21.12,-0.43,-4.42,39.35,-6.57,1.32,-0.84,4.26,-1.60,-0.15
13,22,289,-89,-416,3914,0.18,0.97,20.77,-0.89,-4.16,39.14,-6.55,1.34,-0.92,4.01,-1.59,-0.14
2,8,271,-73,-384,3911,0.18,0.93,20.34,-0.73,-3.84,39.11,-6.53,1.34,-1.00,4.22,-1.30,-0.11
-8,-1,256,-17,-412,3889,0.11,0.83,19.87,-0.17,-4.12,38.89,-6.52,1.34,-1.08,4.44,-1.09,-0.10
20,33,221,-53,-399,3866,0.22,0.95,19.23,-0.53,-3.99,38.66,-6.50,1.34,-1.16,3.83,-1.81,-0.05
12,34,216,-68,-468,3994,0.27,1.06,18.63,-0.68,-4.68,39.94,-6.51,1.34,-1.23,3.98,-1.86,-0.05
10,21,220,-36,-469,3961,0.31,1.08,18.11,-0.36,-4.69,39.61,-6.51,1.33,-1.30,4.01,-1.60,-0.07
8,10,229,3,-523,3931,0.32,1.03,17.69,0.03,-5.23,39.31,-6.52,1.33,-1.37,4.05,-1.36,-0.09
2,10,228,46,-441,3849,0.30,0.99,17.31,0.46,-4.41,38.49,-6.52,1.32,-1.44,4.18,-1.35,-0.09
7,18,213,26,-419,3924,0.32,1.00,16.88,0.26,-4.19,39.24,-6.51,1.32,-1.51,4.07,-1.51,-0.07
9,17,166,19,-490,3963,0.34,1.01,16.21,0.19,-4.90,39.63,-6.51,1.31,-1.57,4.02,-1.48,-0.00
11,16,162,14,-475,3946,0.37,1.00,15.57,0.14,-4.75,39.46,-6.51,1.30,-1.63,3.97,-1.46,-0.01
3,3,148,0,-486,3909,0.35,0.92,14.92,0.00,-4.86,39.09,-6.52,1.30,-1.69,4.14,-1.17,0.00
4,4,139,10,-476,3932,0.34,0.85,14.28,0.10,-4.76,39.32,-6.52,1.29,-1.75,4.13,-1.16,0.01
5,-1,128,-49,-454,3928,0.34,0.76,13.63,-0.49,-4.54,39.28,-6.52,1.28,-1.80,4.11,-1.03,0.02
-2,0,127,-52,-479,3924,0.29,0.69,13.04,-0.52,-4.79,39.24,-6.53,1.27,-1.85,4.27,-1.03,0.01
-6,0,132,-16,-459,3935,0.23,0.62,12.54,-0.16,-4.59,39.35,-6.53,1.26,-1.90,4.37,-1.00,-0.01
-10,-2,135,-14,-483,3898,0.14,0.54,12.11,-0.14,-4.83,38.98,-6.54,1.26,-1.95,4.48,-0.94,-0.02
5,5,142,-57,-499,3795,0.16,0.52,11.77,-0.57,-4.99,37.95,-6.55,1.26,-2.00,4.18,-1.07,-0.04
0,7,142,-62,-467,3907,0.14,0.51,11.46,-0.62,-4.67,39.07,-6.56,1.25,-2.04,4.29,-1.11,-0.04
-2,8,172,106,-568,3908,0.12,0.51,11.36,1.06,-5.68,39.08,-6.57,1.24,-2.09,4.34,-1.12,-0.09
9,12,181,43,-489,3958,0.16,0.53,11.33,0.43,-4.89,39.58,-6.57,1.23,-2.13,4.11,-1.20,-0.11
18,18,187,-59,-530,3913,0.25,0.59,11.34,-0.59,-5.30,39.13,-6.59,1.23,-2.18,3.91,-1.34,-0.12
8,9,194,-36,-507,3941,0.28,0.58,11.39,-0.36,-5.07,39.41,-6.60,1.23,-2.22,4.12,-1.15,-0.13
3,16,203,-49,-504,3877,0.27,0.62,11.48,-0.49,-5.04,38.77,-6.61,1.22,-2.27,4.23,-1.30,-0.14
7,16,194,-112,-436,3994,0.28,0.66,11.52,-1.12,-4.36,39.94,-6.60,1.25,-2.31,4.13,-1.33,-0.13
2,0,165,-79,-530,4011,0.27,0.59,11.37,-0.79,-5.30,40.11,-6.61,1.25,-2.36,4.25,-0.99,-0.08
-4,0,182,-12,-576,3884,0.22,0.53,11.35,-0.12,-5.76,38.84,-6.63,1.25,-2.40,4.40,-0.97,-0.11
-22,-20,226,12,-467,3873,0.06,0.36,11.59,0.12,-4.67,38.73,-6.63,1.24,-2.45,4.81,-0.51,-0.18
-20,-16,224,-23,-466,3852,-0.07,0.22,11.80,-0.23,-4.66,38.52,-6.63,1.23,-2.49,4.80,-0.54,-0.17
3,14,220,-146,-358,3875,-0.04,0.29,11.96,-1.46,-3.58,38.75,-6.62,1.24,-2.54,4.32,-1.18,-0.16
18,24,205,-106,-351,3962,0.07,0.40,12.01,-1.06,-3.51,39.62,-6.60,1.25,-2.59,3.97,-1.43,-0.14
-2,4,203,112,-509,4032,0.05,0.39,12.05,1.12,-5.09,40.32,-6.60,1.24,-2.64,4.38,-1.01,-0.13
-8,-2,220,7,-456,3893,-0.00,0.34,12.19,0.07,-4.56,38.93,-6.60,1.23,-2.68,4.52,-0.86,-0.16
-6,-6,203,-70,-395,3886,-0.04,0.27,12.21,-0.70,-3.95,38.86,-6.58,1.23,-2.73,4.48,-0.76,-0.13
-4,-7,189,-90,-365,3948,-0.06,0.20,12.14,-0.90,-3.65,39.48,-6.56,1.24,-2.78,4.43,-0.73,-0.11
-5,-7,152,-76,-476,3956,-0.08,0.14,11.85,-0.76,-4.76,39.56,-6.58,1.24,-2.83,4.47,-0.71,-0.05
-2,-6,157,-53,-480,3971,-0.09,0.09,11.63,-0.53,-4.80,39.71,-6.59,1.23,-2.87,4.41,-0.71,-0.06
-10,-12,197,-2,-576,3992,-0.14,0.00,11.66,-0.02,-5.76,39.92,-6.60,1.22,-2.92,4.60,-0.56,-0.13
-12,-12,215,70,-585,3888,-0.20,-0.07,11.81,0.70,-5.85,38.88,-6.61,1.21,-2.97,4.66,-0.54,-0.16
-14,-7,239,72,-498,3868,-0.26,-0.11,12.09,0.72,-4.98,38.68,-6.62,1.20,-3.02,4.73,-0.62,-0.19
-4,1,242,56,-483,3870,-0.26,-0.09,12.35,0.56,-4.83,38.70,-6.62,1.19,-3.06,4.52,-0.78,-0.19
-1,0,227,-60,-370,3969,-0.24,-0.08,12.50,-0.60,-3.70,39.69,-6.61,1.19,-3.11,4.45,-0.76,-0.17
-1,0,211,-101,-385,3908,-0.22,-0.07,12.54,-1.01,-3.85,39.08,-6.59,1.20,-3.16,4.43,-0.77,-0.14
-6,2,161,-60,-401,3911,-0.24,-0.05,12.27,-0.60,-4.01,39.11,-6.57,1.20,-3.21,4.52,-0.82,-0.06
-2,-2,155,-67,-413,3989,-0.23,-0.06,11.99,-0.67,-4.13,39.89,-6.56,1.20,-3.26,4.43,-0.73,-0.05
-5,-1,156,-5,-457,3914,-0.23,-0.06,11.74,-0.05,-4.57,39.14,-6.56,1.19,-3.31,4.49,-0.75,-0.06
-6,0,157,-16,-449,3923,-0.25,-0.05,11.52,-0.16,-4.49,39.23,-6.56,1.17,-3.35,4.52,-0.76,-0.06
-4,13,171,69,-457,3927,-0.25,0.03,11.41,0.69,-4.57,39.27,-6.56,1.16,-3.40,4.48,-1.04,-0.09
-2,14,185,41,-522,3891,-0.23,0.11,11.40,0.41,-5.22,38.91,-6.57,1.15,-3.44,4.44,-1.07,-0.11
-13,7,221,77,-565,3911,-0.29,0.14,11.61,0.77,-5.65,39.11,-6.58,1.14,-3.49,4.68,-0.93,-0.17
-8,6,236,67,-542,3960,-0.31,0.17,11.89,0.67,-5.42,39.60,-6.59,1.13,-3.54,4.59,-0.91,-0.19
-5,-3,258,-8,-515,3939,-0.31,0.13,12.27,-0.08,-5.15,39.39,-6.60,1.12,-3.59,4.54,-0.72,-0.22
-8,2,262,11,-491,3949,-0.33,0.13,12.64,0.11,-4.91,39.49,-6.61,1.11,-3.64,4.61,-0.81,-0.22
0,4,244,-107,-440,3943,-0.29,0.14,12.87,-1.07,-4.40,39.43,-6.60,1.13,-3.69,4.43,-0.87,-0.19
-6,-6,229,-100,-424,3933,-0.30,0.09,12.98,-1.00,-4.24,39.33,-6.58,1.15,-3.74,4.55,-0.66,-0.16
-3,0,210,-6,-446,3858,-0.29,0.08,12.96,-0.06,-4.46,38.58,-6.58,1.14,-3.79,4.48,-0.77,-0.13
4,4,200,-40,-424,3898,-0.24,0.10,12.89,-0.40,-4.24,38.98,-6.57,1.13,-3.84,4.32,-0.85,-0.11
12,17,146,-50,-406,3898,-0.14,0.19,12.49,-0.50,-4.06,38.98,-6.56,1.13,-3.89,4.12,-1.14,-0.03
11,18,132,-39,-431,3914,-0.06,0.28,12.04,-0.39,-4.31,39.14,-6.55,1.12,-3.94,4.11,-1.18,-0.01
3,6,115,20,-466,3967,-0.03,0.29,11.54,0.20,-4.66,39.67,-6.55,1.11,-3.99,4.27,-0.93,0.01
2,10,112,36,-446,3835,-0.02,0.32,11.07,0.36,-4.46,38.35,-6.55,1.09,-4.03,4.29,-1.01,0.01
3,-5,98,-41,-539,3866,0.00,0.26,10.56,-0.41,-5.39,38.66,-6.57,1.09,-4.07,4.27,-0.69,0.02
-2,-17,99,12,-488,3952,-0.01,0.13,10.11,0.12,-4.88,39.52,-6.57,1.08,-4.11,4.38,-0.40,0.01
0,-9,109,21,-471,3924,-0.01,0.06,9.76,0.21,-4.71,39.24,-6.57,1.07,-4.15,4.34,-0.54,-0.01
3,-2,108,14,-474,3885,0.01,0.04,9.45,0.14,-4.74,38.85,-6.58,1.05,-4.19,4.28,-0.67,-0.01
-1,-7,101,45,-553,3891,0.00,-0.00,9.12,0.45,-5.53,38.91,-6.59,1.05,-4.22,4.37,-0.55,-0.01
-2,-11,114,14,-566,3934,-0.01,-0.07,8.90,0.14,-5.66,39.34,-6.60,1.04,-4.26,4.40,-0.44,-0.03
-7,-5,150,39,-405,3932,-0.05,-0.09,8.93,0.39,-4.05,39.32,-6.60,1.02,-4.29,4.51,-0.55,-0.09
1,-1,140,-16,-385,3943,-0.04,-0.09,8.89,-0.16,-3.85,39.43,-6.58,1.02,-4.33,4.33,-0.63,-0.08
8,9,60,-88,-411,3913,0.01,-0.03,8.36,-0.88,-4.11,39.13,-6.56,1.03,-4.36,4.17,-0.85,0.05
7,6,50,-54,-432,3875,0.05,0.01,7.83,-0.54,-4.32,38.75,-6.55,1.02,-4.39,4.17,-0.80,0.06
0,1,35,37,-364,3891,0.05,0.02,7.26,0.37,-3.64,38.91,-6.54,1.01,-4.42,4.30,-0.69,0.08
4,10,24,6,-402,3920,0.07,0.08,6.68,0.06,-4.02,39.20,-6.53,1.00,-4.45,4.21,-0.88,0.08
6,11,20,-7,-429,3916,0.10,0.14,6.14,-0.07,-4.29,39.16,-6.52,0.98,-4.47,4.16,-0.91,0.08
2,0,23,-16,-460,3925,0.10,0.12,5.66,-0.16,-4.60,39.25,-6.53,0.97,-4.50,4.24,-0.67,0.07
1,-4,24,-17,-447,3917,0.10,0.09,5.24,-0.17,-4.47,39.17,-6.52,0.95,-4.52,4.26,-0.57,0.06
1,-9,29,-17,-470,3918,0.09,0.02,4.90,-0.17,-4.70,39.18,-6.53,0.94,-4.54,4.27,-0.44,0.05
0,-10,31,-15,-470,3919,0.08,-0.04,4.60,-0.15,-4.70,39.19,-6.54,0.92,-4.56,4.29,-0.39,0.04
8,-6,32,22,-453,3911,0.12,-0.07,4.33,0.22,-4.53,39.11,-6.54,0.90,-4.57,4.12,-0.46,0.03
3,-5,34,9,-485,3898,0.13,-0.10,4.11,0.09,-4.85,38.98,-6.55,0.89,-4.59,4.22,-0.46,0.03
-1,-4,47,26,-512,3919,0.11,-0.11,3.98,0.26,-5.12,39.19,-6.56,0.88,-4.60,4.32,-0.47,0.00
-1,-5,51,9,-490,3931,0.09,-0.13,3.89,0.09,-4.90,39.31,-6.56,0.86,-4.62,4.33,-0.43,-0.01
-3,-5,49,-27,-446,3908,0.07,-0.15,3.80,-0.27,-4.46,39.08,-6.56,0.84,-4.64,4.37,-0.42,-0.01
6,6,22,-17,-463,3912,0.10,-0.10,3.56,-0.17,-4.63,39.12,-6.57,0.83,-4.65,4.19,-0.64,0.04
5,6,21,-14,-471,3908,0.12,-0.05,3.33,-0.14,-4.71,39.08,-6.57,0.81,-4.66,4.21,-0.64,0.03
4,4,16,2,-464,3918,0.13,-0.02,3.09,0.02,-4.64,39.18,-6.58,0.80,-4.67,4.22,-0.60,0.04
3,3,15,0,-465,3919,0.13,-0.00,2.88,0.00,-4.65,39.19,-6.58,0.78,-4.69,4.25,-0.58,0.04
1,-3,19,-11,-479,3909,0.13,-0.02,2.70,-0.11,-4.79,39.09,-6.59,0.77,-4.70,4.29,-0.44,0.03
1,-3,21,-11,-477,3916,0.12,-0.04,2.56,-0.11,-4.77,39.16,-6.60,0.75,-4.71,4.30,-0.43,0.02
-4,-12,36,-27,-509,3929,0.08,-0.10,2.53,-0.27,-5.09,39.29,-6.61,0.74,-4.72,4.42,-0.22,-0.00
-9,-16,42,-22,-498,3937,0.02,-0.19,2.53,-0.22,-4.98,39.37,-6.63,0.73,-4.73,4.55,-0.11,-0.01
-2,-13,68,50,-516,3916,0.01,-0.25,2.69,0.50,-5.16,39.16,-6.64,0.72,-4.74,4.42,-0.14,-0.06
2,-7,82,41,-519,3873,0.02,-0.27,2.92,0.41,-5.19,38.73,-6.65,0.70,-4.75,4.34,-0.25,-0.08
13,11,108,46,-562,3901,0.10,-0.18,3.29,0.46,-5.62,39.01,-6.66,0.69,-4.76,4.11,-0.63,-0.11
11,19,121,47,-532,3859,0.15,-0.04,3.70,0.47,-5.32,38.59,-6.67,0.68,-4.78,4.14,-0.82,-0.13
19,34,137,1,-428,3859,0.25,0.17,4.16,0.01,-4.28,38.59,-6.66,0.67,-4.79,3.94,-1.18,-0.15
24,38,130,-32,-444,3974,0.37,0.38,4.54,-0.32,-4.44,39.74,-6.65,0.66,-4.81,3.80,-1.31,-0.13
20,42,157,93,-539,3973,0.46,0.60,5.04,0.93,-5.39,39.73,-6.65,0.65,-4.83,3.86,-1.45,-0.17
10,35,176,98,-550,3916,0.47,0.76,5.61,0.98,-5.50,39.16,-6.66,0.64,-4.85,4.06,-1.34,-0.19
6,19,176,19,-476,3949,0.46,0.80,6.13,0.19,-4.76,39.49,-6.66,0.63,-4.88,4.15,-1.02,-0.18
5,7,167,-18,-430,3906,0.45,0.76,6.53,-0.18,-4.30,39.06,-6.65,0.62,-4.90,4.16,-0.76,-0.16
-10,-9,158,47,-536,3859,0.34,0.63,6.84,0.47,-5.36,38.59,-6.66,0.61,-4.93,4.51,-0.39,-0.14
4,-8,163,-41,-453,3962,0.33,0.52,7.15,-0.41,-4.53,39.62,-6.64,0.61,-4.96,4.21,-0.38,-0.14
-2,-10,155,-98,-393,3953,0.29,0.40,7.38,-0.98,-3.93,39.53,-6.63,0.63,-4.99,4.34,-0.32,-0.12
-13,-12,155,-62,-465,3872,0.18,0.29,7.59,-0.62,-4.65,38.72,-6.64,0.65,-5.02,4.60,-0.26,-0.12
2,-4,140,-76,-408,3923,0.17,0.24,7.68,-0.76,-4.08,39.23,-6.62,0.67,-5.05,4.28,-0.42,-0.09
3,1,139,-28,-466,3862,0.17,0.22,7.76,-0.28,-4.66,38.62,-6.63,0.66,-5.08,4.27,-0.51,-0.09
10,13,148,-43,-394,3916,0.22,0.28,7.89,-0.43,-3.94,39.16,-6.61,0.66,-5.11,4.10,-0.78,-0.10
12,14,130,-28,-367,3905,0.27,0.33,7.89,-0.28,-3.67,39.05,-6.59,0.66,-5.14,4.03,-0.81,-0.07
12,15,117,15,-474,3927,0.32,0.39,7.82,0.15,-4.74,39.27,-6.60,0.65,-5.17,4.02,-0.84,-0.05
11,14,133,98,-582,3902,0.35,0.44,7.85,0.98,-5.82,39.02,-6.61,0.64,-5.20,4.04,-0.83,-0.08
18,8,155,-78,-407,3996,0.43,0.44,8.01,-0.78,-4.07,39.96,-6.59,0.66,-5.23,3.87,-0.72,-0.11
13,14,147,-50,-465,3850,0.46,0.48,8.10,-0.50,-4.65,38.50,-6.60,0.67,-5.27,3.97,-0.86,-0.10
9,13,132,-88,-413,3889,0.47,0.52,8.10,-0.88,-4.13,38.89,-6.59,0.69,-5.30,4.04,-0.86,-0.07
10,15,122,-79,-394,3928,0.48,0.56,8.03,-0.79,-3.94,39.28,-6.57,0.70,-5.33,4.00,-0.92,-0.06
13,25,83,-89,-398,3893,0.52,0.65,7.74,-0.89,-3.98,38.93,-6.56,0.72,-5.36,3.92,-1.16,0.01
12,23,69,-118,-366,3933,0.54,0.73,7.38,-1.18,-3.66,39.33,-6.54,0.74,-5.39,3.93,-1.15,0.02
2,8,46,-7,-446,3949,0.50,0.70,6.93,-0.07,-4.46,39.49,-6.53,0.72,-5.42,4.14,-0.83,0.05
-3,2,45,-9,-441,3955,0.43,0.65,6.51,-0.09,-4.41,39.55,-6.53,0.71,-5.44,4.25,-0.69,0.05
-6,-4,34,1,-428,3914,0.35,0.56,6.06,0.01,-4.28,39.14,-6.52,0.70,-5.47,4.33,-0.53,0.06
-7,-5,30,-6,-429,3925,0.27,0.47,5.64,-0.06,-4.29,39.25,-6.51,0.69,-5.49,4.36,-0.48,0.06
-4,-6,16,-11,-440,3922,0.22,0.39,5.17,-0.11,-4.40,39.22,-6.50,0.67,-5.51,4.31,-0.43,0.08
-5,-7,13,-9,-456,3926,0.17,0.31,4.74,-0.09,-4.56,39.26,-6.51,0.66,-5.53,4.35,-0.38,0.07
-2,-7,5,-5,-451,3910,0.14,0.23,4.29,-0.05,-4.51,39.10,-6.51,0.64,-5.54,4.30,-0.35,0.08
-2,-6,3,-12,-452,3906,0.11,0.17,3.88,-0.12,-4.52,39.06,-6.51,0.63,-5.56,4.31,-0.34,0.08
-3,-5,-1,-14,-470,3924,0.08,0.12,3.49,-0.14,-4.70,39.24,-6.52,0.62,-5.57,4.34,-0.34,0.08
-3,-9,2,-20,-474,3935,0.06,0.06,3.15,-0.20,-4.74,39.35,-6.54,0.60,-5.59,4.36,-0.23,0.07
-5,-14,11,-33,-454,3911,0.02,-0.03,2.90,-0.33,-4.54,39.11,-6.55,0.59,-5.60,4.42,-0.10,0.05
-5,-12,10,-25,-436,3875,-0.01,-0.10,2.67,-0.25,-4.36,38.75,-6.54,0.58,-5.61,4.42,-0.11,0.04
3,-3,0,15,-463,3916,0.01,-0.11,2.41,0.15,-4.63,39.16,-6.54,0.56,-5.62,4.25,-0.28,0.06
4,-3,3,26,-482,3917,0.03,-0.12,2.18,0.26,-4.82,39.17,-6.55,0.54,-5.63,4.23,-0.27,0.05
2,-3,10,-22,-449,3921,0.04,-0.13,2.03,-0.22,-4.49,39.21,-6.55,0.53,-5.63,4.27,-0.25,0.03
3,-1,9,-7,-460,3931,0.05,-0.12,1.88,-0.07,-4.60,39.31,-6.55,0.51,-5.64,4.25,-0.28,0.03
3,1,10,-11,-467,3921,0.07,-0.10,1.75,-0.11,-4.67,39.21,-6.56,0.49,-5.65,4.25,-0.32,0.03
4,2,10,-13,-470,3920,0.08,-0.08,1.64,-0.13,-4.70,39.20,-6.57,0.48,-5.66,4.23,-0.34,0.03
3,4,2,-6,-476,3916,0.09,-0.05,1.49,-0.06,-4.76,39.16,-6.59,0.47,-5.66,4.26,-0.38,0.04
4,3,1,-13,-469,3918,0.11,-0.02,1.34,-0.13,-4.69,39.18,-6.60,0.45,-5.67,4.24,-0.35,0.04
4,2,2,3,-468,3920,0.12,-0.01,1.22,0.03,-4.68,39.20,-6.60,0.44,-5.67,4.24,-0.33,0.03
5,2,5,9,-465,3914,0.14,0.00,1.13,0.09,-4.65,39.14,-6.61,0.42,-5.68,4.22,-0.32,0.03
3,-1,7,-21,-450,3915,0.15,-0.00,1.06,-0.21,-4.50,39.15,-6.60,0.40,-5.68,4.26,-0.25,0.02
4,0,5,-20,-450,3915,0.16,-0.00,0.98,-0.20,-4.50,39.15,-6.59,0.39,-5.68,4.23,-0.26,0.03
4,2,12,-8,-446,3939,0.16,0.01,0.96,-0.08,-4.46,39.39,-6.58,0.37,-5.69,4.22,-0.29,0.01
5,2,13,-9,-450,3936,0.18,0.02,0.94,-0.09,-4.50,39.36,-6.58,0.35,-5.69,4.19,-0.28,0.01
3,-2,11,-4,-485,3907,0.18,0.01,0.92,-0.04,-4.85,39.07,-6.59,0.35,-5.70,4.24,-0.19,0.01
2,-3,9,1,-488,3906,0.17,-0.01,0.88,0.01,-4.88,39.06,-6.61,0.34,-5.70,4.27,-0.16,0.02
5,4,8,16,-496,3945,0.19,0.01,0.84,0.16,-4.96,39.45,-6.62,0.32,-5.70,4.22,-0.30,0.02
5,8,8,-17,-483,3881,0.20,0.06,0.80,-0.17,-4.83,38.81,-6.64,0.32,-5.70,4.23,-0.39,0.02
4,8,1,-28,-452,3942,0.20,0.10,0.73,-0.28,-4.52,39.42,-6.62,0.33,-5.71,4.23,-0.41,0.03
4,8,-1,-34,-460,3931,0.21,0.14,0.65,-0.34,-4.60,39.31,-6.63,0.35,-5.71,4.24,-0.43,0.03
-2,2,-5,-25,-462,3908,0.17,0.14,0.56,-0.25,-4.62,39.08,-6.65,0.35,-5.71,4.38,-0.31,0.03
-3,1,-4,-37,-461,3907,0.14,0.13,0.48,-0.37,-4.61,39.07,-6.65,0.37,-5.71,4.41,-0.30,0.03
-4,-1,-1,-22,-444,3919,0.10,0.11,0.42,-0.22,-4.44,39.19,-6.63,0.37,-5.72,4.43,-0.25,0.03
-4,-1,1,-32,-441,3908,0.07,0.10,0.39,-0.32,-4.41,39.08,-6.62,0.38,-5.72,4.43,-0.25,0.02
-5,-3,5,-22,-458,3912,0.03,0.07,0.38,-0.22,-4.58,39.12,-6.63,0.36,-5.72,4.47,-0.20,0.02
-6,-5,5,-21,-463,3923,-0.01,0.03,0.37,-0.21,-4.63,39.23,-6.65,0.36,-5.72,4.51,-0.14,0.01
-12,-25,15,-30,-484,3904,-0.08,-0.13,0.42,-0.30,-4.84,39.04,-6.67,0.36,-5.72,4.67,0.31,-0.00
-11,-23,20,-42,-500,3880,-0.14,-0.25,0.50,-0.42,-5.00,38.80,-6.68,0.36,-5.72,4.67,0.30,-0.01
-12,-22,19,-4,-441,3902,-0.20,-0.36,0.57,-0.04,-4.41,39.02,-6.67,0.35,-5.73,4.70,0.32,-0.01
-9,-22,15,-16,-448,3931,-0.24,-0.46,0.60,-0.16,-4.48,39.31,-6.66,0.34,-5.73,4.64,0.35,0.00
-5,-17,8,-37,-447,3940,-0.24,-0.52,0.59,-0.37,-4.47,39.40,-6.65,0.35,-5.73,4.55,0.26,0.01
-6,-16,6,-27,-439,3915,-0.25,-0.56,0.57,-0.27,-4.39,39.15,-6.63,0.35,-5.73,4.57,0.25,0.02
-7,-13,2,14,-475,3912,-0.27,-0.59,0.53,0.14,-4.75,39.12,-6.64,0.33,-5.74,4.60,0.21,0.02
-6,-11,4,15,-466,3915,-0.28,-0.59,0.50,0.15,-4.66,39.15,-6.65,0.31,-5.74,4.58,0.18,0.02
0,-5,5,11,-456,3928,-0.25,-0.57,0.48,0.11,-4.56,39.28,-6.65,0.29,-5.74,4.46,0.06,0.02
2,-5,8,10,-454,3921,-0.22,-0.54,0.48,0.10,-4.54,39.21,-6.64,0.27,-5.74,4.40,0.07,0.01
2,-2,17,6,-468,3912,-0.18,-0.50,0.53,0.06,-4.68,39.12,-6.65,0.25,-5.75,4.40,0.01,-0.00
2,-3,19,-1,-487,3910,-0.15,-0.47,0.60,-0.01,-4.87,39.10,-6.67,0.24,-5.75,4.40,0.03,-0.00
2,-3,23,-14,-465,3916,-0.12,-0.44,0.68,-0.14,-4.65,39.16,-6.69,0.23,-5.75,4.41,0.03,-0.01
3,-1,22,-18,-475,3915,-0.09,-0.40,0.74,-0.18,-4.75,39.15,-6.71,0.24,-5.75,4.39,-0.03,-0.01
6,8,24,-32,-482,3904,-0.05,-0.31,0.82,-0.32,-4.82,39.04,-6.72,0.24,-5.76,4.33,-0.24,-0.01
7,9,24,-3,-476,3911,-0.00,-0.23,0.88,-0.03,-4.76,39.11,-6.73,0.23,-5.76,4.30,-0.27,-0.01
7,9,18,-14,-470,3914,0.04,-0.15,0.90,-0.14,-4.70,39.14,-6.75,0.23,-5.76,4.30,-0.29,0.00
7,7,14,2,-461,3905,0.08,-0.09,0.90,0.02,-4.61,39.05,-6.75,0.21,-5.77,4.29,-0.26,0.01
6,1,6,4,-455,3909,0.11,-0.08,0.84,0.04,-4.55,39.09,-6.74,0.19,-5.77,4.30,-0.13,0.02
7,0,2,-4,-449,3914,0.14,-0.07,0.77,-0.04,-4.49,39.14,-6.73,0.18,-5.77,4.26,-0.10,0.03
7,-5,-6,-15,-460,3919,0.17,-0.09,0.66,-0.15,-4.60,39.19,-6.71,0.20,-5.78,4.24,-0.00,0.04
6,-5,-6,-13,-456,3911,0.19,-0.11,0.56,-0.13,-4.56,39.11,-6.70,0.19,-5.78,4.25,0.00,0.04
6,-1,-7,-23,-466,3915,0.21,-0.11,0.46,-0.23,-4.66,39.15,-6.70,0.21,-5.78,4.25,-0.09,0.04
4,-1,-8,-10,-463,3919,0.21,-0.10,0.36,-0.10,-4.63,39.19,-6.71,0.19,-5.78,4.29,-0.08,0.04
3,1,-5,-1,-461,3920,0.21,-0.09,0.30,-0.01,-4.61,39.20,-6.71,0.17,-5.78,4.31,-0.11,0.03
5,0,-5,-11,-462,3917,0.22,-0.08,0.24,-0.11,-4.62,39.17,-6.72,0.16,-5.79,4.28,-0.09,0.03
6,2,-1,1,-476,3915,0.23,-0.06,0.21,0.01,-4.76,39.15,-6.74,0.15,-5.79,4.26,-0.12,0.02
7,3,2,-8,-478,3939,0.25,-0.03,0.20,-0.08,-4.78,39.39,-6.75,0.15,-5.79,4.25,-0.15,0.02
6,3,2,-31,-447,3928,0.26,-0.01,0.19,-0.31,-4.47,39.28,-6.74,0.16,-5.79,4.25,-0.16,0.02
5,3,-1,-32,-453,3926,0.27,0.01,0.17,-0.32,-4.53,39.26,-6.73,0.18,-5.79,4.27,-0.18,0.02
3,-2,0,-31,-463,3919,0.26,-0.01,0.15,-0.31,-4.63,39.19,-6.73,0.19,-5.79,4.31,-0.09,0.02
3,-3,0,-28,-461,3924,0.25,-0.02,0.13,-0.28,-4.61,39.24,-6.73,0.21,-5.79,4.31,-0.07,0.02
0,-8,-2,-35,-426,3902,0.23,-0.07,0.11,-0.35,-4.26,39.02,-6.71,0.22,-5.79,4.37,0.04,0.02
0,-2,-5,-13,-431,3903,0.20,-0.08,0.07,-0.13,-4.31,39.03,-6.69,0.22,-5.79,4.36,-0.08,0.03
2,-1,-7,-5,-459,3950,0.20,-0.07,0.02,-0.05,-4.59,39.50,-6.68,0.20,-5.79,4.32,-0.09,0.03
0,-7,-7,-23,-453,3952,0.18,-0.11,-0.03,-0.23,-4.53,39.52,-6.67,0.21,-5.79,4.35,0.03,0.03
-4,-12,-8,-12,-463,3923,0.13,-0.17,-0.07,-0.12,-4.63,39.23,-6.68,0.20,-5.79,4.46,0.16,0.03
-5,-8,-10,11,-468,3889,0.09,-0.20,-0.13,0.11,-4.68,38.89,-6.69,0.19,-5.79,4.49,0.09,0.03
-1,-3,-11,7,-471,3872,0.07,-0.20,-0.18,0.07,-4.71,38.72,-6.70,0.17,-5.79,4.42,0.00,0.03
2,-3,-11,-10,-463,3935,0.08,-0.20,-0.23,-0.10,-4.63,39.35,-6.71,0.15,-5.79,4.36,0.01,0.03
2,-5,-8,-9,-474,3929,0.08,-0.21,-0.26,-0.09,-4.74,39.29,-6.73,0.15,-5.79,4.38,0.06,0.03
2,-6,-6,1,-480,3921,0.09,-0.23,-0.27,0.01,-4.80,39.21,-6.74,0.14,-5.79,4.38,0.09,0.02
1,-4,-1,-19,-438,3909,0.09,-0.23,-0.25,-0.19,-4.38,39.09,-6.72,0.14,-5.79,4.39,0.05,0.01
0,-3,-3,-19,-434,3916,0.08,-0.22,-0.24,-0.19,-4.34,39.16,-6.71,0.15,-5.78,4.40,0.02,0.02
1,-4,-10,-5,-454,3923,0.07,-0.22,-0.28,-0.05,-4.54,39.23,-6.69,0.14,-5.78,4.37,0.05,0.03
2,-5,-11,-1,-437,3917,0.08,-0.23,-0.32,-0.01,-4.37,39.17,-6.67,0.13,-5.78,4.34,0.08,0.03
4,-6,-33,-75,-402,3980,0.10,-0.25,-0.49,-0.75,-4.02,39.80,-6.66,0.14,-5.78,4.29,0.10,0.07
-2,-13,-29,-9,-508,3913,0.07,-0.30,-0.61,-0.09,-5.08,39.13,-6.68,0.14,-5.78,4.43,0.25,0.06
-8,-22,-24,-82,-404,3921,0.02,-0.41,-0.70,-0.82,-4.04,39.21,-6.67,0.15,-5.78,4.56,0.46,0.05
-10,-20,-39,-130,-345,3917,-0.04,-0.49,-0.87,-1.30,-3.45,39.17,-6.65,0.16,-5.77,4.61,0.43,0.07
1,-9,-80,-65,-461,3887,-0.03,-0.49,-1.27,-0.65,-4.61,38.87,-6.66,0.18,-5.77,4.38,0.20,0.13
-11,-16,-86,-78,-450,3902,-0.10,-0.54,-1.67,-0.78,-4.50,39.02,-6.66,0.19,-5.76,4.64,0.34,0.14
-2,-20,-94,81,-525,3841,-0.10,-0.61,-2.07,0.81,-5.25,38.41,-6.67,0.18,-5.75,4.47,0.46,0.14
-5,-18,-84,108,-545,3896,-0.12,-0.66,-2.38,1.08,-5.45,38.96,-6.68,0.16,-5.74,4.54,0.44,0.12
-4,-12,-59,20,-461,3923,-0.13,-0.67,-2.50,0.20,-4.61,39.23,-6.68,0.14,-5.73,4.53,0.34,0.08
-4,-13,-62,28,-492,3937,-0.14,-0.68,-2.63,0.28,-4.92,39.37,-6.69,0.12,-5.72,4.54,0.37,0.08
-5,-11,-41,55,-505,3924,-0.16,-0.68,-2.62,0.55,-5.05,39.24,-6.70,0.10,-5.71,4.57,0.34,0.04
-4,-10,-36,38,-458,3882,-0.17,-0.67,-2.57,0.38,-4.58,38.82,-6.71,0.08,-5.70,4.55,0.33,0.03
-2,-2,-55,-35,-443,3889,-0.16,-0.62,-2.65,-0.35,-4.43,38.89,-6.70,0.09,-5.69,4.51,0.15,0.07
1,1,-59,-29,-444,3933,-0.14,-0.55,-2.75,-0.29,-4.44,39.33,-6.69,0.10,-5.68,4.43,0.06,0.07
-1,0,-64,16,-437,3941,-0.13,-0.49,-2.86,0.16,-4.37,39.41,-6.67,0.09,-5.67,4.46,0.08,0.08
-2,-3,-67,-24,-429,3911,-0.13,-0.46,-2.98,-0.24,-4.29,39.11,-6.66,0.09,-5.66,4.47,0.13,0.08
-1,-11,-82,70,-496,3945,-0.13,-0.48,-3.19,0.70,-4.96,39.45,-6.67,0.07,-5.65,4.46,0.31,0.10
-1,-10,-76,83,-517,3870,-0.12,-0.50,-3.33,0.83,-5.17,38.70,-6.68,0.05,-5.64,4.46,0.30,0.09
-1,-18,-61,30,-498,3911,-0.11,-0.56,-3.37,0.30,-4.98,39.11,-6.69,0.04,-5.62,4.47,0.49,0.06
-3,-19,-61,29,-471,3927,-0.12,-0.62,-3.41,0.29,-4.71,39.27,-6.70,0.02,-5.61,4.52,0.54,0.06
-5,-13,-85,-24,-394,3915,-0.14,-0.63,-3.58,-0.24,-3.94,39.15,-6.68,0.02,-5.60,4.55,0.42,0.10
-5,-8,-115,-40,-391,3928,-0.16,-0.62,-3.93,-0.40,-3.91,39.28,-6.67,0.02,-5.58,4.54,0.32,0.15
-4,-13,-153,40,-413,4005,-0.16,-0.64,-4.47,0.40,-4.13,40.05,-6.65,0.01,-5.56,4.52,0.43,0.20
1,-5,-160,26,-440,3845,-0.14,-0.60,-5.00,0.26,-4.40,38.45,-6.65,-0.01,-5.54,4.41,0.28,0.20
-5,-20,-148,71,-524,3877,-0.16,-0.67,-5.40,0.71,-5.24,38.77,-6.66,-0.03,-5.52,4.54,0.61,0.18
-6,-25,-150,19,-480,3936,-0.18,-0.75,-5.77,0.19,-4.80,39.36,-6.68,-0.05,-5.50,4.58,0.75,0.17
0,-11,-173,4,-395,3891,-0.16,-0.74,-6.25,0.04,-3.95,38.91,-6.66,-0.06,-5.47,4.44,0.46,0.20
-4,-5,-182,-30,-408,3833,-0.17,-0.70,-6.74,-0.30,-4.08,38.33,-6.65,-0.05,-5.45,4.51,0.33,0.21
-3,-14,-193,-105,-444,3773,-0.17,-0.71,-7.24,-1.05,-4.44,37.73,-6.65,-0.04,-5.42,4.50,0.50,0.22
4,0,-202,-131,-397,3987,-0.13,-0.64,-7.75,-1.31,-3.97,39.87,-6.64,-0.03,-5.39,4.34,0.19,0.23
0,-11,-268,-62,-336,4011,-0.12,-0.65,-8.61,-0.62,-3.36,40.11,-6.62,-0.03,-5.36,4.40,0.42,0.33
-4,1,-291,-106,-435,3804,-0.13,-0.58,-9.52,-1.06,-4.35,38.04,-6.62,-0.01,-5.32,4.49,0.15,0.35
-4,-13,-359,-117,-370,3834,-0.14,-0.60,-10.76,-1.17,-3.70,38.34,-6.61,-0.01,-5.28,4.49,0.43,0.44
0,-15,-363,-23,-463,4011,-0.13,-0.63,-11.90,-0.23,-4.63,40.11,-6.61,0.00,-5.23,4.40,0.47,0.43
3,-4,-341,48,-515,3934,-0.10,-0.59,-12.79,0.48,-5.15,39.34,-6.63,-0.02,-5.18,4.34,0.25,0.38
1,-1,-328,35,-603,3876,-0.08,-0.54,-13.51,0.35,-6.03,38.76,-6.65,-0.03,-5.12,4.39,0.19,0.34
3,-5,-295,14,-527,3913,-0.05,-0.51,-13.96,0.14,-5.27,39.13,-6.66,-0.04,-5.07,4.35,0.27,0.28
0,-9,-281,29,-557,3927,-0.05,-0.52,-14.28,0.29,-5.57,39.27,-6.68,-0.05,-5.01,4.42,0.36,0.25
4,-5,-249,15,-489,3918,-0.02,-0.50,-14.37,0.15,-4.89,39.18,-6.70,-0.07,-4.96,4.35,0.28,0.20
3,-3,-240,35,-523,3920,0.00,-0.47,-14.40,0.35,-5.23,39.20,-6.72,-0.08,-4.90,4.37,0.24,0.18
1,-7,-224,6,-462,3931,0.01,-0.46,-14.32,0.06,-4.62,39.31,-6.70,-0.10,-4.84,4.40,0.33,0.15
3,-11,-224,22,-457,3919,0.02,-0.48,-14.26,0.22,-4.57,39.19,-6.69,-0.12,-4.79,4.35,0.44,0.15
0,-21,-180,171,-583,3906,0.02,-0.56,-13.93,1.71,-5.83,39.06,-6.70,-0.15,-4.73,4.42,0.68,0.09
-6,-28,-154,144,-612,3934,-0.02,-0.68,-13.48,1.44,-6.12,39.34,-6.72,-0.17,-4.68,4.56,0.86,0.05
-8,-19,-86,48,-495,3880,-0.06,-0.72,-12.65,0.48,-4.95,38.80,-6.73,-0.19,-4.63,4.62,0.71,-0.05
-4,-19,-84,-17,-465,3990,-0.08,-0.77,-11.90,-0.17,-4.65,39.90,-6.73,-0.18,-4.58,4.54,0.71,-0.04
-11,-27,-87,-17,-460,3951,-0.14,-0.86,-11.24,-0.17,-4.60,39.51,-6.72,-0.17,-4.54,4.70,0.89,-0.03
-15,-28,-93,-32,-432,3957,-0.22,-0.94,-10.68,-0.32,-4.32,39.57,-6.71,-0.16,-4.49,4.80,0.93,-0.01
-9,-17,-144,-173,-350,3888,-0.25,-0.95,-10.49,-1.73,-3.50,38.88,-6.71,-0.16,-4.45,4.68,0.71,0.08
4,-6,-170,-144,-339,3880,-0.20,-0.89,-10.48,-1.44,-3.39,38.80,-6.70,-0.15,-4.41,4.39,0.47,0.13
16,9,-219,-30,-448,3928,-0.08,-0.75,-10.77,-0.30,-4.48,39.28,-6.69,-0.14,-4.37,4.11,0.11,0.20
1,2,-221,64,-574,4052,-0.07,-0.66,-11.04,0.64,-5.74,40.52,-6.71,-0.16,-4.33,4.42,0.24,0.20
2,-9,-203,84,-514,3977,-0.05,-0.65,-11.17,0.84,-5.14,39.77,-6.72,-0.18,-4.28,4.41,0.48,0.17
7,-2,-201,41,-512,3865,-0.00,-0.60,-11.28,0.41,-5.12,38.65,-6.73,-0.20,-4.24,4.30,0.33,0.16
-2,-10,-189,118,-585,3899,-0.01,-0.60,-11.31,1.18,-5.85,38.99,-6.75,-0.22,-4.19,4.50,0.51,0.14
2,-9,-171,130,-569,3931,-0.00,-0.59,-11.22,1.30,-5.69,39.31,-6.76,-0.24,-4.15,4.42,0.50,0.11
-2,-17,-135,67,-488,3905,-0.01,-0.64,-10.92,0.67,-4.88,39.05,-6.77,-0.26,-4.11,4.51,0.69,0.06
-5,-17,-132,51,-453,3919,-0.04,-0.68,-10.63,0.51,-4.53,39.19,-6.76,-0.29,-4.06,4.57,0.72,0.06
9,5,-150,27,-410,3906,0.02,-0.58,-10.49,0.27,-4.10,39.06,-6.74,-0.30,-4.02,4.26,0.25,0.09
11,11,-155,-3,-446,3907,0.08,-0.45,-10.38,-0.03,-4.46,39.07,-6.73,-0.29,-3.98,4.20,0.09,0.10
6,7,-166,-52,-438,3929,0.11,-0.37,-10.36,-0.52,-4.38,39.29,-6.72,-0.28,-3.94,4.29,0.14,0.12
4,3,-188,-94,-396,3937,0.12,-0.31,-10.47,-0.94,-3.96,39.37,-6.71,-0.27,-3.90,4.32,0.20,0.15
10,1,-271,-71,-324,3924,0.17,-0.27,-11.07,-0.71,-3.24,39.24,-6.70,-0.26,-3.85,4.17,0.23,0.28
12,3,-289,-49,-368,3889,0.23,-0.23,-11.73,-0.49,-3.68,38.89,-6.68,-0.26,-3.81,4.10,0.17,0.30
20,6,-329,-118,-433,3894,0.33,-0.17,-12.56,-1.18,-4.33,38.94,-6.68,-0.25,-3.76,3.91,0.09,0.36
15,9,-325,-121,-503,3862,0.39,-0.10,-13.29,-1.21,-5.03,38.62,-6.68,-0.24,-3.71,4.00,0.00,0.34
19,13,-304,-49,-469,3889,0.46,-0.01,-13.82,-0.49,-4.69,38.89,-6.68,-0.23,-3.65,3.90,-0.11,0.29
14,9,-297,-16,-483,3967,0.50,0.05,-14.25,-0.16,-4.83,39.67,-6.69,-0.22,-3.59,3.99,-0.05,0.28
9,4,-286,-29,-467,3895,0.51,0.07,-14.57,-0.29,-4.67,38.95,-6.69,-0.21,-3.54,4.10,0.04,0.25
7,-3,-287,-47,-482,3910,0.50,0.04,-14.86,-0.47,-4.82,39.10,-6.70,-0.19,-3.48,4.14,0.18,0.25
12,0,-303,24,-419,3898,0.52,0.04,-15.22,0.24,-4.19,38.98,-6.68,-0.21,-3.42,4.02,0.13,0.27
14,8,-317,56,-450,3902,0.56,0.08,-15.63,0.56,-4.50,39.02,-6.67,-0.23,-3.35,3.97,-0.03,0.28
7,13,-321,9,-391,3887,0.54,0.15,-16.03,0.09,-3.91,38.87,-6.65,-0.24,-3.29,4.10,-0.15,0.28
2,6,-323,9,-512,3942,0.50,0.18,-16.40,0.09,-5.12,39.42,-6.67,-0.24,-3.23,4.22,-0.01,0.28
6,8,-296,60,-449,3929,0.49,0.21,-16.56,0.60,-4.49,39.29,-6.66,-0.27,-3.16,4.14,-0.04,0.23
13,11,-303,16,-410,3871,0.52,0.25,-16.75,0.16,-4.10,38.71,-6.64,-0.27,-3.09,3.98,-0.11,0.24
18,9,-325,-32,-362,3947,0.58,0.28,-17.06,-0.32,-3.62,39.47,-6.62,-0.27,-3.02,3.85,-0.08,0.27
11,3,-327,-26,-378,3875,0.59,0.27,-17.35,-0.26,-3.78,38.75,-6.60,-0.27,-2.96,3.97,0.04,0.27
15,6,-335,-104,-440,3845,0.62,0.28,-17.66,-1.04,-4.40,38.45,-6.60,-0.26,-2.89,3.88,-0.03,0.28
11,5,-341,-135,-516,3887,0.62,0.28,-17.97,-1.35,-5.16,38.87,-6.60,-0.25,-2.81,3.96,-0.02,0.28
12,-11,-405,-104,-441,3930,0.63,0.19,-18.65,-1.04,-4.41,39.30,-6.60,-0.24,-2.74,3.94,0.33,0.38
8,-24,-429,-27,-448,3970,0.62,0.02,-19.40,-0.27,-4.48,39.70,-6.59,-0.23,-2.66,4.02,0.63,0.41
5,-14,-475,64,-386,3869,0.59,-0.06,-20.36,0.64,-3.86,38.69,-6.57,-0.25,-2.58,4.08,0.47,0.47
3,-18,-488,58,-424,4001,0.55,-0.17,-21.30,0.58,-4.24,40.01,-6.56,-0.27,-2.50,4.12,0.59,0.48
-7,-22,-509,131,-478,3908,0.45,-0.29,-22.27,1.31,-4.78,39.08,-6.56,-0.30,-2.41,4.35,0.72,0.50
-8,-26,-505,162,-539,3969,0.36,-0.42,-23.13,1.62,-5.39,39.69,-6.57,-0.33,-2.32,4.40,0.86,0.47
-7,-24,-461,94,-572,3951,0.28,-0.52,-23.63,0.94,-5.72,39.51,-6.58,-0.35,-2.22,4.41,0.86,0.39
-17,-39,-445,123,-584,3937,0.15,-0.71,-23.98,1.23,-5.84,39.37,-6.60,-0.38,-2.13,4.66,1.23,0.36
-2,-29,-405,123,-616,3860,0.12,-0.81,-24.05,1.23,-6.16,38.60,-6.61,-0.40,-2.03,4.37,1.07,0.29
18,-6,-392,83,-622,3761,0.22,-0.77,-24.04,0.83,-6.22,37.61,-6.63,-0.42,-1.94,3.95,0.61,0.27
5,-10,-332,3,-536,3832,0.23,-0.75,-23.66,0.03,-5.36,38.32,-6.64,-0.43,-1.84,4.22,0.69,0.17
8,-6,-324,-48,-441,4006,0.25,-0.71,-23.27,-0.48,-4.41,40.06,-6.64,-0.42,-1.75,4.15,0.60,0.16
19,10,-310,33,-377,3979,0.34,-0.58,-22.83,0.33,-3.77,39.79,-6.61,-0.44,-1.66,3.89,0.24,0.15
23,28,-307,31,-377,3851,0.45,-0.35,-22.42,0.31,-3.77,38.51,-6.59,-0.45,-1.57,3.76,-0.18,0.15
29,34,-330,-17,-434,3884,0.58,-0.11,-22.19,-0.17,-4.34,38.84,-6.59,-0.44,-1.48,3.60,-0.37,0.19
26,28,-337,6,-493,3947,0.68,0.07,-22.03,0.06,-4.93,39.47,-6.60,-0.44,-1.40,3.64,-0.30,0.21
11,1,-380,-104,-449,3897,0.68,0.07,-22.14,-1.04,-4.49,38.97,-6.59,-0.43,-1.31,3.94,0.25,0.28
24,1,-404,-148,-371,3976,0.76,0.07,-22.39,-1.48,-3.71,39.76,-6.58,-0.43,-1.22,3.65,0.24,0.31
7,-2,-441,-118,-365,3948,0.73,0.05,-22.84,-1.18,-3.65,39.48,-6.57,-0.42,-1.13,4.00,0.31,0.37
11,-7,-450,-74,-414,3965,0.72,0.00,-23.31,-0.74,-4.14,39.65,-6.56,-0.42,-1.04,3.91,0.42,0.37
-11,8,-363,51,-1231,4053,0.58,0.05,-23.19,0.51,-12.31,40.53,-6.57,-0.43,-0.94,4.40,0.11,0.23
-33,-66,-154,84,-865,4134,0.32,-0.36,-21.81,0.84,-8.65,41.34,-6.59,-0.44,-0.86,4.93,1.73,-0.10
-11,-9,-131,21,-587,3745,0.22,-0.38,-20.43,0.21,-5.87,37.45,-6.61,-0.45,-0.78,4.52,0.58,-0.12
-12,-5,-109,25,-632,4009,0.13,-0.37,-19.05,0.25,-6.32,40.09,-6.62,-0.46,-0.70,4.58,0.51,-0.13
-6,-3,-93,-19,-455,3748,0.08,-0.35,-17.71,-0.19,-4.55,37.48,-6.63,-0.45,-0.63,4.48,0.46,-0.14
2,2,-84,-5,-566,4019,0.08,-0.30,-16.45,-0.05,-5.66,40.19,-6.65,-0.46,-0.57,4.32,0.34,-0.13
-11,-9,-97,-42,-434,3950,0.01,-0.33,-15.40,-0.42,-4.34,39.50,-6.64,-0.45,-0.51,4.60,0.57,-0.09
0,-10,-93,-3,-512,3866,0.01,-0.36,-14.43,-0.03,-5.12,38.66,-6.65,-0.45,-0.45,4.39,0.59,-0.08
4,-3,-105,-54,-409,3875,0.03,-0.34,-13.62,-0.54,-4.09,38.75,-6.65,-0.44,-0.39,4.30,0.44,-0.05
-8,-16,-114,-28,-414,4060,-0.02,-0.40,-12.96,-0.28,-4.14,40.60,-6.63,-0.43,-0.34,4.55,0.72,-0.02
-11,-20,-145,-19,-401,3899,-0.09,-0.48,-12.55,-0.19,-4.01,38.99,-6.62,-0.43,-0.29,4.62,0.82,0.04
-16,-22,-153,-20,-426,3963,-0.18,-0.57,-12.23,-0.20,-4.26,39.63,-6.61,-0.42,-0.24,4.74,0.88,0.05
-9,-23,-145,-26,-527,3871,-0.21,-0.65,-11.89,-0.26,-5.27,38.71,-6.62,-0.42,-0.20,4.61,0.92,0.05
-7,-25,-129,-38,-545,3935,-0.23,-0.74,-11.49,-0.38,-5.45,39.35,-6.64,-0.41,-0.15,4.59,0.98,0.03
-6,-27,-97,-105,-582,3910,-0.25,-0.83,-10.93,-1.05,-5.82,39.10,-6.65,-0.41,-0.11,4.58,1.05,-0.02
-4,-23,-105,-99,-522,3843,-0.25,-0.89,-10.48,-0.99,-5.22,38.43,-6.66,-0.40,-0.07,4.55,0.98,0.00
6,-4,-119,-36,-430,3904,-0.19,-0.82,-10.15,-0.36,-4.30,39.04,-6.66,-0.39,-0.03,4.32,0.57,0.03
-2,-3,-110,10,-471,3947,-0.18,-0.76,-9.81,0.10,-4.71,39.47,-6.67,-0.38,0.01,4.49,0.52,0.02
-4,1,-127,-24,-351,4034,-0.19,-0.68,-9.60,-0.24,-3.51,40.34,-6.65,-0.38,0.05,4.52,0.42,0.05
3,0,-152,5,-326,3882,-0.15,-0.61,-9.57,0.05,-3.26,38.82,-6.63,-0.39,0.09,4.36,0.42,0.10
2,-14,-254,-138,-165,3717,-0.12,-0.63,-10.16,-1.38,-1.65,37.17,-6.62,-0.39,0.13,4.36,0.71,0.26
-13,22,-322,-13,-342,3827,-0.19,-0.44,-11.11,-0.13,-3.42,38.27,-6.60,-0.39,0.17,4.67,-0.07,0.36
2,9,-426,-191,-22,3499,-0.16,-0.34,-12.60,-1.91,-0.22,34.99,-6.58,-0.38,0.22,4.35,0.16,0.51
9,-17,-491,-134,-130,4282,-0.09,-0.41,-14.33,-1.34,-1.30,42.82,-6.57,-0.39,0.28,4.18,0.71,0.59
9,-13,-623,-85,-365,3963,-0.02,-0.45,-16.70,-0.85,-3.65,39.63,-6.56,-0.38,0.34,4.15,0.64,0.77
6,-23,-642,-89,-488,4120,0.02,-0.54,-18.95,-0.89,-4.88,41.20,-6.56,-0.37,0.42,4.20,0.86,0.77
5,-28,-662,9,-498,4036,0.04,-0.66,-21.09,0.09,-4.98,40.36,-6.57,-0.38,0.50,4.22,1.00,0.77
15,-31,-656,33,-427,4008,0.13,-0.78,-22.98,0.33,-4.27,40.08,-6.55,-0.39,0.59,3.99,1.10,0.72
10,-23,-648,90,-463,3966,0.18,-0.84,-24.64,0.90,-4.63,39.66,-6.56,-0.43,0.69,4.07,0.98,0.68
17,-21,-671,129,-357,3952,0.27,-0.89,-26.27,1.29,-3.57,39.52,-6.54,-0.46,0.79,3.90,0.97,0.69
10,-16,-709,53,-493,3964,0.30,-0.90,-27.96,0.53,-4.93,39.64,-6.55,-0.48,0.90,4.04,0.89,0.73
15,-23,-716,65,-533,3874,0.36,-0.95,-29.54,0.65,-5.33,38.74,-6.57,-0.50,1.02,3.93,1.06,0.71
9,-31,-693,32,-674,3913,0.38,-1.04,-30.81,0.32,-6.74,39.13,-6.58,-0.52,1.14,4.06,1.26,0.65
18,-19,-665,43,-685,3864,0.45,-1.05,-31.79,0.43,-6.85,38.64,-6.60,-0.54,1.27,3.87,1.03,0.59
2,-20,-566,56,-723,3789,0.42,-1.07,-32.06,0.56,-7.23,37.89,-6.62,-0.56,1.40,4.21,1.07,0.42
8,-5,-533,54,-736,3898,0.43,-0.99,-32.10,0.54,-7.36,38.98,-6.63,-0.58,1.52,4.10,0.76,0.36
14,-11,-419,109,-706,3954,0.47,-0.96,-31.45,1.09,-7.06,39.54,-6.64,-0.60,1.65,3.97,0.89,0.18
0,-17,-396,82,-668,3957,0.42,-0.97,-30.72,0.82,-6.68,39.57,-6.66,-0.63,1.77,4.28,1.02,0.15
8,-6,-374,-6,-522,3895,0.43,-0.91,-29.93,-0.06,-5.22,38.95,-6.67,-0.63,1.89,4.12,0.79,0.13
11,2,-382,-45,-505,3882,0.45,-0.81,-29.27,-0.45,-5.05,38.82,-6.68,-0.63,2.00,4.06,0.60,0.15
10,-5,-430,-57,-381,3867,0.47,-0.76,-28.96,-0.57,-3.81,38.67,-6.66,-0.64,2.12,4.07,0.73,0.24
16,3,-452,-36,-355,3950,0.52,-0.66,-28.82,-0.36,-3.55,39.50,-6.65,-0.64,2.23,3.92,0.54,0.28
14,3,-516,-23,-395,3934,0.55,-0.58,-29.09,-0.23,-3.95,39.34,-6.63,-0.64,2.35,3.94,0.52,0.38
13,-10,-527,27,-422,3977,0.58,-0.58,-29.40,0.27,-4.22,39.77,-6.61,-0.65,2.46,3.94,0.79,0.39
9,-19,-581,45,-416,4050,0.57,-0.64,-30.00,0.45,-4.16,40.50,-6.59,-0.67,2.58,4.01,1.00,0.47
9,-17,-590,79,-453,3796,0.57,-0.68,-30.60,0.79,-4.53,37.96,-6.59,-0.70,2.70,4.01,0.99,0.48
9,-6,-592,32,-474,3837,0.57,-0.65,-31.15,0.32,-4.74,38.37,-6.60,-0.71,2.83,4.02,0.77,0.47
6,-14,-591,15,-497,3928,0.55,-0.67,-31.64,0.15,-4.97,39.28,-6.61,-0.72,2.95,4.09,0.94,0.46
8,-6,-575,29,-488,3825,0.54,-0.64,-31.98,0.29,-4.88,38.25,-6.63,-0.73,3.08,4.06,0.77,0.43
9,-5,-570,20,-486,3950,0.54,-0.60,-32.26,0.20,-4.86,39.50,-6.64,-0.73,3.21,4.05,0.75,0.41
19,-8,-595,10,-379,3961,0.60,-0.59,-32.67,0.10,-3.79,39.61,-6.61,-0.74,3.34,3.81,0.81,0.45
6,-21,-589,36,-385,3918,0.58,-0.66,-32.99,0.36,-3.85,39.18,-6.59,-0.75,3.47,4.07,1.10,0.43
12,-20,-616,-20,-356,3845,0.60,-0.72,-33.45,-0.20,-3.56,38.45,-6.57,-0.76,3.60,3.93,1.10,0.47
-2,-10,-622,-2,-393,3765,0.52,-0.71,-33.90,-0.02,-3.93,37.65,-6.56,-0.76,3.74,4.23,0.90,0.47
23,-11,-665,-35,-400,3776,0.61,-0.70,-34.57,-0.35,-4.00,37.76,-6.55,-0.76,3.87,3.69,0.92,0.54
10,-8,-669,-90,-424,4069,0.61,-0.68,-35.19,-0.90,-4.24,40.69,-6.54,-0.77,4.01,3.95,0.85,0.53
5,-12,-661,-127,-442,4091,0.58,-0.69,-35.70,-1.27,-4.42,40.91,-6.53,-0.77,4.15,4.05,0.94,0.51
13,-24,-659,-127,-397,3941,0.60,-0.76,-36.15,-1.27,-3.97,39.41,-6.52,-0.77,4.30,3.88,1.20,0.50
5,-27,-649,-61,-419,3850,0.57,-0.85,-36.50,-0.61,-4.19,38.50,-6.52,-0.77,4.44,4.04,1.29,0.47
12,0,-656,-53,-300,3711,0.59,-0.77,-36.85,-0.53,-3.00,37.11,-6.50,-0.78,4.59,3.88,0.72,0.48
20,-6,-736,-133,-347,3686,0.65,-0.73,-37.65,-1.33,-3.47,36.86,-6.49,-0.78,4.74,3.70,0.84,0.60
29,-36,-785,-146,-411,4127,0.76,-0.87,-38.68,-1.46,-4.11,41.27,-6.48,-0.78,4.89,3.48,1.49,0.67
15,-29,-824,-94,-394,3964,0.78,-0.96,-39.84,-0.94,-3.94,39.64,-6.46,-0.79,5.05,3.75,1.37,0.71
10,-28,-808,-206,-376,3960,0.76,-1.04,-40.78,-2.06,-3.76,39.60,-6.45,-0.79,5.21,3.85,1.38,0.67
15,-35,-747,-167,-495,3904,0.78,-1.15,-41.26,-1.67,-4.95,39.04,-6.45,-0.80,5.37,3.74,1.55,0.56
12,-21,-739,-193,-490,3786,0.77,-1.16,-41.64,-1.93,-4.90,37.86,-6.45,-0.80,5.54,3.80,1.27,0.54
16,-18,-697,-141,-606,3851,0.79,-1.15,-41.73,-1.41,-6.06,38.51,-6.46,-0.81,5.70,3.72,1.22,0.46
19,-30,-681,-118,-600,3987,0.83,-1.22,-41.71,-1.18,-6.00,39.87,-6.46,-0.82,5.87,3.65,1.49,0.44
8,-32,-631,-97,-629,3991,0.80,-1.30,-41.39,-0.97,-6.29,39.91,-6.47,-0.84,6.03,3.89,1.56,0.36
2,-36,-614,-106,-620,3871,0.73,-1.39,-40.99,-1.06,-6.20,38.71,-6.48,-0.85,6.19,4.04,1.67,0.33
-3,-27,-568,-30,-555,3947,0.64,-1.41,-40.36,-0.30,-5.55,39.47,-6.49,-0.86,6.35,4.17,1.50,0.27
-15,-18,-538,-6,-569,3878,0.48,-1.38,-39.61,-0.06,-5.69,38.78,-6.50,-0.87,6.51,4.46,1.32,0.23
19,6,-452,33,-612,3921,0.55,-1.21,-38.40,0.33,-6.12,39.21,-6.51,-0.89,6.66,3.76,0.80,0.10
25,7,-429,45,-625,4038,0.65,-1.04,-37.18,0.45,-6.25,40.38,-6.53,-0.91,6.81,3.62,0.74,0.08
12,11,-352,76,-590,3911,0.66,-0.87,-35.61,0.76,-5.90,39.11,-6.54,-0.93,6.95,3.89,0.63,-0.02
19,15,-331,59,-563,3921,0.71,-0.69,-34.07,0.59,-5.63,39.21,-6.55,-0.95,7.09,3.75,0.51,-0.03
4,13,-271,89,-589,3859,0.66,-0.54,-32.31,0.89,-5.89,38.59,-6.57,-0.97,7.21,4.07,0.53,-0.10
11,11,-261,120,-624,3938,0.66,-0.42,-30.67,1.20,-6.24,39.38,-6.58,-0.99,7.33,3.94,0.55,-0.09
2,-6,-195,67,-638,3887,0.61,-0.42,-28.80,0.67,-6.38,38.87,-6.59,-1.01,7.45,4.15,0.90,-0.18
1,-11,-186,24,-583,3900,0.55,-0.44,-27.05,0.24,-5.83,39.00,-6.61,-1.02,7.56,4.19,1.01,-0.16
-4,-18,-208,37,-376,3981,0.47,-0.51,-25.61,0.37,-3.76,39.81,-6.59,-1.02,7.66,4.30,1.18,-0.10
2,-13,-227,47,-380,3893,0.44,-0.54,-24.44,0.47,-3.80,38.93,-6.57,-1.03,7.75,4.17,1.09,-0.05
11,-2,-317,-39,-313,3991,0.46,-0.49,-23.93,-0.39,-3.13,39.91,-6.55,-1.03,7.85,3.97,0.86,0.11
4,-12,-327,-50,-289,3995,0.44,-0.52,-23.53,-0.50,-2.89,39.95,-6.53,-1.03,7.94,4.11,1.07,0.14
10,2,-380,-74,-336,3924,0.46,-0.45,-23.49,-0.74,-3.36,39.24,-6.51,-1.03,8.04,3.97,0.76,0.23
10,-2,-401,-58,-351,3894,0.47,-0.42,-23.59,-0.58,-3.51,38.94,-6.50,-1.03,8.13,3.96,0.84,0.26
12,-1,-424,19,-364,3845,0.50,-0.39,-23.82,0.19,-3.64,38.45,-6.48,-1.03,8.23,3.90,0.81,0.29
10,5,-439,5,-396,3901,0.51,-0.32,-24.11,0.05,-3.96,39.01,-6.47,-1.03,8.32,3.93,0.66,0.31
14,-1,-501,17,-347,3901,0.54,-0.29,-24.76,0.17,-3.47,39.01,-6.45,-1.03,8.42,3.82,0.78,0.41
26,0,-520,51,-370,3997,0.65,-0.26,-25.46,0.51,-3.70,39.97,-6.43,-1.04,8.52,3.54,0.76,0.43
9,-10,-583,-2,-415,3971,0.64,-0.30,-26.47,-0.02,-4.15,39.71,-6.41,-1.04,8.63,3.88,0.97,0.52
6,-12,-615,-14,-421,3892,0.61,-0.34,-27.57,-0.14,-4.21,38.92,-6.41,-1.03,8.74,3.94,1.02,0.55
14,-8,-694,-37,-418,3826,0.63,-0.35,-29.05,-0.37,-4.18,38.26,-6.40,-1.03,8.85,3.77,0.94,0.66
14,-15,-718,-18,-412,3925,0.66,-0.41,-30.52,-0.18,-4.12,39.25,-6.39,-1.03,8.97,3.75,1.09,0.68
20,-22,-783,15,-558,4028,0.71,-0.50,-32.25,0.15,-5.58,40.28,-6.40,-1.03,9.10,3.62,1.27,0.76
11,-36,-812,17,-572,3875,0.71,-0.67,-33.98,0.17,-5.72,38.75,-6.41,-1.04,9.23,3.81,1.61,0.78
14,-21,-886,-53,-451,3807,0.72,-0.73,-35.98,-0.53,-4.51,38.07,-6.41,-1.05,9.38,3.75,1.32,0.87
16,-23,-896,-26,-488,3993,0.75,-0.80,-37.85,-0.26,-4.88,39.93,-6.41,-1.05,9.53,3.70,1.38,0.85
27,-21,-924,-40,-521,3995,0.84,-0.85,-39.70,-0.40,-5.21,39.95,-6.41,-1.05,9.68,3.46,1.35,0.87
17,-32,-918,-12,-488,3975,0.86,-0.96,-41.33,-0.12,-4.88,39.75,-6.42,-1.06,9.85,3.65,1.61,0.83
18,-23,-899,25,-545,3998,0.88,-1.00,-42.68,0.25,-5.45,39.98,-6.42,-1.07,10.02,3.63,1.45,0.78
15,-7,-898,0,-522,3914,0.89,-0.95,-43.89,0.00,-5.22,39.14,-6.43,-1.09,10.19,3.70,1.12,0.75
20,-14,-869,-11,-493,3860,0.92,-0.94,-44.80,-0.11,-4.93,38.60,-6.43,-1.09,10.37,3.59,1.26,0.69
21,2,-863,-79,-556,3849,0.96,-0.83,-45.59,-0.79,-5.56,38.49,-6.44,-1.10,10.55,3.56,0.91,0.67
19,0,-794,-57,-430,3895,0.98,-0.75,-45.87,-0.57,-4.30,38.95,-6.43,-1.11,10.73,3.59,0.94,0.54
5,-1,-757,-46,-449,3948,0.91,-0.68,-45.90,-0.46,-4.49,39.48,-6.42,-1.11,10.91,3.89,0.94,0.48
19,-4,-670,-117,-416,3956,0.93,-0.64,-45.40,-1.17,-4.16,39.56,-6.41,-1.12,11.09,3.59,0.99,0.34
14,-6,-638,-126,-393,3964,0.93,-0.61,-44.75,-1.26,-3.93,39.64,-6.40,-1.12,11.27,3.69,1.03,0.30
6,-7,-511,-199,-496,3912,0.87,-0.59,-43.39,-1.99,-4.96,39.12,-6.40,-1.13,11.44,3.86,1.05,0.10
9,-8,-480,-188,-501,3976,0.84,-0.58,-41.98,-1.88,-5.01,39.76,-6.40,-1.13,11.61,3.81,1.07,0.07
1,-13,-370,-100,-482,3902,0.76,-0.60,-40.04,-1.00,-4.82,39.02,-6.39,-1.13,11.77,3.99,1.18,-0.08
5,-14,-320,-55,-499,3929,0.71,-0.63,-37.99,-0.55,-4.99,39.29,-6.40,-1.14,11.92,3.92,1.20,-0.13
5,-13,-230,-47,-562,3933,0.67,-0.64,-35.59,-0.47,-5.62,39.33,-6.40,-1.14,12.06,3.94,1.19,-0.24
1,-11,-205,-44,-571,3931,0.61,-0.65,-33.28,-0.44,-5.71,39.31,-6.41,-1.15,12.19,4.04,1.16,-0.25
-3,-17,-135,-3,-543,3931,0.53,-0.69,-30.78,-0.03,-5.43,39.31,-6.42,-1.15,12.31,4.15,1.29,-0.32
-2,-14,-124,-43,-529,3912,0.47,-0.70,-28.46,-0.43,-5.29,39.12,-6.43,-1.15,12.43,4.16,1.24,-0.30
0,-5,-134,-71,-467,3913,0.42,-0.66,-26.43,-0.71,-4.67,39.13,-6.43,-1.15,12.53,4.13,1.04,-0.25
1,-8,-146,-76,-490,3923,0.38,-0.64,-24.68,-0.76,-4.90,39.23,-6.43,-1.14,12.63,4.12,1.09,-0.20
2,-11,-171,-126,-469,3889,0.36,-0.65,-23.25,-1.26,-4.69,38.89,-6.43,-1.14,12.72,4.10,1.15,-0.14
1,-6,-182,-148,-449,3880,0.33,-0.62,-22.04,-1.48,-4.49,38.80,-6.43,-1.13,12.81,4.13,1.04,-0.10
3,0,-185,-89,-493,3924,0.31,-0.56,-20.96,-0.89,-4.93,39.24,-6.43,-1.13,12.89,4.10,0.90,-0.08
6,3,-193,-66,-477,3944,0.32,-0.48,-20.04,-0.66,-4.77,39.44,-6.43,-1.12,12.97,4.03,0.81,-0.05
5,0,-194,-33,-475,3941,0.32,-0.44,-19.22,-0.33,-4.75,39.41,-6.43,-1.11,13.05,4.06,0.85,-0.03
8,5,-194,-74,-453,3929,0.33,-0.36,-18.48,-0.74,-4.53,39.29,-6.43,-1.10,13.12,3.99,0.73,-0.02
7,6,-185,-13,-486,3922,0.34,-0.29,-17.76,-0.13,-4.86,39.22,-6.44,-1.10,13.19,4.01,0.68,-0.02
4,5,-188,31,-469,3881,0.33,-0.23,-17.13,0.31,-4.69,38.81,-6.44,-1.09,13.26,4.08,0.68,-0.01
4,-3,-173,18,-461,3958,0.33,-0.22,-16.48,0.18,-4.61,39.58,-6.44,-1.08,13.32,4.08,0.84,-0.02
6,3,-160,0,-464,3871,0.33,-0.18,-15.80,0.00,-4.64,38.71,-6.45,-1.07,13.39,4.04,0.70,-0.03
1,-1,-114,-4,-429,3900,0.30,-0.17,-14.92,-0.04,-4.29,39.00,-6.44,-1.06,13.45,4.15,0.77,-0.10
-2,-6,-101,2,-442,3906,0.26,-0.19,-14.04,0.02,-4.42,39.06,-6.44,-1.05,13.50,4.22,0.87,-0.10
-3,-14,-99,-32,-451,3918,0.22,-0.26,-13.24,-0.32,-4.51,39.18,-6.44,-1.04,13.55,4.25,1.04,-0.10
0,-14,-92,-33,-438,3917,0.19,-0.32,-12.48,-0.33,-4.38,39.17,-6.44,-1.03,13.60,4.20,1.05,-0.09
0,-13,-60,-79,-465,3944,0.17,-0.36,-11.60,-0.79,-4.65,39.44,-6.44,-1.01,13.65,4.20,1.03,-0.13
-2,-12,-51,-75,-449,3916,0.14,-0.40,-10.75,-0.75,-4.49,39.16,-6.44,-1.00,13.69,4.25,1.02,-0.14
3,-8,-36,-59,-454,3908,0.15,-0.41,-9.89,-0.59,-4.54,39.08,-6.44,-0.99,13.73,4.15,0.93,-0.15
-1,-5,-34,-49,-467,3907,0.13,-0.40,-9.11,-0.49,-4.67,39.07,-6.44,-0.98,13.77,4.24,0.86,-0.14
-1,-3,-34,-43,-463,3913,0.11,-0.38,-8.41,-0.43,-4.63,39.13,-6.45,-0.97,13.80,4.24,0.80,-0.12
-2,-3,-34,-40,-478,3904,0.09,-0.36,-7.77,-0.40,-4.78,39.04,-6.45,-0.95,13.83,4.27,0.79,-0.11
4,1,-61,-23,-418,3924,0.10,-0.32,-7.37,-0.23,-4.18,39.24,-6.44,-0.94,13.86,4.14,0.69,-0.06
6,0,-68,-13,-428,3920,0.13,-0.28,-7.05,-0.13,-4.28,39.20,-6.44,-0.93,13.89,4.09,0.69,-0.04
3,-4,-103,-35,-442,3917,0.13,-0.28,-6.97,-0.35,-4.42,39.17,-6.44,-0.91,13.92,4.15,0.76,0.02
3,-1,-123,-61,-427,3901,0.14,-0.26,-7.02,-0.61,-4.27,39.01,-6.44,-0.90,13.94,4.15,0.68,0.05
