gyroADC_X,gyroADC_Y,gyroADC_Z,accADC_X,accADC_Y,accADC_Z,GyroX,GyroY,GyroZ,AccX,AccY,AccZ,roll_IMU,pitch_IMU,yaw_IMU,roll_PID,pitch_PID,yaw_PID
3,3,-7,-6,-312,3925,0.07,0.19,-0.20,-0.06,-3.12,39.25,-4.66,0.17,104.02,3.00,-0.22,-8.98
3,8,11,14,-316,3927,0.08,0.22,-0.12,0.14,-3.16,39.27,-4.66,0.15,104.02,2.99,-0.32,-10.42
10,8,-8,-36,-287,3924,0.13,0.24,-0.15,-0.36,-2.87,39.24,-4.65,0.16,104.02,2.83,-0.34,-8.85
9,7,-10,-14,-312,3929,0.17,0.26,-0.20,-0.14,-3.12,39.29,-4.63,0.17,104.02,2.82,-0.33,-8.72
5,0,-11,-13,-298,3914,0.19,0.24,-0.25,-0.13,-2.98,39.14,-4.61,0.17,104.02,2.89,-0.18,-8.69
1,4,-9,43,-310,3881,0.17,0.24,-0.28,0.43,-3.10,38.81,-4.61,0.16,104.03,2.97,-0.25,-8.89
0,2,-5,-38,-308,3934,0.16,0.23,-0.28,-0.38,-3.08,39.34,-4.60,0.17,104.03,2.99,-0.22,-9.23
-1,2,-7,-37,-310,3939,0.14,0.22,-0.29,-0.37,-3.10,39.39,-4.60,0.19,104.03,3.02,-0.23,-9.08
0,2,-7,-26,-309,3927,0.12,0.21,-0.31,-0.26,-3.09,39.27,-4.59,0.21,104.03,2.99,-0.24,-9.09
1,-1,-3,-12,-319,3929,0.12,0.18,-0.29,-0.12,-3.19,39.29,-4.60,0.20,104.03,2.99,-0.16,-9.42
0,-2,-3,-13,-317,3922,0.10,0.15,-0.28,-0.13,-3.17,39.22,-4.62,0.19,104.03,3.02,-0.13,-9.41
0,-3,0,-14,-318,3925,0.09,0.12,-0.26,-0.14,-3.18,39.25,-4.63,0.20,104.03,3.03,-0.11,-9.63
-1,-4,0,-12,-323,3923,0.08,0.08,-0.23,-0.12,-3.23,39.23,-4.65,0.20,104.03,3.07,-0.07,-9.61
-5,-9,10,-20,-320,3912,0.04,0.02,-0.15,-0.20,-3.20,39.12,-4.65,0.21,104.03,3.16,0.04,-10.36
-5,-9,6,-21,-299,3932,0.01,-0.04,-0.09,-0.21,-2.99,39.32,-4.64,0.22,104.03,3.16,0.05,-9.97
-6,-10,10,-15,-322,3919,-0.03,-0.10,-0.02,-0.15,-3.22,39.19,-4.65,0.22,104.03,3.20,0.09,-10.24
-6,-10,12,-19,-319,3915,-0.07,-0.15,0.05,-0.19,-3.19,39.15,-4.66,0.24,104.03,3.21,0.09,-10.33
-4,-7,3,-23,-317,3931,-0.08,-0.18,0.06,-0.23,-3.17,39.31,-4.65,0.25,104.03,3.17,0.02,-9.55
-4,-5,1,-24,-324,3950,-0.10,-0.19,0.06,-0.24,-3.24,39.50,-4.66,0.27,104.03,3.18,-0.02,-9.38
-2,-6,2,-19,-317,3919,-0.10,-0.21,0.07,-0.19,-3.17,39.19,-4.64,0.27,104.03,3.13,-0.00,-9.46
-3,-7,2,-19,-330,3916,-0.11,-0.23,0.08,-0.19,-3.30,39.16,-4.66,0.27,104.03,3.16,0.03,-9.45
-3,-12,6,-11,-330,3932,-0.12,-0.28,0.10,-0.11,-3.30,39.32,-4.67,0.26,104.03,3.18,0.15,-9.76
-2,-12,6,-14,-328,3922,-0.12,-0.32,0.13,-0.14,-3.28,39.22,-4.69,0.25,104.03,3.17,0.17,-9.73
-1,-7,2,-12,-304,3913,-0.11,-0.33,0.13,-0.12,-3.04,39.13,-4.67,0.24,104.03,3.13,0.07,-9.39
-1,-7,0,-19,-318,3916,-0.11,-0.34,0.12,-0.19,-3.18,39.16,-4.66,0.26,104.03,3.13,0.07,-9.24
0,-7,-9,5,-313,3911,-0.10,-0.35,0.05,0.05,-3.13,39.11,-4.66,0.24,104.03,3.10,0.08,-8.55
0,-9,-9,-3,-313,3921,-0.09,-0.37,-0.01,-0.03,-3.13,39.21,-4.65,0.22,104.03,3.09,0.14,-8.61
0,-7,-8,-11,-311,3938,-0.08,-0.38,-0.06,-0.11,-3.11,39.38,-4.63,0.21,104.03,3.08,0.11,-8.75
0,-7,-3,-20,-339,3946,-0.07,-0.38,-0.07,-0.20,-3.39,39.46,-4.65,0.21,104.03,3.09,0.11,-9.18
-1,-4,4,-4,-310,3897,-0.07,-0.37,-0.04,-0.04,-3.10,38.97,-4.64,0.20,104.03,3.10,0.05,-9.74
-1,-3,4,-7,-313,3902,-0.07,-0.35,-0.01,-0.07,-3.13,39.02,-4.63,0.18,104.03,3.10,0.04,-9.71
-2,-7,5,12,-322,3911,-0.07,-0.36,0.02,0.12,-3.22,39.11,-4.64,0.16,104.03,3.12,0.13,-9.76
-4,-9,7,-2,-316,3919,-0.09,-0.38,0.06,-0.02,-3.16,39.19,-4.63,0.14,104.03,3.16,0.19,-9.89
-2,-7,8,-2,-315,3911,-0.09,-0.38,0.10,-0.02,-3.15,39.11,-4.63,0.12,104.03,3.12,0.17,-9.93
-1,-8,9,-9,-321,3922,-0.09,-0.39,0.15,-0.09,-3.21,39.22,-4.65,0.12,104.03,3.11,0.19,-9.97
-7,-16,35,33,-331,3941,-0.12,-0.45,0.35,0.33,-3.31,39.41,-4.65,0.10,104.03,3.25,0.38,-11.96
8,-1,42,57,-451,3857,-0.06,-0.41,0.57,0.57,-4.51,38.57,-4.67,0.09,104.02,2.94,0.07,-12.32
-8,3,130,142,-468,3915,-0.11,-0.35,1.30,1.42,-4.68,39.15,-4.68,0.08,104.02,3.28,-0.02,-18.99
-9,-1,192,173,-467,3902,-0.15,-0.32,2.35,1.73,-4.67,39.02,-4.69,0.07,104.01,3.32,0.07,-20.00
-2,-6,274,-24,-308,3928,-0.15,-0.33,3.78,-0.24,-3.08,39.28,-4.68,0.08,103.99,3.17,0.16,-20.00
-9,-10,272,-54,-271,3972,-0.19,-0.36,5.06,-0.54,-2.71,39.72,-4.67,0.09,103.97,3.32,0.24,-20.00
-8,-8,241,-8,-250,3890,-0.22,-0.37,6.03,-0.08,-2.50,38.90,-4.65,0.09,103.95,3.29,0.20,-20.00
-7,-12,234,-72,-247,3924,-0.24,-0.41,6.85,-0.72,-2.47,39.24,-4.64,0.11,103.92,3.27,0.28,-20.00
-2,-13,131,-158,-159,3879,-0.23,-0.44,6.97,-1.58,-1.59,38.79,-4.63,0.12,103.90,3.16,0.31,-13.07
-5,-13,99,-133,-198,3901,-0.23,-0.48,6.87,-1.33,-1.98,39.01,-4.62,0.13,103.87,3.21,0.31,-10.46
-1,-5,40,-64,-271,3918,-0.22,-0.46,6.43,-0.64,-2.71,39.18,-4.61,0.15,103.84,3.12,0.13,-5.93
0,-7,28,-52,-279,3940,-0.20,-0.46,5.96,-0.52,-2.79,39.40,-4.59,0.16,103.82,3.09,0.16,-5.41
5,-7,21,-17,-196,3866,-0.15,-0.45,5.49,-0.17,-1.96,38.66,-4.58,0.16,103.80,2.96,0.16,-5.31
2,-15,28,-33,-241,3923,-0.12,-0.50,5.11,-0.33,-2.41,39.23,-4.56,0.17,103.78,3.00,0.33,-6.30
-5,-7,15,-107,-99,3814,-0.14,-0.49,4.69,-1.07,-0.99,38.14,-4.54,0.17,103.76,3.14,0.16,-5.64
1,-6,15,-24,-114,3934,-0.12,-0.48,4.31,-0.24,-1.14,39.34,-4.53,0.18,103.74,3.00,0.14,-6.04
8,4,-66,-2,-263,3963,-0.06,-0.41,3.48,-0.02,-2.63,39.63,-4.51,0.17,103.72,2.83,-0.08,-0.06
4,22,-64,-10,-154,4069,-0.03,-0.23,2.74,-0.10,-1.54,40.69,-4.49,0.17,103.71,2.89,-0.50,-1.01
22,18,-5,-48,-300,3887,0.11,-0.10,2.44,-0.48,-3.00,38.87,-4.49,0.19,103.70,2.48,-0.46,-6.33
6,20,-15,-60,-422,3893,0.14,0.03,2.10,-0.60,-4.22,38.93,-4.50,0.20,103.70,2.81,-0.55,-5.84
11,5,-32,-10,-410,3963,0.19,0.06,1.70,-0.10,-4.10,39.63,-4.52,0.20,103.69,2.71,-0.25,-4.82
8,-8,-24,5,-578,3912,0.22,0.00,1.38,0.05,-5.78,39.12,-4.54,0.20,103.68,2.77,0.03,-5.84
-2,-5,13,99,-419,3911,0.18,-0.03,1.32,0.99,-4.19,39.11,-4.55,0.18,103.68,2.99,-0.01,-9.03
-3,-4,18,11,-353,3885,0.15,-0.05,1.30,0.11,-3.53,38.85,-4.57,0.17,103.67,3.03,-0.02,-9.48
-4,-2,6,-52,-348,3909,0.11,-0.06,1.21,-0.52,-3.48,39.09,-4.58,0.19,103.67,3.07,-0.07,-8.56
-4,-1,4,-30,-334,3912,0.07,-0.06,1.11,-0.30,-3.34,39.12,-4.59,0.20,103.66,3.09,-0.10,-8.49
-3,3,4,-14,-318,3923,0.05,-0.03,1.02,-0.14,-3.18,39.23,-4.61,0.20,103.66,3.09,-0.19,-8.58
-3,3,4,-3,-327,3923,0.02,-0.01,0.95,-0.03,-3.27,39.23,-4.62,0.19,103.66,3.10,-0.18,-8.67
-8,-2,6,-18,-317,3915,-0.03,-0.02,0.89,-0.18,-3.17,39.15,-4.62,0.21,103.65,3.22,-0.09,-8.90
-7,-2,6,-9,-315,3917,-0.07,-0.03,0.84,-0.09,-3.15,39.17,-4.62,0.19,103.65,3.21,-0.08,-8.95
-4,-4,1,25,-326,3920,-0.08,-0.05,0.76,0.25,-3.26,39.20,-4.62,0.17,103.65,3.16,-0.02,-8.61
-4,-7,6,22,-344,3915,-0.10,-0.09,0.72,0.22,-3.44,39.15,-4.63,0.16,103.64,3.17,0.06,-9.08
1,-4,49,90,-400,3927,-0.08,-0.11,0.95,0.90,-4.00,39.27,-4.65,0.14,103.64,3.07,0.02,-12.48
-5,-2,97,142,-469,3945,-0.11,-0.11,1.44,1.42,-4.69,39.45,-4.66,0.13,103.63,3.21,-0.02,-16.02
2,-2,258,115,-539,3884,-0.08,-0.11,2.87,1.15,-5.39,38.84,-4.68,0.12,103.62,3.07,-0.01,-20.00
-10,-3,305,29,-583,3885,-0.14,-0.12,4.45,0.29,-5.83,38.85,-4.69,0.12,103.60,3.34,0.01,-20.00
-7,6,396,-34,-364,3819,-0.17,-0.07,6.42,-0.34,-3.64,38.19,-4.71,0.13,103.58,3.30,-0.19,-20.00
-10,1,403,-47,-353,3937,-0.21,-0.06,8.23,-0.47,-3.53,39.37,-4.72,0.15,103.55,3.38,-0.10,-20.00
-9,-1,412,-108,-184,3976,-0.24,-0.06,9.92,-1.08,-1.84,39.76,-4.71,0.16,103.51,3.36,-0.07,-20.00
1,8,394,-76,-230,3870,-0.21,-0.00,11.33,-0.76,-2.30,38.70,-4.69,0.18,103.46,3.14,-0.28,-20.00
-3,3,279,-46,-226,3889,-0.21,0.02,11.90,-0.46,-2.26,38.89,-4.68,0.19,103.41,3.21,-0.19,-20.00
-9,6,258,-38,-150,3879,-0.24,0.05,12.29,-0.38,-1.50,38.79,-4.66,0.19,103.36,3.33,-0.26,-18.15
-5,7,150,-80,-224,3894,-0.25,0.09,11.97,-0.80,-2.24,38.94,-4.65,0.21,103.32,3.24,-0.30,-9.33
-9,4,124,-42,-251,3939,-0.28,0.10,11.53,-0.42,-2.51,39.39,-4.63,0.22,103.27,3.32,-0.25,-7.59
-8,-10,141,109,-380,3909,-0.30,0.03,11.24,1.09,-3.80,39.09,-4.64,0.21,103.23,3.31,0.06,-9.34
-16,-14,160,58,-479,3929,-0.37,-0.06,11.09,0.58,-4.79,39.29,-4.66,0.20,103.18,3.50,0.17,-11.10
-6,-19,168,-85,-293,3955,-0.37,-0.17,11.01,-0.85,-2.93,39.55,-4.65,0.22,103.14,3.29,0.28,-11.86
-10,-9,162,-69,-345,3926,-0.39,-0.20,10.89,-0.69,-3.45,39.26,-4.66,0.24,103.09,3.39,0.08,-11.47
-8,-1,141,-2,-281,3923,-0.40,-0.19,10.66,-0.02,-2.81,39.23,-4.65,0.24,103.05,3.34,-0.08,-9.93
-8,-2,145,23,-317,3915,-0.41,-0.18,10.48,0.23,-3.17,39.15,-4.65,0.22,103.01,3.34,-0.06,-10.46
-14,-8,143,-120,-226,3979,-0.45,-0.21,10.31,-1.20,-2.26,39.79,-4.64,0.24,102.97,3.47,0.06,-10.47
-2,-12,114,-193,-209,3942,-0.42,-0.27,9.97,-1.93,-2.09,39.42,-4.63,0.26,102.93,3.21,0.15,-8.36
-4,-2,23,-21,-315,3925,-0.40,-0.25,9.11,-0.21,-3.15,39.25,-4.62,0.27,102.89,3.24,-0.07,-1.56
-6,-3,12,-15,-312,3915,-0.40,-0.24,8.28,-0.15,-3.12,39.15,-4.61,0.26,102.86,3.27,-0.05,-1.51
-9,-7,94,232,-540,3939,-0.41,-0.26,8.02,2.32,-5.40,39.39,-4.62,0.25,102.83,3.34,0.05,-8.72
-21,-6,174,317,-684,3897,-0.50,-0.27,8.28,3.17,-6.84,38.97,-4.63,0.24,102.79,3.62,0.04,-15.22
-56,-28,583,589,-805,3827,-0.79,-0.42,11.01,5.89,-8.05,38.27,-4.65,0.23,102.75,4.42,0.53,-20.00
-75,-47,665,461,-807,3911,-1.17,-0.66,13.97,4.61,-8.07,39.11,-4.67,0.22,102.69,4.92,0.99,-20.00
-121,-99,869,178,-468,3953,-1.79,-1.20,17.87,1.78,-4.68,39.53,-4.68,0.20,102.62,6.04,2.21,-20.00
-87,-88,872,40,-359,3979,-2.14,-1.62,21.40,0.40,-3.59,39.79,-4.70,0.19,102.54,5.46,2.11,-20.00
-34,-31,703,-469,132,3825,-2.14,-1.64,23.55,-4.69,1.32,38.25,-4.70,0.20,102.44,4.37,0.95,-20.00
-27,-20,619,-456,95,3919,-2.09,-1.60,24.97,-4.56,0.95,39.19,-4.69,0.22,102.34,4.22,0.70,-20.00
5,14,217,-486,90,3912,-1.85,-1.36,23.80,-4.86,0.90,39.12,-4.69,0.23,102.25,3.50,-0.07,-2.39
17,28,93,-167,-127,3933,-1.56,-1.05,21.98,-1.67,-1.27,39.33,-4.68,0.25,102.16,3.17,-0.45,6.21
8,20,103,26,-298,3989,-1.36,-0.82,20.41,0.26,-2.98,39.89,-4.67,0.23,102.08,3.29,-0.34,3.70
5,23,116,107,-264,4010,-1.19,-0.60,19.08,1.07,-2.64,40.10,-4.67,0.22,102.00,3.31,-0.45,1.20
-10,10,185,16,-501,3995,-1.13,-0.48,18.30,0.16,-5.01,39.95,-4.69,0.22,101.93,3.61,-0.22,-5.47
12,27,205,10,-294,4045,-0.94,-0.27,17.72,0.10,-2.94,40.45,-4.68,0.22,101.86,3.10,-0.62,-7.77
7,16,269,31,-385,4034,-0.81,-0.14,17.59,0.31,-3.85,40.34,-4.70,0.21,101.79,3.18,-0.43,-13.32
8,23,325,-4,-379,3801,-0.68,0.01,17.81,-0.04,-3.79,38.01,-4.72,0.21,101.72,3.14,-0.61,-17.83
-8,16,336,-40,-202,3970,-0.66,0.11,18.08,-0.40,-2.02,39.70,-4.70,0.22,101.64,3.45,-0.50,-18.47
76,49,382,-163,81,3867,-0.13,0.40,18.60,-1.63,0.81,38.67,-4.69,0.24,101.57,1.58,-1.26,-20.00
39,43,406,-100,-236,3969,0.12,0.62,19.22,-1.00,-2.36,39.69,-4.67,0.26,101.49,2.26,-1.21,-20.00
41,53,387,-92,-196,3976,0.36,0.88,19.66,-0.92,-1.96,39.76,-4.65,0.28,101.42,2.14,-1.50,-20.00
70,49,360,21,-104,4026,0.75,1.09,19.89,0.21,-1.04,40.26,-4.63,0.29,101.34,1.43,-1.48,-18.56
57,42,389,14,-336,3703,1.02,1.24,20.27,0.14,-3.36,37.03,-4.64,0.29,101.26,1.63,-1.38,-20.00
8,31,343,61,-515,4005,0.97,1.30,20.34,0.61,-5.15,40.05,-4.65,0.29,101.18,2.65,-1.18,-16.63
30,36,324,-42,-437,3917,1.06,1.39,20.28,-0.42,-4.37,39.17,-4.67,0.31,101.10,2.18,-1.31,-15.07
-8,27,404,118,-530,4074,0.90,1.42,20.72,1.18,-5.30,40.74,-4.68,0.31,101.01,3.01,-1.14,-20.00
17,36,401,137,-542,3946,0.91,1.50,21.09,1.37,-5.42,39.46,-4.69,0.31,100.93,2.50,-1.34,-20.00
-21,28,294,44,-360,3812,0.70,1.52,20.78,0.44,-3.60,38.12,-4.70,0.31,100.85,3.34,-1.19,-11.99
-7,26,266,77,-343,4001,0.58,1.52,20.32,0.77,-3.43,40.01,-4.70,0.30,100.77,3.08,-1.14,-10.09
17,18,445,-105,-355,3847,0.63,1.48,21.00,-1.05,-3.55,38.47,-4.70,0.33,100.68,2.59,-0.99,-20.00
8,38,432,12,-352,4210,0.61,1.57,21.54,0.12,-3.52,42.10,-4.70,0.33,100.60,2.77,-1.41,-20.00
78,7,288,-252,-172,3562,1.03,1.45,21.14,-2.52,-1.72,35.62,-4.69,0.36,100.51,1.23,-0.77,-11.06
-8,32,397,-87,38,4143,0.88,1.50,21.45,-0.87,0.38,41.43,-4.67,0.37,100.43,3.00,-1.31,-19.96
-8,29,457,140,-579,4098,0.74,1.53,22.09,1.40,-5.79,40.98,-4.68,0.37,100.34,3.05,-1.25,-20.00
39,11,411,-166,-428,3726,0.90,1.44,22.39,-1.66,-4.28,37.26,-4.69,0.40,100.25,2.05,-0.88,-20.00
20,9,526,-151,-619,3745,0.94,1.35,23.36,-1.51,-6.19,37.45,-4.70,0.42,100.16,2.44,-0.83,-20.00
-19,22,601,-31,-318,4097,0.73,1.35,24.69,-0.31,-3.18,40.97,-4.68,0.44,100.06,3.27,-1.10,-20.00
-17,32,475,256,-402,3853,0.55,1.41,25.12,2.56,-4.02,38.53,-4.68,0.43,99.96,3.28,-1.32,-20.00
-15,25,429,279,-394,3832,0.40,1.42,25.22,2.79,-3.94,38.32,-4.68,0.43,99.86,3.28,-1.18,-18.63
3,-8,356,146,-283,3819,0.38,1.23,24.87,1.46,-2.83,38.19,-4.68,0.42,99.76,2.92,-0.45,-12.80
3,-21,340,3,-333,3889,0.36,0.98,24.46,0.03,-3.33,38.89,-4.68,0.42,99.67,2.93,-0.12,-11.88
-2,-5,328,-131,-295,3913,0.31,0.85,24.01,-1.31,-2.95,39.13,-4.68,0.45,99.57,3.04,-0.43,-11.32
-4,7,319,-98,-310,3984,0.26,0.81,23.56,-0.98,-3.10,39.84,-4.67,0.48,99.48,3.09,-0.68,-11.03
-24,-2,319,57,-308,3827,0.09,0.72,23.15,0.57,-3.08,38.27,-4.67,0.47,99.39,3.54,-0.46,-11.46
-14,1,306,-64,-243,3997,-0.01,0.65,22.70,-0.64,-2.43,39.97,-4.65,0.48,99.30,3.36,-0.52,-10.82
-1,18,263,-77,-219,3929,-0.01,0.70,22.03,-0.77,-2.19,39.29,-4.63,0.50,99.21,3.08,-0.89,-7.88
2,4,260,-67,-264,3935,-0.00,0.65,21.42,-0.67,-2.64,39.35,-4.62,0.52,99.12,3.01,-0.60,-8.27
-1,14,280,33,-409,3943,-0.01,0.67,20.98,0.33,-4.09,39.43,-4.63,0.52,99.04,3.08,-0.81,-10.42
-10,8,290,50,-391,3885,-0.07,0.65,20.65,0.50,-3.91,38.85,-4.64,0.51,98.96,3.28,-0.68,-11.61
-9,14,331,100,-390,3819,-0.11,0.67,20.61,1.00,-3.90,38.19,-4.65,0.51,98.87,3.28,-0.80,-15.12
20,36,531,-144,7,3749,0.02,0.83,21.79,-1.44,0.07,37.49,-4.63,0.52,98.79,2.65,-1.30,-20.00
-22,21,607,-40,-559,4086,-0.12,0.87,23.31,-0.40,-5.59,40.86,-4.65,0.54,98.70,3.55,-1.02,-20.00
59,-24,584,-328,-84,3853,0.25,0.64,24.54,-3.28,-0.84,38.53,-4.64,0.56,98.60,1.79,-0.06,-20.00
0,-11,606,-170,-338,3882,0.23,0.51,25.78,-1.70,-3.38,38.82,-4.64,0.59,98.50,3.00,-0.30,-20.00
-18,5,572,-112,-461,3986,0.10,0.49,26.69,-1.12,-4.61,39.86,-4.65,0.61,98.39,3.41,-0.64,-20.00
31,29,430,-176,-205,3906,0.28,0.61,26.65,-1.76,-2.05,39.06,-4.64,0.63,98.28,2.36,-1.17,-17.06
-1,29,444,-41,-257,3784,0.24,0.73,26.69,-0.41,-2.57,37.84,-4.62,0.64,98.18,3.00,-1.21,-18.19
20,-15,468,9,-115,3746,0.34,0.57,26.88,0.09,-1.15,37.46,-4.60,0.65,98.07,2.54,-0.28,-20.00
-9,-15,487,165,-302,3932,0.25,0.42,27.16,1.65,-3.02,39.32,-4.59,0.64,97.96,3.15,-0.23,-20.00
-1,5,368,23,-339,3946,0.22,0.41,26.69,0.23,-3.39,39.46,-4.60,0.64,97.85,3.00,-0.63,-11.72
-6,-1,323,-16,-373,3877,0.16,0.36,25.99,-0.16,-3.73,38.77,-4.61,0.64,97.75,3.12,-0.50,-8.64
5,1,242,-69,-332,3920,0.18,0.33,24.87,-0.69,-3.32,39.20,-4.62,0.66,97.65,2.90,-0.55,-2.96
-9,7,250,-36,-426,3818,0.10,0.34,23.91,-0.36,-4.26,38.18,-4.64,0.67,97.56,3.22,-0.68,-4.65
-3,5,268,-87,-324,3884,0.07,0.34,23.15,-0.87,-3.24,38.84,-4.64,0.70,97.47,3.10,-0.65,-6.96
-4,4,287,-8,-395,3892,0.04,0.33,22.59,-0.08,-3.95,38.92,-4.65,0.70,97.38,3.14,-0.63,-9.16
-6,2,326,-76,-313,3880,0.00,0.31,22.32,-0.76,-3.13,38.80,-4.65,0.72,97.29,3.19,-0.60,-12.75
5,9,336,-104,-348,3960,0.03,0.33,22.13,-1.04,-3.48,39.60,-4.66,0.75,97.20,2.96,-0.77,-13.78
-2,6,328,-43,-251,3920,0.02,0.33,21.92,-0.43,-2.51,39.20,-4.64,0.76,97.11,3.10,-0.71,-13.32
1,9,324,-123,-237,3938,0.02,0.36,21.71,-1.23,-2.37,39.38,-4.62,0.78,97.02,3.03,-0.79,-13.20
2,7,302,-25,-258,3939,0.03,0.36,21.38,-0.25,-2.58,39.39,-4.61,0.78,96.94,2.99,-0.75,-11.67
0,2,322,-18,-313,3896,0.03,0.34,21.20,-0.18,-3.13,38.96,-4.60,0.77,96.85,3.03,-0.64,-13.55
-5,-1,379,-6,-375,3937,-0.01,0.30,21.40,-0.06,-3.75,39.37,-4.62,0.76,96.77,3.15,-0.56,-18.16
-2,7,389,-69,-357,3902,-0.02,0.31,21.63,-0.69,-3.57,39.02,-4.63,0.78,96.68,3.10,-0.74,-18.76
2,6,416,-34,-329,3903,-0.00,0.32,22.00,-0.34,-3.29,39.03,-4.64,0.77,96.60,3.02,-0.72,-20.00
-12,-6,414,-11,-373,3917,-0.08,0.25,22.33,-0.11,-3.73,39.17,-4.66,0.77,96.51,3.34,-0.45,-20.00
-9,0,427,43,-368,3946,-0.12,0.22,22.70,0.43,-3.68,39.46,-4.66,0.76,96.42,3.29,-0.56,-20.00
-21,-5,429,33,-359,3912,-0.24,0.17,23.05,0.33,-3.59,39.12,-4.67,0.75,96.33,3.57,-0.44,-20.00
-49,-46,457,69,-405,3940,-0.51,-0.13,23.53,0.69,-4.05,39.40,-4.68,0.74,96.23,4.23,0.48,-20.00
-61,-49,474,67,-393,3919,-0.83,-0.41,24.07,0.67,-3.93,39.19,-4.69,0.73,96.14,4.57,0.62,-20.00
-102,-95,536,25,-375,3891,-1.37,-0.95,24.93,0.25,-3.75,38.91,-4.71,0.72,96.04,5.56,1.71,-20.00
-143,-133,525,-138,-486,3891,-2.11,-1.67,25.64,-1.38,-4.86,38.91,-4.73,0.73,95.93,6.61,2.67,-20.00
-43,-38,529,-35,-285,3954,-2.16,-1.73,26.30,-0.35,-2.85,39.54,-4.72,0.73,95.83,4.58,0.76,-20.00
-30,-26,519,-77,-214,3927,-2.13,-1.72,26.84,-0.77,-2.14,39.27,-4.71,0.74,95.72,4.30,0.51,-20.00
-7,-7,456,-201,-244,3924,-1.96,-1.59,26.94,-2.01,-2.44,39.24,-4.71,0.75,95.61,3.78,0.08,-18.72
-8,-8,423,-218,-242,3917,-1.81,-1.48,26.82,-2.18,-2.42,39.17,-4.71,0.77,95.50,3.76,0.06,-16.03
-4,8,303,-271,-485,3911,-1.65,-1.28,25.99,-2.71,-4.85,39.11,-4.72,0.79,95.40,3.65,-0.34,-6.74
-6,16,282,-148,-422,3892,-1.52,-1.06,25.11,-1.48,-4.22,38.92,-4.74,0.81,95.30,3.67,-0.57,-5.88
-2,12,275,52,-337,3888,-1.38,-0.88,24.28,0.52,-3.37,38.88,-4.75,0.79,95.20,3.55,-0.53,-6.16
2,13,282,37,-352,3897,-1.23,-0.71,23.57,0.37,-3.52,38.97,-4.76,0.78,95.11,3.44,-0.59,-7.49
-4,10,287,76,-353,3894,-1.13,-0.58,22.96,0.76,-3.53,38.94,-4.76,0.77,95.02,3.54,-0.55,-8.55
-1,4,291,63,-363,3901,-1.03,-0.50,22.44,0.63,-3.63,39.01,-4.77,0.76,94.93,3.45,-0.45,-9.43
-5,-1,339,46,-486,3892,-0.96,-0.45,22.27,0.46,-4.86,38.92,-4.79,0.75,94.84,3.52,-0.35,-13.68
-4,6,357,-16,-581,3950,-0.88,-0.37,22.22,-0.16,-5.81,39.50,-4.81,0.76,94.75,3.50,-0.52,-15.25
-5,7,472,104,-402,3932,-0.83,-0.29,22.87,1.04,-4.02,39.32,-4.82,0.75,94.66,3.51,-0.56,-20.00
-13,-2,498,87,-434,3858,-0.82,-0.27,23.62,0.87,-4.34,38.58,-4.83,0.74,94.57,3.68,-0.37,-20.00
-14,1,524,-37,-380,3909,-0.83,-0.24,24.46,-0.37,-3.80,39.09,-4.85,0.74,94.47,3.71,-0.44,-20.00
-13,1,513,-73,-363,3943,-0.82,-0.21,25.14,-0.73,-3.63,39.43,-4.87,0.76,94.37,3.70,-0.46,-20.00
-5,6,503,-73,-221,3960,-0.77,-0.15,25.70,-0.73,-2.21,39.60,-4.85,0.77,94.27,3.52,-0.59,-20.00
-23,2,504,1,-261,3898,-0.83,-0.13,26.20,0.01,-2.61,38.98,-4.84,0.77,94.16,3.89,-0.51,-20.00
-10,-3,450,-82,-287,3919,-0.81,-0.13,26.33,-0.82,-2.87,39.19,-4.83,0.79,94.06,3.61,-0.42,-18.71
-13,-11,429,-7,-291,3916,-0.81,-0.19,26.31,-0.07,-2.91,39.16,-4.82,0.78,93.95,3.67,-0.24,-16.94
-1,5,409,-7,-277,3937,-0.73,-0.14,26.17,-0.07,-2.77,39.37,-4.81,0.78,93.85,3.39,-0.58,-15.38
-15,-9,421,72,-347,3924,-0.75,-0.18,26.12,0.72,-3.47,39.24,-4.81,0.77,93.74,3.69,-0.28,-16.44
-23,-9,453,35,-406,3875,-0.82,-0.21,26.28,0.35,-4.06,38.75,-4.82,0.76,93.64,3.87,-0.26,-18.98
2,5,451,-39,-445,3964,-0.72,-0.16,26.40,-0.39,-4.45,39.64,-4.84,0.77,93.53,3.35,-0.56,-18.67
-6,2,464,-86,-452,3918,-0.69,-0.13,26.59,-0.86,-4.52,39.18,-4.86,0.78,93.43,3.52,-0.52,-19.56
-8,15,470,-69,-509,3913,-0.67,-0.03,26.80,-0.69,-5.09,39.13,-4.88,0.79,93.32,3.57,-0.82,-19.84
-8,12,495,10,-329,3919,-0.65,0.05,27.14,0.10,-3.29,39.19,-4.88,0.78,93.21,3.56,-0.77,-20.00
-14,2,487,12,-382,3890,-0.67,0.05,27.39,0.12,-3.82,38.90,-4.89,0.78,93.10,3.70,-0.57,-20.00
-10,-5,437,-52,-369,3899,-0.66,0.02,27.32,-0.52,-3.69,38.99,-4.91,0.79,92.99,3.63,-0.42,-16.46
-8,0,411,-44,-369,3925,-0.65,0.02,27.10,-0.44,-3.69,39.25,-4.93,0.79,92.89,3.59,-0.53,-14.49
-2,3,412,-98,-406,3910,-0.59,0.03,26.90,-0.98,-4.06,39.10,-4.95,0.81,92.78,3.47,-0.60,-14.77
-8,11,416,-68,-409,3892,-0.58,0.10,26.75,-0.68,-4.09,38.92,-4.97,0.82,92.67,3.60,-0.79,-15.26
4,11,443,-85,-458,3924,-0.50,0.15,26.77,-0.85,-4.58,39.24,-4.99,0.84,92.57,3.35,-0.82,-17.51
-3,7,454,-84,-440,3914,-0.47,0.18,26.87,-0.84,-4.40,39.14,-5.00,0.85,92.46,3.49,-0.75,-18.34
1,5,485,-58,-515,3858,-0.42,0.19,27.14,-0.58,-5.15,38.58,-5.02,0.86,92.35,3.41,-0.72,-20.00
-5,7,489,-19,-486,3931,-0.41,0.22,27.41,-0.19,-4.86,39.31,-5.04,0.87,92.24,3.54,-0.77,-20.00
-10,9,524,28,-309,3946,-0.43,0.25,27.86,0.28,-3.09,39.46,-5.03,0.86,92.13,3.64,-0.82,-20.00
3,12,520,29,-336,3958,-0.36,0.30,28.25,0.29,-3.36,39.58,-5.03,0.85,92.02,3.36,-0.89,-20.00
-18,2,514,31,-238,3894,-0.44,0.28,28.56,0.31,-2.38,38.94,-5.02,0.85,91.91,3.80,-0.68,-20.00
-9,3,521,76,-173,3918,-0.45,0.27,28.88,0.76,-1.73,39.18,-5.00,0.85,91.79,3.61,-0.70,-20.00
-18,3,549,8,-273,3887,-0.51,0.26,29.34,0.08,-2.73,38.87,-4.99,0.85,91.67,3.80,-0.69,-20.00
-12,15,573,-44,-259,3913,-0.54,0.33,29.90,-0.44,-2.59,39.13,-4.97,0.86,91.55,3.67,-0.96,-20.00
-10,20,640,-197,-356,3871,-0.54,0.42,30.82,-1.97,-3.56,38.71,-4.97,0.89,91.43,3.63,-1.11,-20.00
-5,12,646,-234,-372,3858,-0.52,0.45,31.68,-2.34,-3.72,38.58,-4.98,0.92,91.31,3.53,-0.97,-20.00
-4,15,645,-118,-368,3975,-0.49,0.50,32.44,-1.18,-3.68,39.75,-4.98,0.95,91.18,3.50,-1.07,-20.00
-6,13,634,-153,-402,3870,-0.48,0.52,33.07,-1.53,-4.02,38.70,-4.99,0.98,91.04,3.55,-1.05,-20.00
-5,8,592,-175,-278,3889,-0.46,0.52,33.37,-1.75,-2.78,38.89,-4.98,1.01,90.91,3.52,-0.97,-20.00
-11,6,585,-147,-248,3917,-0.48,0.51,33.60,-1.47,-2.48,39.17,-4.97,1.04,90.78,3.64,-0.94,-20.00
-6,18,564,-100,-155,3908,-0.47,0.56,33.68,-1.00,-1.55,39.08,-4.95,1.05,90.64,3.52,-1.21,-20.00
-16,5,578,-83,-184,3828,-0.52,0.54,33.84,-0.83,-1.84,38.28,-4.93,1.07,90.51,3.72,-0.95,-20.00
-7,19,613,-224,-298,3875,-0.51,0.60,34.20,-2.24,-2.98,38.75,-4.93,1.10,90.37,3.53,-1.28,-20.00
-6,24,638,-179,-305,3844,-0.50,0.69,34.67,-1.79,-3.05,38.44,-4.92,1.13,90.23,3.51,-1.42,-20.00
-9,19,679,25,-309,3955,-0.50,0.73,35.34,0.25,-3.09,39.55,-4.92,1.13,90.09,3.57,-1.33,-20.00
-6,12,664,27,-353,3994,-0.49,0.73,35.86,0.27,-3.53,39.94,-4.92,1.13,89.95,3.50,-1.19,-20.00
-12,-3,567,110,-310,3904,-0.51,0.64,35.73,1.10,-3.10,39.04,-4.91,1.12,89.81,3.63,-0.86,-18.28
-10,0,525,90,-318,3990,-0.52,0.58,35.36,0.90,-3.18,39.90,-4.91,1.12,89.67,3.59,-0.90,-15.11
-7,-9,416,105,-377,3947,-0.51,0.47,34.36,1.05,-3.77,39.47,-4.91,1.12,89.53,3.53,-0.68,-6.92
-8,-3,396,92,-398,3889,-0.51,0.40,33.34,0.92,-3.98,38.89,-4.92,1.11,89.40,3.55,-0.78,-6.29
-1,-7,305,143,-330,3954,-0.47,0.32,31.87,1.43,-3.30,39.54,-4.92,1.10,89.27,3.39,-0.67,-0.13
-5,-13,248,109,-309,3868,-0.45,0.21,30.19,1.09,-3.09,38.68,-4.92,1.10,89.15,3.47,-0.52,2.94
0,9,162,140,-264,3910,-0.40,0.24,28.16,1.40,-2.64,39.10,-4.91,1.09,89.04,3.35,-0.97,8.08
5,17,143,112,-215,3943,-0.33,0.32,26.22,1.12,-2.15,39.43,-4.90,1.09,88.93,3.22,-1.15,7.64
8,15,112,-46,-36,3907,-0.25,0.38,24.28,-0.46,-0.36,39.07,-4.88,1.09,88.84,3.13,-1.13,8.23
5,15,109,-29,-67,3908,-0.20,0.43,22.52,-0.29,-0.67,39.08,-4.86,1.10,88.75,3.16,-1.15,6.62
-2,16,129,-43,-182,3922,-0.19,0.49,21.05,-0.43,-1.82,39.22,-4.84,1.11,88.66,3.29,-1.19,3.38
3,17,127,-95,-207,3922,-0.15,0.54,19.72,-0.95,-2.07,39.22,-4.82,1.12,88.58,3.16,-1.23,2.15
-1,6,131,-119,-295,3902,-0.14,0.53,18.55,-1.19,-2.95,39.02,-4.81,1.14,88.51,3.23,-1.02,0.58
-6,3,152,-99,-315,3935,-0.16,0.49,17.62,-0.99,-3.15,39.35,-4.80,1.16,88.44,3.33,-0.96,-2.18
-3,-2,237,-66,-377,3916,-0.17,0.43,17.30,-0.66,-3.77,39.16,-4.82,1.16,88.37,3.28,-0.85,-9.71
-9,-2,278,-68,-425,3905,-0.20,0.37,17.27,-0.68,-4.25,39.05,-4.83,1.17,88.30,3.43,-0.83,-13.21
-10,-4,381,-68,-445,3918,-0.25,0.31,17.87,-0.68,-4.45,39.18,-4.85,1.17,88.23,3.47,-0.78,-20.00
-12,0,410,-54,-432,3917,-0.29,0.28,18.58,-0.54,-4.32,39.17,-4.87,1.18,88.16,3.54,-0.85,-20.00
-10,10,522,2,-381,3921,-0.33,0.31,19.91,0.02,-3.81,39.21,-4.88,1.17,88.08,3.51,-1.06,-20.00
-8,2,553,-18,-338,3893,-0.34,0.29,21.29,-0.18,-3.38,38.93,-4.88,1.16,88.00,3.48,-0.89,-20.00
2,16,591,-74,-371,3906,-0.30,0.36,22.77,-0.74,-3.71,39.06,-4.90,1.17,87.91,3.27,-1.19,-20.00
-8,10,606,-27,-254,3955,-0.31,0.39,24.19,-0.27,-2.54,39.55,-4.88,1.17,87.81,3.47,-1.08,-20.00
7,13,627,109,-276,3860,-0.24,0.43,25.59,1.09,-2.76,38.60,-4.87,1.16,87.71,3.14,-1.15,-20.00
3,12,631,154,-302,3916,-0.20,0.46,26.88,1.54,-3.02,39.16,-4.87,1.15,87.60,3.21,-1.13,-20.00
3,14,637,170,-384,3879,-0.16,0.50,28.08,1.70,-3.84,38.79,-4.87,1.15,87.49,3.20,-1.18,-20.00
1,10,647,116,-440,3904,-0.14,0.51,29.22,1.16,-4.40,39.04,-4.88,1.14,87.37,3.24,-1.10,-20.00
-15,7,719,33,-488,3899,-0.22,0.50,30.68,0.33,-4.88,38.99,-4.89,1.14,87.25,3.59,-1.03,-20.00
-10,10,741,112,-470,3925,-0.26,0.51,32.13,1.12,-4.70,39.25,-4.90,1.14,87.12,3.51,-1.10,-20.00
-17,-1,821,31,-470,3911,-0.33,0.45,33.93,0.31,-4.70,39.11,-4.91,1.14,86.99,3.68,-0.86,-20.00
-7,16,843,-23,-510,3952,-0.34,0.51,35.68,-0.23,-5.10,39.52,-4.93,1.15,86.85,3.49,-1.22,-20.00
-12,6,862,-189,-348,3923,-0.38,0.49,37.37,-1.89,-3.48,39.23,-4.93,1.18,86.70,3.60,-1.04,-20.00
-1,17,856,-191,-389,3927,-0.35,0.55,38.85,-1.91,-3.89,39.27,-4.94,1.22,86.54,3.37,-1.30,-20.00
-13,5,834,-188,-356,3919,-0.39,0.52,40.06,-1.88,-3.56,39.19,-4.94,1.25,86.38,3.63,-1.07,-20.00
-16,3,834,-151,-443,3901,-0.45,0.49,41.14,-1.51,-4.43,39.01,-4.95,1.28,86.22,3.72,-1.04,-20.00
-17,2,855,-77,-476,3840,-0.51,0.45,42.24,-0.77,-4.76,38.40,-4.97,1.29,86.05,3.76,-1.02,-20.00
-14,-2,841,-83,-570,3983,-0.54,0.39,43.15,-0.83,-5.70,39.83,-4.98,1.31,85.88,3.72,-0.93,-20.00
-19,-19,742,-157,-494,3933,-0.61,0.24,43.36,-1.57,-4.94,39.33,-5.00,1.33,85.71,3.85,-0.56,-20.00
-7,-11,696,-184,-427,3897,-0.59,0.15,43.27,-1.84,-4.27,38.97,-5.01,1.36,85.54,3.61,-0.71,-20.00
-10,-13,550,-61,-369,3846,-0.59,0.05,42.30,-0.61,-3.69,38.46,-5.02,1.36,85.37,3.68,-0.65,-9.49
-6,-18,506,-3,-344,3933,-0.57,-0.06,41.15,-0.03,-3.44,39.33,-5.02,1.36,85.20,3.59,-0.51,-6.96
-8,-80,392,5,-144,3791,-0.56,-0.54,39.43,0.05,-1.44,37.91,-5.00,1.36,85.05,3.62,0.88,0.88
-7,-56,380,-52,-119,3853,-0.55,-0.83,37.80,-0.52,-1.19,38.53,-4.98,1.37,84.89,3.58,0.46,0.19
-4,0,312,-221,-1,3947,-0.52,-0.75,35.93,-2.21,-0.01,39.47,-4.96,1.38,84.75,3.50,-0.71,3.98
4,6,282,-204,124,3901,-0.44,-0.64,34.05,-2.04,1.24,39.01,-4.94,1.40,84.61,3.30,-0.87,4.55
10,19,160,-12,-45,3864,-0.34,-0.46,31.62,-0.12,-0.45,38.64,-4.92,1.40,84.49,3.14,-1.19,12.33
9,17,111,62,-141,3906,-0.25,-0.31,29.14,0.62,-1.41,39.06,-4.91,1.40,84.37,3.12,-1.19,13.86
4,14,83,41,-302,3938,-0.20,-0.19,26.73,0.41,-3.02,39.38,-4.90,1.39,84.26,3.21,-1.15,13.69
2,11,85,43,-372,3939,-0.17,-0.10,24.58,0.43,-3.72,39.39,-4.90,1.38,84.17,3.24,-1.11,11.25
-7,-5,79,-20,-498,3895,-0.19,-0.12,22.60,-0.20,-4.98,38.95,-4.92,1.38,84.08,3.44,-0.77,9.67
-4,-5,84,-17,-476,3946,-0.20,-0.14,20.85,-0.17,-4.76,39.46,-4.93,1.38,83.99,3.39,-0.77,7.41
-3,-4,185,-23,-552,3918,-0.20,-0.15,19.90,-0.23,-5.52,39.18,-4.95,1.38,83.91,3.38,-0.79,-2.16
-10,2,238,-57,-520,3932,-0.24,-0.13,19.36,-0.57,-5.20,39.32,-4.97,1.38,83.84,3.55,-0.92,-7.21
-9,12,384,-46,-423,3895,-0.27,-0.04,19.77,-0.46,-4.23,38.95,-4.98,1.38,83.76,3.55,-1.14,-19.14
0,17,389,-84,-328,3963,-0.24,0.07,20.16,-0.84,-3.28,39.63,-4.97,1.37,83.68,3.34,-1.27,-19.14
-3,16,358,-250,-227,3968,-0.24,0.16,20.33,-2.50,-2.27,39.68,-4.95,1.40,83.60,3.40,-1.29,-16.33
7,13,333,-204,-153,3912,-0.17,0.22,20.33,-2.04,-1.53,39.12,-4.94,1.41,83.52,3.16,-1.26,-14.20
-11,8,290,51,-183,3922,-0.22,0.25,20.06,0.51,-1.83,39.22,-4.92,1.41,83.44,3.53,-1.16,-10.83
-10,3,279,65,-196,3899,-0.26,0.24,19.76,0.65,-1.96,38.99,-4.91,1.40,83.36,3.51,-1.05,-10.22
-7,7,259,-59,-277,3881,-0.28,0.26,19.36,-0.59,-2.77,38.81,-4.89,1.40,83.28,3.45,-1.14,-8.93
0,2,273,-27,-323,3912,-0.25,0.25,19.09,-0.27,-3.23,39.12,-4.89,1.39,83.20,3.30,-1.03,-10.40
-13,8,379,45,-397,3887,-0.30,0.27,19.49,0.45,-3.97,38.87,-4.90,1.38,83.13,3.58,-1.15,-18.95
2,9,413,48,-400,3947,-0.26,0.30,20.06,0.48,-4.00,39.47,-4.90,1.37,83.05,3.27,-1.17,-20.00
-16,15,537,81,-513,3981,-0.33,0.36,21.33,0.81,-5.13,39.81,-4.92,1.37,82.96,3.66,-1.31,-20.00
0,24,574,77,-464,3901,-0.30,0.47,22.70,0.77,-4.64,39.01,-4.93,1.36,82.87,3.33,-1.52,-20.00
-7,10,688,39,-535,3894,-0.31,0.48,24.63,0.39,-5.35,38.94,-4.94,1.36,82.77,3.49,-1.24,-20.00
-16,23,724,34,-499,3886,-0.38,0.58,26.58,0.34,-4.99,38.86,-4.95,1.36,82.67,3.70,-1.52,-20.00
-12,27,731,-89,-451,3898,-0.41,0.68,28.38,-0.89,-4.51,38.98,-4.97,1.38,82.56,3.64,-1.64,-20.00
-17,41,738,-110,-529,3831,-0.48,0.87,30.05,-1.10,-5.29,38.31,-4.99,1.39,82.44,3.77,-1.99,-20.00
0,78,769,-67,-366,3948,-0.43,1.25,31.73,-0.67,-3.66,39.48,-5.00,1.39,82.31,3.41,-2.85,-20.00
-8,50,774,36,-355,3940,-0.43,1.43,33.28,0.36,-3.55,39.40,-5.00,1.39,82.18,3.58,-2.33,-20.00
-24,21,822,126,-394,3928,-0.54,1.42,34.97,1.26,-3.94,39.28,-5.00,1.39,82.04,3.93,-1.73,-20.00
-7,12,838,138,-400,4003,-0.53,1.35,36.58,1.38,-4.00,40.03,-5.00,1.39,81.89,3.59,-1.53,-20.00
-17,5,929,-7,-481,3921,-0.58,1.25,38.59,-0.07,-4.81,39.21,-5.02,1.40,81.74,3.81,-1.37,-20.00
-22,8,956,-31,-409,3866,-0.65,1.17,40.56,-0.31,-4.09,38.66,-5.03,1.41,81.58,3.94,-1.41,-20.00
-28,12,1022,-13,-454,3907,-0.76,1.13,42.74,-0.13,-4.54,39.07,-5.04,1.41,81.41,4.10,-1.48,-20.00
-22,10,1035,2,-439,3910,-0.82,1.07,44.78,0.02,-4.39,39.10,-5.05,1.42,81.23,4.01,-1.43,-20.00
-27,10,997,-30,-453,3934,-0.90,1.03,46.38,-0.30,-4.53,39.34,-5.07,1.43,81.05,4.14,-1.43,-20.00
-23,5,981,-34,-511,3906,-0.95,0.96,47.73,-0.34,-5.11,39.06,-5.08,1.45,80.86,4.08,-1.32,-20.00
-12,22,902,-86,-416,3908,-0.93,0.99,48.46,-0.86,-4.16,39.08,-5.10,1.46,80.67,3.86,-1.68,-20.00
-9,18,877,-114,-368,3890,-0.89,1.00,48.96,-1.14,-3.68,38.90,-5.11,1.50,80.47,3.80,-1.63,-20.00
-7,18,781,-94,-263,3881,-0.84,1.01,48.83,-0.94,-2.63,38.81,-5.09,1.52,80.28,3.73,-1.64,-20.00
-10,20,757,-122,-236,3944,-0.82,1.03,48.57,-1.22,-2.36,39.44,-5.07,1.54,80.08,3.78,-1.70,-19.92
-9,12,697,-122,-181,3926,-0.79,1.00,47.96,-1.22,-1.81,39.26,-5.05,1.56,79.89,3.74,-1.55,-15.46
-5,14,677,-165,-202,3882,-0.74,0.99,47.29,-1.65,-2.02,38.82,-5.04,1.59,79.70,3.63,-1.60,-14.45
-8,24,620,-154,-276,3845,-0.72,1.04,46.35,-1.54,-2.76,38.45,-5.02,1.62,79.52,3.67,-1.84,-10.61
0,23,606,-159,-308,3977,-0.65,1.07,45.41,-1.59,-3.08,39.77,-5.00,1.65,79.34,3.48,-1.85,-10.40
-2,17,586,4,-291,3932,-0.59,1.07,44.44,0.04,-2.91,39.32,-4.99,1.66,79.16,3.50,-1.73,-9.71
-6,10,575,61,-303,3922,-0.57,1.02,43.51,0.61,-3.03,39.22,-4.99,1.66,78.99,3.57,-1.58,-9.76
-5,3,531,-67,-261,3941,-0.55,0.94,42.39,-0.67,-2.61,39.41,-4.97,1.67,78.82,3.53,-1.42,-7.19
-8,-2,516,2,-271,3925,-0.54,0.83,41.30,0.02,-2.71,39.25,-4.96,1.67,78.66,3.58,-1.29,-7.06
-10,2,452,13,-212,3873,-0.55,0.76,39.93,0.13,-2.12,38.73,-4.94,1.67,78.50,3.61,-1.35,-3.08
-12,2,435,-99,-233,3881,-0.57,0.70,38.59,-0.99,-2.33,38.81,-4.92,1.69,78.34,3.65,-1.34,-3.04
-3,13,414,-233,-266,3883,-0.53,0.71,37.26,-2.33,-2.66,38.83,-4.91,1.72,78.19,3.44,-1.59,-2.66
9,14,414,-190,-287,3911,-0.42,0.72,36.06,-1.90,-2.87,39.11,-4.90,1.75,78.05,3.16,-1.64,-3.92
-4,14,428,-1,-356,3932,-0.40,0.74,35.06,-0.01,-3.56,39.32,-4.90,1.75,77.91,3.42,-1.64,-6.15
-3,16,430,-67,-473,3944,-0.38,0.76,34.18,-0.67,-4.73,39.44,-4.91,1.75,77.77,3.41,-1.69,-7.24
-14,4,478,28,-457,3924,-0.43,0.71,33.68,0.28,-4.57,39.24,-4.92,1.75,77.64,3.65,-1.43,-11.83
-13,1,476,56,-426,3944,-0.46,0.64,33.21,0.56,-4.26,39.44,-4.93,1.75,77.51,3.64,-1.35,-12.14
-17,-6,471,-15,-376,3906,-0.52,0.54,32.76,-0.15,-3.76,39.06,-4.93,1.75,77.38,3.74,-1.18,-12.17
-3,-2,473,-63,-347,3947,-0.49,0.48,32.37,-0.63,-3.47,39.47,-4.93,1.74,77.25,3.45,-1.24,-12.75
-13,4,530,-137,-347,3895,-0.52,0.45,32.37,-1.37,-3.47,38.95,-4.94,1.77,77.12,3.66,-1.37,-17.57
-1,10,553,-166,-381,3897,-0.47,0.47,32.51,-1.66,-3.81,38.97,-4.95,1.80,76.99,3.41,-1.52,-19.36
-10,6,629,-137,-418,3946,-0.49,0.46,33.09,-1.37,-4.18,39.46,-4.96,1.81,76.86,3.61,-1.44,-20.00
-8,31,644,-58,-490,3901,-0.49,0.60,33.71,-0.58,-4.90,39.01,-4.98,1.82,76.73,3.58,-2.00,-20.00
-10,29,674,-83,-421,3909,-0.50,0.72,34.45,-0.83,-4.21,39.09,-4.99,1.83,76.59,3.63,-1.99,-20.00
-4,30,702,-87,-460,3912,-0.47,0.83,35.29,-0.87,-4.60,39.12,-5.01,1.84,76.45,3.52,-2.05,-20.00
7,32,768,-98,-251,3924,-0.38,0.94,36.44,-0.98,-2.51,39.24,-4.99,1.85,76.31,3.25,-2.13,-20.00
-14,17,787,-54,-291,3909,-0.43,0.95,37.60,-0.54,-2.91,39.09,-4.97,1.85,76.16,3.68,-1.83,-20.00
-17,23,800,24,-171,3924,-0.49,1.00,38.72,0.24,-1.71,39.24,-4.96,1.85,76.00,3.75,-1.96,-20.00
-8,20,788,-11,-165,3962,-0.49,1.02,39.66,-0.11,-1.65,39.62,-4.94,1.86,75.84,3.56,-1.91,-20.00
-10,8,760,-65,-166,3931,-0.50,0.97,40.33,-0.65,-1.66,39.31,-4.92,1.87,75.68,3.59,-1.66,-20.00
-6,10,757,-49,-189,3905,-0.49,0.93,40.91,-0.49,-1.89,39.05,-4.90,1.88,75.52,3.49,-1.70,-20.00
-14,18,792,-13,-271,3852,-0.53,0.95,41.65,-0.13,-2.71,38.52,-4.89,1.88,75.35,3.65,-1.87,-20.00
-18,-4,802,35,-319,3983,-0.58,0.83,42.38,0.35,-3.19,39.83,-4.88,1.88,75.18,3.75,-1.39,-20.00
-14,7,833,-10,-369,3992,-0.61,0.79,43.22,-0.10,-3.69,39.92,-4.88,1.88,75.01,3.67,-1.60,-20.00
-23,10,810,20,-375,3928,-0.69,0.77,43.84,0.20,-3.75,39.28,-4.88,1.88,74.84,3.88,-1.66,-20.00
-26,11,678,-33,-343,3899,-0.78,0.76,43.59,-0.33,-3.43,38.99,-4.88,1.88,74.66,3.96,-1.67,-18.00
12,22,636,-46,-293,3912,-0.63,0.82,43.11,-0.46,-2.93,39.12,-4.87,1.89,74.49,3.14,-1.92,-14.94
-3,11,550,-114,-269,3902,-0.58,0.80,42.16,-1.14,-2.69,39.02,-4.85,1.90,74.32,3.42,-1.70,-8.65
-5,3,543,-51,-241,3933,-0.56,0.74,41.25,-0.51,-2.41,39.33,-4.83,1.90,74.16,3.44,-1.52,-9.00
-12,3,590,38,-372,3882,-0.57,0.69,40.73,0.38,-3.72,38.82,-4.83,1.90,74.00,3.59,-1.50,-13.52
-3,7,619,-47,-434,3930,-0.53,0.66,40.43,-0.47,-4.34,39.30,-4.85,1.91,73.84,3.40,-1.58,-16.28
1,11,725,63,-475,3927,-0.47,0.66,40.81,0.63,-4.75,39.27,-4.85,1.91,73.67,3.31,-1.66,-20.00
-7,3,753,127,-451,3895,-0.47,0.61,41.32,1.27,-4.51,38.95,-4.86,1.91,73.51,3.48,-1.49,-20.00
4,20,779,-25,-397,3953,-0.40,0.67,41.94,-0.25,-3.97,39.53,-4.86,1.91,73.34,3.24,-1.85,-20.00
-2,6,758,-84,-389,3902,-0.37,0.64,42.37,-0.84,-3.89,39.02,-4.87,1.92,73.17,3.36,-1.56,-20.00
-1,18,702,-226,-361,3933,-0.34,0.69,42.42,-2.26,-3.61,39.33,-4.87,1.95,73.01,3.33,-1.84,-20.00
-6,12,668,-128,-264,3895,-0.34,0.69,42.25,-1.28,-2.64,38.95,-4.85,1.97,72.84,3.42,-1.73,-18.41
1,19,557,-93,-343,3858,-0.30,0.74,41.42,-0.93,-3.43,38.58,-4.85,1.97,72.67,3.26,-1.89,-9.87
-6,9,526,-71,-342,3921,-0.31,0.72,40.49,-0.71,-3.42,39.21,-4.85,1.96,72.51,3.41,-1.68,-8.22
-11,12,454,25,-379,3916,-0.34,0.72,39.21,0.25,-3.79,39.16,-4.85,1.96,72.35,3.52,-1.74,-3.46
-3,16,432,21,-392,3952,-0.33,0.75,37.92,0.21,-3.92,39.52,-4.85,1.96,72.20,3.35,-1.82,-2.94
-5,7,454,45,-348,3947,-0.33,0.72,36.90,0.45,-3.48,39.47,-4.85,1.96,72.06,3.39,-1.63,-5.88
-7,11,483,70,-421,3916,-0.34,0.71,36.16,0.70,-4.21,39.16,-4.86,1.96,71.91,3.44,-1.71,-9.11
-9,9,613,41,-503,3925,-0.36,0.69,36.28,0.41,-5.03,39.25,-4.86,1.96,71.77,3.49,-1.66,-19.98
-15,0,654,-2,-529,3935,-0.41,0.63,36.64,-0.02,-5.29,39.35,-4.88,1.96,71.62,3.64,-1.47,-20.00
-7,9,667,-77,-509,3985,-0.41,0.62,37.05,-0.77,-5.09,39.85,-4.89,1.97,71.48,3.48,-1.65,-20.00
-11,7,656,-152,-531,3853,-0.44,0.60,37.34,-1.52,-5.31,38.53,-4.90,1.99,71.33,3.58,-1.62,-20.00
0,5,600,-222,-397,3908,-0.40,0.57,37.27,-2.22,-3.97,39.08,-4.91,2.02,71.18,3.35,-1.59,-17.78
-11,8,596,-180,-376,3899,-0.42,0.56,37.18,-1.80,-3.76,38.99,-4.92,2.05,71.03,3.59,-1.67,-17.52
9,17,590,-212,-336,3915,-0.33,0.61,37.06,-2.12,-3.36,39.15,-4.92,2.08,70.89,3.15,-1.88,-17.12
3,17,602,-141,-239,3936,-0.28,0.65,37.03,-1.41,-2.39,39.36,-4.89,2.09,70.74,3.24,-1.91,-18.16
-5,27,698,15,-235,3948,-0.28,0.75,37.58,0.15,-2.35,39.48,-4.88,2.10,70.59,3.40,-2.14,-20.00
-8,23,743,-8,-285,3886,-0.30,0.82,38.35,-0.08,-2.85,38.86,-4.87,2.09,70.43,3.46,-2.07,-20.00
-1,24,913,37,-327,3941,-0.28,0.88,40.09,0.37,-3.27,39.41,-4.86,2.09,70.28,3.31,-2.11,-20.00
3,21,930,-17,-354,3929,-0.23,0.92,41.75,-0.17,-3.54,39.29,-4.86,2.09,70.11,3.21,-2.06,-20.00
-14,12,808,-77,-535,3921,-0.29,0.90,42.51,-0.77,-5.35,39.21,-4.87,2.10,69.94,3.58,-1.88,-20.00
-5,13,748,-144,-503,3959,-0.29,0.89,42.82,-1.44,-5.03,39.59,-4.89,2.12,69.77,3.41,-1.91,-20.00
-7,14,569,-185,-518,3882,-0.31,0.89,42.01,-1.85,-5.18,38.82,-4.90,2.14,69.60,3.46,-1.94,-9.99
-11,4,530,-156,-502,3959,-0.34,0.82,41.04,-1.56,-5.02,39.59,-4.91,2.16,69.44,3.56,-1.73,-7.70
-1,13,419,-176,-393,3919,-0.31,0.82,39.49,-1.76,-3.93,39.19,-4.93,2.19,69.28,3.36,-1.93,0.08
2,10,385,-194,-382,3936,-0.27,0.80,37.89,-1.94,-3.82,39.36,-4.93,2.22,69.13,3.29,-1.88,1.28
-1,4,331,-105,-367,3888,-0.25,0.74,36.12,-1.05,-3.67,38.88,-4.94,2.22,68.99,3.35,-1.75,4.00
-7,-6,333,-51,-337,3924,-0.27,0.63,34.54,-0.51,-3.37,39.24,-4.93,2.21,68.85,3.47,-1.51,2.16
-5,-1,387,27,-280,3905,-0.27,0.56,33.45,0.27,-2.80,39.05,-4.92,2.21,68.72,3.43,-1.59,-3.56
-13,7,446,-52,-376,3948,-0.32,0.55,32.82,-0.52,-3.76,39.48,-4.93,2.21,68.59,3.60,-1.75,-9.20
-6,6,561,-16,-342,3928,-0.33,0.53,32.96,-0.16,-3.42,39.28,-4.92,2.20,68.46,3.46,-1.72,-18.79
-11,-5,566,69,-366,3931,-0.36,0.45,33.12,0.69,-3.66,39.31,-4.92,2.20,68.33,3.57,-1.47,-19.03
-20,1,460,-52,-431,3901,-0.45,0.41,32.61,-0.52,-4.31,39.01,-4.93,2.20,68.20,3.78,-1.58,-10.58
-1,2,416,-104,-476,3965,-0.41,0.38,31.89,-1.04,-4.76,39.65,-4.95,2.20,68.07,3.40,-1.60,-7.60
-6,2,303,-141,-330,3894,-0.41,0.35,30.55,-1.41,-3.30,38.94,-4.93,2.20,67.95,3.49,-1.59,0.56
0,6,297,-135,-349,3895,-0.36,0.36,29.31,-1.35,-3.49,38.95,-4.94,2.20,67.83,3.36,-1.67,-0.24
6,17,292,-101,-288,3932,-0.29,0.42,28.16,-1.01,-2.88,39.32,-4.92,2.19,67.72,3.21,-1.91,-1.02
10,17,302,-49,-321,3923,-0.20,0.49,27.18,-0.49,-3.21,39.23,-4.92,2.19,67.61,3.10,-1.92,-2.89
1,11,414,13,-464,3949,-0.18,0.50,26.99,0.13,-4.64,39.49,-4.93,2.18,67.50,3.28,-1.80,-12.57
-15,14,474,45,-523,3898,-0.25,0.54,27.18,0.45,-5.23,38.98,-4.94,2.18,67.40,3.63,-1.87,-17.44
-11,11,588,21,-438,3920,-0.29,0.55,28.05,0.21,-4.38,39.20,-4.94,2.18,67.29,3.56,-1.81,-20.00
-9,13,618,-34,-393,3944,-0.32,0.58,29.02,-0.34,-3.93,39.44,-4.95,2.17,67.17,3.53,-1.86,-20.00
-8,20,658,-109,-388,3899,-0.33,0.64,30.13,-1.09,-3.88,38.99,-4.96,2.18,67.05,3.53,-2.02,-20.00
-11,15,650,-117,-306,3883,-0.37,0.67,31.08,-1.17,-3.06,38.83,-4.94,2.18,66.93,3.59,-1.92,-20.00
-2,12,567,-170,-178,3905,-0.34,0.67,31.43,-1.70,-1.78,39.05,-4.92,2.19,66.80,3.38,-1.87,-20.00
-11,12,553,-145,-165,3859,-0.38,0.68,31.66,-1.45,-1.65,38.59,-4.90,2.21,66.67,3.56,-1.89,-19.33
-7,24,545,-53,-216,3878,-0.38,0.76,31.82,-0.53,-2.16,38.78,-4.88,2.21,66.55,3.47,-2.15,-18.47
-3,25,566,-65,-282,3874,-0.36,0.84,32.09,-0.65,-2.82,38.74,-4.87,2.21,66.42,3.37,-2.19,-19.95
-12,22,647,-65,-344,3942,-0.40,0.89,32.83,-0.65,-3.44,39.42,-4.87,2.20,66.29,3.56,-2.14,-20.00
-9,24,668,-56,-365,3885,-0.41,0.94,33.62,-0.56,-3.65,38.85,-4.87,2.20,66.15,3.51,-2.20,-20.00
-12,19,634,0,-339,3889,-0.45,0.97,34.13,0.00,-3.39,38.89,-4.87,2.20,66.02,3.58,-2.10,-20.00
-10,10,618,-42,-329,3943,-0.46,0.93,34.48,-0.42,-3.29,39.43,-4.86,2.19,65.88,3.54,-1.91,-20.00
-10,17,611,-61,-421,3933,-0.48,0.94,34.76,-0.61,-4.21,39.33,-4.87,2.20,65.74,3.55,-2.05,-20.00
-16,14,621,-34,-413,3871,-0.53,0.93,35.07,-0.34,-4.13,38.71,-4.88,2.20,65.60,3.69,-1.99,-20.00
-6,21,630,-56,-416,3897,-0.51,0.97,35.41,-0.56,-4.16,38.97,-4.89,2.20,65.46,3.49,-2.14,-20.00
-1,21,632,-81,-403,3881,-0.47,1.00,35.72,-0.81,-4.03,38.81,-4.90,2.20,65.32,3.38,-2.15,-20.00
-10,13,612,17,-466,3939,-0.48,0.98,35.88,0.17,-4.66,39.39,-4.90,2.20,65.18,3.57,-1.99,-19.72
-17,10,601,-21,-435,3899,-0.54,0.94,35.96,-0.21,-4.35,38.99,-4.91,2.21,65.04,3.73,-1.92,-18.69
-12,6,534,-211,-348,3972,-0.56,0.88,35.62,-2.11,-3.48,39.72,-4.91,2.24,64.90,3.64,-1.84,-13.36
-20,1,488,-303,-270,3916,-0.62,0.80,35.04,-3.03,-2.70,39.16,-4.90,2.27,64.76,3.81,-1.74,-10.07
-8,7,350,-296,-38,3906,-0.61,0.76,33.67,-2.96,-0.38,39.06,-4.88,2.29,64.62,3.55,-1.87,0.18
-11,7,352,-232,29,3918,-0.61,0.73,32.45,-2.32,0.29,39.18,-4.86,2.31,64.49,3.60,-1.87,-1.27
-5,16,495,-138,-143,3885,-0.58,0.75,32.22,-1.38,-1.43,38.85,-4.84,2.32,64.36,3.45,-2.07,-13.61
3,21,530,-43,-206,3931,-0.51,0.81,32.23,-0.43,-2.06,39.31,-4.82,2.33,64.23,3.26,-2.18,-16.55
3,17,540,17,-516,3909,-0.44,0.83,32.30,0.17,-5.16,39.09,-4.83,2.33,64.11,3.25,-2.11,-17.31
15,19,523,20,-572,3936,-0.30,0.86,32.26,0.20,-5.72,39.36,-4.84,2.33,63.98,2.97,-2.16,-15.90
-3,6,358,50,-712,3917,-0.29,0.81,31.22,0.50,-7.12,39.17,-4.86,2.34,63.85,3.34,-1.89,-3.02
-15,5,325,62,-742,3923,-0.35,0.76,30.08,0.62,-7.42,39.23,-4.87,2.34,63.73,3.61,-1.85,-1.42
-21,-26,214,-108,-626,3873,-0.45,0.53,28.38,-1.08,-6.26,38.73,-4.88,2.35,63.62,3.77,-1.17,6.19
-16,-24,167,-33,-510,3927,-0.50,0.33,26.56,-0.33,-5.10,39.27,-4.90,2.35,63.52,3.69,-1.15,8.26
-12,-17,164,-11,-484,3950,-0.52,0.19,24.90,-0.11,-4.84,39.50,-4.91,2.34,63.42,3.62,-1.25,6.77
-8,-20,173,-19,-440,3949,-0.52,0.05,23.47,-0.19,-4.40,39.49,-4.92,2.34,63.33,3.55,-1.15,4.50
-10,-14,217,-12,-437,3898,-0.53,-0.04,22.45,-0.12,-4.37,38.98,-4.92,2.33,63.24,3.60,-1.24,-0.31
-11,-12,235,18,-469,3925,-0.54,-0.11,21.64,0.18,-4.69,39.25,-4.93,2.32,63.15,3.63,-1.26,-2.68
-1,-6,287,-43,-442,3909,-0.49,-0.13,21.22,-0.43,-4.42,39.09,-4.94,2.32,63.07,3.42,-1.37,-7.52
-5,-2,287,-48,-412,3891,-0.48,-0.13,20.85,-0.48,-4.12,38.91,-4.95,2.31,62.98,3.50,-1.45,-7.91
-4,-3,273,-50,-354,3881,-0.45,-0.14,20.43,-0.50,-3.54,38.81,-4.95,2.30,62.90,3.47,-1.42,-7.16
-1,0,273,-47,-349,3917,-0.41,-0.12,20.05,-0.47,-3.49,39.17,-4.95,2.28,62.82,3.40,-1.47,-7.55
2,-7,243,-94,-337,3916,-0.36,-0.15,19.53,-0.94,-3.37,39.16,-4.95,2.27,62.74,3.33,-1.31,-5.55
-5,-1,239,-141,-341,3955,-0.35,-0.15,19.04,-1.41,-3.41,39.55,-4.95,2.26,62.67,3.46,-1.43,-5.73
-7,2,257,-74,-421,3879,-0.36,-0.12,18.70,-0.74,-4.21,38.79,-4.96,2.25,62.59,3.51,-1.49,-7.61
2,8,254,-64,-348,3923,-0.31,-0.06,18.38,-0.64,-3.48,39.23,-4.96,2.24,62.52,3.32,-1.63,-7.69
-3,6,288,-16,-439,3888,-0.30,-0.02,18.30,-0.16,-4.39,38.88,-4.97,2.23,62.45,3.42,-1.59,-10.65
-1,11,324,-53,-412,3934,-0.28,0.05,18.44,-0.53,-4.12,39.34,-4.98,2.22,62.38,3.38,-1.71,-13.53
-4,13,501,29,-443,3897,-0.27,0.13,19.66,0.29,-4.43,38.97,-4.99,2.21,62.30,3.45,-1.76,-20.00
3,18,546,36,-455,3929,-0.23,0.22,21.02,0.36,-4.55,39.29,-4.99,2.21,62.21,3.30,-1.88,-20.00
-9,14,606,72,-540,3902,-0.26,0.29,22.62,0.72,-5.40,39.02,-5.00,2.20,62.12,3.56,-1.82,-20.00
-14,-3,588,96,-528,3910,-0.32,0.24,23.94,0.96,-5.28,39.10,-5.01,2.20,62.03,3.68,-1.45,-20.00
-6,-3,525,-90,-512,3946,-0.32,0.20,24.75,-0.90,-5.12,39.46,-5.03,2.20,61.93,3.53,-1.44,-20.00
-8,-2,510,-91,-393,3919,-0.34,0.17,25.39,-0.91,-3.93,39.19,-5.03,2.20,61.83,3.58,-1.45,-20.00
-9,-4,444,-186,-230,3866,-0.36,0.12,25.56,-1.86,-2.30,38.66,-5.01,2.21,61.73,3.59,-1.41,-16.11
-7,-9,419,-318,-209,3933,-0.37,0.06,25.56,-3.18,-2.09,39.33,-5.00,2.23,61.63,3.54,-1.31,-13.98
-1,2,259,-303,-247,3916,-0.34,0.06,24.58,-3.03,-2.47,39.16,-4.99,2.26,61.53,3.40,-1.55,-1.45
-5,-2,206,-318,-216,3856,-0.33,0.05,23.38,-3.18,-2.16,38.56,-4.98,2.28,61.43,3.48,-1.48,1.77
-3,-5,82,-142,-281,3908,-0.32,0.01,21.54,-1.42,-2.81,39.08,-4.96,2.28,61.35,3.42,-1.41,10.34
-4,-4,72,-101,-284,3922,-0.31,-0.02,19.83,-1.01,-2.84,39.22,-4.94,2.28,61.27,3.43,-1.42,9.38
1,-9,43,-56,-391,3919,-0.27,-0.07,18.11,-0.56,-3.91,39.19,-4.95,2.27,61.20,3.32,-1.30,10.02
-1,-7,48,-55,-386,3909,-0.25,-0.10,16.59,-0.55,-3.86,39.09,-4.95,2.26,61.13,3.36,-1.32,8.00
-3,2,47,-111,-385,3909,-0.25,-0.08,15.22,-1.11,-3.85,39.09,-4.97,2.25,61.07,3.41,-1.50,6.63
-7,2,43,-114,-379,3904,-0.26,-0.06,13.96,-1.14,-3.79,39.04,-4.98,2.24,61.01,3.50,-1.50,5.64
-2,3,33,-107,-390,3909,-0.25,-0.04,12.76,-1.07,-3.90,39.09,-4.99,2.23,60.96,3.40,-1.52,5.23
-1,-5,34,-179,-368,3919,-0.23,-0.06,11.69,-1.79,-3.68,39.19,-5.00,2.25,60.92,3.38,-1.37,4.02
1,-7,53,-141,-435,3918,-0.20,-0.10,10.85,-1.41,-4.35,39.18,-5.02,2.25,60.88,3.35,-1.32,1.52
0,-12,58,-131,-413,3926,-0.18,-0.16,10.12,-1.31,-4.13,39.26,-5.04,2.25,60.84,3.37,-1.19,0.32
3,-86,28,-90,-444,3745,-0.14,-0.67,9.28,-0.90,-4.44,37.45,-5.05,2.24,60.80,3.31,0.45,1.98
-2,-47,37,-85,-463,3805,-0.14,-0.89,8.57,-0.85,-4.63,38.05,-5.07,2.23,60.76,3.42,-0.27,0.48
1,-8,53,-81,-368,3898,-0.12,-0.85,8.04,-0.81,-3.68,38.98,-5.07,2.21,60.73,3.36,-1.07,-1.44
-1,-4,63,-64,-326,3922,-0.12,-0.79,7.62,-0.64,-3.26,39.22,-5.07,2.19,60.70,3.40,-1.15,-2.73
4,26,163,-188,-350,3863,-0.08,-0.55,7.85,-1.88,-3.50,38.63,-5.07,2.21,60.67,3.29,-1.84,-10.96
1,86,275,-150,-325,3782,-0.07,0.03,8.74,-1.50,-3.25,37.82,-5.05,2.22,60.63,3.33,-3.22,-19.50
7,90,549,-49,-303,3958,-0.02,0.57,11.22,-0.49,-3.03,39.58,-5.04,2.21,60.59,3.19,-3.45,-20.00
15,79,654,-6,-347,3912,0.08,1.00,14.09,-0.06,-3.47,39.12,-5.04,2.20,60.53,3.00,-3.33,-20.00
-7,47,1033,315,-558,3988,0.03,1.19,18.98,3.15,-5.58,39.88,-5.04,2.20,60.46,3.46,-2.73,-20.00
5,51,1130,394,-567,3934,0.05,1.38,23.97,3.94,-5.67,39.34,-5.05,2.19,60.36,3.21,-2.86,-20.00
-13,54,1323,286,-775,3955,-0.03,1.57,29.65,2.86,-7.75,39.55,-5.05,2.20,60.25,3.61,-2.98,-20.00
-31,21,1329,237,-806,3865,-0.22,1.54,34.79,2.37,-8.06,38.65,-5.06,2.20,60.11,4.03,-2.30,-20.00
-29,13,1198,54,-648,3858,-0.37,1.47,38.62,0.54,-6.48,38.58,-5.07,2.21,59.96,4.04,-2.12,-20.00
-18,9,1111,1,-602,3898,-0.44,1.37,41.53,0.01,-6.02,38.98,-5.09,2.22,59.79,3.84,-2.02,-20.00
-14,14,911,-50,-423,3889,-0.49,1.32,42.94,-0.50,-4.23,38.89,-5.09,2.23,59.62,3.78,-2.12,-20.00
-6,15,830,-105,-398,3930,-0.47,1.28,43.71,-1.05,-3.98,39.30,-5.10,2.24,59.45,3.62,-2.13,-20.00
-5,17,664,-25,-344,3885,-0.46,1.26,43.39,-0.25,-3.44,38.85,-5.09,2.24,59.28,3.59,-2.17,-15.65
2,24,644,-102,-349,4006,-0.40,1.28,42.98,-1.02,-3.49,40.06,-5.09,2.24,59.11,3.43,-2.32,-14.37
17,16,584,-139,-358,3888,-0.26,1.25,42.24,-1.39,-3.58,38.88,-5.09,2.25,58.94,3.09,-2.15,-10.05
-11,9,572,-81,-263,3902,-0.30,1.18,41.51,-0.81,-2.63,39.02,-5.07,2.25,58.77,3.65,-1.99,-9.80
14,22,546,-131,-334,4017,-0.18,1.19,40.69,-1.31,-3.34,40.17,-5.06,2.26,58.61,3.10,-2.26,-8.45
7,21,539,-86,-319,3851,-0.12,1.20,39.91,-0.86,-3.19,38.51,-5.05,2.26,58.45,3.22,-2.25,-8.67
28,32,471,-163,-359,3910,0.06,1.28,38.79,-1.63,-3.59,39.10,-5.05,2.29,58.30,2.75,-2.51,-4.08
44,59,455,-159,-319,3941,0.32,1.51,37.68,-1.59,-3.19,39.41,-5.03,2.31,58.15,2.34,-3.14,-3.88
64,71,379,-157,-393,3876,0.68,1.79,36.23,-1.57,-3.93,38.76,-5.04,2.33,58.00,1.84,-3.47,1.03
64,68,338,-191,-407,3890,1.00,2.03,34.67,-1.91,-4.07,38.90,-5.05,2.36,57.87,1.75,-3.49,2.86
48,45,244,-201,-395,3878,1.20,2.10,32.69,-2.01,-3.95,38.78,-5.05,2.39,57.74,2.03,-3.06,8.75
33,38,227,-177,-350,3957,1.28,2.12,30.80,-1.77,-3.50,39.57,-5.04,2.43,57.62,2.31,-2.95,8.20
28,37,218,-125,-250,4028,1.32,2.13,29.05,-1.25,-2.50,40.28,-5.01,2.44,57.50,2.38,-2.94,7.12
50,48,227,-171,-278,3955,1.49,2.21,27.53,-1.71,-2.78,39.55,-4.98,2.46,57.39,1.87,-3.20,4.76
36,43,247,-113,-372,3883,1.56,2.25,26.29,-1.13,-3.72,38.83,-4.98,2.46,57.29,2.13,-3.11,1.75
31,39,246,-137,-360,3920,1.60,2.27,25.16,-1.37,-3.60,39.20,-4.98,2.46,57.19,2.22,-3.04,0.65
48,44,223,-101,-372,3895,1.73,2.31,24.00,-1.01,-3.72,38.95,-4.98,2.46,57.09,1.84,-3.15,1.39
23,27,227,-138,-376,3857,1.70,2.24,22.99,-1.38,-3.76,38.57,-4.98,2.47,57.00,2.36,-2.79,-0.02
5,13,237,-77,-522,3863,1.56,2.10,22.13,-0.77,-5.22,38.63,-4.99,2.48,56.92,2.77,-2.47,-1.76
-2,9,260,-60,-502,3933,1.39,1.94,21.51,-0.60,-5.02,39.33,-5.00,2.48,56.83,2.96,-2.35,-4.37
5,10,342,-84,-395,3927,1.28,1.81,21.44,-0.84,-3.95,39.27,-5.00,2.48,56.75,2.85,-2.33,-11.38
-5,11,370,-146,-418,3898,1.12,1.70,21.56,-1.46,-4.18,38.98,-5.00,2.49,56.66,3.10,-2.33,-13.62
3,9,438,-112,-429,3919,1.03,1.58,22.07,-1.12,-4.29,39.19,-5.01,2.49,56.58,2.97,-2.26,-18.83
-5,3,455,-50,-353,3927,0.90,1.44,22.64,-0.50,-3.53,39.27,-5.01,2.49,56.49,3.16,-2.10,-19.66
-7,7,404,-30,-273,3917,0.76,1.34,22.84,-0.30,-2.73,39.17,-4.99,2.48,56.39,3.23,-2.15,-15.12
-3,6,378,-84,-260,3971,0.67,1.24,22.86,-0.84,-2.60,39.71,-4.97,2.48,56.30,3.16,-2.10,-12.88
-2,15,297,-166,-285,3855,0.59,1.21,22.39,-1.66,-2.85,38.55,-4.95,2.50,56.21,3.14,-2.28,-6.52
-5,7,287,-158,-306,3942,0.50,1.13,21.90,-1.58,-3.06,39.42,-4.92,2.50,56.13,3.22,-2.10,-6.18
5,13,334,-65,-361,3868,0.48,1.10,21.75,-0.65,-3.61,38.68,-4.92,2.49,56.04,3.02,-2.21,-10.31
5,16,377,9,-432,3968,0.46,1.09,21.87,0.09,-4.32,39.68,-4.93,2.49,55.95,3.02,-2.26,-13.82
-3,14,421,-137,-404,3848,0.40,1.06,22.25,-1.37,-4.04,38.48,-4.94,2.49,55.87,3.21,-2.22,-17.13
-3,1,415,-127,-417,3936,0.34,0.96,22.56,-1.27,-4.17,39.36,-4.95,2.50,55.78,3.23,-1.93,-16.29
-11,-1,367,-91,-360,3910,0.24,0.86,22.54,-0.91,-3.60,39.10,-4.95,2.49,55.69,3.42,-1.86,-12.24
2,0,352,-135,-366,3929,0.23,0.77,22.43,-1.35,-3.66,39.29,-4.95,2.49,55.60,3.17,-1.85,-11.07
-1,-1,299,-104,-421,3900,0.20,0.69,22.02,-1.04,-4.21,39.00,-4.96,2.49,55.51,3.24,-1.81,-7.02
-3,14,302,-42,-441,3900,0.16,0.71,21.66,-0.42,-4.41,39.00,-4.97,2.48,55.43,3.30,-2.12,-7.64
-7,5,332,-37,-445,3923,0.10,0.67,21.52,-0.37,-4.45,39.23,-4.98,2.48,55.34,3.40,-1.92,-10.33
6,6,335,-59,-417,3941,0.13,0.64,21.41,-0.59,-4.17,39.41,-4.98,2.47,55.26,3.13,-1.93,-10.69
-6,-1,351,-85,-394,3937,0.08,0.57,21.41,-0.85,-3.94,39.37,-4.99,2.47,55.17,3.39,-1.76,-12.03
-4,0,351,-135,-374,3897,0.05,0.51,21.41,-1.35,-3.74,38.97,-5.00,2.46,55.09,3.37,-1.76,-12.03
-11,1,349,-137,-393,3958,-0.03,0.47,21.40,-1.37,-3.93,39.58,-5.01,2.46,55.00,3.54,-1.77,-11.86
4,2,345,-171,-361,3932,0.00,0.43,21.36,-1.71,-3.61,39.32,-5.02,2.47,54.92,3.23,-1.79,-11.55
-8,5,287,-177,-370,3906,-0.05,0.42,20.98,-1.77,-3.70,39.06,-5.04,2.49,54.83,3.50,-1.86,-7.04
-4,8,289,-152,-319,3921,-0.07,0.43,20.64,-1.52,-3.19,39.21,-5.02,2.48,54.75,3.41,-1.92,-7.56
2,-1,294,-106,-448,3968,-0.05,0.38,20.37,-1.06,-4.48,39.68,-5.03,2.48,54.67,3.29,-1.72,-8.26
-3,20,294,-181,-468,3952,-0.06,0.46,20.13,-1.81,-4.68,39.52,-5.05,2.49,54.59,3.41,-2.18,-8.51
-9,7,316,-153,-350,4001,-0.11,0.46,20.04,-1.53,-3.50,40.01,-5.04,2.48,54.51,3.54,-1.91,-10.46
-3,-5,298,-137,-316,3974,-0.12,0.38,19.86,-1.37,-3.16,39.74,-5.02,2.48,54.43,3.41,-1.64,-9.12
-2,-2,241,-232,-423,3881,-0.12,0.33,19.34,-2.32,-4.23,38.81,-5.04,2.50,54.36,3.40,-1.70,-4.83
-7,-1,232,-215,-490,3940,-0.15,0.29,18.82,-2.15,-4.90,39.40,-5.05,2.51,54.28,3.52,-1.72,-4.61
-2,7,213,-185,-433,3939,-0.15,0.31,18.24,-1.85,-4.33,39.39,-5.07,2.52,54.21,3.42,-1.89,-3.61
0,4,225,-168,-474,3894,-0.13,0.30,17.79,-1.68,-4.74,38.94,-5.08,2.53,54.14,3.39,-1.83,-5.10
-4,2,252,-105,-450,3928,-0.14,0.28,17.55,-1.05,-4.50,39.28,-5.09,2.52,54.07,3.48,-1.78,-7.64
-2,6,253,-127,-425,3921,-0.14,0.29,17.33,-1.27,-4.25,39.21,-5.11,2.52,54.00,3.45,-1.87,-7.94
-6,3,254,-82,-394,3981,-0.16,0.28,17.15,-0.82,-3.94,39.81,-5.11,2.51,53.93,3.54,-1.80,-8.21
-9,4,256,-65,-359,3895,-0.20,0.28,17.00,-0.65,-3.59,38.95,-5.11,2.50,53.87,3.61,-1.81,-8.54
-19,13,210,-114,-212,4007,-0.30,0.33,16.58,-1.14,-2.12,40.07,-5.09,2.50,53.80,3.83,-2.00,-5.08
-1,9,204,-148,-307,3981,-0.27,0.35,16.16,-1.48,-3.07,39.81,-5.08,2.50,53.74,3.45,-1.93,-5.00
15,6,161,-73,-284,3812,-0.16,0.35,15.53,-0.73,-2.84,38.12,-5.06,2.49,53.67,3.08,-1.86,-2.03
12,5,143,-124,-332,3948,-0.07,0.35,14.85,-1.24,-3.32,39.48,-5.06,2.48,53.61,3.11,-1.83,-1.22
3,2,158,-88,-276,3900,-0.04,0.32,14.33,-0.88,-2.76,39.00,-5.04,2.47,53.56,3.28,-1.76,-3.03
-2,3,152,-127,-274,3884,-0.05,0.31,13.82,-1.27,-2.74,38.84,-5.02,2.47,53.50,3.37,-1.78,-3.06
-6,-18,173,-149,-237,3989,-0.08,0.17,13.50,-1.49,-2.37,39.89,-5.00,2.47,53.45,3.45,-1.31,-5.18
-9,-12,159,-92,-183,3962,-0.13,0.08,13.12,-0.92,-1.83,39.62,-4.99,2.47,53.39,3.51,-1.41,-4.39
-4,-5,63,-66,-358,3926,-0.14,0.04,12.19,-0.66,-3.58,39.26,-4.99,2.45,53.34,3.41,-1.53,2.77
-3,-6,51,-78,-365,3922,-0.14,0.00,11.28,-0.78,-3.65,39.22,-4.99,2.44,53.30,3.39,-1.49,2.83
0,-5,71,-123,-421,3873,-0.13,-0.03,10.59,-1.23,-4.21,38.73,-5.01,2.44,53.26,3.34,-1.50,0.40
-3,-1,109,-94,-468,3913,-0.13,-0.03,10.19,-0.94,-4.68,39.13,-5.02,2.43,53.22,3.41,-1.57,-3.23
-9,-8,199,-80,-343,3918,-0.18,-0.08,10.39,-0.80,-3.43,39.18,-5.02,2.41,53.18,3.54,-1.41,-10.65
-10,-19,178,-58,-374,3927,-0.22,-0.19,10.43,-0.58,-3.74,39.27,-5.02,2.40,53.14,3.58,-1.15,-8.81
-7,-21,101,-137,-298,3928,-0.24,-0.30,10.01,-1.37,-2.98,39.28,-5.01,2.39,53.09,3.51,-1.07,-2.74
-8,-21,93,-188,-237,3938,-0.27,-0.39,9.57,-1.88,-2.37,39.38,-4.99,2.40,53.06,3.53,-1.05,-2.52
-2,-4,181,-348,-228,3874,-0.25,-0.38,9.72,-3.48,-2.28,38.74,-4.98,2.42,53.02,3.39,-1.41,-9.81
1,-1,213,-282,-248,3851,-0.22,-0.35,10.05,-2.82,-2.48,38.51,-4.97,2.43,52.98,3.32,-1.49,-12.17
-4,-3,222,-100,-463,3871,-0.22,-0.33,10.40,-1.00,-4.63,38.71,-4.98,2.43,52.93,3.43,-1.45,-12.56
-4,-2,203,-43,-464,3957,-0.22,-0.31,10.60,-0.43,-4.64,39.57,-4.99,2.42,52.89,3.44,-1.47,-10.74
-6,5,203,-25,-363,4025,-0.24,-0.25,10.77,-0.25,-3.63,40.25,-4.99,2.40,52.85,3.48,-1.62,-10.55
0,10,197,-29,-378,3957,-0.21,-0.16,10.90,-0.29,-3.78,39.57,-5.00,2.39,52.81,3.36,-1.73,-9.90
-8,16,187,-144,-422,3863,-0.24,-0.05,10.95,-1.44,-4.22,38.63,-5.01,2.39,52.76,3.54,-1.89,-9.00
-5,18,205,-140,-429,3993,-0.25,0.07,11.10,-1.40,-4.29,39.93,-5.03,2.38,52.72,3.49,-1.96,-10.35
2,14,195,-161,-390,3936,-0.21,0.14,11.18,-1.61,-3.90,39.36,-5.05,2.39,52.68,3.35,-1.90,-9.42
-6,4,194,-129,-412,3913,-0.23,0.15,11.25,-1.29,-4.12,39.13,-5.06,2.38,52.63,3.53,-1.70,-9.26
-5,1,125,3,-422,3922,-0.23,0.15,10.89,0.03,-4.22,39.22,-5.07,2.37,52.59,3.51,-1.62,-3.80
2,-1,112,-45,-357,3954,-0.20,0.12,10.48,-0.45,-3.57,39.54,-5.07,2.36,52.55,3.36,-1.57,-3.12
0,1,106,-171,-387,3873,-0.18,0.12,10.08,-1.71,-3.87,38.73,-5.09,2.36,52.51,3.41,-1.61,-3.03
3,3,108,-177,-423,3867,-0.14,0.12,9.73,-1.77,-4.23,38.67,-5.10,2.37,52.47,3.35,-1.66,-3.57
0,7,111,-8,-501,3932,-0.13,0.15,9.43,-0.08,-5.01,39.32,-5.11,2.36,52.43,3.41,-1.74,-4.13
0,4,108,-8,-472,3911,-0.12,0.16,9.15,-0.08,-4.72,39.11,-5.12,2.35,52.40,3.41,-1.68,-4.18
1,7,96,28,-473,3917,-0.10,0.19,8.82,0.28,-4.73,39.17,-5.13,2.34,52.36,3.39,-1.74,-3.51
-5,11,83,34,-436,3945,-0.12,0.24,8.44,0.34,-4.36,39.45,-5.14,2.33,52.33,3.53,-1.83,-2.80
0,8,56,-23,-442,3944,-0.11,0.26,7.94,-0.23,-4.42,39.44,-5.15,2.32,52.30,3.43,-1.76,-1.04
0,8,49,-59,-410,3925,-0.10,0.29,7.45,-0.59,-4.10,39.25,-5.16,2.30,52.27,3.43,-1.76,-0.97
1,0,81,-120,-395,3931,-0.08,0.26,7.20,-1.20,-3.95,39.31,-5.17,2.30,52.24,3.41,-1.58,-3.94
-4,-2,98,-124,-405,3914,-0.10,0.22,7.07,-1.24,-4.05,39.14,-5.18,2.29,52.21,3.53,-1.53,-5.51
-3,-4,88,-48,-397,3939,-0.11,0.17,6.90,-0.48,-3.97,39.39,-5.19,2.27,52.19,3.51,-1.47,-4.84
-5,-7,47,-42,-393,3925,-0.13,0.11,6.50,-0.42,-3.93,39.25,-5.19,2.26,52.16,3.56,-1.38,-1.79
-9,-18,4,-108,-372,3911,-0.17,-0.01,5.87,-1.08,-3.72,39.11,-5.20,2.24,52.14,3.66,-1.11,1.19
-7,-16,2,-73,-380,3878,-0.19,-0.11,5.30,-0.73,-3.80,38.78,-5.21,2.23,52.12,3.63,-1.12,0.75
-17,-21,0,-99,-432,3891,-0.28,-0.22,4.77,-0.99,-4.32,38.91,-5.22,2.22,52.10,3.87,-0.98,0.36
-17,-23,-1,-93,-395,3915,-0.35,-0.34,4.29,-0.93,-3.95,39.15,-5.23,2.20,52.08,3.90,-0.89,-0.06
11,-1,0,-107,-414,3890,-0.25,-0.31,3.86,-1.07,-4.14,38.90,-5.25,2.19,52.07,3.31,-1.34,-0.60
15,6,3,-91,-401,3921,-0.13,-0.24,3.49,-0.91,-4.01,39.21,-5.26,2.18,52.05,3.20,-1.49,-1.24
-23,-32,-4,-56,-374,3918,-0.26,-0.42,3.12,-0.56,-3.74,39.18,-5.26,2.16,52.04,4.01,-0.66,-1.04
-44,-51,-1,6,-300,3960,-0.50,-0.69,2.80,0.06,-3.00,39.60,-5.26,2.14,52.03,4.50,-0.19,-1.63
-202,-184,32,15,-333,3936,-1.69,-1.74,2.71,0.15,-3.33,39.36,-5.26,2.12,52.02,8.04,2.82,-4.52
-226,-208,43,4,-343,3969,-2.90,-2.83,2.71,0.04,-3.43,39.69,-5.27,2.09,52.00,8.86,3.62,-5.46
-70,-71,-12,-5,-349,3909,-3.03,-2.98,2.36,-0.05,-3.49,39.09,-5.28,2.06,51.99,5.73,0.90,-1.16
-43,-58,-83,-30,-371,3883,-2.99,-3.04,1.62,-0.30,-3.71,38.83,-5.29,2.03,51.99,5.18,0.67,4.07
-16,-42,-134,-364,-256,3874,-2.79,-2.99,0.64,-3.64,-2.56,38.74,-5.29,2.03,51.98,4.58,0.33,7.35
-5,-32,-197,-192,-38,3896,-2.54,-2.89,-0.63,-1.92,-0.38,38.96,-5.29,2.03,51.98,4.28,0.10,11.35
-5,-33,-23,-157,-476,3832,-2.32,-2.80,-0.70,-1.57,-4.76,38.32,-5.31,2.02,51.99,4.24,0.10,-3.48
1,-27,-17,-147,-458,3861,-2.08,-2.68,-0.74,-1.47,-4.58,38.61,-5.34,2.01,51.99,4.07,-0.04,-4.02
13,-12,-76,-157,-466,3916,-1.79,-2.49,-1.13,-1.57,-4.66,39.16,-5.37,2.00,51.99,3.77,-0.40,0.57
14,-11,-98,-169,-544,3915,-1.53,-2.31,-1.61,-1.69,-5.44,39.15,-5.39,1.99,52.00,3.69,-0.46,1.92
4,-4,-32,-83,-722,3899,-1.35,-2.10,-1.65,-0.83,-7.22,38.99,-5.41,1.98,52.00,3.86,-0.65,-3.71
-4,-5,-15,-87,-567,3923,-1.24,-1.92,-1.57,-0.87,-5.67,39.23,-5.44,1.97,52.01,4.01,-0.67,-5.08
-6,1,2,-90,-438,3959,-1.15,-1.72,-1.40,-0.90,-4.38,39.59,-5.46,1.95,52.02,4.04,-0.84,-6.34
-1,4,2,-85,-417,3893,-1.04,-1.53,-1.25,-0.85,-4.17,38.93,-5.47,1.93,52.02,3.92,-0.94,-6.18
12,9,10,-104,-422,3866,-0.87,-1.32,-1.06,-1.04,-4.22,38.66,-5.49,1.92,52.03,3.62,-1.09,-6.66
14,8,10,-51,-373,3929,-0.69,-1.14,-0.90,-0.51,-3.73,39.29,-5.49,1.89,52.03,3.53,-1.10,-6.48
9,8,13,-92,-404,3897,-0.57,-0.98,-0.73,-0.92,-4.04,38.97,-5.51,1.88,52.03,3.61,-1.13,-6.56
5,3,19,-130,-386,3881,-0.48,-0.86,-0.54,-1.30,-3.86,38.81,-5.53,1.88,52.03,3.68,-1.06,-6.86
-1,-7,25,-97,-373,3993,-0.44,-0.82,-0.33,-0.97,-3.73,39.93,-5.52,1.86,52.03,3.79,-0.86,-7.15
-3,-14,15,-138,-364,3923,-0.41,-0.82,-0.21,-1.38,-3.64,39.23,-5.51,1.86,52.03,3.81,-0.72,-6.17
1,-9,30,-109,-376,3900,-0.37,-0.79,-0.00,-1.09,-3.76,39.00,-5.51,1.84,52.03,3.72,-0.82,-7.23
3,-9,33,-125,-385,3916,-0.31,-0.77,0.20,-1.25,-3.85,39.16,-5.53,1.83,52.03,3.67,-0.82,-7.27
0,-9,61,-93,-313,3925,-0.28,-0.75,0.55,-0.93,-3.13,39.25,-5.51,1.82,52.03,3.72,-0.82,-9.27
-4,-16,70,-117,-379,3890,-0.28,-0.77,0.92,-1.17,-3.79,38.90,-5.52,1.80,52.03,3.80,-0.66,-9.64
0,-12,86,-37,-434,3951,-0.25,-0.77,1.35,-0.37,-4.34,39.51,-5.53,1.79,52.02,3.72,-0.73,-10.53
-1,-7,102,3,-401,3940,-0.23,-0.73,1.84,0.03,-4.01,39.40,-5.54,1.77,52.01,3.74,-0.82,-11.37
-1,-3,84,29,-490,3949,-0.21,-0.68,2.17,0.29,-4.90,39.49,-5.55,1.75,52.01,3.74,-0.91,-9.50
0,-1,75,0,-504,3936,-0.19,-0.62,2.41,0.00,-5.04,39.36,-5.56,1.73,52.00,3.72,-0.96,-8.48
-10,-4,49,-20,-477,3921,-0.23,-0.58,2.47,-0.20,-4.77,39.21,-5.57,1.72,51.99,3.95,-0.90,-6.22
-7,-9,45,-43,-464,3943,-0.25,-0.58,2.50,-0.43,-4.64,39.43,-5.59,1.71,51.98,3.90,-0.79,-5.85
-5,2,120,-101,-500,3850,-0.26,-0.51,2.98,-1.01,-5.00,38.50,-5.61,1.70,51.97,3.87,-1.03,-11.69
-7,4,162,-88,-419,3913,-0.28,-0.43,3.67,-0.88,-4.19,39.13,-5.62,1.69,51.95,3.93,-1.08,-14.52
-4,-1,201,-93,-312,3919,-0.27,-0.39,4.53,-0.93,-3.12,39.19,-5.60,1.68,51.93,3.85,-0.98,-16.91
-2,5,213,-185,-376,3883,-0.26,-0.32,5.37,-1.85,-3.76,38.83,-5.60,1.70,51.91,3.81,-1.14,-17.03
2,11,266,-88,-422,3883,-0.22,-0.22,6.46,-0.88,-4.22,38.83,-5.62,1.70,51.89,3.73,-1.28,-20.00
3,0,269,-114,-424,3937,-0.18,-0.20,7.45,-1.14,-4.24,39.37,-5.64,1.70,51.86,3.71,-1.06,-19.56
-2,2,258,-101,-603,3882,-0.17,-0.17,8.28,-1.01,-6.03,38.82,-5.66,1.70,51.82,3.82,-1.11,-17.75
3,5,243,-108,-599,3894,-0.14,-0.12,8.94,-1.08,-5.99,38.94,-5.67,1.70,51.79,3.72,-1.19,-15.79
4,-6,177,-45,-428,3926,-0.10,-0.15,9.12,-0.45,-4.28,39.26,-5.68,1.69,51.75,3.70,-0.95,-9.99
11,2,169,-59,-459,3956,-0.02,-0.12,9.24,-0.59,-4.59,39.56,-5.69,1.68,51.72,3.54,-1.11,-9.19
-1,0,203,-26,-404,3964,-0.03,-0.11,9.56,-0.26,-4.04,39.64,-5.69,1.66,51.68,3.79,-1.07,-11.73
6,6,212,-84,-414,3887,0.01,-0.06,9.89,-0.84,-4.14,38.87,-5.71,1.65,51.64,3.64,-1.20,-12.13
0,7,270,-129,-407,3949,0.01,-0.01,10.55,-1.29,-4.07,39.49,-5.72,1.67,51.60,3.77,-1.24,-16.35
0,9,294,-122,-442,3873,0.01,0.04,11.29,-1.22,-4.42,38.73,-5.73,1.68,51.55,3.78,-1.30,-17.59
-8,6,294,-93,-385,3952,-0.04,0.08,11.95,-0.93,-3.85,39.52,-5.72,1.67,51.50,3.95,-1.24,-16.89
-9,13,295,-31,-358,3902,-0.09,0.15,12.56,-0.31,-3.58,39.02,-5.72,1.66,51.45,3.98,-1.40,-16.33
-12,5,274,0,-405,3915,-0.15,0.16,12.97,0.00,-4.05,39.15,-5.72,1.64,51.40,4.06,-1.23,-14.10
-7,7,270,20,-425,3928,-0.18,0.19,13.32,0.20,-4.25,39.28,-5.72,1.63,51.35,3.97,-1.27,-13.39
-10,1,244,12,-361,3906,-0.22,0.18,13.48,0.12,-3.61,39.06,-5.71,1.62,51.30,4.04,-1.14,-11.02
-9,11,237,-20,-367,3861,-0.26,0.23,13.58,-0.20,-3.67,38.61,-5.71,1.61,51.24,4.02,-1.35,-10.31
0,2,225,-75,-465,3899,-0.23,0.22,13.59,-0.75,-4.65,38.99,-5.73,1.61,51.19,3.84,-1.16,-9.28
2,-4,227,-49,-413,3882,-0.20,0.17,13.62,-0.49,-4.13,38.82,-5.73,1.60,51.14,3.80,-1.02,-9.41
-4,-6,196,73,-272,3986,-0.20,0.12,13.45,0.73,-2.72,39.86,-5.72,1.59,51.08,3.91,-0.96,-6.96
-5,3,196,-4,-375,3903,-0.21,0.12,13.30,-0.04,-3.75,39.03,-5.72,1.57,51.03,3.93,-1.13,-7.11
-5,9,297,-132,-416,3931,-0.22,0.17,13.78,-1.32,-4.16,39.31,-5.73,1.59,50.97,3.94,-1.28,-15.16
-10,10,358,-104,-437,3903,-0.26,0.21,14.59,-1.04,-4.37,39.03,-5.75,1.60,50.92,4.07,-1.32,-19.47
-6,-1,343,-72,-396,3893,-0.27,0.18,15.22,-0.72,-3.96,38.93,-5.75,1.59,50.86,3.99,-1.08,-17.52
-3,7,334,-79,-463,3896,-0.26,0.21,15.74,-0.79,-4.63,38.96,-5.77,1.59,50.79,3.94,-1.25,-16.20
-8,2,331,-6,-415,3890,-0.28,0.20,16.18,-0.06,-4.15,38.90,-5.77,1.58,50.73,4.05,-1.13,-15.47
4,13,338,40,-377,3950,-0.23,0.26,16.63,0.40,-3.77,39.50,-5.76,1.57,50.66,3.79,-1.37,-15.59
-8,20,352,-31,-398,3933,-0.26,0.35,17.11,-0.31,-3.98,39.33,-5.76,1.56,50.60,4.04,-1.53,-16.26
-10,-1,331,-37,-328,4023,-0.29,0.31,17.42,-0.37,-3.28,40.23,-5.75,1.55,50.53,4.08,-1.09,-14.15
-3,16,321,-60,-481,3902,-0.28,0.38,17.64,-0.60,-4.81,39.02,-5.77,1.55,50.46,3.94,-1.45,-13.06
-3,15,341,16,-464,3966,-0.27,0.43,17.95,0.16,-4.64,39.66,-5.77,1.54,50.39,3.95,-1.44,-14.42
2,4,327,-5,-516,3957,-0.23,0.41,18.15,-0.05,-5.16,39.57,-5.79,1.54,50.31,3.84,-1.21,-13.01
0,12,306,-131,-516,3853,-0.21,0.45,18.20,-1.31,-5.16,38.53,-5.80,1.55,50.24,3.89,-1.39,-11.17
-3,10,338,-103,-346,3926,-0.21,0.46,18.44,-1.03,-3.46,39.26,-5.78,1.56,50.17,3.93,-1.36,-13.62
-11,7,351,-120,-375,3910,-0.25,0.46,18.74,-1.20,-3.75,39.10,-5.77,1.58,50.09,4.10,-1.31,-14.40
-9,9,394,-135,-463,3884,-0.28,0.47,19.27,-1.35,-4.63,38.84,-5.78,1.60,50.02,4.08,-1.36,-17.48
-13,4,392,-146,-453,3917,-0.33,0.45,19.73,-1.46,-4.53,39.17,-5.80,1.62,49.94,4.18,-1.27,-16.81
0,11,385,-17,-398,3940,-0.30,0.47,20.11,-0.17,-3.98,39.40,-5.80,1.61,49.86,3.91,-1.41,-15.81
-3,4,401,28,-369,3928,-0.29,0.45,20.54,0.28,-3.69,39.28,-5.79,1.60,49.78,3.96,-1.26,-16.70
-9,7,412,-42,-540,3823,-0.31,0.44,21.00,-0.42,-5.40,38.23,-5.81,1.60,49.69,4.10,-1.32,-17.14
-5,13,400,-59,-526,3889,-0.31,0.48,21.34,-0.59,-5.26,38.89,-5.82,1.61,49.61,4.03,-1.46,-15.75
-7,8,362,62,-445,3938,-0.32,0.48,21.42,0.62,-4.45,39.38,-5.83,1.60,49.53,4.08,-1.35,-12.45
-12,3,334,8,-391,3929,-0.37,0.45,21.31,0.08,-3.91,39.29,-5.82,1.59,49.44,4.19,-1.23,-10.18
-6,8,290,-35,-507,3936,-0.37,0.45,20.95,-0.35,-5.07,39.36,-5.84,1.59,49.36,4.07,-1.34,-6.83
-9,4,297,-40,-501,3924,-0.38,0.43,20.67,-0.40,-5.01,39.24,-5.85,1.59,49.28,4.15,-1.25,-7.71
-8,11,283,-102,-450,3880,-0.39,0.46,20.33,-1.02,-4.50,38.80,-5.87,1.60,49.20,4.14,-1.40,-6.88
-1,16,286,-74,-436,3958,-0.36,0.51,20.04,-0.74,-4.36,39.58,-5.88,1.59,49.12,4.00,-1.52,-7.43
-1,7,278,-187,-369,3953,-0.33,0.50,19.73,-1.87,-3.69,39.53,-5.87,1.62,49.04,3.99,-1.35,-7.07
-22,1,275,-246,-323,3692,-0.43,0.46,19.43,-2.46,-3.23,36.92,-5.86,1.65,48.96,4.43,-1.23,-7.13
-9,5,268,-69,-360,3902,-0.44,0.44,19.13,-0.69,-3.60,39.02,-5.85,1.64,48.88,4.17,-1.31,-6.85
-5,-1,256,-40,-391,3996,-0.43,0.39,18.78,-0.40,-3.91,39.96,-5.85,1.64,48.81,4.08,-1.17,-6.20
-3,10,226,-46,-484,3894,-0.41,0.41,18.28,-0.46,-4.84,38.94,-5.86,1.63,48.74,4.04,-1.39,-4.18
1,10,238,-113,-472,3860,-0.36,0.43,17.90,-1.13,-4.72,38.60,-5.88,1.64,48.67,3.96,-1.41,-5.59
-2,3,218,-77,-431,3942,-0.33,0.41,17.44,-0.77,-4.31,39.42,-5.89,1.64,48.60,4.02,-1.25,-4.38
-6,4,214,-55,-388,3920,-0.34,0.39,17.00,-0.55,-3.88,39.20,-5.88,1.63,48.53,4.10,-1.26,-4.50
-2,6,209,-65,-421,3931,-0.32,0.39,16.58,-0.65,-4.21,39.31,-5.89,1.62,48.46,4.01,-1.30,-4.52
-4,7,212,-70,-420,3911,-0.31,0.39,16.21,-0.70,-4.20,39.11,-5.89,1.61,48.40,4.06,-1.31,-5.15
5,12,178,-107,-432,3870,-0.25,0.43,15.68,-1.07,-4.32,38.70,-5.91,1.62,48.34,3.87,-1.43,-2.83
-9,0,185,-57,-464,3936,-0.28,0.38,15.24,-0.57,-4.64,39.36,-5.92,1.61,48.28,4.17,-1.17,-3.88
4,3,179,-112,-343,3882,-0.23,0.36,14.81,-1.12,-3.43,38.82,-5.90,1.62,48.22,3.88,-1.23,-3.83
-2,-4,171,-26,-326,3911,-0.22,0.30,14.37,-0.26,-3.26,39.11,-5.89,1.61,48.16,3.99,-1.07,-3.61
-2,1,186,-60,-479,3920,-0.21,0.28,14.07,-0.60,-4.79,39.20,-5.91,1.61,48.11,3.99,-1.16,-5.19
0,-10,184,11,-304,3939,-0.19,0.19,13.78,0.11,-3.04,39.39,-5.89,1.60,48.05,3.94,-0.91,-5.32
-6,6,159,-61,-413,3930,-0.20,0.21,13.37,-0.61,-4.13,39.30,-5.89,1.59,48.00,4.07,-1.23,-3.63
-11,0,169,-46,-470,3912,-0.25,0.19,13.07,-0.46,-4.70,39.12,-5.91,1.58,47.95,4.19,-1.10,-4.80
-4,10,194,-122,-477,3917,-0.25,0.23,12.94,-1.22,-4.77,39.17,-5.92,1.59,47.90,4.06,-1.32,-7.04
-2,-1,200,-94,-431,3957,-0.24,0.20,12.87,-0.94,-4.31,39.57,-5.94,1.59,47.84,4.02,-1.08,-7.62
-5,5,219,-100,-512,3875,-0.24,0.21,12.92,-1.00,-5.12,38.75,-5.96,1.59,47.79,4.10,-1.21,-9.18
-2,2,227,-98,-521,3912,-0.23,0.20,13.01,-0.98,-5.21,39.12,-5.97,1.60,47.74,4.05,-1.15,-9.75
-10,2,260,-101,-417,3933,-0.27,0.19,13.30,-1.01,-4.17,39.33,-5.98,1.59,47.69,4.23,-1.14,-12.24
4,16,253,-99,-338,3947,-0.22,0.27,13.51,-0.99,-3.38,39.47,-5.96,1.59,47.64,3.91,-1.45,-11.42
1,-10,255,-45,-436,3967,-0.19,0.18,13.71,-0.45,-4.36,39.67,-5.97,1.58,47.58,3.97,-0.89,-11.36
2,6,273,6,-360,3928,-0.16,0.20,14.01,0.06,-3.60,39.28,-5.96,1.57,47.53,3.94,-1.21,-12.57
-11,8,319,15,-387,3858,-0.21,0.23,14.55,0.15,-3.87,38.58,-5.96,1.56,47.47,4.21,-1.25,-15.89
-8,12,314,-23,-334,3963,-0.24,0.28,15.01,-0.23,-3.34,39.63,-5.94,1.55,47.41,4.15,-1.35,-14.97
-7,6,302,-85,-279,3907,-0.26,0.29,15.35,-0.85,-2.79,39.07,-5.93,1.56,47.35,4.12,-1.23,-13.59
-7,5,319,-67,-328,3906,-0.27,0.29,15.76,-0.67,-3.28,39.06,-5.91,1.56,47.28,4.12,-1.21,-14.59
-12,-3,411,-60,-450,3955,-0.32,0.24,16.70,-0.60,-4.50,39.55,-5.92,1.55,47.22,4.24,-1.03,-20.00
-1,19,397,-155,-551,3887,-0.29,0.34,17.45,-1.55,-5.51,38.87,-5.94,1.57,47.15,4.02,-1.51,-19.40
0,2,302,-193,-614,3912,-0.26,0.31,17.54,-1.93,-6.14,39.12,-5.95,1.58,47.08,4.00,-1.17,-11.25
-3,-2,275,-31,-436,3977,-0.26,0.27,17.47,-0.31,-4.36,39.77,-5.96,1.57,47.01,4.06,-1.07,-9.03
-4,9,275,16,-541,3914,-0.26,0.30,17.40,0.16,-5.41,39.14,-5.97,1.57,46.94,4.09,-1.30,-9.10
-3,12,268,-61,-498,3879,-0.25,0.34,17.29,-0.61,-4.98,38.79,-5.98,1.57,46.87,4.08,-1.37,-8.61
-1,9,226,-121,-461,3853,-0.23,0.36,16.94,-1.21,-4.61,38.53,-6.00,1.58,46.81,4.04,-1.33,-5.42
-8,5,227,-50,-406,3898,-0.26,0.36,16.63,-0.50,-4.06,38.98,-6.00,1.57,46.74,4.19,-1.24,-5.83
-4,3,212,-39,-325,3891,-0.25,0.34,16.26,-0.39,-3.25,38.91,-5.98,1.57,46.68,4.10,-1.19,-4.94
-4,0,214,-66,-349,3951,-0.25,0.31,15.94,-0.66,-3.49,39.51,-5.97,1.57,46.61,4.09,-1.12,-5.44
4,-3,254,-73,-416,3897,-0.20,0.26,15.90,-0.73,-4.16,38.97,-5.97,1.56,46.55,3.92,-1.04,-8.88
-6,2,280,-25,-430,3838,-0.22,0.24,16.02,-0.25,-4.30,38.38,-5.98,1.55,46.49,4.13,-1.13,-10.95
-6,-3,302,66,-348,3954,-0.23,0.20,16.26,0.66,-3.48,39.54,-5.97,1.54,46.42,4.13,-1.01,-12.55
-2,2,303,69,-366,3947,-0.22,0.19,16.48,0.69,-3.66,39.47,-5.96,1.53,46.35,4.04,-1.10,-12.39
-6,-3,260,11,-397,3843,-0.24,0.15,16.42,0.11,-3.97,38.43,-5.96,1.51,46.29,4.12,-0.98,-8.81
-4,-4,221,-4,-427,3957,-0.24,0.12,16.12,-0.04,-4.27,39.57,-5.96,1.50,46.23,4.08,-0.94,-5.81
-4,-1,199,-45,-527,3907,-0.24,0.10,15.73,-0.45,-5.27,39.07,-5.98,1.50,46.16,4.09,-1.00,-4.36
2,0,197,-72,-533,3888,-0.20,0.09,15.35,-0.72,-5.33,38.88,-6.00,1.51,46.10,3.97,-1.02,-4.58
3,9,239,-95,-444,3993,-0.16,0.13,15.28,-0.95,-4.44,39.93,-6.01,1.50,46.04,3.95,-1.21,-8.22
-2,-2,245,-247,-484,3918,-0.16,0.11,15.24,-2.47,-4.84,39.18,-6.02,1.53,45.98,4.06,-1.00,-8.75
-5,14,300,-217,-445,3885,-0.17,0.18,15.55,-2.17,-4.45,38.85,-6.02,1.55,45.92,4.13,-1.36,-13.08
-4,-6,296,-145,-335,4039,-0.18,0.13,15.80,-1.45,-3.35,40.39,-6.01,1.57,45.86,4.10,-0.95,-12.47
-2,10,272,50,-380,3865,-0.18,0.18,15.88,0.50,-3.80,38.65,-6.00,1.56,45.79,4.05,-1.28,-10.35
-3,5,276,105,-445,3943,-0.18,0.19,15.97,1.05,-4.45,39.43,-6.00,1.55,45.73,4.07,-1.17,-10.58
-2,-1,212,205,-520,3892,-0.17,0.16,15.67,2.05,-5.20,38.92,-6.01,1.53,45.67,4.05,-1.04,-5.48
-4,-7,226,104,-532,3820,-0.18,0.10,15.48,1.04,-5.32,38.20,-6.02,1.53,45.61,4.10,-0.89,-6.86
-4,-5,281,11,-456,3912,-0.18,0.06,15.65,0.11,-4.56,39.12,-6.02,1.52,45.54,4.11,-0.92,-11.34
2,4,294,91,-460,3943,-0.15,0.08,15.88,0.91,-4.60,39.43,-6.03,1.51,45.48,3.98,-1.10,-12.19
-5,15,339,127,-544,3931,-0.17,0.17,16.36,1.27,-5.44,39.31,-6.03,1.50,45.42,4.13,-1.34,-15.49
-5,12,359,95,-557,3949,-0.18,0.22,16.91,0.95,-5.57,39.49,-6.04,1.49,45.35,4.14,-1.29,-16.59
-14,12,406,-145,-464,3907,-0.25,0.27,17.70,-1.45,-4.64,39.07,-6.06,1.51,45.28,4.35,-1.31,-19.73
-12,9,407,-170,-381,3897,-0.30,0.30,18.41,-1.70,-3.81,38.97,-6.05,1.54,45.21,4.32,-1.28,-19.06
-1,15,400,-74,-371,3892,-0.27,0.36,19.01,-0.74,-3.71,38.92,-6.03,1.53,45.13,4.08,-1.42,-17.82
1,20,406,-67,-344,3926,-0.24,0.45,19.58,-0.67,-3.44,39.26,-6.02,1.54,45.05,4.02,-1.54,-17.71
-6,2,438,-164,-446,3907,-0.25,0.42,20.30,-1.64,-4.46,39.07,-6.02,1.56,44.97,4.17,-1.18,-19.66
1,5,403,-138,-462,3926,-0.22,0.40,20.73,-1.38,-4.62,39.26,-6.04,1.58,44.89,4.03,-1.26,-16.24
-13,9,385,-186,-314,3989,-0.28,0.42,21.00,-1.86,-3.14,39.89,-6.02,1.60,44.81,4.31,-1.35,-14.41
-14,16,375,-281,-292,4020,-0.34,0.47,21.19,-2.81,-2.92,40.20,-6.01,1.63,44.72,4.34,-1.53,-13.36
-7,19,344,-122,-375,3921,-0.35,0.54,21.17,-1.22,-3.75,39.21,-5.99,1.64,44.64,4.19,-1.62,-10.75
0,14,331,-92,-385,3893,-0.31,0.57,21.07,-0.92,-3.85,38.93,-5.98,1.64,44.55,4.03,-1.53,-9.74
2,12,290,-56,-425,3883,-0.27,0.59,20.73,-0.56,-4.25,38.83,-5.98,1.64,44.47,3.98,-1.48,-6.62
0,21,286,-66,-525,3871,-0.24,0.66,20.40,-0.66,-5.25,38.71,-6.00,1.64,44.39,4.02,-1.69,-6.62
4,11,310,-197,-522,3834,-0.19,0.66,20.25,-1.97,-5.22,38.34,-6.01,1.66,44.31,3.94,-1.50,-8.80
0,11,324,-166,-486,3889,-0.17,0.66,20.21,-1.66,-4.86,38.89,-6.02,1.68,44.23,4.02,-1.52,-10.04
1,-2,295,-123,-287,3971,-0.15,0.58,19.98,-1.23,-2.87,39.71,-6.00,1.70,44.15,3.98,-1.24,-7.81
-1,13,258,-78,-286,3942,-0.14,0.60,19.56,-0.78,-2.86,39.42,-5.98,1.70,44.07,4.01,-1.55,-5.11
7,12,217,-76,-457,3888,-0.08,0.62,18.93,-0.76,-4.57,38.88,-6.00,1.70,44.00,3.84,-1.53,-2.30
-2,9,209,-41,-483,3842,-0.09,0.61,18.31,-0.41,-4.83,38.42,-6.01,1.70,43.93,4.03,-1.47,-2.27
3,-4,251,1,-514,3956,-0.06,0.52,18.01,0.01,-5.14,39.56,-6.02,1.69,43.86,3.93,-1.18,-6.14
-2,-7,257,103,-484,3939,-0.07,0.43,17.78,1.03,-4.84,39.39,-6.02,1.68,43.79,4.03,-1.09,-6.89
4,-6,233,47,-583,3899,-0.04,0.35,17.42,0.47,-5.83,38.99,-6.03,1.68,43.72,3.91,-1.08,-5.23
-2,-8,237,10,-548,3902,-0.04,0.27,17.12,0.10,-5.48,39.02,-6.04,1.68,43.65,4.04,-1.02,-5.88
3,-18,182,-7,-421,3909,-0.02,0.13,16.52,-0.07,-4.21,39.09,-6.04,1.67,43.58,3.93,-0.77,-1.85
-4,-20,175,-59,-470,3932,-0.04,-0.01,15.94,-0.59,-4.70,39.32,-6.05,1.66,43.52,4.09,-0.69,-1.87
-10,4,236,-125,-595,3922,-0.10,0.02,15.78,-1.25,-5.95,39.22,-6.07,1.67,43.46,4.24,-1.19,-7.19
-6,4,270,-59,-521,3973,-0.13,0.04,15.85,-0.59,-5.21,39.73,-6.09,1.66,43.40,4.17,-1.19,-10.00
-10,18,292,-21,-500,3979,-0.18,0.15,16.05,-0.21,-5.00,39.79,-6.10,1.66,43.33,4.27,-1.50,-11.65
-17,4,289,-17,-473,3893,-0.26,0.16,16.21,-0.17,-4.73,38.93,-6.10,1.65,43.27,4.45,-1.21,-11.22
-1,21,273,-105,-465,3911,-0.24,0.27,16.25,-1.05,-4.65,39.11,-6.12,1.65,43.20,4.13,-1.59,-9.81
0,9,275,-38,-443,3958,-0.22,0.30,16.30,-0.38,-4.43,39.58,-6.12,1.64,43.14,4.10,-1.35,-9.92
7,4,293,-18,-484,3850,-0.15,0.29,16.46,-0.18,-4.84,38.50,-6.13,1.64,43.07,3.95,-1.24,-11.27
-19,-3,291,63,-340,4014,-0.25,0.24,16.59,0.63,-3.40,40.14,-6.12,1.63,43.01,4.50,-1.08,-10.96
-5,-13,287,-112,-285,3961,-0.26,0.14,16.68,-1.12,-2.85,39.61,-6.11,1.64,42.94,4.20,-0.85,-10.52
-5,6,276,-91,-493,3785,-0.26,0.16,16.70,-0.91,-4.93,37.85,-6.12,1.64,42.88,4.21,-1.25,-9.56
-9,7,319,-44,-427,3984,-0.29,0.19,16.97,-0.44,-4.27,39.84,-6.12,1.63,42.81,4.30,-1.27,-12.91
-19,-14,322,-84,-379,3778,-0.38,0.09,17.24,-0.84,-3.79,37.78,-6.11,1.63,42.74,4.52,-0.81,-12.87
-9,2,299,-215,-440,3939,-0.40,0.09,17.34,-2.15,-4.40,39.39,-6.11,1.65,42.67,4.32,-1.15,-10.81
-14,-24,288,-239,-444,3934,-0.44,-0.07,17.36,-2.39,-4.44,39.34,-6.11,1.68,42.60,4.44,-0.60,-9.85
-3,3,325,-125,-411,3871,-0.42,-0.04,17.61,-1.25,-4.11,38.71,-6.11,1.70,42.53,4.21,-1.17,-12.72
3,-2,346,-175,-460,3941,-0.36,-0.05,17.96,-1.75,-4.60,39.41,-6.12,1.72,42.46,4.07,-1.08,-14.12
-9,17,396,-44,-339,3916,-0.38,0.06,18.58,-0.44,-3.39,39.16,-6.10,1.72,42.39,4.31,-1.50,-17.69
-16,22,415,-118,-518,3867,-0.44,0.19,19.25,-1.18,-5.18,38.67,-6.12,1.73,42.31,4.48,-1.64,-18.58
-8,13,371,-173,-541,3887,-0.44,0.25,19.59,-1.73,-5.41,38.87,-6.14,1.75,42.23,4.33,-1.48,-14.49
-18,-6,368,-132,-593,3889,-0.51,0.19,19.88,-1.32,-5.93,38.89,-6.15,1.76,42.15,4.57,-1.09,-13.93
-5,9,405,-164,-442,3892,-0.49,0.22,20.36,-1.64,-4.42,38.92,-6.16,1.78,42.07,4.30,-1.42,-16.54
-10,3,433,-78,-474,3890,-0.50,0.22,20.96,-0.78,-4.74,38.90,-6.18,1.78,41.99,4.42,-1.30,-18.27
-8,22,427,1,-423,3930,-0.50,0.33,21.47,0.01,-4.23,39.30,-6.17,1.77,41.90,4.37,-1.71,-17.21
-14,-1,423,-16,-439,3949,-0.53,0.29,21.91,-0.16,-4.39,39.49,-6.18,1.77,41.82,4.51,-1.22,-16.41
-7,8,442,-8,-405,3824,-0.52,0.31,22.41,-0.08,-4.05,38.24,-6.17,1.76,41.73,4.36,-1.41,-17.47
-5,19,457,-67,-405,3947,-0.50,0.40,22.96,-0.67,-4.05,39.47,-6.17,1.75,41.64,4.31,-1.65,-18.16
-9,15,463,-123,-338,3963,-0.51,0.45,23.49,-1.23,-3.38,39.63,-6.15,1.76,41.54,4.38,-1.59,-18.10
1,23,452,-144,-329,3928,-0.45,0.54,23.89,-1.44,-3.29,39.28,-6.13,1.78,41.45,4.15,-1.79,-16.72
-6,15,418,-47,-539,3940,-0.44,0.58,24.06,-0.47,-5.39,39.40,-6.14,1.78,41.35,4.30,-1.64,-13.66
3,7,396,-125,-527,3867,-0.38,0.57,24.07,-1.25,-5.27,38.67,-6.16,1.80,41.26,4.11,-1.48,-11.78
-7,19,381,-111,-489,3886,-0.38,0.62,23.98,-1.11,-4.89,38.86,-6.18,1.81,41.16,4.32,-1.75,-10.59
-3,14,385,-72,-460,3958,-0.36,0.65,23.93,-0.72,-4.60,39.58,-6.18,1.80,41.07,4.24,-1.65,-10.97
9,4,369,46,-381,3999,-0.27,0.61,23.79,0.46,-3.81,39.99,-6.18,1.80,40.97,3.97,-1.43,-9.76
-7,10,367,19,-460,3828,-0.29,0.61,23.65,0.19,-4.60,38.28,-6.18,1.79,40.88,4.30,-1.55,-9.73
3,12,384,-34,-488,3872,-0.24,0.62,23.63,-0.34,-4.88,38.72,-6.19,1.79,40.79,4.09,-1.60,-11.19
-2,9,392,18,-428,3914,-0.23,0.61,23.66,0.18,-4.28,39.14,-6.19,1.79,40.69,4.19,-1.53,-11.82
-1,22,423,-43,-365,3894,-0.21,0.69,23.87,-0.43,-3.65,38.94,-6.18,1.78,40.60,4.15,-1.81,-14.21
-12,-4,425,-86,-411,3922,-0.26,0.59,24.08,-0.86,-4.11,39.22,-6.17,1.78,40.50,4.39,-1.26,-14.16
-2,4,429,-39,-336,3906,-0.25,0.56,24.29,-0.39,-3.36,39.06,-6.15,1.78,40.41,4.17,-1.41,-14.27
-3,14,421,-32,-248,3926,-0.24,0.59,24.42,-0.32,-2.48,39.26,-6.13,1.78,40.31,4.18,-1.62,-13.43
-8,18,479,-29,-308,3921,-0.27,0.64,24.90,-0.29,-3.08,39.21,-6.12,1.79,40.21,4.27,-1.72,-17.83
-3,4,487,-74,-297,3927,-0.26,0.60,25.38,-0.74,-2.97,39.27,-6.10,1.79,40.11,4.16,-1.43,-17.99
-19,11,475,3,-377,3891,-0.35,0.61,25.74,0.03,-3.77,38.91,-6.09,1.79,40.01,4.50,-1.57,-16.58
14,22,473,-40,-407,3946,-0.23,0.68,26.05,-0.40,-4.07,39.46,-6.09,1.78,39.90,3.79,-1.81,-16.08
-2,-5,435,31,-627,3905,-0.22,0.58,26.10,0.31,-6.27,39.05,-6.10,1.79,39.80,4.13,-1.24,-12.80
-3,7,422,87,-647,3759,-0.21,0.57,26.07,0.87,-6.47,37.59,-6.11,1.79,39.70,4.15,-1.48,-11.72
3,2,339,-20,-501,3925,-0.17,0.52,25.53,-0.20,-5.01,39.25,-6.12,1.79,39.59,4.03,-1.36,-5.25
-6,-20,313,-15,-520,3971,-0.19,0.35,24.88,-0.15,-5.20,39.71,-6.13,1.78,39.50,4.22,-0.87,-3.72
2,3,291,16,-540,3904,-0.16,0.33,24.17,0.16,-5.40,39.04,-6.14,1.78,39.40,4.05,-1.33,-2.61
-6,0,296,-53,-562,3889,-0.18,0.30,23.56,-0.53,-5.62,38.89,-6.15,1.79,39.31,4.23,-1.26,-3.67
-6,-6,339,-70,-470,3950,-0.20,0.23,23.27,-0.70,-4.70,39.50,-6.16,1.78,39.22,4.24,-1.12,-7.61
-3,10,364,-96,-357,3995,-0.20,0.27,23.16,-0.96,-3.57,39.95,-6.14,1.79,39.12,4.17,-1.46,-9.83
-4,12,333,-166,-522,3925,-0.20,0.32,22.88,-1.66,-5.22,39.25,-6.16,1.80,39.03,4.20,-1.52,-7.50
-5,-11,315,-107,-417,3916,-0.21,0.22,22.51,-1.07,-4.17,39.16,-6.15,1.80,38.94,4.22,-1.02,-6.35
-7,22,341,87,-310,3877,-0.24,0.33,22.34,0.87,-3.10,38.77,-6.14,1.79,38.85,4.26,-1.72,-8.73
-11,-11,317,66,-291,4128,-0.28,0.23,22.04,0.66,-2.91,41.28,-6.13,1.79,38.77,4.34,-1.02,-7.01
-10,17,344,57,-575,3852,-0.31,0.31,21.94,0.57,-5.75,38.52,-6.14,1.79,38.68,4.34,-1.61,-9.40
-7,5,359,-1,-611,4018,-0.32,0.31,21.93,-0.01,-6.11,40.18,-6.15,1.79,38.59,4.29,-1.36,-10.67
1,15,399,-20,-523,3904,-0.28,0.37,22.17,-0.20,-5.23,39.04,-6.16,1.78,38.50,4.12,-1.58,-13.79
-7,5,392,-20,-575,3962,-0.30,0.36,22.35,-0.20,-5.75,39.62,-6.18,1.78,38.42,4.30,-1.38,-13.01
-9,3,402,-155,-559,3902,-0.32,0.35,22.56,-1.55,-5.59,39.02,-6.19,1.80,38.33,4.36,-1.34,-13.61
-8,4,408,-170,-534,3839,-0.34,0.34,22.80,-1.70,-5.34,38.39,-6.21,1.82,38.24,4.35,-1.37,-13.87
-10,7,381,-114,-403,3858,-0.37,0.34,22.84,-1.14,-4.03,38.58,-6.19,1.82,38.15,4.39,-1.44,-11.53
-10,18,390,-143,-393,3987,-0.39,0.42,22.94,-1.43,-3.93,39.87,-6.17,1.84,38.05,4.38,-1.69,-12.18
4,12,413,-206,-410,4053,-0.33,0.45,23.16,-2.06,-4.10,40.53,-6.16,1.87,37.96,4.08,-1.60,-13.88
-12,-22,415,-199,-395,3863,-0.37,0.27,23.38,-1.99,-3.95,38.63,-6.16,1.90,37.87,4.41,-0.88,-13.81
-21,-17,497,-23,-504,3921,-0.46,0.14,24.07,-0.23,-5.04,39.21,-6.17,1.89,37.77,4.62,-0.94,-20.00
-10,6,499,-59,-575,3911,-0.47,0.16,24.71,-0.59,-5.75,39.11,-6.18,1.90,37.68,4.41,-1.42,-19.50
-14,6,515,82,-498,3860,-0.51,0.18,25.38,0.82,-4.98,38.60,-6.19,1.89,37.58,4.51,-1.42,-20.00
-7,14,506,40,-567,3882,-0.50,0.25,25.93,0.40,-5.67,38.82,-6.20,1.89,37.47,4.37,-1.60,-18.79
-8,2,486,-116,-584,3834,-0.50,0.24,26.30,-1.16,-5.84,38.34,-6.21,1.90,37.37,4.40,-1.36,-16.69
-2,2,499,-129,-516,3880,-0.46,0.23,26.71,-1.29,-5.16,38.80,-6.23,1.91,37.26,4.28,-1.36,-17.34
-13,11,547,-33,-282,3966,-0.50,0.27,27.38,-0.33,-2.82,39.66,-6.21,1.91,37.15,4.50,-1.56,-20.00
-15,10,546,-136,-249,3959,-0.54,0.30,27.97,-1.36,-2.49,39.59,-6.19,1.93,37.04,4.54,-1.56,-19.97
-16,18,565,-222,-360,3920,-0.58,0.38,28.62,-2.22,-3.60,39.20,-6.18,1.96,36.93,4.56,-1.76,-20.00
-8,21,564,-173,-375,3872,-0.57,0.47,29.20,-1.73,-3.75,38.72,-6.17,1.98,36.81,4.39,-1.87,-20.00
-11,8,495,-49,-424,3888,-0.58,0.48,29.30,-0.49,-4.24,38.88,-6.17,1.98,36.70,4.45,-1.60,-14.22
-6,14,477,-19,-389,3910,-0.56,0.51,29.28,-0.19,-3.89,39.10,-6.16,1.98,36.58,4.34,-1.73,-12.70
-5,-12,425,17,-409,3877,-0.54,0.39,28.94,0.17,-4.09,38.77,-6.16,1.97,36.46,4.31,-1.16,-8.64
3,1,405,76,-331,3984,-0.46,0.36,28.52,0.76,-3.31,39.84,-6.15,1.97,36.35,4.12,-1.42,-7.39
-6,-1,428,36,-449,3900,-0.45,0.31,28.28,0.36,-4.49,39.00,-6.15,1.96,36.24,4.30,-1.36,-9.58
-7,9,452,4,-527,3972,-0.45,0.34,28.21,0.04,-5.27,39.72,-6.16,1.96,36.13,4.33,-1.57,-11.68
-16,2,440,-11,-542,3888,-0.50,0.32,28.07,-0.11,-5.42,38.88,-6.17,1.96,36.02,4.53,-1.42,-10.80
-8,25,445,-1,-520,3896,-0.50,0.44,27.98,-0.01,-5.20,38.96,-6.18,1.96,35.90,4.38,-1.92,-11.31
-9,8,417,7,-452,3927,-0.51,0.44,27.72,0.07,-4.52,39.27,-6.18,1.96,35.79,4.40,-1.58,-9.19
-10,16,408,-22,-394,3889,-0.52,0.50,27.44,-0.22,-3.94,38.89,-6.17,1.95,35.69,4.42,-1.75,-8.72
-4,20,401,-123,-459,3888,-0.49,0.57,27.14,-1.23,-4.59,38.88,-6.19,1.96,35.58,4.30,-1.86,-8.43
-3,3,389,-68,-440,3877,-0.46,0.53,26.80,-0.68,-4.40,38.77,-6.19,1.96,35.47,4.27,-1.50,-7.77
7,20,360,-8,-299,3941,-0.37,0.60,26.32,-0.08,-2.99,39.41,-6.18,1.96,35.37,4.03,-1.86,-5.82
-8,7,348,1,-348,3945,-0.38,0.58,25.81,0.01,-3.48,39.45,-6.16,1.96,35.26,4.34,-1.59,-5.33
-3,3,344,-69,-506,3866,-0.36,0.54,25.33,-0.69,-5.06,38.66,-6.18,1.96,35.16,4.24,-1.50,-5.49
0,11,336,-83,-431,3972,-0.33,0.55,24.84,-0.83,-4.31,39.72,-6.18,1.95,35.07,4.17,-1.66,-5.32
-1,-2,317,6,-398,3964,-0.30,0.49,24.29,0.06,-3.98,39.64,-6.17,1.95,34.97,4.17,-1.38,-4.28
0,18,324,-25,-368,3807,-0.27,0.55,23.84,-0.25,-3.68,38.07,-6.16,1.94,34.87,4.14,-1.80,-5.35
-3,8,282,-60,-457,3926,-0.26,0.54,23.18,-0.60,-4.57,39.26,-6.17,1.94,34.78,4.20,-1.59,-2.48
-3,-8,265,-63,-390,3955,-0.25,0.44,22.47,-0.63,-3.90,39.55,-6.16,1.94,34.69,4.19,-1.23,-1.78
-9,10,341,32,-517,3944,-0.28,0.46,22.31,0.32,-5.17,39.44,-6.16,1.93,34.60,4.33,-1.60,-8.38
-12,1,347,15,-483,3936,-0.33,0.42,22.19,0.15,-4.83,39.36,-6.17,1.92,34.52,4.40,-1.40,-9.00
-6,13,334,-112,-429,3865,-0.33,0.45,22.01,-1.12,-4.29,38.65,-6.18,1.92,34.43,4.29,-1.66,-8.09
-3,24,341,-152,-482,3929,-0.32,0.56,21.89,-1.52,-4.82,39.29,-6.19,1.94,34.34,4.23,-1.92,-8.80
1,8,332,-41,-554,3900,-0.28,0.55,21.73,-0.41,-5.54,39.00,-6.20,1.94,34.26,4.15,-1.59,-8.21
-3,7,340,29,-426,3929,-0.27,0.54,21.63,0.29,-4.26,39.29,-6.20,1.93,34.17,4.23,-1.56,-8.98
-10,3,334,-39,-510,3900,-0.30,0.50,21.50,-0.39,-5.10,39.00,-6.21,1.93,34.09,4.39,-1.47,-8.60
-8,3,340,-39,-550,3887,-0.32,0.47,21.43,-0.39,-5.50,38.87,-6.23,1.93,34.00,4.36,-1.46,-9.18
-5,-6,347,-144,-532,3917,-0.32,0.39,21.40,-1.44,-5.32,39.17,-6.24,1.94,33.92,4.31,-1.27,-9.79
-3,-4,350,-118,-580,3870,-0.31,0.32,21.40,-1.18,-5.80,38.70,-6.26,1.95,33.83,4.28,-1.29,-10.04
-6,4,396,72,-435,3993,-0.31,0.31,21.67,0.72,-4.35,39.93,-6.26,1.94,33.75,4.34,-1.45,-13.64
-4,2,407,108,-391,3985,-0.31,0.30,21.99,1.08,-3.91,39.85,-6.25,1.94,33.66,4.29,-1.40,-14.23
-31,3,438,126,-536,3912,-0.46,0.28,22.46,1.26,-5.36,39.12,-6.26,1.93,33.57,4.89,-1.41,-16.35
-8,17,440,59,-591,3910,-0.47,0.36,22.90,0.59,-5.91,39.10,-6.27,1.93,33.48,4.43,-1.72,-16.04
-8,12,502,-8,-653,3841,-0.47,0.40,23.67,-0.08,-6.53,38.41,-6.28,1.93,33.39,4.44,-1.63,-20.00
-13,16,535,82,-646,3872,-0.50,0.45,24.57,0.82,-6.46,38.72,-6.30,1.93,33.29,4.56,-1.72,-20.00
-8,5,573,-115,-392,3933,-0.50,0.44,25.61,-1.15,-3.92,39.33,-6.28,1.94,33.19,4.44,-1.50,-20.00
-4,14,576,-128,-309,3944,-0.47,0.48,26.56,-1.28,-3.09,39.44,-6.26,1.95,33.08,4.34,-1.70,-20.00
-8,25,527,-142,-461,3966,-0.48,0.59,27.12,-1.42,-4.61,39.66,-6.27,1.97,32.97,4.43,-1.97,-18.90
-5,-4,505,-202,-481,3889,-0.46,0.50,27.49,-2.02,-4.81,38.89,-6.28,2.00,32.87,4.37,-1.37,-16.64
-3,7,442,-134,-331,3898,-0.43,0.50,27.43,-1.34,-3.31,38.98,-6.26,2.01,32.76,4.31,-1.60,-11.35
3,2,434,-64,-242,4047,-0.37,0.46,27.34,-0.64,-2.42,40.47,-6.24,2.02,32.65,4.16,-1.50,-10.76
2,13,367,-53,-400,3887,-0.32,0.49,26.84,-0.53,-4.00,38.87,-6.24,2.01,32.54,4.16,-1.73,-5.60
-7,17,366,4,-328,4015,-0.33,0.55,26.39,0.04,-3.28,40.15,-6.22,2.01,32.44,4.34,-1.82,-5.98
-1,11,350,-155,-399,3896,-0.30,0.56,25.89,-1.55,-3.99,38.96,-6.20,2.04,32.33,4.20,-1.72,-5.15
-4,20,336,-173,-364,3918,-0.30,0.62,25.35,-1.73,-3.64,39.18,-6.19,2.06,32.23,4.25,-1.94,-4.53
-3,6,292,9,-407,4012,-0.29,0.60,24.59,0.09,-4.07,40.12,-6.18,2.05,32.13,4.22,-1.64,-1.59
2,4,264,-41,-409,3876,-0.25,0.56,23.75,-0.41,-4.09,38.76,-6.18,2.05,32.04,4.10,-1.59,-0.11
-2,2,241,9,-479,3883,-0.23,0.52,22.84,0.09,-4.79,38.83,-6.18,2.04,31.95,4.18,-1.53,0.89
-2,8,238,31,-475,3869,-0.22,0.52,22.01,0.31,-4.75,38.69,-6.18,2.04,31.86,4.18,-1.65,0.27
1,8,213,11,-356,3943,-0.19,0.51,21.11,0.11,-3.56,39.43,-6.17,2.03,31.78,4.11,-1.64,1.44
-4,2,201,-11,-342,3953,-0.20,0.47,20.22,-0.11,-3.42,39.53,-6.16,2.03,31.70,4.20,-1.51,1.53
8,11,158,-70,-423,4014,-0.13,0.49,19.16,-0.70,-4.23,40.14,-6.16,2.02,31.62,3.94,-1.69,4.06
3,0,149,-28,-388,3848,-0.10,0.44,18.16,-0.28,-3.88,38.48,-6.15,2.01,31.55,4.03,-1.45,3.76
-3,8,138,-25,-453,3916,-0.11,0.45,17.18,-0.25,-4.53,39.16,-6.15,2.00,31.48,4.15,-1.61,3.67
-5,-1,145,-26,-483,3876,-0.13,0.40,16.35,-0.26,-4.83,38.76,-6.16,1.99,31.42,4.20,-1.40,2.20
-3,7,129,23,-427,3938,-0.13,0.40,15.50,0.23,-4.27,39.38,-6.16,1.98,31.35,4.16,-1.56,2.66
0,3,109,-13,-410,3956,-0.12,0.38,14.62,-0.13,-4.10,39.56,-6.16,1.97,31.30,4.10,-1.47,3.43
-3,-3,99,-20,-537,3905,-0.13,0.32,13.76,-0.20,-5.37,39.05,-6.17,1.97,31.24,4.17,-1.33,3.37
-6,-2,101,-23,-512,3891,-0.15,0.28,13.00,-0.23,-5.12,38.91,-6.18,1.96,31.19,4.24,-1.33,2.40
0,3,98,10,-418,3938,-0.13,0.27,12.30,0.10,-4.18,39.38,-6.18,1.95,31.14,4.11,-1.42,1.91
-4,0,103,15,-443,3887,-0.15,0.24,11.69,0.15,-4.43,38.87,-6.18,1.94,31.10,4.20,-1.34,0.86
1,10,143,23,-469,3853,-0.13,0.28,11.40,0.23,-4.69,38.53,-6.18,1.92,31.05,4.09,-1.55,-2.84
-5,-3,145,16,-408,3966,-0.14,0.23,11.14,0.16,-4.08,39.66,-6.18,1.91,31.01,4.22,-1.26,-3.28
0,3,116,-48,-440,3934,-0.13,0.23,10.74,-0.48,-4.40,39.34,-6.18,1.90,30.96,4.11,-1.38,-1.25
1,-10,117,-30,-459,3897,-0.11,0.14,10.38,-0.30,-4.59,38.97,-6.19,1.89,30.92,4.09,-1.08,-1.71
-5,2,167,-50,-499,3920,-0.13,0.14,10.36,-0.50,-4.99,39.20,-6.20,1.88,30.88,4.23,-1.32,-5.96
-2,1,176,-64,-496,3902,-0.13,0.13,10.39,-0.64,-4.96,39.02,-6.21,1.87,30.84,4.17,-1.29,-6.68
-4,4,176,-69,-435,3923,-0.14,0.14,10.43,-0.69,-4.35,39.23,-6.21,1.86,30.80,4.22,-1.35,-6.64
-6,1,185,-64,-447,3920,-0.16,0.14,10.51,-0.64,-4.47,39.20,-6.22,1.85,30.76,4.27,-1.28,-7.31
-2,9,198,-62,-469,3925,-0.16,0.18,10.67,-0.62,-4.69,39.25,-6.23,1.84,30.72,4.19,-1.44,-8.24
0,9,185,-55,-422,3949,-0.14,0.21,10.73,-0.55,-4.22,39.49,-6.22,1.82,30.67,4.15,-1.45,-7.07
-1,12,170,-2,-500,3853,-0.13,0.27,10.70,-0.02,-5.00,38.53,-6.23,1.81,30.63,4.17,-1.51,-5.83
1,12,160,8,-462,3964,-0.12,0.31,10.60,0.08,-4.62,39.64,-6.24,1.80,30.59,4.13,-1.52,-5.08
-1,-3,166,-2,-517,3885,-0.11,0.26,10.55,-0.02,-5.17,38.85,-6.25,1.79,30.55,4.17,-1.19,-5.64
-1,-2,193,-6,-547,3908,-0.10,0.22,10.68,-0.06,-5.47,39.08,-6.26,1.79,30.51,4.18,-1.20,-7.79
0,8,225,-51,-391,3927,-0.09,0.25,10.98,-0.51,-3.91,39.27,-6.25,1.78,30.46,4.15,-1.40,-10.18
2,7,191,-43,-307,3967,-0.07,0.27,11.05,-0.43,-3.07,39.67,-6.23,1.77,30.42,4.09,-1.38,-7.22
2,8,101,-53,-475,3909,-0.05,0.29,10.56,-0.53,-4.75,39.09,-6.24,1.76,30.38,4.09,-1.40,-0.11
-1,7,104,-29,-495,3890,-0.05,0.30,10.14,-0.29,-4.95,38.90,-6.25,1.75,30.34,4.16,-1.38,-0.81
3,0,82,-47,-492,3902,-0.03,0.27,9.62,-0.47,-4.92,39.02,-6.26,1.74,30.30,4.08,-1.23,0.52
2,-2,81,-27,-463,3920,-0.02,0.23,9.16,-0.27,-4.63,39.20,-6.27,1.73,30.26,4.10,-1.17,0.11
0,0,69,-41,-442,3934,-0.01,0.21,8.66,-0.41,-4.42,39.34,-6.27,1.72,30.23,4.14,-1.19,0.61
2,2,56,-19,-424,3946,0.00,0.20,8.14,-0.19,-4.24,39.46,-6.27,1.70,30.20,4.09,-1.22,1.15
-2,6,44,-29,-450,3921,-0.01,0.22,7.59,-0.29,-4.50,39.21,-6.27,1.69,30.17,4.18,-1.30,1.60
-3,7,42,-9,-459,3902,-0.03,0.24,7.09,-0.09,-4.59,39.02,-6.27,1.68,30.14,4.21,-1.31,1.24
0,5,25,-11,-452,3907,-0.03,0.25,6.53,-0.11,-4.52,39.07,-6.28,1.66,30.11,4.15,-1.27,2.09
1,4,21,-13,-451,3908,-0.02,0.25,6.01,-0.13,-4.51,39.08,-6.28,1.65,30.09,4.13,-1.24,1.87
4,-2,3,-23,-458,3920,0.01,0.21,5.42,-0.23,-4.58,39.20,-6.28,1.63,30.07,4.06,-1.10,2.78
2,-3,2,-25,-465,3925,0.02,0.17,4.89,-0.25,-4.65,39.25,-6.29,1.62,30.05,4.10,-1.05,2.31
0,-2,-1,-44,-468,3932,0.02,0.14,4.40,-0.44,-4.68,39.32,-6.30,1.61,30.03,4.15,-1.06,2.04
0,0,-2,-40,-463,3916,0.02,0.13,3.95,-0.40,-4.63,39.16,-6.30,1.59,30.01,4.16,-1.09,1.65
-2,1,-3,-30,-471,3925,0.00,0.12,3.53,-0.30,-4.71,39.25,-6.31,1.58,30.00,4.21,-1.09,1.30
-1,1,-3,-32,-477,3915,-0.00,0.11,3.16,-0.32,-4.77,39.15,-6.32,1.56,29.99,4.19,-1.08,0.90
-1,0,-1,-31,-469,3911,-0.01,0.10,2.84,-0.31,-4.69,39.11,-6.33,1.55,29.98,4.20,-1.05,0.39
0,1,-1,-33,-471,3915,-0.01,0.10,2.55,-0.33,-4.71,39.15,-6.34,1.53,29.97,4.18,-1.06,0.09
-1,1,1,-37,-473,3927,-0.01,0.09,2.30,-0.37,-4.73,39.27,-6.34,1.52,29.96,4.21,-1.05,-0.34
-1,1,1,-40,-472,3921,-0.02,0.09,2.08,-0.40,-4.72,39.21,-6.35,1.50,29.95,4.22,-1.04,-0.58
-3,-1,8,-43,-474,3906,-0.04,0.08,1.92,-0.43,-4.74,39.06,-6.36,1.49,29.94,4.27,-0.98,-1.34
-4,-3,8,-38,-471,3919,-0.06,0.05,1.78,-0.38,-4.71,39.19,-6.37,1.47,29.94,4.30,-0.93,-1.49
-1,-1,8,-33,-463,3908,-0.06,0.04,1.65,-0.33,-4.63,39.08,-6.38,1.46,29.93,4.25,-0.95,-1.63
1,0,7,-71,-472,3904,-0.04,0.04,1.52,-0.71,-4.72,39.04,-6.39,1.45,29.92,4.21,-0.96,-1.67
-1,3,47,-39,-507,3910,-0.05,0.05,1.66,-0.39,-5.07,39.10,-6.41,1.44,29.92,4.26,-1.02,-4.92
-5,5,54,-34,-467,3889,-0.07,0.08,1.82,-0.34,-4.67,38.89,-6.41,1.42,29.91,4.35,-1.06,-5.34
2,7,33,-7,-439,3930,-0.05,0.11,1.84,-0.07,-4.39,39.30,-6.41,1.40,29.90,4.21,-1.10,-3.54
3,5,18,-2,-446,3908,-0.03,0.13,1.77,-0.02,-4.46,39.08,-6.41,1.39,29.90,4.18,-1.05,-2.34
1,0,7,-45,-478,3912,-0.02,0.12,1.63,-0.45,-4.78,39.12,-6.43,1.37,29.89,4.23,-0.94,-1.55
0,-7,5,-101,-543,3907,-0.02,0.06,1.50,-1.01,-5.43,39.07,-6.44,1.38,29.89,4.26,-0.78,-1.52
-2,-6,15,24,-399,3916,-0.03,0.02,1.44,0.24,-3.99,39.16,-6.44,1.36,29.88,4.30,-0.78,-2.43
-1,-2,11,8,-392,3943,-0.03,0.01,1.36,0.08,-3.92,39.43,-6.43,1.34,29.87,4.27,-0.85,-2.18
2,0,2,-21,-456,3910,-0.02,0.01,1.24,-0.21,-4.56,39.10,-6.43,1.33,29.87,4.21,-0.88,-1.54
2,-1,0,-27,-452,3918,-0.00,-0.00,1.12,-0.27,-4.52,39.18,-6.44,1.31,29.87,4.21,-0.84,-1.51
3,-2,0,-29,-466,3925,0.02,-0.01,1.00,-0.29,-4.66,39.25,-6.44,1.29,29.86,4.19,-0.81,-1.62
1,-2,-1,-32,-462,3913,0.02,-0.02,0.90,-0.32,-4.62,39.13,-6.45,1.27,29.86,4.23,-0.79,-1.65
2,-1,-3,-40,-468,3922,0.03,-0.03,0.79,-0.40,-4.68,39.22,-6.46,1.26,29.85,4.21,-0.80,-1.60
1,0,-2,-33,-464,3918,0.03,-0.03,0.70,-0.33,-4.64,39.18,-6.46,1.24,29.85,4.24,-0.81,-1.78
2,0,-1,-35,-465,3917,0.04,-0.02,0.62,-0.35,-4.65,39.17,-6.47,1.22,29.85,4.22,-0.80,-1.94
2,1,-1,-33,-471,3922,0.05,-0.01,0.55,-0.33,-4.71,39.22,-6.48,1.21,29.85,4.22,-0.81,-2.01
2,0,-2,-29,-475,3906,0.06,-0.01,0.49,-0.29,-4.75,39.06,-6.49,1.19,29.85,4.22,-0.78,-2.00
2,1,-2,-31,-464,3909,0.06,-0.01,0.43,-0.31,-4.64,39.09,-6.49,1.18,29.84,4.23,-0.79,-2.07
3,0,0,-18,-467,3895,0.08,-0.00,0.38,-0.18,-4.67,38.95,-6.50,1.16,29.84,4.21,-0.76,-2.28
3,2,-1,-26,-464,3917,0.09,0.01,0.34,-0.26,-4.64,39.17,-6.50,1.14,29.84,4.21,-0.80,-2.24
2,0,0,-33,-462,3918,0.09,0.01,0.30,-0.33,-4.62,39.18,-6.51,1.12,29.84,4.23,-0.74,-2.36
2,0,-1,-31,-468,3915,0.09,0.01,0.27,-0.31,-4.68,39.15,-6.52,1.11,29.84,4.23,-0.73,-2.32
0,0,-4,-37,-463,3915,0.08,0.01,0.22,-0.37,-4.63,39.15,-6.52,1.09,29.84,4.28,-0.72,-2.12
1,2,-7,-38,-466,3902,0.08,0.02,0.15,-0.38,-4.66,39.02,-6.53,1.08,29.84,4.27,-0.75,-1.93
3,2,-8,-31,-466,3907,0.09,0.03,0.09,-0.31,-4.66,39.07,-6.54,1.06,29.84,4.23,-0.75,-1.91
3,2,-9,-31,-466,3905,0.10,0.04,0.02,-0.31,-4.66,39.05,-6.55,1.04,29.84,4.23,-0.74,-1.90
-3,-3,-16,4,-449,3898,0.07,0.02,-0.08,0.04,-4.49,38.98,-6.55,1.02,29.84,4.36,-0.62,-1.41
1,1,-26,-15,-441,3893,0.07,0.02,-0.23,-0.15,-4.41,38.93,-6.54,1.01,29.84,4.28,-0.69,-0.72
6,0,-102,-21,-405,3948,0.10,0.02,-0.83,-0.21,-4.05,39.48,-6.53,0.99,29.84,4.16,-0.66,5.08
5,-4,-115,-21,-431,3908,0.12,-0.01,-1.44,-0.21,-4.31,39.08,-6.52,0.97,29.85,4.17,-0.56,5.53
5,1,-161,2,-460,3941,0.14,-0.00,-2.28,0.02,-4.60,39.41,-6.53,0.95,29.86,4.17,-0.65,8.54
7,-3,-177,-4,-438,3938,0.17,-0.02,-3.13,-0.04,-4.38,39.38,-6.52,0.94,29.87,4.12,-0.55,8.99
11,-4,-271,43,-546,3878,0.22,-0.04,-4.47,0.43,-5.46,38.78,-6.53,0.92,29.89,4.03,-0.51,15.53
22,-3,-363,-221,-534,3914,0.33,-0.06,-6.24,-2.21,-5.34,39.14,-6.54,0.93,29.91,3.78,-0.54,20.00
-4,-19,-467,-36,-463,3968,0.27,-0.17,-8.47,-0.36,-4.63,39.68,-6.55,0.91,29.95,4.33,-0.17,20.00
8,-5,-538,-91,-551,3797,0.29,-0.18,-10.90,-0.91,-5.51,37.97,-6.56,0.91,29.99,4.09,-0.45,20.00
10,-16,-618,-85,-566,3900,0.33,-0.26,-13.58,-0.85,-5.66,39.00,-6.58,0.91,30.04,4.05,-0.20,20.00
9,-20,-620,-69,-576,3940,0.35,-0.36,-16.00,-0.69,-5.76,39.40,-6.60,0.90,30.11,4.08,-0.09,20.00
8,-9,-555,-48,-572,3860,0.36,-0.38,-17.79,-0.48,-5.72,38.60,-6.62,0.89,30.18,4.10,-0.30,20.00
5,-9,-532,-64,-525,3952,0.36,-0.39,-19.26,-0.64,-5.25,39.52,-6.63,0.88,30.26,4.18,-0.29,20.00
16,6,-482,-81,-516,3961,0.42,-0.32,-20.27,-0.81,-5.16,39.61,-6.65,0.87,30.34,3.95,-0.61,16.64
4,-3,-466,-126,-528,3913,0.40,-0.30,-21.09,-1.26,-5.28,39.13,-6.66,0.87,30.42,4.21,-0.43,14.42
18,-8,-420,-83,-651,3788,0.47,-0.32,-21.54,-0.83,-6.51,37.88,-6.68,0.86,30.51,3.92,-0.32,10.03
26,-6,-405,-68,-432,3971,0.58,-0.33,-21.86,-0.68,-4.32,39.71,-6.66,0.86,30.59,3.71,-0.35,8.42
-2,16,-258,84,-485,3872,0.51,-0.20,-21.24,0.84,-4.85,38.72,-6.67,0.83,30.68,4.30,-0.82,-3.40
-17,1,-234,73,-627,3895,0.36,-0.17,-20.55,0.73,-6.27,38.95,-6.68,0.81,30.76,4.66,-0.51,-4.70
12,-1,-233,-37,-515,3929,0.39,-0.16,-19.91,-0.37,-5.15,39.29,-6.70,0.79,30.84,4.07,-0.46,-4.12
10,-4,-226,-44,-448,3906,0.42,-0.17,-19.30,-0.44,-4.48,39.06,-6.68,0.77,30.91,4.09,-0.38,-4.07
2,7,-162,24,-290,3924,0.39,-0.11,-18.36,0.24,-2.90,39.24,-6.67,0.75,30.99,4.25,-0.61,-8.50
-14,3,-145,95,-444,3903,0.26,-0.08,-17.41,0.95,-4.44,39.03,-6.66,0.73,31.06,4.61,-0.52,-8.94
6,-8,-221,-58,-619,3836,0.27,-0.12,-17.01,-0.58,-6.19,38.36,-6.68,0.72,31.12,4.21,-0.28,-2.09
8,-10,-249,-87,-532,3914,0.29,-0.17,-16.83,-0.87,-5.32,39.14,-6.70,0.72,31.19,4.18,-0.22,0.47
8,3,-185,-19,-215,3926,0.31,-0.13,-16.28,-0.19,-2.15,39.26,-6.68,0.71,31.25,4.16,-0.49,-4.38
4,16,-187,-14,-400,3869,0.31,-0.02,-15.79,-0.14,-4.00,38.69,-6.66,0.69,31.32,4.23,-0.77,-3.70
7,1,-222,-117,-500,3909,0.32,-0.01,-15.57,-1.17,-5.00,39.09,-6.67,0.70,31.38,4.17,-0.48,-0.50
1,-15,-243,-122,-444,3913,0.29,-0.10,-15.49,-1.22,-4.44,39.13,-6.67,0.71,31.44,4.30,-0.13,1.35
4,-4,-328,-163,-311,3918,0.29,-0.12,-15.94,-1.63,-3.11,39.18,-6.65,0.71,31.50,4.23,-0.36,8.07
3,-9,-360,-146,-360,3936,0.28,-0.16,-16.54,-1.46,-3.60,39.36,-6.64,0.72,31.57,4.25,-0.25,10.14
6,-15,-448,-72,-380,3928,0.29,-0.24,-17.62,-0.72,-3.80,39.28,-6.62,0.71,31.64,4.17,-0.10,16.45
14,-3,-479,-85,-418,3869,0.34,-0.23,-18.78,-0.85,-4.18,38.69,-6.61,0.72,31.71,3.98,-0.35,17.84
11,-2,-520,-42,-360,3886,0.38,-0.22,-20.08,-0.42,-3.60,38.86,-6.59,0.71,31.79,4.02,-0.37,19.94
9,-7,-523,-30,-358,3939,0.39,-0.24,-21.26,-0.30,-3.58,39.39,-6.57,0.69,31.88,4.05,-0.25,18.93
10,-10,-551,-41,-395,3944,0.41,-0.28,-22.49,-0.41,-3.95,39.44,-6.55,0.68,31.97,4.01,-0.17,19.99
-1,-4,-574,-26,-427,3878,0.37,-0.27,-23.75,-0.26,-4.27,38.78,-6.54,0.65,32.06,4.24,-0.27,20.00
16,-2,-625,-12,-396,3977,0.43,-0.26,-25.18,-0.12,-3.96,39.77,-6.53,0.63,32.16,3.86,-0.31,20.00
3,-14,-642,-1,-374,3921,0.40,-0.32,-26.58,-0.01,-3.74,39.21,-6.51,0.61,32.27,4.13,-0.03,20.00
-2,-15,-722,-42,-310,3844,0.35,-0.38,-28.33,-0.42,-3.10,38.44,-6.49,0.59,32.38,4.23,0.02,20.00
2,-11,-732,-90,-337,3980,0.33,-0.41,-29.96,-0.90,-3.37,39.80,-6.47,0.59,32.50,4.14,-0.05,20.00
3,-14,-763,-67,-381,3901,0.31,-0.45,-31.62,-0.67,-3.81,39.01,-6.46,0.58,32.62,4.12,0.03,20.00
21,-12,-781,-79,-391,3902,0.41,-0.48,-33.22,-0.79,-3.91,39.02,-6.44,0.57,32.75,3.71,-0.00,20.00
14,-14,-803,-157,-383,3934,0.45,-0.52,-34.80,-1.57,-3.83,39.34,-6.43,0.57,32.89,3.84,0.05,20.00
9,-26,-807,-142,-300,3919,0.46,-0.62,-36.24,-1.42,-3.00,39.19,-6.42,0.56,33.03,3.93,0.33,20.00
10,-10,-772,-200,-384,3871,0.48,-0.62,-37.33,-2.00,-3.84,38.71,-6.41,0.56,33.18,3.90,0.00,20.00
15,-13,-753,-162,-439,3925,0.52,-0.64,-38.19,-1.62,-4.39,39.25,-6.41,0.56,33.33,3.78,0.07,20.00
2,-23,-724,37,-577,3930,0.48,-0.72,-38.78,0.37,-5.77,39.30,-6.43,0.53,33.49,4.07,0.31,17.26
15,-10,-715,47,-562,3861,0.53,-0.71,-39.27,0.47,-5.62,38.61,-6.44,0.50,33.64,3.80,0.07,15.97
2,-15,-662,53,-656,3891,0.49,-0.73,-39.38,0.53,-6.56,38.91,-6.46,0.47,33.80,4.09,0.19,11.35
16,-19,-650,98,-660,3939,0.53,-0.77,-39.41,0.98,-6.60,39.39,-6.47,0.44,33.96,3.80,0.30,10.29
12,-12,-582,115,-715,3926,0.55,-0.77,-39.02,1.15,-7.15,39.26,-6.49,0.41,34.11,3.89,0.18,4.93
2,-10,-576,98,-665,3873,0.51,-0.75,-38.63,0.98,-6.65,38.73,-6.50,0.38,34.27,4.11,0.15,4.81
9,-30,-595,80,-529,3939,0.51,-0.86,-38.39,0.80,-5.29,39.39,-6.51,0.35,34.42,3.97,0.61,6.66
15,-22,-591,46,-468,3880,0.55,-0.91,-38.16,0.46,-4.68,38.80,-6.52,0.31,34.57,3.85,0.49,6.55
11,-10,-546,-176,-397,3870,0.57,-0.88,-37.67,-1.76,-3.97,38.70,-6.51,0.31,34.72,3.92,0.24,3.24
9,-22,-486,-204,-385,3892,0.56,-0.92,-36.87,-2.04,-3.85,38.92,-6.50,0.30,34.86,3.96,0.50,-1.01
10,-7,-378,-226,-329,3915,0.57,-0.87,-35.49,-2.26,-3.29,39.15,-6.49,0.30,35.00,3.93,0.18,-8.71
9,-6,-354,-222,-322,3883,0.57,-0.82,-34.10,-2.22,-3.22,38.83,-6.48,0.30,35.14,3.94,0.15,-9.28
12,-9,-310,-137,-535,3907,0.58,-0.80,-32.58,-1.37,-5.35,39.07,-6.49,0.29,35.27,3.88,0.21,-11.41
8,-15,-309,-96,-605,3872,0.57,-0.81,-31.21,-0.96,-6.05,38.72,-6.51,0.28,35.39,3.98,0.34,-10.05
2,-8,-315,82,-549,3845,0.53,-0.78,-30.01,0.82,-5.49,38.45,-6.52,0.26,35.51,4.12,0.21,-8.28
8,-7,-324,115,-555,3954,0.52,-0.74,-28.98,1.15,-5.55,39.54,-6.53,0.23,35.63,4.00,0.20,-6.45
10,-7,-311,46,-431,3948,0.53,-0.71,-27.98,0.46,-4.31,39.48,-6.52,0.19,35.74,3.95,0.21,-6.50
4,-7,-305,34,-495,3902,0.50,-0.68,-27.05,0.34,-4.95,39.02,-6.53,0.16,35.84,4.09,0.22,-6.02
5,-8,-277,-105,-439,3924,0.48,-0.66,-26.03,-1.05,-4.39,39.24,-6.53,0.17,35.95,4.07,0.23,-7.33
6,-6,-259,-70,-402,3919,0.47,-0.63,-25.01,-0.70,-4.02,39.19,-6.52,0.17,36.05,4.05,0.18,-7.78
2,-6,-254,-61,-476,3962,0.44,-0.61,-24.06,-0.61,-4.76,39.62,-6.52,0.17,36.14,4.14,0.17,-7.21
-6,-10,-247,-46,-478,3882,0.36,-0.61,-23.16,-0.46,-4.78,38.82,-6.53,0.17,36.23,4.34,0.26,-6.86
3,-22,-224,-31,-479,3784,0.34,-0.68,-22.21,-0.31,-4.79,37.84,-6.55,0.17,36.32,4.17,0.52,-7.81
-7,-27,-221,14,-504,3888,0.26,-0.78,-21.34,0.14,-5.04,38.88,-6.56,0.15,36.41,4.40,0.66,-7.14
8,-3,-208,-1,-458,3917,0.29,-0.72,-20.47,-0.01,-4.58,39.17,-6.58,0.12,36.49,4.10,0.18,-7.34
4,-10,-207,-9,-468,3930,0.28,-0.71,-19.69,-0.09,-4.68,39.30,-6.59,0.11,36.57,4.19,0.32,-6.60
2,-8,-197,8,-438,3921,0.27,-0.68,-18.92,0.08,-4.38,39.21,-6.58,0.08,36.64,4.23,0.29,-6.64
10,-8,-194,-74,-514,3840,0.30,-0.66,-18.21,-0.74,-5.14,38.40,-6.59,0.09,36.71,4.06,0.29,-6.15
1,-5,-217,86,-539,3919,0.28,-0.63,-17.71,0.86,-5.39,39.19,-6.60,0.06,36.78,4.26,0.23,-3.68
-5,-16,-238,157,-500,3919,0.22,-0.66,-17.39,1.57,-5.00,39.19,-6.61,0.03,36.85,4.40,0.48,-1.57
1,-13,-277,23,-666,3854,0.20,-0.68,-17.34,0.23,-6.66,38.54,-6.62,0.02,36.92,4.30,0.44,1.78
1,-7,-288,-1,-645,3910,0.19,-0.65,-17.37,-0.01,-6.45,39.10,-6.64,0.01,36.99,4.31,0.31,2.68
-2,3,-326,65,-705,3889,0.16,-0.57,-17.62,0.65,-7.05,38.89,-6.66,-0.00,37.06,4.39,0.10,5.63
4,-14,-353,56,-719,3938,0.17,-0.60,-18.01,0.56,-7.19,39.38,-6.68,-0.02,37.13,4.28,0.46,7.49
-3,-49,-426,116,-642,3973,0.13,-0.84,-18.81,1.16,-6.42,39.73,-6.69,-0.04,37.20,4.44,1.25,12.83
26,-68,-422,-30,-462,3941,0.28,-1.17,-19.50,-0.30,-4.62,39.41,-6.69,-0.04,37.28,3.81,1.73,11.75
5,-23,-444,1,-229,3913,0.28,-1.19,-20.26,0.01,-2.29,39.13,-6.67,-0.05,37.36,4.22,0.83,12.80
6,-17,-426,-20,-148,3977,0.29,-1.18,-20.83,-0.20,-1.48,39.77,-6.65,-0.06,37.44,4.19,0.71,10.66
3,-18,-368,-255,-156,3860,0.28,-1.17,-20.99,-2.55,-1.56,38.60,-6.64,-0.07,37.53,4.24,0.73,5.57
10,-8,-355,-205,-181,3982,0.31,-1.10,-21.06,-2.05,-1.81,39.82,-6.62,-0.07,37.61,4.08,0.51,4.39
5,-16,-332,-235,-303,3942,0.31,-1.09,-20.98,-2.35,-3.03,39.42,-6.61,-0.07,37.69,4.18,0.67,2.52
14,6,-326,-231,-301,3891,0.36,-0.94,-20.87,-2.31,-3.01,38.91,-6.60,-0.07,37.77,3.97,0.18,2.12
11,-12,-278,-228,-488,3950,0.40,-0.92,-20.48,-2.28,-4.88,39.50,-6.60,-0.06,37.86,4.02,0.54,-1.54
4,-5,-270,-183,-437,3876,0.38,-0.86,-20.08,-1.83,-4.37,38.76,-6.59,-0.05,37.93,4.17,0.37,-1.80
5,-8,-261,-40,-394,3898,0.37,-0.82,-19.66,-0.40,-3.94,38.98,-6.58,-0.06,38.01,4.14,0.42,-2.13
3,-6,-264,-47,-403,3926,0.35,-0.78,-19.31,-0.47,-4.03,39.26,-6.56,-0.05,38.09,4.18,0.37,-1.50
4,-7,-268,-26,-319,3941,0.34,-0.74,-19.01,-0.26,-3.19,39.41,-6.55,-0.06,38.16,4.15,0.39,-0.86
9,-6,-270,-63,-361,3917,0.36,-0.70,-18.76,-0.63,-3.61,39.17,-6.53,-0.06,38.24,4.03,0.36,-0.43
7,-7,-291,-50,-365,3968,0.37,-0.68,-18.66,-0.50,-3.65,39.68,-6.51,-0.06,38.31,4.05,0.37,1.45
0,-1,-313,-9,-394,3881,0.33,-0.61,-18.70,-0.09,-3.94,38.81,-6.49,-0.07,38.39,4.19,0.23,3.26
11,-2,-363,-45,-412,3923,0.37,-0.57,-19.04,-0.45,-4.12,39.23,-6.48,-0.07,38.46,3.95,0.24,7.13
8,-15,-378,-38,-420,3929,0.38,-0.60,-19.45,-0.38,-4.20,39.29,-6.47,-0.06,38.54,4.00,0.51,7.97
7,-8,-420,-11,-357,3915,0.38,-0.59,-20.06,-0.11,-3.57,39.15,-6.45,-0.07,38.62,4.01,0.37,10.86
4,-6,-422,-38,-397,3929,0.37,-0.57,-20.63,-0.38,-3.97,39.29,-6.44,-0.07,38.70,4.07,0.32,10.42
6,-2,-428,-22,-374,3966,0.37,-0.52,-21.18,-0.22,-3.74,39.66,-6.42,-0.07,38.78,4.01,0.23,10.34
11,-11,-433,-42,-427,3926,0.40,-0.54,-21.70,-0.42,-4.27,39.26,-6.41,-0.07,38.87,3.90,0.42,10.21
12,-12,-472,58,-433,3895,0.43,-0.56,-22.41,0.58,-4.33,38.95,-6.41,-0.10,38.96,3.87,0.46,12.75
24,-6,-482,48,-452,3956,0.54,-0.54,-23.11,0.48,-4.52,39.56,-6.41,-0.13,39.05,3.59,0.35,12.85
5,-11,-473,-75,-413,4002,0.51,-0.55,-23.68,-0.75,-4.13,40.02,-6.40,-0.13,39.14,3.98,0.46,11.47
9,-18,-466,-161,-542,3879,0.52,-0.61,-24.16,-1.61,-5.42,38.79,-6.41,-0.12,39.24,3.90,0.61,10.37
0,-12,-463,-131,-472,3967,0.46,-0.62,-24.57,-1.31,-4.72,39.67,-6.41,-0.12,39.34,4.10,0.49,9.67
4,-12,-452,-64,-458,3890,0.44,-0.63,-24.87,-0.64,-4.58,38.90,-6.41,-0.11,39.44,4.03,0.49,8.41
5,-11,-442,-74,-519,3946,0.43,-0.63,-25.08,-0.74,-5.19,39.46,-6.42,-0.12,39.54,4.02,0.47,7.34
-2,-11,-425,-151,-499,3950,0.37,-0.64,-25.16,-1.51,-4.99,39.50,-6.42,-0.11,39.64,4.18,0.47,5.80
7,-5,-373,-7,-437,3930,0.38,-0.60,-24.92,-0.07,-4.37,39.30,-6.42,-0.11,39.73,3.99,0.34,1.64
2,-6,-362,1,-420,3872,0.35,-0.58,-24.64,0.01,-4.20,38.72,-6.40,-0.11,39.83,4.09,0.36,1.00
3,-11,-322,-60,-528,3895,0.34,-0.59,-24.14,-0.60,-5.28,38.95,-6.41,-0.12,39.93,4.08,0.46,-1.87
4,-4,-307,-17,-474,3910,0.33,-0.55,-23.60,-0.17,-4.74,39.10,-6.42,-0.12,40.02,4.07,0.31,-2.58
1,-3,-297,-48,-586,3952,0.30,-0.52,-23.05,-0.48,-5.86,39.52,-6.44,-0.12,40.11,4.15,0.28,-2.85
5,-4,-311,47,-564,3887,0.30,-0.49,-22.64,0.47,-5.64,38.87,-6.46,-0.14,40.20,4.08,0.31,-1.24
9,-3,-335,33,-483,3918,0.33,-0.46,-22.42,0.33,-4.83,39.18,-6.47,-0.16,40.29,4.00,0.29,1.02
0,-9,-331,87,-443,3910,0.29,-0.47,-22.20,0.87,-4.43,39.10,-6.47,-0.19,40.38,4.19,0.44,0.90
3,-6,-323,-7,-523,3889,0.28,-0.46,-21.95,-0.07,-5.23,38.89,-6.48,-0.20,40.47,4.14,0.38,0.48
3,0,-326,-64,-480,3911,0.27,-0.41,-21.74,-0.64,-4.80,39.11,-6.49,-0.20,40.55,4.15,0.24,0.95
6,-3,-341,-66,-517,3932,0.28,-0.39,-21.65,-0.66,-5.17,39.32,-6.50,-0.19,40.64,4.09,0.29,2.31
3,-12,-346,-72,-547,3905,0.27,-0.42,-21.59,-0.72,-5.47,39.05,-6.51,-0.19,40.72,4.16,0.49,2.78
5,-8,-348,-113,-581,3905,0.28,-0.43,-21.56,-1.13,-5.81,39.05,-6.53,-0.19,40.81,4.13,0.41,2.98
6,-12,-350,-102,-602,3908,0.28,-0.46,-21.54,-1.02,-6.02,39.08,-6.54,-0.19,40.89,4.12,0.50,3.17
4,-8,-297,-181,-442,3890,0.28,-0.46,-21.19,-1.81,-4.42,38.90,-6.54,-0.19,40.98,4.16,0.41,-0.97
4,-6,-251,-222,-392,3952,0.28,-0.45,-20.61,-2.22,-3.92,39.52,-6.53,-0.18,41.06,4.15,0.36,-4.25
4,-2,-134,-158,-280,3935,0.27,-0.42,-19.36,-1.58,-2.80,39.35,-6.52,-0.18,41.14,4.15,0.27,-12.85
7,2,-97,-105,-314,3917,0.29,-0.37,-18.02,-1.05,-3.14,39.17,-6.50,-0.17,41.21,4.07,0.17,-14.57
1,1,-41,-31,-427,3926,0.27,-0.32,-16.47,-0.31,-4.27,39.26,-6.49,-0.17,41.27,4.19,0.18,-17.68
-2,2,-32,-44,-378,3918,0.23,-0.28,-15.02,-0.44,-3.78,39.18,-6.48,-0.16,41.33,4.25,0.14,-16.91
-2,10,-22,-42,-411,3910,0.19,-0.19,-13.65,-0.42,-4.11,39.10,-6.47,-0.15,41.39,4.26,-0.05,-16.31
-4,13,-19,-40,-394,3898,0.15,-0.09,-12.40,-0.40,-3.94,38.98,-6.45,-0.15,41.44,4.30,-0.14,-15.25
2,21,-27,-29,-446,3955,0.15,0.05,-11.32,-0.29,-4.46,39.55,-6.45,-0.13,41.48,4.18,-0.35,-13.44
2,15,-31,-4,-488,3935,0.14,0.13,-10.38,-0.04,-4.88,39.35,-6.47,-0.13,41.52,4.19,-0.25,-12.10
-7,13,-3,-76,-518,3895,0.09,0.20,-9.36,-0.76,-5.18,38.95,-6.48,-0.12,41.56,4.40,-0.24,-13.40
-4,13,-1,-56,-483,3921,0.05,0.26,-8.43,-0.56,-4.83,39.21,-6.49,-0.11,41.59,4.35,-0.26,-12.59
6,12,-4,28,-439,3906,0.08,0.31,-7.61,0.28,-4.39,39.06,-6.49,-0.13,41.62,4.14,-0.24,-11.47
6,1,-15,20,-400,3963,0.11,0.28,-6.94,0.20,-4.00,39.63,-6.47,-0.13,41.65,4.12,-0.01,-9.83
10,-31,-99,49,-146,3955,0.16,0.06,-6.85,0.49,-1.46,39.55,-6.45,-0.14,41.68,4.01,0.70,-2.62
7,-28,-122,42,-104,3863,0.19,-0.11,-6.91,0.42,-1.04,38.63,-6.43,-0.14,41.71,4.05,0.70,-0.74
6,-11,-251,-28,-169,3892,0.21,-0.17,-7.75,-0.28,-1.69,38.92,-6.41,-0.15,41.74,4.05,0.37,9.30
10,-8,-290,-74,-253,3917,0.25,-0.20,-8.74,-0.74,-2.53,39.17,-6.39,-0.14,41.77,3.95,0.31,11.55
8,-12,-396,-123,-404,3860,0.27,-0.25,-10.29,-1.23,-4.04,38.60,-6.39,-0.13,41.81,3.98,0.40,18.90
18,-14,-415,-147,-461,3919,0.35,-0.31,-11.79,-1.47,-4.61,39.19,-6.39,-0.12,41.86,3.75,0.45,18.91
11,-18,-457,-162,-607,4013,0.39,-0.39,-13.40,-1.62,-6.07,40.13,-6.40,-0.11,41.91,3.89,0.55,20.00
10,-21,-454,-54,-587,3861,0.41,-0.48,-14.83,-0.54,-5.87,38.61,-6.41,-0.12,41.97,3.92,0.63,18.99
4,-20,-397,39,-509,3865,0.39,-0.56,-15.77,0.39,-5.09,38.65,-6.43,-0.13,42.03,4.06,0.64,13.16
7,-11,-368,56,-464,3916,0.40,-0.57,-16.43,0.56,-4.64,39.16,-6.44,-0.16,42.10,4.00,0.48,9.99
5,-6,-274,-116,-508,3954,0.39,-0.55,-16.46,-1.16,-5.08,39.54,-6.44,-0.15,42.16,4.04,0.37,1.99
1,-8,-245,-129,-484,3918,0.35,-0.54,-16.31,-1.29,-4.84,39.18,-6.45,-0.14,42.23,4.14,0.40,-0.31
6,-8,-196,-201,-476,3975,0.35,-0.54,-15.88,-2.01,-4.76,39.75,-6.45,-0.13,42.29,4.04,0.40,-4.01
6,-4,-190,-158,-486,3923,0.36,-0.51,-15.45,-1.58,-4.86,39.23,-6.45,-0.12,42.35,4.04,0.30,-4.07
5,0,-169,-88,-464,3958,0.35,-0.46,-14.93,-0.88,-4.64,39.58,-6.45,-0.12,42.41,4.06,0.20,-5.31
5,-3,-166,-85,-482,3867,0.35,-0.43,-14.45,-0.85,-4.82,38.67,-6.46,-0.11,42.47,4.07,0.25,-5.06
-1,-2,-147,-79,-521,3849,0.31,-0.40,-13.90,-0.79,-5.21,38.49,-6.47,-0.10,42.52,4.21,0.22,-6.10
5,-3,-143,-59,-540,3967,0.31,-0.38,-13.39,-0.59,-5.40,39.67,-6.48,-0.10,42.58,4.09,0.23,-5.89
2,-1,-121,-65,-541,3956,0.29,-0.34,-12.79,-0.65,-5.41,39.56,-6.50,-0.09,42.63,4.17,0.18,-7.12
1,-4,-118,-76,-537,3906,0.26,-0.33,-12.23,-0.76,-5.37,39.06,-6.51,-0.09,42.68,4.20,0.23,-6.79
2,-3,-58,27,-524,3893,0.25,-0.32,-11.36,0.27,-5.24,38.93,-6.52,-0.10,42.72,4.20,0.21,-10.96
1,-4,-45,58,-571,3926,0.23,-0.31,-10.50,0.58,-5.71,39.26,-6.54,-0.11,42.76,4.23,0.24,-11.15
0,-1,-10,-44,-471,3922,0.21,-0.29,-9.51,-0.44,-4.71,39.22,-6.55,-0.10,42.80,4.26,0.17,-13.07
-2,-5,-10,-38,-448,3919,0.18,-0.29,-8.62,-0.38,-4.48,39.19,-6.54,-0.09,42.83,4.31,0.24,-12.13
-1,2,-1,-44,-432,3924,0.15,-0.25,-7.76,-0.44,-4.32,39.24,-6.54,-0.08,42.86,4.29,0.08,-11.99
-3,0,0,-48,-424,3933,0.12,-0.22,-6.99,-0.48,-4.24,39.33,-6.53,-0.06,42.89,4.34,0.10,-11.26
1,3,-1,-44,-444,3905,0.11,-0.18,-6.29,-0.44,-4.44,39.05,-6.53,-0.05,42.92,4.26,0.02,-10.44
1,2,-1,-55,-429,3913,0.11,-0.15,-5.67,-0.55,-4.29,39.13,-6.52,-0.03,42.94,4.25,0.02,-9.78
3,3,-13,-24,-401,3921,0.11,-0.12,-5.18,-0.24,-4.01,39.21,-6.51,-0.03,42.96,4.20,-0.01,-8.25
4,5,-20,-17,-396,3917,0.13,-0.08,-4.79,-0.17,-3.96,39.17,-6.49,-0.02,42.98,4.17,-0.06,-7.24
5,3,-51,-7,-409,3905,0.15,-0.05,-4.62,-0.07,-4.09,39.05,-6.47,-0.02,43.00,4.13,-0.03,-4.44
4,2,-63,-17,-394,3878,0.16,-0.03,-4.54,-0.17,-3.94,38.78,-6.45,-0.02,43.02,4.13,-0.02,-3.34
3,-3,-105,27,-354,3955,0.16,-0.05,-4.73,0.27,-3.54,39.55,-6.43,-0.02,43.03,4.14,0.09,0.02
5,-2,-116,97,-327,3895,0.17,-0.06,-4.96,0.97,-3.27,38.95,-6.42,-0.04,43.05,4.09,0.08,0.70
-1,-1,-183,74,-294,3887,0.15,-0.06,-5.58,0.74,-2.94,38.87,-6.40,-0.05,43.08,4.20,0.07,5.72
4,0,-210,52,-268,3876,0.16,-0.05,-6.31,0.52,-2.68,38.76,-6.38,-0.06,43.10,4.09,0.05,7.24
7,-2,-268,-13,-237,3850,0.19,-0.06,-7.31,-0.13,-2.37,38.50,-6.37,-0.06,43.13,4.01,0.10,11.08
5,-4,-298,-57,-241,3975,0.20,-0.08,-8.40,-0.57,-2.41,39.75,-6.35,-0.06,43.16,4.03,0.14,12.47
2,-5,-327,-141,-226,3960,0.19,-0.10,-9.55,-1.41,-2.26,39.60,-6.33,-0.05,43.20,4.09,0.16,13.70
11,-1,-336,-130,-250,3897,0.24,-0.10,-10.65,-1.30,-2.50,38.97,-6.32,-0.05,43.24,3.88,0.08,13.30
7,-9,-403,-74,-289,3932,0.26,-0.14,-12.04,-0.74,-2.89,39.32,-6.30,-0.04,43.29,3.94,0.25,17.50
7,-10,-422,-90,-299,3804,0.27,-0.19,-13.41,-0.90,-2.99,38.04,-6.28,-0.04,43.35,3.93,0.28,17.65
12,-1,-475,-115,-325,3813,0.32,-0.17,-14.97,-1.15,-3.25,38.13,-6.27,-0.03,43.40,3.81,0.09,20.00
8,-22,-490,-119,-300,4036,0.34,-0.29,-16.46,-1.19,-3.00,40.36,-6.25,-0.03,43.47,3.87,0.55,20.00
14,-11,-534,-73,-361,4035,0.39,-0.33,-18.07,-0.73,-3.61,40.35,-6.24,-0.03,43.54,3.73,0.33,20.00
8,-20,-544,-5,-327,3951,0.40,-0.42,-19.58,-0.05,-3.27,39.51,-6.22,-0.04,43.62,3.83,0.54,20.00
11,-14,-579,33,-310,3901,0.43,-0.46,-21.16,0.33,-3.10,39.01,-6.20,-0.05,43.70,3.75,0.44,20.00
-4,-6,-599,-54,-364,3908,0.36,-0.45,-22.69,-0.54,-3.64,39.08,-6.19,-0.05,43.79,4.07,0.28,20.00
21,-15,-662,-24,-481,3944,0.45,-0.50,-24.46,-0.24,-4.81,39.44,-6.20,-0.05,43.89,3.54,0.48,20.00
4,-25,-683,-26,-507,3934,0.43,-0.60,-26.18,-0.26,-5.07,39.34,-6.22,-0.06,43.99,3.90,0.71,20.00
8,-21,-701,-162,-519,3981,0.44,-0.67,-27.84,-1.62,-5.19,39.81,-6.22,-0.06,44.10,3.82,0.65,20.00
11,-19,-693,-166,-547,3969,0.46,-0.72,-29.28,-1.66,-5.47,39.69,-6.23,-0.06,44.22,3.76,0.62,20.00
7,-22,-661,-140,-653,3939,0.46,-0.78,-30.39,-1.40,-6.53,39.39,-6.24,-0.07,44.34,3.85,0.70,19.83
8,-18,-650,-109,-627,3832,0.46,-0.81,-31.31,-1.09,-6.27,38.32,-6.26,-0.07,44.47,3.84,0.64,17.91
9,-5,-588,-127,-627,3759,0.47,-0.76,-31.77,-1.27,-6.27,37.59,-6.27,-0.08,44.59,3.83,0.36,12.16
8,-9,-555,-178,-657,3893,0.47,-0.74,-31.98,-1.78,-6.57,38.93,-6.28,-0.09,44.72,3.86,0.44,9.14
18,2,-418,-191,-682,3906,0.53,-0.65,-31.33,-1.91,-6.82,39.06,-6.29,-0.09,44.84,3.64,0.20,-1.80
11,2,-339,-184,-642,3917,0.55,-0.58,-30.26,-1.84,-6.42,39.17,-6.31,-0.10,44.96,3.79,0.18,-7.37
8,4,-254,-83,-529,3944,0.54,-0.49,-28.79,-0.83,-5.29,39.44,-6.32,-0.10,45.08,3.86,0.12,-13.02
4,6,-245,-71,-476,3910,0.51,-0.41,-27.40,-0.71,-4.76,39.10,-6.32,-0.10,45.19,3.95,0.05,-12.33
3,65,-268,-615,-527,3775,0.48,0.03,-26.30,-6.15,-5.27,37.75,-6.32,-0.09,45.29,3.98,-1.27,-9.22
-12,32,-178,-397,-581,3819,0.36,0.22,-24.75,-3.97,-5.81,38.19,-6.33,-0.08,45.39,4.32,-0.66,-15.22
8,17,-506,176,-370,3864,0.37,0.30,-25.37,1.76,-3.70,38.64,-6.32,-0.11,45.49,3.91,-0.36,11.92
7,4,-544,94,-482,4003,0.38,0.30,-26.15,0.94,-4.82,40.03,-6.33,-0.14,45.59,3.93,-0.07,14.30
15,-10,-449,44,-535,3997,0.43,0.21,-26.27,0.44,-5.35,39.97,-6.34,-0.15,45.70,3.76,0.25,6.11
3,-8,-385,10,-561,3892,0.41,0.14,-25.99,0.10,-5.61,38.92,-6.36,-0.16,45.80,4.03,0.23,0.97
4,-6,-202,-78,-484,3934,0.39,0.09,-24.63,-0.78,-4.84,39.34,-6.37,-0.16,45.90,4.01,0.20,-13.09
6,-8,-192,-119,-465,3953,0.39,0.03,-23.33,-1.19,-4.65,39.53,-6.37,-0.15,45.99,3.97,0.25,-12.58
-3,2,-247,-162,-582,3896,0.33,0.04,-22.51,-1.62,-5.82,38.96,-6.38,-0.15,46.08,4.18,0.05,-7.05
0,-1,-274,-137,-513,3871,0.30,0.03,-21.93,-1.37,-5.13,38.71,-6.38,-0.14,46.17,4.13,0.10,-4.16
8,0,-368,-99,-530,3924,0.32,0.03,-21.98,-0.99,-5.30,39.24,-6.39,-0.14,46.26,3.97,0.08,3.74
1,-3,-390,-108,-478,3951,0.29,0.00,-22.16,-1.08,-4.78,39.51,-6.40,-0.13,46.34,4.12,0.14,5.40
-2,-11,-390,-62,-469,3903,0.25,-0.06,-22.32,-0.62,-4.69,39.03,-6.40,-0.12,46.43,4.20,0.32,5.22
13,-8,-403,-24,-488,3879,0.30,-0.11,-22.55,-0.24,-4.88,38.79,-6.42,-0.12,46.52,3.89,0.27,6.08
10,-13,-487,-40,-531,3896,0.33,-0.17,-23.27,-0.40,-5.31,38.96,-6.43,-0.12,46.61,3.95,0.39,12.43
2,-11,-513,-49,-404,3885,0.31,-0.22,-24.07,-0.49,-4.04,38.85,-6.42,-0.12,46.71,4.11,0.36,13.77
8,-12,-482,41,-187,3966,0.33,-0.27,-24.60,0.41,-1.87,39.66,-6.40,-0.14,46.81,3.97,0.41,10.57
3,-3,-439,0,-254,3929,0.32,-0.27,-24.82,0.00,-2.54,39.29,-6.38,-0.15,46.91,4.07,0.23,6.69
1,-6,-307,-87,-325,3869,0.29,-0.28,-24.21,-0.87,-3.25,38.69,-6.37,-0.15,47.00,4.10,0.29,-3.86
5,-9,-294,-145,-388,3900,0.29,-0.30,-23.58,-1.45,-3.88,39.00,-6.36,-0.14,47.10,4.02,0.36,-4.30
7,-5,-291,-139,-357,3911,0.31,-0.30,-23.00,-1.39,-3.57,39.11,-6.35,-0.14,47.19,3.97,0.27,-3.95
7,7,-296,-100,-412,3904,0.32,-0.23,-22.51,-1.00,-4.12,39.04,-6.35,-0.13,47.28,3.96,0.00,-3.01
3,16,-291,33,-534,3955,0.30,-0.11,-22.03,0.33,-5.34,39.55,-6.36,-0.14,47.36,4.06,-0.20,-2.94
-2,7,-281,31,-560,3955,0.26,-0.06,-21.54,0.31,-5.60,39.55,-6.38,-0.16,47.45,4.18,-0.02,-3.27
2,-7,-299,-23,-583,3942,0.25,-0.09,-21.21,-0.23,-5.83,39.42,-6.40,-0.16,47.53,4.11,0.27,-1.41
1,-10,-317,-7,-648,3883,0.23,-0.14,-21.02,-0.07,-6.48,38.83,-6.41,-0.17,47.62,4.15,0.35,0.31
13,-8,-343,-17,-474,3919,0.29,-0.18,-21.01,-0.17,-4.74,39.19,-6.43,-0.17,47.70,3.90,0.32,2.52
-11,-5,-313,-16,-403,3982,0.19,-0.19,-20.82,-0.16,-4.03,39.82,-6.41,-0.17,47.78,4.40,0.27,0.17
-1,-11,-257,-35,-503,3848,0.16,-0.24,-20.31,-0.35,-5.03,38.48,-6.42,-0.17,47.86,4.21,0.40,-4.04
3,-7,-270,-101,-489,3937,0.17,-0.26,-19.92,-1.01,-4.89,39.37,-6.43,-0.16,47.94,4.14,0.32,-2.54
0,-19,-299,-77,-334,3915,0.15,-0.35,-19.75,-0.77,-3.34,39.15,-6.41,-0.16,48.02,4.19,0.59,0.09
9,-3,-306,-93,-380,3889,0.19,-0.33,-19.65,-0.93,-3.80,38.89,-6.40,-0.15,48.10,3.99,0.25,0.79
4,-4,-279,-52,-257,3942,0.20,-0.32,-19.38,-0.52,-2.57,39.42,-6.39,-0.16,48.18,4.08,0.27,-1.22
-4,-11,-272,-2,-333,3924,0.15,-0.36,-19.10,-0.02,-3.33,39.24,-6.37,-0.17,48.25,4.24,0.43,-1.53
4,-12,-293,-148,-502,3886,0.16,-0.40,-18.98,-1.48,-5.02,38.86,-6.37,-0.16,48.33,4.08,0.46,0.38
12,2,-295,-197,-458,3888,0.22,-0.34,-18.88,-1.97,-4.58,38.88,-6.37,-0.15,48.40,3.90,0.15,0.64
17,9,-248,-139,-439,3936,0.30,-0.25,-18.51,-1.39,-4.39,39.36,-6.37,-0.14,48.48,3.78,-0.02,-2.95
15,6,-225,-44,-433,3953,0.36,-0.19,-18.03,-0.44,-4.33,39.53,-6.37,-0.13,48.55,3.80,0.02,-4.40
6,3,-175,-48,-428,3917,0.36,-0.15,-17.29,-0.48,-4.28,39.17,-6.36,-0.12,48.62,3.98,0.06,-7.86
4,8,-167,-58,-373,3944,0.35,-0.09,-16.58,-0.58,-3.73,39.44,-6.35,-0.12,48.68,4.01,-0.06,-7.79
-6,-3,-170,10,-441,3955,0.28,-0.10,-15.96,0.10,-4.41,39.55,-6.36,-0.14,48.75,4.24,0.18,-6.89
-1,-4,-183,6,-388,3966,0.24,-0.11,-15.48,0.06,-3.88,39.66,-6.34,-0.15,48.81,4.14,0.21,-5.28
13,1,-251,-213,-374,3853,0.30,-0.10,-15.46,-2.13,-3.74,38.53,-6.33,-0.14,48.87,3.83,0.10,0.49
-11,-11,-279,-180,-379,3878,0.20,-0.15,-15.62,-1.80,-3.79,38.78,-6.33,-0.13,48.93,4.34,0.35,2.69
-1,-8,-337,-91,-361,3895,0.18,-0.19,-16.11,-0.91,-3.61,38.95,-6.31,-0.12,49.00,4.14,0.29,7.08
6,-7,-350,-131,-394,3921,0.19,-0.21,-16.64,-1.31,-3.94,39.21,-6.31,-0.11,49.06,3.99,0.27,7.62
2,-9,-361,-62,-379,3929,0.19,-0.25,-17.18,-0.62,-3.79,39.29,-6.30,-0.10,49.13,4.06,0.32,7.98
19,-6,-341,-90,-385,3929,0.28,-0.26,-17.54,-0.90,-3.85,39.29,-6.29,-0.10,49.20,3.69,0.26,5.89
4,-3,-348,-165,-372,3863,0.28,-0.25,-17.91,-1.65,-3.72,38.63,-6.28,-0.09,49.27,3.99,0.19,6.09
11,-4,-368,-161,-348,3962,0.32,-0.25,-18.36,-1.61,-3.48,39.62,-6.27,-0.08,49.34,3.83,0.20,7.29
3,-9,-395,-109,-421,3899,0.31,-0.28,-18.93,-1.09,-4.21,38.99,-6.27,-0.07,49.42,3.99,0.31,8.97
5,-3,-400,-111,-430,3950,0.31,-0.27,-19.48,-1.11,-4.30,39.50,-6.27,-0.06,49.50,3.95,0.18,8.81
10,-14,-419,-25,-453,3989,0.34,-0.33,-20.09,-0.25,-4.53,39.89,-6.27,-0.06,49.58,3.84,0.41,9.76
-2,-7,-417,8,-433,3855,0.29,-0.34,-20.62,0.08,-4.33,38.55,-6.29,-0.07,49.66,4.11,0.28,9.02
5,-16,-458,-31,-433,3890,0.29,-0.40,-21.36,-0.31,-4.33,38.90,-6.29,-0.07,49.74,3.97,0.48,11.71
4,-21,-474,-70,-431,3915,0.29,-0.49,-22.11,-0.70,-4.31,39.15,-6.29,-0.06,49.83,3.99,0.60,12.26
11,-18,-559,-81,-472,3931,0.33,-0.55,-23.31,-0.81,-4.72,39.31,-6.29,-0.06,49.92,3.84,0.55,18.18
7,-21,-608,-47,-561,3886,0.34,-0.62,-24.69,-0.47,-5.61,38.86,-6.31,-0.06,50.02,3.93,0.64,20.00
8,-28,-742,-206,-492,3914,0.35,-0.73,-26.75,-2.06,-4.92,39.14,-6.31,-0.06,50.13,3.91,0.81,20.00
4,-20,-762,-185,-416,3904,0.34,-0.78,-28.72,-1.85,-4.16,39.04,-6.31,-0.06,50.24,3.99,0.66,20.00
27,-17,-749,16,-390,3988,0.47,-0.81,-30.42,0.16,-3.90,39.88,-6.29,-0.08,50.36,3.47,0.62,20.00
20,-13,-716,3,-324,3925,0.55,-0.81,-31.74,0.03,-3.24,39.25,-6.27,-0.09,50.49,3.58,0.55,20.00
9,-11,-582,-33,-469,3863,0.55,-0.79,-32.12,-0.33,-4.69,38.63,-6.28,-0.10,50.61,3.81,0.51,10.74
0,-12,-560,-71,-500,3896,0.49,-0.79,-32.32,-0.71,-5.00,38.96,-6.29,-0.10,50.74,4.02,0.53,8.65
4,-9,-540,-38,-427,3936,0.47,-0.76,-32.38,-0.38,-4.27,39.36,-6.29,-0.10,50.87,3.94,0.46,6.88
14,-1,-568,-99,-515,3908,0.51,-0.69,-32.61,-0.99,-5.15,39.08,-6.29,-0.11,51.00,3.73,0.28,9.00
15,-5,-733,-33,-514,3944,0.55,-0.65,-33.82,-0.33,-5.14,39.44,-6.31,-0.11,51.13,3.71,0.36,20.00
16,-12,-795,-15,-449,3891,0.59,-0.66,-35.29,-0.15,-4.49,38.91,-6.32,-0.12,51.27,3.68,0.50,20.00
7,-15,-861,-91,-544,3972,0.57,-0.69,-37.01,-0.91,-5.44,39.72,-6.33,-0.12,51.42,3.88,0.57,20.00
13,-13,-868,-155,-615,3921,0.60,-0.70,-38.60,-1.55,-6.15,39.21,-6.34,-0.13,51.57,3.76,0.54,20.00
10,-17,-815,-159,-537,3903,0.60,-0.73,-39.72,-1.59,-5.37,39.03,-6.35,-0.14,51.73,3.82,0.64,20.00
6,-13,-788,-121,-500,3885,0.57,-0.74,-40.55,-1.21,-5.00,38.85,-6.35,-0.14,51.89,3.91,0.56,19.15
9,-12,-664,1,-265,3906,0.57,-0.74,-40.55,0.01,-2.65,39.06,-6.33,-0.16,52.05,3.84,0.55,8.64
6,-4,-606,-39,-267,3919,0.55,-0.69,-40.19,-0.39,-2.67,39.19,-6.31,-0.18,52.21,3.89,0.39,4.09
-3,0,-375,49,-272,3905,0.48,-0.62,-38.46,0.49,-2.72,39.05,-6.29,-0.20,52.37,4.08,0.30,-13.66
5,-3,-296,66,-308,3905,0.46,-0.58,-36.42,0.66,-3.08,39.05,-6.27,-0.23,52.51,3.91,0.37,-18.21
4,1,-171,14,-282,3916,0.44,-0.51,-33.82,0.14,-2.82,39.16,-6.25,-0.24,52.64,3.92,0.28,-20.00
1,4,-150,-27,-341,3905,0.40,-0.44,-31.35,-0.27,-3.41,39.05,-6.23,-0.25,52.77,3.98,0.20,-20.00
2,-3,-124,31,-443,3913,0.37,-0.41,-28.97,0.31,-4.43,39.13,-6.24,-0.28,52.88,3.98,0.36,-20.00
3,-1,-147,24,-452,3937,0.35,-0.38,-26.97,0.24,-4.52,39.37,-6.26,-0.29,52.99,3.97,0.32,-20.00
-1,-1,-212,-112,-536,3894,0.31,-0.34,-25.57,-1.12,-5.36,38.94,-6.27,-0.29,53.09,4.07,0.31,-13.89
-1,0,-238,-143,-541,3906,0.28,-0.31,-24.46,-1.43,-5.41,39.06,-6.28,-0.29,53.19,4.09,0.27,-10.53
4,-1,-328,-151,-465,3899,0.27,-0.28,-24.02,-1.51,-4.65,38.99,-6.28,-0.28,53.28,3.99,0.28,-2.44
4,-7,-346,-181,-450,3910,0.27,-0.30,-23.73,-1.81,-4.50,39.10,-6.28,-0.28,53.38,3.99,0.41,-0.61
12,-5,-354,-120,-339,3975,0.32,-0.30,-23.51,-1.20,-3.39,39.75,-6.27,-0.27,53.47,3.81,0.36,0.28
14,-2,-338,-79,-311,3918,0.37,-0.28,-23.22,-0.79,-3.11,39.18,-6.25,-0.27,53.56,3.74,0.30,-0.78
3,-5,-284,-77,-307,3900,0.35,-0.28,-22.63,-0.77,-3.07,39.00,-6.24,-0.27,53.65,3.96,0.36,-4.73
3,-8,-237,-36,-308,3914,0.33,-0.30,-21.82,-0.36,-3.08,39.14,-6.22,-0.27,53.74,3.95,0.43,-7.86
2,-6,-103,-73,-351,3925,0.31,-0.31,-20.26,-0.73,-3.51,39.25,-6.20,-0.27,53.82,3.97,0.39,-17.57
0,-6,-72,-79,-398,3917,0.28,-0.32,-18.68,-0.79,-3.98,39.17,-6.20,-0.26,53.90,4.01,0.38,-18.53
-4,-7,-61,-41,-363,3933,0.23,-0.33,-17.18,-0.41,-3.63,39.33,-6.18,-0.26,53.96,4.10,0.40,-17.88
-6,-6,-70,-62,-373,3944,0.17,-0.33,-15.89,-0.62,-3.73,39.44,-6.17,-0.25,54.03,4.15,0.38,-15.76
-2,-2,-114,-165,-454,3907,0.14,-0.31,-15.00,-1.65,-4.54,39.07,-6.17,-0.24,54.09,4.08,0.28,-11.09
-1,-1,-127,-162,-438,3901,0.12,-0.29,-14.27,-1.62,-4.38,39.01,-6.18,-0.23,54.14,4.06,0.25,-9.22
7,-4,-229,-150,-430,3923,0.15,-0.28,-14.24,-1.50,-4.30,39.23,-6.18,-0.22,54.20,3.89,0.30,-0.56
-4,-6,-249,-130,-466,3909,0.11,-0.29,-14.34,-1.30,-4.66,39.09,-6.18,-0.21,54.26,4.13,0.34,1.03
-1,-6,-308,-176,-380,3936,0.09,-0.30,-14.78,-1.76,-3.80,39.36,-6.18,-0.20,54.32,4.07,0.33,5.55
1,-6,-348,-132,-358,3911,0.09,-0.30,-15.43,-1.32,-3.58,39.11,-6.17,-0.19,54.38,4.03,0.33,8.26
4,-10,-396,21,-350,3908,0.11,-0.33,-16.30,0.21,-3.50,39.08,-6.15,-0.20,54.44,3.95,0.43,11.39
7,-2,-398,-42,-362,3953,0.14,-0.31,-17.10,-0.42,-3.62,39.53,-6.13,-0.20,54.51,3.87,0.26,10.71
4,-10,-383,-12,-390,3946,0.15,-0.34,-17.72,-0.12,-3.90,39.46,-6.12,-0.19,54.58,3.92,0.42,8.77
16,1,-358,-41,-371,3897,0.23,-0.30,-18.13,-0.41,-3.71,38.97,-6.11,-0.19,54.65,3.64,0.19,6.21
13,0,-304,-104,-442,3926,0.29,-0.27,-18.18,-1.04,-4.42,39.26,-6.11,-0.18,54.72,3.69,0.19,1.58
6,-6,-283,-67,-464,3927,0.30,-0.28,-18.08,-0.67,-4.64,39.27,-6.11,-0.17,54.80,3.83,0.31,-0.10
2,-4,-261,-100,-467,3927,0.28,-0.28,-17.87,-1.00,-4.67,39.27,-6.12,-0.16,54.87,3.92,0.27,-1.75
2,-7,-279,-102,-519,3898,0.26,-0.29,-17.78,-1.02,-5.19,38.98,-6.13,-0.16,54.94,3.93,0.33,-0.14
1,-17,-397,-148,-511,3954,0.24,-0.37,-18.43,-1.48,-5.11,39.54,-6.14,-0.15,55.01,3.97,0.55,9.17
-3,-19,-477,-216,-473,3911,0.20,-0.45,-19.49,-2.16,-4.73,39.11,-6.14,-0.14,55.09,4.06,0.60,14.81
-3,-29,-594,-176,-374,3882,0.16,-0.58,-21.17,-1.76,-3.74,38.82,-6.14,-0.14,55.17,4.07,0.84,20.00
6,-14,-624,-244,-483,3874,0.18,-0.61,-22.86,-2.44,-4.83,38.74,-6.14,-0.13,55.26,3.88,0.54,20.00
11,-18,-683,-145,-431,3924,0.23,-0.66,-24.74,-1.45,-4.31,39.24,-6.14,-0.13,55.36,3.77,0.63,20.00
14,-20,-687,-46,-411,3936,0.29,-0.71,-26.45,-0.46,-4.11,39.36,-6.13,-0.12,55.46,3.68,0.68,20.00
6,-13,-584,-46,-394,3961,0.30,-0.72,-27.37,-0.46,-3.94,39.61,-6.12,-0.12,55.57,3.84,0.54,15.49
8,-10,-514,1,-376,3927,0.32,-0.71,-27.77,0.01,-3.76,39.27,-6.10,-0.13,55.68,3.78,0.49,9.13
5,-8,-305,96,-404,3936,0.32,-0.69,-26.85,0.96,-4.04,39.36,-6.10,-0.17,55.79,3.84,0.46,-7.62
1,-6,-261,106,-336,3897,0.29,-0.65,-25.76,1.06,-3.36,38.97,-6.09,-0.19,55.89,3.92,0.43,-10.19
-1,-5,-252,62,-380,3901,0.26,-0.62,-24.72,0.62,-3.80,39.01,-6.07,-0.22,55.99,3.96,0.42,-9.87
-7,-1,-264,-22,-370,3905,0.19,-0.56,-23.86,-0.22,-3.70,39.05,-6.06,-0.22,56.09,4.09,0.32,-7.95
-1,-14,-330,-55,-389,3896,0.16,-0.59,-23.49,-0.55,-3.89,38.96,-6.05,-0.22,56.18,3.97,0.59,-1.97
0,-7,-344,-123,-407,3874,0.15,-0.58,-23.24,-1.23,-4.07,38.74,-6.05,-0.21,56.27,3.95,0.44,-0.52
13,-19,-360,-63,-377,3929,0.21,-0.63,-23.11,-0.63,-3.77,39.29,-6.04,-0.21,56.36,3.67,0.70,0.96
3,-22,-341,-42,-336,3908,0.21,-0.71,-22.88,-0.42,-3.36,39.08,-6.03,-0.21,56.45,3.86,0.78,-0.42
17,-22,-299,-82,-312,3888,0.29,-0.77,-22.41,-0.82,-3.12,38.88,-6.01,-0.21,56.54,3.54,0.79,-3.49
5,-21,-270,-154,-294,3881,0.29,-0.82,-21.82,-1.54,-2.94,38.81,-6.00,-0.21,56.63,3.78,0.79,-5.33
0,-16,-139,-1,-436,3948,0.26,-0.84,-20.49,-0.01,-4.36,39.48,-6.01,-0.21,56.71,3.90,0.69,-15.02
1,-14,-108,20,-462,3932,0.24,-0.84,-19.10,0.20,-4.62,39.32,-6.03,-0.22,56.78,3.89,0.66,-16.18
1,-12,-53,-91,-551,3914,0.23,-0.83,-17.51,-0.91,-5.51,39.14,-6.04,-0.22,56.85,3.91,0.61,-19.17
2,-13,-24,-165,-570,3929,0.21,-0.82,-15.90,-1.65,-5.70,39.29,-6.05,-0.22,56.92,3.90,0.63,-19.93
-5,-29,1,-86,-430,3891,0.16,-0.92,-14.31,-0.86,-4.30,38.91,-6.06,-0.21,56.97,4.05,0.98,-20.00
-7,-20,0,-96,-420,3898,0.10,-0.95,-12.88,-0.96,-4.20,38.98,-6.06,-0.20,57.02,4.11,0.80,-18.77
4,19,-8,-73,-473,3878,0.12,-0.74,-11.64,-0.73,-4.73,38.78,-6.07,-0.19,57.07,3.89,-0.06,-16.78
3,28,-14,-59,-491,3872,0.12,-0.49,-10.56,-0.59,-4.91,38.72,-6.08,-0.19,57.11,3.92,-0.31,-15.14
4,25,-57,-49,-432,3933,0.14,-0.29,-9.85,-0.49,-4.32,39.33,-6.08,-0.17,57.15,3.90,-0.31,-10.75
3,11,-72,-36,-435,3935,0.14,-0.20,-9.31,-0.36,-4.35,39.35,-6.09,-0.16,57.19,3.92,-0.06,-8.90
3,5,-145,-131,-287,3924,0.15,-0.15,-9.26,-1.31,-2.87,39.24,-6.07,-0.15,57.22,3.91,0.04,-2.67
2,1,-164,-39,-284,3925,0.14,-0.12,-9.33,-0.39,-2.84,39.25,-6.06,-0.15,57.26,3.92,0.11,-1.14
2,-5,-178,-82,-240,3901,0.14,-0.14,-9.49,-0.82,-2.40,39.01,-6.04,-0.15,57.30,3.91,0.24,-0.12
7,-2,-195,-131,-274,3932,0.17,-0.14,-9.73,-1.31,-2.74,39.32,-6.03,-0.14,57.34,3.79,0.17,1.06
0,-2,-256,-8,-298,3912,0.15,-0.14,-10.32,-0.08,-2.98,39.12,-6.01,-0.14,57.38,3.92,0.17,5.60
5,-2,-281,-34,-351,3968,0.17,-0.14,-11.00,-0.34,-3.51,39.68,-5.99,-0.13,57.42,3.81,0.17,6.99
7,-3,-315,-106,-408,3898,0.19,-0.14,-11.82,-1.06,-4.08,38.98,-5.99,-0.12,57.47,3.76,0.18,9.00
-1,-8,-303,-111,-440,3924,0.17,-0.18,-12.49,-1.11,-4.40,39.24,-5.99,-0.11,57.52,3.93,0.28,7.27
-4,-4,-288,-112,-474,3904,0.13,-0.18,-12.99,-1.12,-4.74,39.04,-6.00,-0.10,57.57,4.01,0.20,5.46
8,7,-298,-176,-489,3886,0.16,-0.12,-13.51,-1.76,-4.89,38.86,-6.01,-0.09,57.62,3.76,-0.05,5.75
2,-7,-358,-206,-450,3874,0.16,-0.15,-14.35,-2.06,-4.50,38.74,-6.01,-0.08,57.68,3.88,0.24,9.95
6,-3,-368,-104,-435,3916,0.18,-0.16,-15.16,-1.04,-4.35,39.16,-6.01,-0.07,57.74,3.80,0.15,9.93
17,4,-415,-59,-407,3953,0.27,-0.12,-16.17,-0.59,-4.07,39.53,-6.01,-0.06,57.81,3.55,-0.01,12.83
6,1,-395,-33,-455,3916,0.28,-0.10,-16.96,-0.33,-4.55,39.16,-6.02,-0.05,57.87,3.78,0.04,10.29
