gyroADC_X,gyroADC_Y,gyroADC_Z,accADC_X,accADC_Y,accADC_Z,GyroX,GyroY,GyroZ,AccX,AccY,AccZ,roll_IMU,pitch_IMU,yaw_IMU,roll_PID,pitch_PID,yaw_PID
-1,3,2,-24,-391,3835,-0.17,0.13,0.03,-0.24,-3.91,38.35,-5.44,0.80,30.99,-0.39,-0.29,-0.14
0,4,1,24,-356,3971,-0.15,0.14,0.03,0.24,-3.56,39.71,-5.43,0.79,30.99,-0.58,-0.50,-0.06
-1,3,1,-1,-315,3994,-0.14,0.14,0.03,-0.01,-3.15,39.94,-5.42,0.78,30.99,-0.29,-0.23,-0.05
-1,0,2,-112,-368,3945,-0.14,0.13,0.04,-1.12,-3.68,39.45,-5.42,0.79,30.99,-0.26,0.48,-0.13
-8,6,3,-116,-400,3918,-0.17,0.15,0.06,-1.16,-4.00,39.18,-5.42,0.81,30.99,1.39,-0.96,-0.20
-5,5,1,-88,-378,3921,-0.18,0.17,0.06,-0.88,-3.78,39.21,-5.43,0.83,30.99,0.58,-0.64,-0.03
-8,3,2,-100,-410,3965,-0.22,0.17,0.06,-1.00,-4.10,39.65,-5.44,0.85,30.99,1.22,-0.13,-0.11
-4,1,0,-48,-385,3908,-0.22,0.16,0.06,-0.48,-3.85,39.08,-5.46,0.83,30.99,0.20,0.34,0.05
0,0,0,-26,-384,3888,-0.20,0.14,0.05,-0.26,-3.84,38.88,-5.46,0.82,30.99,-0.74,0.53,0.05
5,-1,0,14,-372,3925,-0.15,0.12,0.05,0.14,-3.72,39.25,-5.46,0.80,30.99,-1.82,0.71,0.04
2,-3,-1,11,-365,3928,-0.12,0.09,0.04,0.11,-3.65,39.28,-5.46,0.78,30.99,-0.96,1.10,0.12
1,1,1,-44,-341,3930,-0.10,0.09,0.04,-0.44,-3.41,39.30,-5.44,0.78,30.98,-0.63,0.08,-0.05
5,1,0,-45,-328,3946,-0.06,0.09,0.03,-0.45,-3.28,39.46,-5.43,0.78,30.98,-1.50,0.07,0.03
2,2,1,-80,-368,3979,-0.04,0.09,0.04,-0.80,-3.68,39.79,-5.42,0.79,30.98,-0.67,-0.17,-0.05
-3,3,0,-93,-394,3952,-0.06,0.10,0.03,-0.93,-3.94,39.52,-5.43,0.81,30.98,0.55,-0.39,0.03
-10,5,-1,-83,-393,3951,-0.11,0.12,0.02,-0.83,-3.93,39.51,-5.44,0.83,30.98,2.12,-0.82,0.11
-8,6,0,-99,-404,3938,-0.15,0.14,0.02,-0.99,-4.04,39.38,-5.45,0.84,30.98,1.47,-0.99,0.02
-8,6,0,-66,-395,3940,-0.18,0.17,0.02,-0.66,-3.95,39.40,-5.47,0.85,30.98,1.35,-0.90,0.02
-11,5,0,-43,-374,3925,-0.23,0.18,0.02,-0.43,-3.74,39.25,-5.47,0.83,30.98,1.92,-0.60,0.02
-7,4,-1,-11,-350,3917,-0.25,0.19,0.01,-0.11,-3.50,39.17,-5.46,0.82,30.98,0.83,-0.32,0.09
-4,4,0,-25,-350,3932,-0.25,0.19,0.01,-0.25,-3.50,39.32,-5.45,0.80,30.98,0.07,-0.30,0.01
-2,2,1,-21,-359,3935,-0.24,0.19,0.01,-0.21,-3.59,39.35,-5.44,0.79,30.98,-0.39,0.19,-0.07
-3,2,1,-14,-365,3915,-0.23,0.18,0.02,-0.14,-3.65,39.15,-5.44,0.77,30.98,-0.11,0.16,-0.07
-1,2,1,-45,-381,3920,-0.22,0.17,0.02,-0.45,-3.81,39.20,-5.45,0.76,30.98,-0.55,0.14,-0.06
-1,2,1,-52,-388,3939,-0.20,0.17,0.03,-0.52,-3.88,39.39,-5.47,0.76,30.98,-0.50,0.12,-0.06
-3,2,0,-81,-394,3946,-0.20,0.16,0.02,-0.81,-3.94,39.46,-5.48,0.77,30.98,0.02,0.11,0.02
-3,2,-1,-86,-397,3936,-0.20,0.16,0.02,-0.86,-3.97,39.36,-5.49,0.79,30.98,0.02,0.09,0.10
-3,3,-1,-60,-385,3937,-0.20,0.16,0.01,-0.60,-3.85,39.37,-5.51,0.80,30.99,0.03,-0.16,0.09
-3,3,-1,-55,-386,3928,-0.19,0.16,0.00,-0.55,-3.86,39.28,-5.52,0.80,30.99,0.03,-0.15,0.09
-2,1,0,-20,-370,3915,-0.19,0.15,0.00,-0.20,-3.70,39.15,-5.52,0.79,30.99,-0.19,0.32,0.00
-3,2,0,-20,-356,3929,-0.19,0.15,0.00,-0.20,-3.56,39.29,-5.51,0.77,30.99,0.06,0.06,0.00
-2,1,0,-6,-342,3930,-0.18,0.14,0.00,-0.06,-3.42,39.30,-5.50,0.76,30.99,-0.17,0.28,0.00
1,1,1,-29,-357,3924,-0.16,0.13,0.01,-0.29,-3.57,39.24,-5.49,0.74,30.99,-0.84,0.25,-0.08
-2,1,2,-66,-385,3921,-0.15,0.13,0.02,-0.66,-3.85,39.21,-5.50,0.76,30.99,-0.06,0.22,-0.15
-2,3,1,-51,-385,3922,-0.15,0.13,0.02,-0.51,-3.85,39.22,-5.52,0.76,30.99,-0.05,-0.27,-0.06
-2,2,0,-70,-384,3926,-0.15,0.13,0.02,-0.70,-3.84,39.26,-5.52,0.78,30.99,-0.04,-0.02,0.02
-2,2,-1,-73,-395,3925,-0.14,0.13,0.01,-0.73,-3.95,39.25,-5.53,0.79,30.99,-0.03,-0.02,0.10
-2,1,-1,-67,-389,3918,-0.14,0.12,0.00,-0.67,-3.89,39.18,-5.55,0.81,30.99,-0.02,0.21,0.09
-1,2,-1,-53,-371,3923,-0.13,0.12,-0.00,-0.53,-3.71,39.23,-5.53,0.80,30.99,-0.25,-0.05,0.08
0,1,-1,-29,-356,3924,-0.12,0.12,-0.01,-0.29,-3.56,39.24,-5.52,0.79,30.99,-0.45,0.18,0.08
0,0,0,-30,-366,3920,-0.11,0.11,-0.01,-0.30,-3.66,39.20,-5.51,0.77,30.99,-0.41,0.39,-0.01
0,0,-1,-49,-371,3935,-0.10,0.09,-0.01,-0.49,-3.71,39.35,-5.49,0.77,30.99,-0.37,0.35,0.07
-1,0,-1,-43,-361,3928,-0.09,0.09,-0.02,-0.43,-3.61,39.28,-5.48,0.76,30.99,-0.10,0.32,0.07
0,1,0,-50,-374,3924,-0.08,0.08,-0.02,-0.50,-3.74,39.24,-5.46,0.74,30.99,-0.32,0.06,-0.01
1,0,0,-63,-381,3936,-0.07,0.07,-0.01,-0.63,-3.81,39.36,-5.47,0.76,30.99,-0.52,0.28,-0.01
0,0,0,-69,-383,3952,-0.06,0.07,-0.01,-0.69,-3.83,39.52,-5.48,0.78,30.99,-0.24,0.25,-0.01
1,0,0,-61,-372,3940,-0.05,0.06,-0.01,-0.61,-3.72,39.40,-5.47,0.79,30.99,-0.44,0.22,-0.01
-1,1,-1,-49,-374,3940,-0.05,0.06,-0.02,-0.49,-3.74,39.40,-5.46,0.78,30.99,0.06,-0.03,0.07
-1,1,-1,-49,-377,3930,-0.05,0.06,-0.02,-0.49,-3.77,39.30,-5.46,0.76,30.99,0.06,-0.03,0.07
-1,2,0,-40,-371,3929,-0.05,0.07,-0.02,-0.40,-3.71,39.29,-5.46,0.74,30.99,0.06,-0.26,-0.02
-1,2,-1,-36,-366,3923,-0.05,0.07,-0.02,-0.36,-3.66,39.23,-5.45,0.73,30.99,0.05,-0.24,0.06
-3,2,1,-41,-369,3936,-0.07,0.08,-0.01,-0.41,-3.69,39.36,-5.44,0.71,30.99,0.51,-0.22,-0.10
-2,3,1,-39,-375,3952,-0.07,0.09,-0.01,-0.39,-3.75,39.52,-5.44,0.70,30.99,0.24,-0.43,-0.09
-1,2,1,-58,-388,3937,-0.07,0.09,-0.00,-0.58,-3.88,39.37,-5.45,0.71,30.99,-0.01,-0.17,-0.08
-3,1,1,-61,-379,3934,-0.08,0.09,0.01,-0.61,-3.79,39.34,-5.46,0.73,30.99,0.45,0.08,-0.08
-2,2,1,-62,-381,3935,-0.09,0.09,0.01,-0.62,-3.81,39.35,-5.46,0.74,30.99,0.18,-0.17,-0.07
-1,2,0,-68,-384,3937,-0.08,0.09,0.01,-0.68,-3.84,39.37,-5.47,0.76,30.99,-0.06,-0.15,0.01
-1,2,0,-53,-374,3925,-0.08,0.10,0.01,-0.53,-3.74,39.25,-5.45,0.77,30.99,-0.05,-0.14,0.01
-1,0,0,-51,-375,3928,-0.08,0.09,0.01,-0.51,-3.75,39.28,-5.45,0.75,30.99,-0.04,0.33,0.01
1,-2,0,-41,-373,3939,-0.07,0.07,0.01,-0.41,-3.73,39.39,-5.45,0.73,30.99,-0.50,0.76,0.01
2,0,0,-45,-372,3935,-0.05,0.06,0.01,-0.45,-3.72,39.35,-5.44,0.72,30.99,-0.68,0.22,0.01
2,0,0,-33,-370,3943,-0.03,0.05,0.01,-0.33,-3.70,39.43,-5.43,0.70,30.99,-0.62,0.20,0.01
1,-1,0,-34,-369,3934,-0.02,0.04,0.01,-0.34,-3.69,39.34,-5.43,0.68,30.99,-0.33,0.41,0.01
0,0,0,-51,-369,3946,-0.02,0.04,0.00,-0.51,-3.69,39.46,-5.41,0.69,30.99,-0.07,0.14,0.01
-1,0,-1,-59,-372,3937,-0.02,0.03,-0.00,-0.59,-3.72,39.37,-5.41,0.71,30.99,0.17,0.13,0.08
-4,2,0,-58,-369,3939,-0.05,0.04,-0.00,-0.58,-3.69,39.39,-5.40,0.73,30.99,0.85,-0.35,-0.00
-2,2,-1,-66,-373,3949,-0.05,0.05,-0.01,-0.66,-3.73,39.49,-5.40,0.75,30.99,0.31,-0.32,0.08
-3,1,0,-54,-370,3943,-0.07,0.05,-0.01,-0.54,-3.70,39.43,-5.39,0.76,30.99,0.52,-0.06,-0.01
-2,2,1,-57,-369,3925,-0.07,0.06,0.00,-0.57,-3.69,39.25,-5.39,0.78,30.98,0.24,-0.29,-0.08
-2,2,0,-49,-381,3917,-0.08,0.07,0.00,-0.49,-3.81,39.17,-5.40,0.77,30.99,0.22,-0.26,0.00
-1,1,0,-44,-377,3923,-0.07,0.06,0.00,-0.44,-3.77,39.23,-5.41,0.75,30.99,-0.03,-0.01,0.00
0,0,0,-49,-365,3940,-0.07,0.06,0.00,-0.49,-3.65,39.40,-5.40,0.75,30.99,-0.25,0.22,0.00
-1,0,0,-53,-372,3931,-0.07,0.05,0.00,-0.53,-3.72,39.31,-5.40,0.77,30.99,0.00,0.20,0.00
-2,1,0,-56,-373,3927,-0.07,0.05,0.00,-0.56,-3.73,39.27,-5.41,0.78,30.99,0.24,-0.06,0.00
-1,1,-1,-48,-371,3941,-0.07,0.05,-0.01,-0.48,-3.71,39.41,-5.41,0.77,30.99,-0.01,-0.05,0.08
-2,1,-1,-48,-372,3926,-0.08,0.05,-0.01,-0.48,-3.72,39.26,-5.41,0.75,30.99,0.22,-0.05,0.07
-2,0,0,-61,-384,3928,-0.08,0.05,-0.01,-0.61,-3.84,39.28,-5.42,0.76,30.99,0.21,0.18,-0.01
-1,1,1,-50,-378,3935,-0.08,0.05,-0.00,-0.50,-3.78,39.35,-5.44,0.75,30.99,-0.04,-0.07,-0.09
-1,2,0,-50,-379,3940,-0.08,0.06,-0.00,-0.50,-3.79,39.40,-5.46,0.74,30.99,-0.03,-0.29,-0.00
-1,1,0,-52,-376,3950,-0.08,0.06,-0.00,-0.52,-3.76,39.50,-5.44,0.75,30.99,-0.03,-0.04,-0.00
-2,1,0,-52,-378,3942,-0.08,0.06,-0.00,-0.52,-3.78,39.42,-5.46,0.75,30.99,0.21,-0.04,-0.00
-1,1,0,-51,-370,3927,-0.08,0.06,-0.00,-0.51,-3.70,39.27,-5.44,0.75,30.99,-0.04,-0.04,-0.00
0,1,0,-53,-376,3923,-0.07,0.06,-0.00,-0.53,-3.76,39.23,-5.46,0.76,30.99,-0.26,-0.03,-0.00
0,1,0,-52,-380,3941,-0.06,0.06,-0.00,-0.52,-3.80,39.41,-5.47,0.76,30.99,-0.24,-0.03,-0.00
-1,1,0,-50,-377,3941,-0.06,0.06,-0.00,-0.50,-3.77,39.41,-5.47,0.74,30.99,0.02,-0.03,-0.00
-1,0,0,-52,-372,3937,-0.06,0.05,-0.00,-0.52,-3.72,39.37,-5.45,0.74,30.99,0.02,0.20,-0.00
0,2,0,-55,-384,3950,-0.06,0.06,-0.00,-0.55,-3.84,39.50,-5.47,0.75,30.99,-0.21,-0.28,-0.00
-1,1,0,-43,-377,3943,-0.06,0.06,-0.00,-0.43,-3.77,39.43,-5.47,0.73,30.99,0.04,-0.03,-0.00
-1,1,0,-49,-369,3931,-0.06,0.06,-0.00,-0.49,-3.69,39.31,-5.45,0.73,30.99,0.04,-0.03,-0.00
0,0,1,-50,-374,3938,-0.05,0.05,0.01,-0.50,-3.74,39.38,-5.43,0.73,30.99,-0.19,0.20,-0.08
0,1,0,-48,-364,3943,-0.05,0.05,0.00,-0.48,-3.64,39.43,-5.41,0.72,30.99,-0.17,-0.05,0.01
0,0,-1,-62,-368,3929,-0.04,0.05,-0.00,-0.62,-3.68,39.29,-5.41,0.74,30.99,-0.16,0.18,0.08
0,1,0,-68,-370,3931,-0.04,0.05,-0.00,-0.68,-3.70,39.31,-5.41,0.76,30.99,-0.14,-0.07,-0.00
-2,2,0,-54,-383,3942,-0.05,0.06,-0.00,-0.54,-3.83,39.42,-5.42,0.76,30.99,0.34,-0.29,-0.00
-2,2,0,-51,-385,3933,-0.05,0.06,-0.00,-0.51,-3.85,39.33,-5.44,0.76,30.99,0.31,-0.27,-0.00
-1,1,0,-54,-388,3939,-0.05,0.06,-0.00,-0.54,-3.88,39.39,-5.46,0.76,30.99,0.05,-0.02,-0.00
-1,1,0,-47,-378,3933,-0.06,0.06,-0.00,-0.47,-3.78,39.33,-5.47,0.74,30.99,0.05,-0.02,-0.00
-1,0,1,-47,-367,3931,-0.06,0.06,0.01,-0.47,-3.67,39.31,-5.45,0.74,30.99,0.05,0.21,-0.08
-1,2,0,-48,-374,3925,-0.06,0.06,0.00,-0.48,-3.74,39.25,-5.45,0.72,30.99,0.04,-0.27,0.01
1,0,0,-38,-382,3937,-0.04,0.06,0.00,-0.38,-3.82,39.37,-5.46,0.70,30.99,-0.42,0.21,0.00
1,1,0,-52,-382,3944,-0.03,0.06,0.00,-0.52,-3.82,39.44,-5.47,0.71,30.99,-0.38,-0.04,0.00
-1,0,-1,-51,-380,3938,-0.04,0.05,-0.00,-0.51,-3.80,39.38,-5.49,0.72,30.99,0.12,0.19,0.08
-1,0,0,-56,-376,3925,-0.04,0.05,-0.00,-0.56,-3.76,39.25,-5.49,0.74,30.99,0.11,0.17,-0.00
-1,0,0,-56,-369,3940,-0.04,0.04,-0.00,-0.56,-3.69,39.40,-5.47,0.75,30.99,0.10,0.16,-0.00
-1,1,0,-62,-372,3928,-0.04,0.04,-0.00,-0.62,-3.72,39.28,-5.46,0.77,30.99,0.09,-0.09,-0.00
-1,0,1,-46,-378,3924,-0.05,0.04,0.00,-0.46,-3.78,39.24,-5.47,0.75,30.99,0.09,0.15,-0.08
-1,1,1,-53,-366,3933,-0.05,0.04,0.01,-0.53,-3.66,39.33,-5.45,0.75,30.99,0.08,-0.10,-0.07
-1,1,1,-58,-373,3937,-0.05,0.04,0.02,-0.58,-3.73,39.37,-5.44,0.77,30.99,0.08,-0.09,-0.07
0,1,0,-51,-372,3940,-0.04,0.05,0.01,-0.51,-3.72,39.40,-5.43,0.76,30.99,-0.16,-0.09,0.01
0,1,1,-58,-373,3938,-0.04,0.05,0.02,-0.58,-3.73,39.38,-5.42,0.78,30.99,-0.14,-0.08,-0.07
-1,1,0,-56,-371,3936,-0.04,0.05,0.02,-0.56,-3.71,39.36,-5.41,0.79,30.99,0.10,-0.07,0.02
0,1,0,-58,-376,3934,-0.04,0.05,0.01,-0.58,-3.76,39.34,-5.42,0.80,30.99,-0.14,-0.07,0.01
0,1,0,-58,-376,3935,-0.03,0.05,0.01,-0.58,-3.76,39.35,-5.44,0.82,30.99,-0.12,-0.07,0.01
-2,0,0,-51,-373,3927,-0.04,0.05,0.01,-0.51,-3.73,39.27,-5.43,0.80,30.99,0.35,0.17,0.01
-1,2,0,-49,-372,3934,-0.04,0.05,0.01,-0.49,-3.72,39.34,-5.43,0.78,30.99,0.09,-0.31,0.01
-1,1,0,-60,-383,3930,-0.05,0.05,0.01,-0.60,-3.83,39.30,-5.44,0.79,30.99,0.08,-0.05,0.01
0,2,-1,-48,-380,3930,-0.04,0.06,0.00,-0.48,-3.80,39.30,-5.46,0.78,30.99,-0.15,-0.28,0.09
0,1,0,-55,-379,3940,-0.04,0.06,0.00,-0.55,-3.79,39.40,-5.47,0.79,30.99,-0.14,-0.03,0.00
0,1,0,-57,-380,3938,-0.03,0.06,0.00,-0.57,-3.80,39.38,-5.49,0.80,30.99,-0.12,-0.03,0.00
-2,1,0,-55,-376,3945,-0.04,0.06,0.00,-0.55,-3.76,39.45,-5.47,0.80,30.99,0.35,-0.03,0.00
-1,1,0,-45,-365,3947,-0.04,0.06,0.00,-0.45,-3.65,39.47,-5.45,0.79,30.99,0.09,-0.03,0.00
0,0,0,-57,-369,3937,-0.04,0.05,0.00,-0.57,-3.69,39.37,-5.44,0.79,30.99,-0.15,0.20,0.00
0,2,0,-60,-381,3939,-0.04,0.06,0.00,-0.60,-3.81,39.39,-5.45,0.81,30.99,-0.13,-0.28,0.00
0,1,0,-52,-380,3920,-0.03,0.06,0.00,-0.52,-3.80,39.20,-5.47,0.80,30.99,-0.12,-0.02,0.00
-1,1,0,-48,-365,3932,-0.04,0.06,0.00,-0.48,-3.65,39.32,-5.45,0.79,30.99,0.12,-0.03,0.00
0,1,0,-54,-371,3942,-0.03,0.06,0.00,-0.54,-3.71,39.42,-5.43,0.79,30.99,-0.12,-0.03,0.00
-1,1,0,-49,-380,3942,-0.03,0.06,0.00,-0.49,-3.80,39.42,-5.45,0.77,30.99,0.13,-0.03,0.00
-2,1,0,-58,-379,3934,-0.04,0.06,0.00,-0.58,-3.79,39.34,-5.46,0.79,30.99,0.35,-0.03,0.00
-1,1,0,-47,-374,3934,-0.05,0.06,0.00,-0.47,-3.74,39.34,-5.45,0.77,30.99,0.09,-0.03,0.00
0,1,0,-58,-365,3949,-0.04,0.06,0.00,-0.58,-3.65,39.49,-5.44,0.78,30.99,-0.15,-0.03,0.00
0,1,0,-61,-378,3934,-0.04,0.06,0.00,-0.61,-3.78,39.34,-5.44,0.79,30.99,-0.13,-0.03,0.00
-1,1,1,-64,-383,3926,-0.04,0.06,0.01,-0.64,-3.83,39.26,-5.46,0.81,30.99,0.11,-0.03,-0.08
-1,1,1,-54,-373,3941,-0.04,0.06,0.01,-0.54,-3.73,39.41,-5.44,0.80,30.99,0.10,-0.03,-0.07
-2,1,0,-50,-373,3934,-0.05,0.06,0.01,-0.50,-3.73,39.34,-5.44,0.78,30.99,0.33,-0.03,0.01
-1,1,0,-51,-372,3932,-0.05,0.06,0.01,-0.51,-3.72,39.32,-5.42,0.77,30.99,0.07,-0.03,0.01
-1,0,-1,-38,-364,3931,-0.05,0.06,0.00,-0.38,-3.64,39.31,-5.42,0.75,30.99,0.06,0.20,0.09
-2,0,0,-48,-377,3936,-0.06,0.05,0.00,-0.48,-3.77,39.36,-5.43,0.74,30.99,0.29,0.18,0.00
-1,1,-1,-43,-370,3941,-0.06,0.05,-0.00,-0.43,-3.70,39.41,-5.42,0.72,30.99,0.04,-0.07,0.08
-1,0,0,-51,-370,3924,-0.06,0.05,-0.00,-0.51,-3.70,39.24,-5.40,0.73,30.99,0.03,0.17,-0.00
-2,0,0,-46,-375,3941,-0.07,0.04,-0.00,-0.46,-3.75,39.41,-5.41,0.72,30.99,0.26,0.15,-0.00
-1,1,0,-57,-367,3949,-0.06,0.04,-0.00,-0.57,-3.67,39.49,-5.40,0.73,30.99,0.01,-0.09,-0.00
-2,1,1,-68,-380,3949,-0.07,0.04,0.00,-0.68,-3.80,39.49,-5.41,0.75,30.99,0.24,-0.09,-0.08
-2,1,1,-62,-376,3950,-0.08,0.05,0.01,-0.62,-3.76,39.50,-5.41,0.76,30.99,0.23,-0.08,-0.08
-1,1,0,-43,-374,3948,-0.07,0.05,0.01,-0.43,-3.74,39.48,-5.41,0.75,30.99,-0.02,-0.08,0.01
0,0,0,-52,-375,3934,-0.07,0.04,0.01,-0.52,-3.75,39.34,-5.43,0.75,30.99,-0.25,0.16,0.01
-1,0,0,-70,-384,3934,-0.07,0.04,0.01,-0.70,-3.84,39.34,-5.44,0.77,30.99,0.01,0.14,0.01
-2,2,1,-45,-369,3941,-0.07,0.05,0.01,-0.45,-3.69,39.41,-5.43,0.75,30.99,0.24,-0.33,-0.07
0,1,0,-41,-374,3945,-0.06,0.05,0.01,-0.41,-3.74,39.45,-5.43,0.73,30.99,-0.24,-0.07,0.01
0,0,1,-49,-386,3941,-0.06,0.04,0.02,-0.49,-3.86,39.41,-5.44,0.73,30.99,-0.22,0.16,-0.07
0,2,1,-57,-382,3927,-0.05,0.05,0.02,-0.57,-3.82,39.27,-5.46,0.74,30.99,-0.19,-0.32,-0.06
-1,1,0,-47,-373,3942,-0.05,0.05,0.02,-0.47,-3.73,39.42,-5.45,0.73,30.99,0.06,-0.06,0.02
-1,1,0,-58,-371,3936,-0.05,0.05,0.02,-0.58,-3.71,39.36,-5.44,0.75,30.99,0.05,-0.06,0.02
0,1,-1,-58,-370,3939,-0.05,0.05,0.01,-0.58,-3.70,39.39,-5.43,0.76,30.99,-0.18,-0.05,0.09
-1,1,0,-54,-374,3942,-0.05,0.05,0.01,-0.54,-3.74,39.42,-5.42,0.78,30.99,0.07,-0.05,0.01
-2,1,0,-60,-380,3929,-0.06,0.06,0.01,-0.60,-3.80,39.29,-5.43,0.79,30.99,0.30,-0.05,0.01
-1,1,0,-49,-383,3945,-0.06,0.06,0.01,-0.49,-3.83,39.45,-5.45,0.78,30.99,0.04,-0.05,0.01
0,0,0,-44,-385,3934,-0.05,0.05,0.01,-0.44,-3.85,39.34,-5.46,0.77,30.99,-0.19,0.19,0.01
-2,0,0,-48,-377,3935,-0.06,0.05,0.01,-0.48,-3.77,39.35,-5.47,0.75,30.99,0.29,0.17,0.01
-2,1,1,-48,-372,3944,-0.07,0.05,0.01,-0.48,-3.72,39.44,-5.45,0.74,30.99,0.27,-0.08,-0.07
-1,1,-1,-44,-373,3938,-0.06,0.05,0.00,-0.44,-3.73,39.38,-5.44,0.72,30.99,0.01,-0.07,0.09
0,1,0,-43,-370,3928,-0.06,0.05,0.00,-0.43,-3.70,39.28,-5.43,0.71,30.99,-0.22,-0.07,0.00
-1,1,0,-46,-373,3944,-0.06,0.05,0.00,-0.46,-3.73,39.44,-5.42,0.69,30.99,0.04,-0.07,0.00
0,1,0,-56,-378,3936,-0.05,0.05,0.00,-0.56,-3.78,39.36,-5.43,0.71,30.99,-0.20,-0.06,0.00
-1,1,0,-57,-375,3927,-0.05,0.05,0.00,-0.57,-3.75,39.27,-5.44,0.73,30.99,0.06,-0.06,0.00
-1,1,0,-48,-371,3940,-0.05,0.05,0.00,-0.48,-3.71,39.40,-5.42,0.72,30.99,0.05,-0.06,0.00
-2,1,0,-41,-378,3935,-0.06,0.05,0.00,-0.41,-3.78,39.35,-5.43,0.70,30.99,0.28,-0.05,0.00
-2,1,0,-60,-382,3935,-0.07,0.05,0.00,-0.60,-3.82,39.35,-5.44,0.72,30.99,0.26,-0.05,0.00
-2,1,0,-49,-381,3923,-0.07,0.06,0.00,-0.49,-3.81,39.23,-5.46,0.72,30.99,0.24,-0.05,0.00
-1,0,0,-43,-377,3930,-0.07,0.05,0.00,-0.43,-3.77,39.30,-5.46,0.70,30.99,-0.01,0.19,0.00
0,0,0,-43,-363,3944,-0.06,0.04,0.00,-0.43,-3.63,39.44,-5.45,0.69,30.99,-0.24,0.17,0.00
0,0,0,-56,-373,3944,-0.06,0.04,0.00,-0.56,-3.73,39.44,-5.44,0.71,30.99,-0.22,0.15,0.00
-1,-1,0,-62,-375,3938,-0.06,0.03,0.00,-0.62,-3.75,39.38,-5.44,0.73,30.99,0.04,0.37,0.00
-1,1,0,-60,-365,3945,-0.06,0.03,0.00,-0.60,-3.65,39.45,-5.43,0.74,30.99,0.04,-0.13,0.00
0,1,0,-53,-364,3944,-0.05,0.04,0.00,-0.53,-3.64,39.44,-5.41,0.74,30.99,-0.20,-0.12,0.00
0,0,0,-53,-367,3940,-0.05,0.03,0.00,-0.53,-3.67,39.40,-5.39,0.75,30.99,-0.18,0.12,0.00
0,0,1,-64,-385,3942,-0.04,0.03,0.01,-0.64,-3.85,39.42,-5.40,0.76,30.99,-0.16,0.11,-0.08
-2,2,0,-41,-365,3925,-0.05,0.04,0.01,-0.41,-3.65,39.25,-5.40,0.75,30.99,0.32,-0.37,0.01
0,0,0,-47,-374,3934,-0.05,0.03,0.01,-0.47,-3.74,39.34,-5.41,0.73,30.99,-0.17,0.13,0.01
-1,1,0,-58,-390,3930,-0.05,0.04,0.00,-0.58,-3.90,39.30,-5.42,0.74,30.99,0.08,-0.12,0.01
-1,2,1,-52,-383,3932,-0.05,0.05,0.01,-0.52,-3.83,39.32,-5.44,0.74,30.99,0.07,-0.34,-0.07
-1,0,0,-43,-373,3940,-0.05,0.04,0.01,-0.43,-3.73,39.40,-5.44,0.72,30.99,0.07,0.15,0.01
0,0,0,-52,-372,3945,-0.04,0.04,0.01,-0.52,-3.72,39.45,-5.42,0.73,30.99,-0.17,0.14,0.01
0,0,0,-63,-379,3942,-0.04,0.03,0.01,-0.63,-3.79,39.42,-5.43,0.75,30.99,-0.15,0.12,0.01
-2,0,0,-56,-381,3942,-0.05,0.03,0.01,-0.56,-3.81,39.42,-5.44,0.76,30.99,0.33,0.11,0.01
-1,1,0,-49,-370,3933,-0.05,0.03,0.01,-0.49,-3.70,39.33,-5.43,0.75,30.99,0.07,-0.13,0.01
-1,1,1,-44,-361,3925,-0.05,0.04,0.01,-0.44,-3.61,39.25,-5.41,0.74,30.99,0.07,-0.12,-0.07
-2,1,1,-42,-371,3929,-0.06,0.04,0.02,-0.42,-3.71,39.29,-5.41,0.72,30.99,0.29,-0.11,-0.07
-2,1,0,-44,-364,3936,-0.06,0.04,0.01,-0.44,-3.64,39.36,-5.40,0.71,30.99,0.27,-0.10,0.01
-1,1,1,-49,-372,3939,-0.06,0.04,0.02,-0.49,-3.72,39.39,-5.39,0.69,30.99,0.02,-0.10,-0.07
0,1,1,-65,-371,3944,-0.06,0.04,0.02,-0.65,-3.71,39.44,-5.39,0.71,30.99,-0.21,-0.09,-0.06
-2,1,0,-56,-371,3937,-0.06,0.05,0.02,-0.56,-3.71,39.37,-5.39,0.73,30.98,0.27,-0.08,0.02
-2,2,0,-48,-370,3935,-0.07,0.05,0.02,-0.48,-3.70,39.35,-5.38,0.71,30.98,0.25,-0.31,0.02
-1,-5,-2,-43,-396,3904,-0.07,0.02,0.01,-0.43,-3.96,39.04,-5.40,0.71,30.99,-0.00,1.34,0.18
0,-3,-1,-29,-378,3923,-0.06,-0.00,-0.00,-0.29,-3.78,39.23,-5.41,0.69,30.99,-0.23,0.75,0.08
2,-4,-3,-59,-368,3955,-0.04,-0.03,-0.02,-0.59,-3.68,39.55,-5.40,0.71,30.99,-0.67,0.91,0.24
7,-5,-4,-74,-375,3944,0.00,-0.05,-0.04,-0.74,-3.75,39.44,-5.40,0.73,30.99,-1.76,1.06,0.30
4,-11,-5,52,-437,3831,0.03,-0.12,-0.07,0.52,-4.37,38.31,-5.41,0.71,30.99,-0.91,2.36,0.36
-8,-11,-172,140,-435,3968,-0.02,-0.17,-1.11,1.40,-4.35,39.68,-5.42,0.69,30.99,1.95,2.15,13.53
6,0,-187,-250,-285,4036,0.01,-0.15,-2.14,-2.50,-2.85,40.36,-5.41,0.71,31.00,-1.47,-0.58,13.83
1,-3,-148,56,-494,3951,0.02,-0.16,-2.83,0.56,-4.94,39.51,-5.42,0.69,31.01,-0.18,0.17,9.88
-3,9,-142,-25,-483,3997,-0.00,-0.09,-3.41,-0.25,-4.83,39.97,-5.44,0.69,31.02,0.76,-2.62,8.83
0,16,-89,-310,-383,3993,-0.00,0.02,-3.61,-3.10,-3.83,39.93,-5.44,0.71,31.04,0.00,-3.99,4.15
-2,9,-75,-318,-360,3946,-0.01,0.07,-3.71,-3.18,-3.60,39.46,-5.44,0.72,31.05,0.46,-2.02,2.87
-3,9,-39,-229,-230,3943,-0.03,0.12,-3.58,-2.29,-2.30,39.43,-5.43,0.74,31.07,0.65,-1.84,-0.05
-2,9,-59,-196,-263,3906,-0.04,0.16,-3.58,-1.96,-2.63,39.06,-5.42,0.75,31.08,0.36,-1.68,1.64
3,14,-37,-89,-417,3891,-0.02,0.23,-3.45,-0.89,-4.17,38.91,-5.43,0.76,31.10,-0.82,-2.69,-0.10
0,6,-37,-42,-439,3962,-0.02,0.25,-3.33,-0.42,-4.39,39.62,-5.45,0.76,31.11,-0.05,-0.60,0.01
1,-1,17,-27,-369,3947,-0.01,0.21,-2.89,-0.27,-3.69,39.47,-5.44,0.74,31.12,-0.28,1.06,-4.15
1,-2,32,-35,-366,3939,-0.00,0.18,-2.41,-0.35,-3.66,39.39,-5.44,0.72,31.13,-0.25,1.19,-4.97
-5,4,88,10,-355,3909,-0.03,0.19,-1.63,0.10,-3.55,39.09,-5.43,0.71,31.14,1.16,-0.31,-8.98
-4,5,97,14,-342,3911,-0.05,0.20,-0.87,0.14,-3.42,39.11,-5.42,0.69,31.14,0.82,-0.52,-9.04
-2,3,84,-19,-367,3898,-0.06,0.20,-0.28,-0.19,-3.67,38.98,-5.42,0.67,31.14,0.29,-0.02,-7.37
-5,5,82,-37,-335,3908,-0.08,0.21,0.25,-0.37,-3.35,39.08,-5.40,0.67,31.14,0.96,-0.49,-6.71
0,-3,47,-78,-383,3927,-0.08,0.17,0.51,-0.78,-3.83,39.27,-5.41,0.69,31.14,-0.28,1.40,-3.50
0,-1,39,-78,-449,3972,-0.07,0.15,0.70,-0.78,-4.49,39.72,-5.43,0.70,31.14,-0.25,0.80,-2.64
4,-6,-9,-104,-648,3783,-0.04,0.10,0.58,-1.04,-6.48,37.83,-5.45,0.70,31.13,-1.15,1.88,1.31
2,-14,-48,-114,-699,4039,-0.02,0.00,0.23,-1.14,-6.99,40.39,-5.46,0.70,31.13,-0.58,3.56,4.28
-2,-7,-97,-152,-691,3896,-0.03,-0.04,-0.39,-1.52,-6.91,38.96,-5.48,0.71,31.13,0.39,1.62,7.86
-1,-10,-107,-147,-676,4107,-0.03,-0.10,-1.00,-1.47,-6.76,41.07,-5.50,0.71,31.14,0.13,2.16,8.13
1,4,-101,-262,-693,3915,-0.02,-0.07,-1.52,-2.62,-6.93,39.15,-5.51,0.72,31.14,-0.34,-1.26,7.13
-7,-1,-96,-271,-673,3921,-0.06,-0.06,-1.95,-2.71,-6.73,39.21,-5.53,0.73,31.15,1.54,0.01,6.30
-16,7,-25,-91,-254,3804,-0.16,-0.02,-1.91,-0.91,-2.54,38.04,-5.51,0.74,31.16,3.48,-1.84,0.33
-4,16,37,102,36,3868,-0.16,0.08,-1.49,1.02,0.36,38.68,-5.50,0.73,31.17,0.40,-3.75,-4.53
-1,8,346,97,343,3915,-0.15,0.12,0.77,0.97,3.43,39.15,-5.48,0.73,31.16,-0.32,-1.57,-28.59
-13,3,368,10,269,4047,-0.22,0.13,2.94,0.10,2.69,40.47,-5.46,0.73,31.15,2.48,-0.28,-28.42
-1,-2,324,-115,-49,4031,-0.20,0.10,4.62,-1.15,-0.49,40.31,-5.44,0.73,31.13,-0.51,0.90,-23.11
-1,14,259,-83,-281,3870,-0.19,0.18,5.74,-0.83,-2.81,38.70,-5.43,0.74,31.11,-0.45,-2.88,-16.56
3,3,275,-210,-457,3913,-0.15,0.18,6.84,-2.10,-4.57,39.13,-5.44,0.76,31.08,-1.33,-0.09,-16.87
-5,10,284,-165,-558,3942,-0.17,0.22,7.89,-1.65,-5.58,39.42,-5.45,0.78,31.05,0.65,-1.70,-16.65
-14,7,325,-38,-636,4015,-0.24,0.24,9.08,-0.38,-6.36,40.15,-5.47,0.78,31.02,2.67,-0.86,-19.01
-6,-5,344,-47,-574,3959,-0.25,0.19,10.27,-0.47,-5.74,39.59,-5.49,0.78,30.97,0.59,1.98,-19.50
-9,24,526,-108,-402,3890,-0.28,0.32,12.45,-1.08,-4.02,38.90,-5.50,0.81,30.93,1.24,-4.91,-32.87
-13,19,612,-130,-455,3975,-0.33,0.40,14.94,-1.30,-4.55,39.75,-5.51,0.83,30.87,2.06,-3.32,-37.82
-15,17,758,7,-539,3914,-0.39,0.46,18.07,0.07,-5.39,39.14,-5.53,0.83,30.79,2.35,-2.58,-47.25
-13,21,810,39,-564,3940,-0.43,0.55,21.20,0.39,-5.64,39.40,-5.55,0.83,30.71,1.69,-3.28,-48.72
-19,18,937,89,-649,3980,-0.50,0.60,24.80,0.89,-6.49,39.80,-5.56,0.83,30.61,2.94,-2.31,-56.10
-3,32,988,28,-723,3882,-0.47,0.74,28.35,0.28,-7.23,38.82,-5.58,0.84,30.50,-1.01,-5.36,-57.09
-24,39,1127,37,-715,3829,-0.57,0.90,32.39,0.37,-7.15,38.29,-5.60,0.85,30.37,3.96,-6.52,-65.08
-19,61,1192,47,-666,3857,-0.63,1.18,36.42,0.47,-6.66,38.57,-5.62,0.87,30.23,2.47,-11.05,-66.80
-17,39,1404,-66,-329,4048,-0.67,1.30,41.34,-0.66,-3.29,40.48,-5.60,0.89,30.06,1.80,-5.01,-80.14
-27,23,1468,-45,-277,3907,-0.77,1.31,46.16,-0.45,-2.77,39.07,-5.58,0.91,29.88,3.98,-0.91,-81.04
-9,37,1642,-113,-246,3917,-0.75,1.41,51.56,-1.13,-2.46,39.17,-5.56,0.94,29.67,-0.52,-4.11,-90.71
-20,39,1669,-181,-216,3955,-0.79,1.50,56.59,-1.81,-2.16,39.55,-5.55,0.98,29.45,2.10,-4.25,-88.29
-18,43,1640,-75,-361,3932,-0.82,1.62,60.93,-0.75,-3.61,39.32,-5.53,1.02,29.21,1.48,-4.85,-81.75
-23,55,1605,-143,-310,3910,-0.88,1.79,64.63,-1.43,-3.10,39.10,-5.51,1.06,28.95,2.53,-7.24,-75.32
-15,34,1452,-115,-390,3928,-0.88,1.82,67.02,-1.15,-3.90,39.28,-5.52,1.11,28.68,0.48,-1.80,-60.11
47,86,1382,-51,-468,3955,-0.51,2.16,68.75,-0.51,-4.68,39.55,-5.53,1.14,28.41,-13.86,-13.72,-52.56
39,68,1233,-50,-523,3866,-0.22,2.36,69.40,-0.50,-5.23,38.66,-5.55,1.18,28.14,-10.74,-8.40,-39.33
30,60,1203,-23,-532,3982,-0.02,2.49,69.80,-0.23,-5.32,39.82,-5.56,1.21,27.86,-7.68,-5.88,-36.42
-41,-3,1125,-100,-429,3929,-0.26,2.22,69.68,-1.00,-4.29,39.29,-5.57,1.25,27.58,9.43,9.13,-29.92
-46,-27,1099,-59,-411,3956,-0.52,1.84,69.42,-0.59,-4.11,39.56,-5.58,1.27,27.31,9.74,13.77,-27.97
-62,-34,1007,-86,-298,3926,-0.84,1.44,68.62,-0.86,-2.98,39.26,-5.56,1.30,27.03,12.58,14.08,-20.93
-43,-15,980,-46,-230,3942,-1.02,1.21,67.73,-0.46,-2.30,39.42,-5.54,1.33,26.77,7.08,8.36,-19.48
-16,8,906,-120,-234,3911,-1.02,1.14,66.49,-1.20,-2.34,39.11,-5.52,1.36,26.50,0.24,2.24,-14.38
-31,15,886,-109,-280,3928,-1.11,1.11,65.24,-1.09,-2.80,39.28,-5.50,1.39,26.24,3.72,0.38,-13.86
-5,24,836,-117,-252,3952,-1.03,1.15,63.82,-1.17,-2.52,39.52,-5.48,1.42,25.99,-2.59,-1.77,-10.96
-5,13,803,-76,-207,3954,-0.95,1.11,62.33,-0.76,-2.07,39.54,-5.46,1.45,25.74,-2.32,0.89,-9.56
14,29,759,-153,-136,3983,-0.77,1.18,60.73,-1.53,-1.36,39.83,-5.44,1.48,25.50,-6.46,-2.93,-7.33
-7,21,754,-173,-127,3859,-0.74,1.19,59.26,-1.73,-1.27,38.59,-5.41,1.51,25.26,-1.00,-0.86,-8.29
-33,-4,715,-130,-262,3863,-0.87,1.05,57.69,-1.30,-2.62,38.63,-5.39,1.54,25.03,5.13,4.95,-6.46
-25,-13,697,-131,-287,3967,-0.93,0.86,56.18,-1.31,-2.87,39.67,-5.37,1.57,24.81,2.85,6.55,-6.36
-15,-6,641,-83,-454,4007,-0.93,0.74,54.47,-0.83,-4.54,40.07,-5.39,1.59,24.59,0.31,4.31,-3.22
-16,-2,625,-76,-514,3928,-0.93,0.65,52.83,-0.76,-5.14,39.28,-5.40,1.61,24.38,0.55,2.96,-3.40
-8,15,656,-43,-509,3920,-0.89,0.68,51.55,-0.43,-5.09,39.20,-5.42,1.62,24.18,-1.31,-1.26,-7.23
-9,20,690,-44,-510,3930,-0.86,0.73,50.61,-0.44,-5.10,39.30,-5.43,1.64,23.97,-0.93,-2.32,-11.00
-22,10,846,-93,-466,3937,-0.90,0.72,50.71,-0.93,-4.66,39.37,-5.45,1.66,23.77,2.19,0.17,-24.12
-24,14,927,-124,-370,3959,-0.96,0.73,51.29,-1.24,-3.70,39.59,-5.43,1.69,23.57,2.49,-0.80,-30.43
0,18,1092,-124,-335,3804,-0.86,0.77,52.82,-1.24,-3.35,38.04,-5.41,1.72,23.36,-3.25,-1.68,-42.97
-17,28,1136,-137,-378,3936,-0.88,0.86,54.47,-1.37,-3.78,39.36,-5.42,1.76,23.14,1.00,-3.86,-45.15
3,26,1239,-22,-480,4016,-0.78,0.94,56.58,-0.22,-4.80,40.16,-5.43,1.78,22.92,-3.68,-3.08,-51.90
-22,16,1261,-32,-460,3925,-0.83,0.94,58.61,-0.32,-4.60,39.25,-5.43,1.79,22.68,2.46,-0.53,-51.85
-23,16,1325,27,-487,3937,-0.89,0.94,60.84,0.27,-4.87,39.37,-5.44,1.80,22.44,2.50,-0.52,-55.19
-28,19,1344,15,-422,3871,-0.97,0.97,62.95,0.15,-4.22,38.71,-5.44,1.81,22.19,3.46,-1.20,-54.81
-26,15,1447,-68,-217,3786,-1.03,0.96,65.48,-0.68,-2.17,37.86,-5.42,1.83,21.93,2.72,-0.20,-61.16
-35,2,1480,-92,-253,4030,-1.14,0.88,67.96,-0.92,-2.53,40.30,-5.40,1.86,21.66,4.60,2.79,-61.63
-18,-3,1552,-20,-217,4026,-1.14,0.77,70.63,-0.20,-2.17,40.26,-5.38,1.88,21.38,0.29,3.66,-65.22
-35,10,1564,-102,-298,3894,-1.24,0.75,73.11,-1.02,-2.98,38.94,-5.36,1.90,21.09,4.24,0.30,-63.91
-14,-2,1581,-244,-298,3956,-1.20,0.67,75.44,-2.44,-2.98,39.56,-5.34,1.95,20.79,-0.96,3.02,-63.16
-11,-1,1581,-258,-305,3970,-1.15,0.59,77.54,-2.58,-3.05,39.70,-5.33,1.99,20.48,-1.52,2.49,-61.19
-30,11,1575,-254,-455,3970,-1.21,0.60,79.40,-2.54,-4.55,39.70,-5.33,2.04,20.16,3.05,-0.53,-58.94
-14,18,1558,-237,-456,3896,-1.18,0.65,80.96,-2.37,-4.56,38.96,-5.34,2.09,19.84,-0.88,-2.13,-56.03
-18,31,1452,17,-596,3952,-1.17,0.78,81.72,0.17,-5.96,39.52,-5.35,2.11,19.52,0.17,-4.96,-46.34
-32,29,1421,58,-649,3911,-1.25,0.87,82.22,0.58,-6.49,39.11,-5.35,2.13,19.19,3.43,-4.08,-43.25
-22,23,1286,124,-588,3879,-1.26,0.93,81.84,1.24,-5.88,38.79,-5.36,2.15,18.86,0.86,-2.36,-32.16
-24,9,1248,82,-622,3980,-1.28,0.89,81.27,0.82,-6.22,39.80,-5.37,2.17,18.54,1.29,1.06,-29.48
-24,0,1196,-82,-372,3993,-1.30,0.80,80.44,-0.82,-3.72,39.93,-5.36,2.19,18.22,1.22,3.01,-25.86
-32,17,1189,-199,-314,3835,-1.36,0.82,79.65,-1.99,-3.14,38.35,-5.34,2.24,17.90,3.00,-1.22,-26.01
1,4,1155,-193,-148,4017,-1.22,0.77,78.73,-1.93,-1.48,40.17,-5.31,2.27,17.59,-4.85,1.86,-23.99
-26,3,1140,-231,-256,3948,-1.26,0.71,77.81,-2.31,-2.56,39.48,-5.29,2.31,17.28,1.88,1.90,-23.58
-22,14,1053,-171,-318,3860,-1.27,0.72,76.45,-1.71,-3.18,38.60,-5.27,2.35,16.97,0.83,-0.84,-17.48
-3,20,1027,-189,-310,3951,-1.16,0.77,75.07,-1.89,-3.10,39.51,-5.24,2.39,16.67,-3.59,-2.18,-16.58
-17,5,938,-157,-388,3999,-1.15,0.73,73.29,-1.57,-3.88,39.99,-5.25,2.41,16.38,0.01,1.46,-10.71
-8,19,917,-128,-376,3888,-1.08,0.77,71.55,-1.28,-3.76,38.88,-5.25,2.42,16.10,-2.03,-1.94,-10.56
-18,27,849,-67,-413,3932,-1.08,0.86,69.57,-0.67,-4.13,39.32,-5.25,2.44,15.82,0.51,-3.64,-6.66
4,25,836,-126,-327,3971,-0.95,0.92,67.72,-1.26,-3.27,39.71,-5.23,2.45,15.55,-4.59,-2.88,-7.30
-12,19,825,-151,-286,3894,-0.93,0.95,65.98,-1.51,-2.86,38.94,-5.21,2.47,15.29,-0.44,-1.27,-8.00
-2,19,821,-48,-204,3999,-0.85,0.97,64.39,-0.48,-2.04,39.99,-5.19,2.49,15.03,-2.68,-1.19,-9.15
-17,26,790,23,-294,3919,-0.87,1.03,62.77,0.23,-2.94,39.19,-5.17,2.50,14.78,1.07,-2.73,-8.05
-19,19,769,18,-385,3965,-0.89,1.04,61.18,0.18,-3.85,39.65,-5.17,2.51,14.54,1.46,-0.91,-7.76
-7,9,708,13,-406,3940,-0.85,0.99,59.38,0.13,-4.06,39.40,-5.17,2.52,14.30,-1.41,1.45,-4.28
-2,12,689,101,-407,3887,-0.78,0.97,57.65,1.01,-4.07,38.87,-5.16,2.52,14.07,-2.41,0.59,-4.30
-17,17,625,30,-604,3971,-0.80,0.97,55.70,0.30,-6.04,39.71,-5.17,2.53,13.85,1.31,-0.66,-0.71
3,-3,602,87,-498,3986,-0.70,0.86,53.80,0.87,-4.98,39.86,-5.17,2.54,13.63,-3.41,3.99,-0.54
-11,0,543,-75,-499,3956,-0.70,0.77,51.73,-0.75,-4.99,39.56,-5.18,2.55,13.43,0.16,2.91,2.51
-21,2,533,-53,-508,3921,-0.76,0.71,49.81,-0.53,-5.08,39.21,-5.19,2.56,13.23,2.49,2.15,1.56
2,11,551,-47,-505,3929,-0.67,0.70,48.19,-0.47,-5.05,39.29,-5.20,2.57,13.04,-3.03,-0.15,-1.49
-11,8,561,-77,-480,3984,-0.67,0.68,46.79,-0.77,-4.80,39.84,-5.20,2.58,12.85,0.28,0.53,-3.65
0,19,606,-78,-513,3922,-0.60,0.73,45.81,-0.78,-5.13,39.22,-5.21,2.59,12.67,-2.27,-2.08,-8.38
-11,6,624,-64,-533,3965,-0.61,0.69,45.03,-0.64,-5.33,39.65,-5.22,2.60,12.49,0.50,1.08,-10.63
-22,12,708,-7,-492,3921,-0.68,0.70,44.85,-0.07,-4.92,39.21,-5.23,2.60,12.32,3.02,-0.43,-17.92
-9,13,733,-9,-489,3897,-0.67,0.71,44.84,-0.09,-4.89,38.97,-5.24,2.60,12.14,-0.23,-0.65,-20.05
9,25,786,7,-473,3920,-0.55,0.79,45.15,0.07,-4.73,39.20,-5.24,2.61,11.96,-4.35,-3.39,-24.25
-19,14,798,26,-453,3984,-0.61,0.80,45.50,0.26,-4.53,39.84,-5.24,2.61,11.78,2.54,-0.57,-24.94
-12,15,824,50,-474,3973,-0.62,0.81,45.98,0.50,-4.74,39.73,-5.24,2.62,11.60,0.72,-0.78,-26.69
-18,19,826,-10,-464,3885,-0.67,0.84,46.42,-0.10,-4.64,38.85,-5.25,2.62,11.41,2.06,-1.66,-26.45
-6,31,837,105,-516,3964,-0.64,0.95,46.88,1.05,-5.16,39.64,-5.25,2.62,11.23,-0.88,-4.32,-26.95
-11,26,854,115,-490,3956,-0.64,1.01,47.40,1.15,-4.90,39.56,-5.25,2.63,11.04,0.38,-2.81,-27.90
-15,20,892,-50,-449,3904,-0.67,1.03,48.10,-0.50,-4.49,39.04,-5.25,2.64,10.85,1.30,-1.20,-30.46
-24,15,907,12,-464,3899,-0.75,1.02,48.83,0.12,-4.64,38.99,-5.26,2.64,10.65,3.29,0.02,-31.05
-12,6,929,17,-415,3969,-0.75,0.95,49.61,0.17,-4.15,39.69,-5.25,2.65,10.45,0.24,2.07,-32.18
-6,8,931,-14,-358,3927,-0.71,0.91,50.33,-0.14,-3.58,39.27,-5.25,2.65,10.25,-1.14,1.38,-31.67
-14,9,915,-92,-486,3971,-0.72,0.87,50.88,-0.92,-4.86,39.71,-5.26,2.66,10.05,0.84,0.99,-29.80
-23,0,911,-34,-427,3917,-0.79,0.79,51.35,-0.34,-4.27,39.17,-5.26,2.67,9.85,2.87,2.95,-29.02
-9,21,877,2,-378,3869,-0.77,0.83,51.56,0.02,-3.78,38.69,-5.25,2.67,9.64,-0.60,-2.20,-25.94
-13,34,866,-31,-394,4004,-0.77,0.96,51.69,-0.31,-3.94,40.04,-5.25,2.67,9.44,0.41,-5.04,-24.89
-1,31,858,-148,-371,3965,-0.70,1.05,51.75,-1.48,-3.71,39.65,-5.25,2.68,9.23,-2.37,-3.92,-24.15
-1,16,840,-139,-356,3896,-0.64,1.04,51.70,-1.39,-3.56,38.96,-5.24,2.68,9.03,-2.13,-0.14,-22.67
-19,11,779,-39,-377,3933,-0.69,1.01,51.28,-0.39,-3.77,39.33,-5.23,2.69,8.82,2.25,0.99,-17.90
-18,11,755,48,-431,3989,-0.73,0.97,50.76,0.48,-4.31,39.89,-5.23,2.69,8.62,1.84,0.86,-16.36
-9,10,672,128,-430,3925,-0.71,0.94,49.78,1.28,-4.30,39.25,-5.23,2.70,8.42,-0.38,0.98,-10.24
-15,17,657,112,-473,3868,-0.73,0.95,48.81,1.12,-4.73,38.68,-5.23,2.70,8.23,1.06,-0.76,-9.88
-8,15,638,47,-552,3851,-0.71,0.94,47.82,0.47,-5.52,38.51,-5.24,2.71,8.04,-0.62,-0.26,-9.20
-16,18,637,2,-571,3924,-0.73,0.96,46.93,0.02,-5.71,39.24,-5.24,2.72,7.85,1.31,-0.97,-9.96
-19,4,674,-85,-479,3929,-0.78,0.89,46.35,-0.85,-4.79,39.29,-5.25,2.73,7.67,1.91,2.32,-13.64
-11,9,693,-117,-427,3980,-0.77,0.85,45.94,-1.17,-4.27,39.80,-5.26,2.73,7.49,-0.08,0.92,-15.63
-14,9,753,-127,-416,3943,-0.77,0.82,45.94,-1.27,-4.16,39.43,-5.26,2.74,7.30,0.65,0.81,-20.72
-12,20,762,-115,-413,3895,-0.77,0.86,45.99,-1.15,-4.13,38.95,-5.27,2.74,7.12,0.15,-1.84,-21.43
-15,-4,723,-55,-332,3911,-0.78,0.75,45.80,-0.55,-3.32,39.11,-5.26,2.75,6.94,0.86,3.84,-18.30
3,2,703,-8,-371,3979,-0.69,0.69,45.51,-0.08,-3.71,39.79,-5.25,2.75,6.76,-3.35,2.08,-16.88
-11,-3,625,-17,-409,3865,-0.69,0.60,44.77,-0.17,-4.09,38.65,-5.25,2.75,6.58,0.22,3.02,-10.96
-15,1,608,9,-515,3929,-0.71,0.55,44.00,0.09,-5.15,39.29,-5.26,2.75,6.40,1.15,1.80,-10.25
-12,22,580,94,-459,3999,-0.71,0.63,43.14,0.94,-4.59,39.99,-5.26,2.75,6.23,0.38,-3.24,-8.68
-7,17,579,35,-463,3970,-0.68,0.67,42.36,0.35,-4.63,39.70,-5.26,2.75,6.06,-0.79,-1.81,-9.33
-16,19,614,-44,-442,3861,-0.71,0.72,41.87,-0.44,-4.42,38.61,-5.27,2.76,5.90,1.39,-2.13,-12.76
-14,17,633,-34,-443,3921,-0.73,0.75,41.54,-0.34,-4.43,39.21,-5.27,2.76,5.73,0.83,-1.51,-14.67
-13,8,698,-241,-262,3936,-0.73,0.72,41.65,-2.41,-2.62,39.36,-5.25,2.79,5.57,0.55,0.68,-20.08
-18,-6,706,-238,-249,3854,-0.77,0.61,41.79,-2.38,-2.49,38.54,-5.23,2.81,5.40,1.68,3.83,-20.63
4,7,649,-172,-286,3891,-0.67,0.60,41.57,-1.72,-2.86,38.91,-5.20,2.82,5.23,-3.53,0.46,-16.01
-10,2,618,-118,-347,4003,-0.66,0.55,41.18,-1.18,-3.47,40.03,-5.19,2.82,5.07,0.05,1.55,-13.74
-4,1,503,-42,-411,4002,-0.62,0.50,40.13,-0.42,-4.11,40.02,-5.19,2.82,4.91,-1.31,1.62,-4.99
-13,0,464,24,-453,3924,-0.64,0.45,38.95,0.24,-4.53,39.24,-5.20,2.82,4.75,0.91,1.69,-2.79
-14,15,390,-48,-409,3948,-0.66,0.50,37.43,-0.48,-4.09,39.48,-5.20,2.82,4.61,1.08,-1.95,2.05
-2,15,373,-133,-395,3927,-0.61,0.54,35.97,-1.33,-3.95,39.27,-5.20,2.82,4.46,-1.77,-1.79,2.12
-10,16,364,-153,-331,3924,-0.61,0.58,34.59,-1.53,-3.31,39.24,-5.19,2.82,4.32,0.27,-1.88,1.59
-11,6,355,-160,-324,4010,-0.61,0.56,33.30,-1.60,-3.24,40.10,-5.17,2.82,4.19,0.49,0.58,1.13
-9,14,365,-118,-448,3899,-0.61,0.59,32.19,-1.18,-4.48,38.99,-5.18,2.82,4.06,0.01,-1.34,-0.75
-12,20,377,-97,-455,3922,-0.62,0.65,31.27,-0.97,-4.55,39.22,-5.19,2.82,3.94,0.73,-2.63,-2.63
-1,10,370,-70,-420,3858,-0.56,0.65,30.40,-0.70,-4.20,38.58,-5.20,2.82,3.82,-1.86,-0.11,-2.85
-7,21,365,-55,-536,3989,-0.55,0.71,29.59,-0.55,-5.36,39.89,-5.21,2.82,3.70,-0.28,-2.66,-3.19
-7,7,320,73,-525,3887,-0.54,0.68,28.58,0.73,-5.25,38.87,-5.21,2.82,3.59,-0.24,0.79,-0.33
-12,6,292,48,-619,3958,-0.56,0.65,27.51,0.48,-6.19,39.58,-5.22,2.82,3.48,0.96,0.92,1.04
-13,6,272,17,-575,4000,-0.58,0.62,26.41,0.17,-5.75,40.00,-5.23,2.82,3.38,1.13,0.81,1.71
-13,8,289,-3,-571,3925,-0.60,0.61,25.54,-0.03,-5.71,39.25,-5.24,2.82,3.27,1.05,0.25,-0.56
-12,6,332,-55,-414,4055,-0.61,0.59,25.01,-0.55,-4.14,40.55,-5.25,2.81,3.18,0.74,0.67,-4.70
-19,4,340,-91,-446,3931,-0.67,0.55,24.58,-0.91,-4.46,39.31,-5.26,2.81,3.08,2.32,1.05,-5.78
2,13,383,-91,-383,3848,-0.59,0.58,24.46,-0.91,-3.83,38.48,-5.26,2.80,2.98,-2.72,-1.15,-9.53
0,20,398,-104,-452,3926,-0.53,0.64,24.44,-1.04,-4.52,39.26,-5.27,2.80,2.88,-1.99,-2.68,-10.82
-15,12,387,-106,-370,3956,-0.57,0.65,24.36,-1.06,-3.70,39.56,-5.27,2.80,2.79,1.67,-0.61,-9.97
-4,3,362,-37,-343,3983,-0.54,0.60,24.13,-0.37,-3.43,39.83,-5.26,2.79,2.69,-1.00,1.50,-8.06
-7,6,287,-30,-499,3880,-0.53,0.58,23.47,-0.30,-4.99,38.80,-5.27,2.79,2.60,-0.19,0.65,-2.33
-2,6,279,-10,-558,3928,-0.49,0.56,22.82,-0.10,-5.58,39.28,-5.28,2.78,2.51,-1.31,0.57,-2.26
-4,-5,276,35,-606,3921,-0.46,0.47,22.22,0.35,-6.06,39.21,-5.29,2.78,2.42,-0.71,3.04,-2.57
1,-8,272,18,-565,3908,-0.41,0.38,21.66,0.18,-5.65,39.08,-5.30,2.78,2.34,-1.79,3.44,-2.76
-6,-16,294,-179,-419,3916,-0.40,0.24,21.29,-1.79,-4.19,39.16,-5.32,2.78,2.25,0.01,4.96,-4.97
5,-12,305,-232,-363,3901,-0.33,0.14,21.02,-2.32,-3.63,39.01,-5.32,2.81,2.17,-2.52,3.58,-6.16
7,-9,366,-204,-273,3936,-0.26,0.07,21.15,-2.04,-2.73,39.36,-5.30,2.82,2.08,-2.74,2.56,-11.20
2,17,409,-103,-395,3962,-0.22,0.17,21.53,-1.03,-3.95,39.62,-5.30,2.81,2.00,-1.33,-3.69,-14.49
-15,10,448,145,-507,3963,-0.29,0.21,22.11,1.45,-5.07,39.63,-5.30,2.80,1.91,2.73,-1.74,-17.25
-14,26,454,177,-570,3939,-0.35,0.35,22.67,1.77,-5.70,39.39,-5.31,2.80,1.82,2.26,-5.29,-17.23
-12,25,515,303,-638,3968,-0.38,0.47,23.54,3.03,-6.38,39.68,-5.31,2.79,1.73,1.61,-4.60,-21.58
-22,35,549,260,-663,3921,-0.48,0.64,24.54,2.60,-6.63,39.21,-5.32,2.79,1.63,3.79,-6.51,-23.52
-14,43,698,135,-623,3922,-0.52,0.83,26.34,1.35,-6.23,39.22,-5.33,2.79,1.52,1.62,-7.80,-34.45
-17,36,745,70,-609,3866,-0.57,0.97,28.25,0.70,-6.09,38.66,-5.34,2.79,1.41,2.18,-5.50,-36.64
-10,13,858,-19,-447,3944,-0.57,0.95,30.66,-0.19,-4.47,39.44,-5.34,2.79,1.29,0.39,0.28,-43.95
-15,-18,859,51,-437,3944,-0.61,0.75,32.83,0.51,-4.37,39.44,-5.34,2.78,1.16,1.53,7.38,-42.00
-11,-17,777,126,-403,3963,-0.61,0.57,34.29,1.26,-4.03,39.63,-5.34,2.78,1.02,0.49,6.46,-33.68
-10,-23,699,163,-457,3957,-0.61,0.37,35.13,1.63,-4.57,39.57,-5.34,2.78,0.88,0.24,7.24,-26.29
-10,0,587,0,-433,3966,-0.61,0.33,35.19,0.00,-4.33,39.66,-5.34,2.77,0.75,0.24,1.25,-16.74
-12,-2,572,-6,-442,3927,-0.63,0.29,35.16,-0.06,-4.42,39.27,-5.34,2.77,0.61,0.70,1.59,-15.50
-9,0,557,-63,-433,3951,-0.62,0.26,35.04,-0.63,-4.33,39.51,-5.35,2.77,0.47,-0.03,0.97,-14.34
-5,9,549,-94,-385,3934,-0.59,0.29,34.89,-0.94,-3.85,39.34,-5.35,2.76,0.33,-0.93,-1.21,-13.81
-6,10,496,-164,-356,3873,-0.56,0.32,34.43,-1.64,-3.56,38.73,-5.34,2.76,0.19,-0.59,-1.34,-9.75
-12,-1,468,-130,-303,3926,-0.58,0.28,33.84,-1.30,-3.03,39.26,-5.32,2.76,0.05,0.87,1.31,-7.93
-6,-4,348,-145,-300,3919,-0.56,0.23,32.58,-1.45,-3.00,39.19,-5.30,2.76,-0.08,-0.58,1.88,1.05
-6,-5,317,-175,-365,3898,-0.54,0.18,31.25,-1.75,-3.65,38.98,-5.30,2.76,-0.20,-0.50,1.93,2.44
5,0,250,-114,-363,3978,-0.46,0.16,29.65,-1.14,-3.63,39.78,-5.30,2.75,-0.32,-2.98,0.59,6.61
3,2,214,-47,-431,3932,-0.39,0.16,27.99,-0.47,-4.31,39.32,-5.30,2.75,-0.43,-2.23,0.07,8.10
-2,10,210,10,-544,3946,-0.36,0.20,26.47,0.10,-5.44,39.46,-5.31,2.74,-0.53,-0.86,-1.79,7.02
-5,4,214,44,-565,3971,-0.36,0.21,25.13,0.44,-5.65,39.71,-5.32,2.74,-0.63,-0.07,-0.25,5.42
2,6,208,1,-510,3941,-0.31,0.22,23.89,0.01,-5.10,39.41,-5.32,2.73,-0.73,-1.67,-0.70,4.76
-8,5,215,-10,-478,3910,-0.33,0.23,22.81,-0.10,-4.78,39.10,-5.33,2.73,-0.82,0.80,-0.41,3.15
-14,-7,251,-180,-413,4000,-0.38,0.16,22.06,-1.80,-4.13,40.00,-5.35,2.73,-0.91,2.13,2.39,-0.60
-8,-5,252,-171,-382,3815,-0.39,0.12,21.39,-1.71,-3.82,38.15,-5.36,2.73,-0.99,0.57,1.70,-1.32
-4,-16,191,-107,-316,3874,-0.38,0.01,20.42,-1.07,-3.16,38.74,-5.35,2.72,-1.07,-0.40,4.09,2.94
-2,-3,171,-116,-337,3929,-0.35,-0.01,19.42,-1.16,-3.37,39.29,-5.34,2.72,-1.15,-0.81,0.71,3.69
-7,2,115,-70,-415,3977,-0.36,0.00,18.18,-0.70,-4.15,39.77,-5.34,2.70,-1.22,0.43,-0.51,7.27
-4,6,94,-35,-429,3927,-0.35,0.04,16.93,-0.35,-4.29,39.27,-5.35,2.69,-1.29,-0.28,-1.39,7.89
-6,8,85,-5,-467,3925,-0.35,0.08,15.76,-0.05,-4.67,39.25,-5.36,2.68,-1.35,0.22,-1.73,7.54
-2,11,84,-58,-462,3924,-0.33,0.14,14.70,-0.58,-4.62,39.24,-5.37,2.68,-1.41,-0.71,-2.27,6.63
-3,3,74,48,-521,3952,-0.31,0.15,13.68,0.48,-5.21,39.52,-5.37,2.67,-1.46,-0.41,-0.22,6.52
0,-1,72,89,-540,3970,-0.28,0.13,12.75,0.89,-5.40,39.70,-5.38,2.66,-1.51,-1.05,0.72,5.82
-4,5,109,119,-602,3929,-0.28,0.14,12.14,1.19,-6.02,39.29,-5.39,2.65,-1.56,-0.02,-0.74,2.11
-7,0,121,95,-593,3915,-0.29,0.13,11.66,0.95,-5.93,39.15,-5.40,2.64,-1.61,0.69,0.48,0.65
-12,0,170,5,-537,3903,-0.34,0.12,11.53,0.05,-5.37,39.03,-5.41,2.63,-1.65,1.79,0.43,-3.62
-13,0,174,-22,-518,3892,-0.38,0.10,11.44,-0.22,-5.18,38.92,-5.43,2.62,-1.70,1.87,0.39,-4.05
-13,2,162,6,-452,3996,-0.42,0.11,11.29,0.06,-4.52,39.96,-5.43,2.61,-1.74,1.72,-0.12,-3.18
-14,-7,151,3,-373,3955,-0.47,0.05,11.08,0.03,-3.73,39.55,-5.43,2.59,-1.79,1.81,1.97,-2.44
-3,-5,98,-131,-282,3890,-0.44,0.02,10.57,-1.31,-2.82,38.90,-5.42,2.59,-1.83,-0.88,1.33,1.57
-1,-4,81,-166,-303,3927,-0.40,-0.01,10.01,-1.66,-3.03,39.27,-5.40,2.59,-1.87,-1.25,0.97,2.48
-1,-9,20,-215,-261,3937,-0.37,-0.06,9.13,-2.15,-2.61,39.37,-5.38,2.60,-1.91,-1.12,2.04,6.82
2,-9,5,-177,-289,3933,-0.32,-0.11,8.24,-1.77,-2.89,39.33,-5.36,2.60,-1.94,-1.70,1.86,7.27
-3,-89,-37,-47,-437,3837,-0.30,-0.64,7.19,-0.47,-4.37,38.37,-5.37,2.58,-1.97,-0.37,20.19,9.84
9,-35,-28,-51,-444,3860,-0.22,-0.79,6.30,-0.51,-4.44,38.60,-5.38,2.57,-2.00,-3.10,5.90,8.24
2,-5,-46,33,-422,3952,-0.18,-0.74,5.39,0.33,-4.22,39.52,-5.38,2.55,-2.02,-1.20,-1.54,8.91
1,-2,-73,49,-414,3954,-0.16,-0.68,4.41,0.49,-4.14,39.54,-5.39,2.53,-2.03,-0.85,-2.07,10.27
-1,5,-132,31,-370,3916,-0.15,-0.58,3.16,0.31,-3.70,39.16,-5.39,2.51,-2.05,-0.30,-3.47,14.10
-1,7,-162,33,-415,3892,-0.14,-0.48,1.86,0.33,-4.15,38.92,-5.39,2.49,-2.06,-0.27,-3.60,15.42
-4,19,-65,22,-377,3939,-0.15,-0.32,1.28,0.22,-3.77,39.39,-5.39,2.47,-2.06,0.45,-6.03,6.65
1,16,-53,9,-421,3913,-0.13,-0.19,0.82,0.09,-4.21,39.13,-5.40,2.45,-2.06,-0.74,-4.78,5.21
1,0,-56,-23,-513,3928,-0.11,-0.17,0.40,-0.23,-5.13,39.28,-5.41,2.44,-2.06,-0.66,-0.65,5.07
1,-5,-66,-16,-462,3948,-0.09,-0.18,-0.04,-0.16,-4.62,39.48,-5.42,2.42,-2.06,-0.60,0.57,5.50
0,-3,-132,1,-432,4037,-0.08,-0.18,-0.84,0.01,-4.32,40.37,-5.43,2.41,-2.06,-0.31,0.06,10.34
3,-11,-132,10,-424,3916,-0.06,-0.23,-1.56,0.10,-4.24,39.16,-5.43,2.39,-2.05,-0.97,1.91,9.67
6,11,-177,-22,-470,3922,-0.02,-0.14,-2.49,-0.22,-4.70,39.22,-5.44,2.37,-2.04,-1.58,-3.34,12.61
0,20,-193,-6,-494,3958,-0.01,-0.01,-3.42,-0.06,-4.94,39.58,-5.45,2.35,-2.03,-0.04,-5.11,13.09
4,-3,-236,-49,-487,3911,0.01,-0.02,-4.51,-0.49,-4.87,39.11,-5.47,2.34,-2.01,-0.96,0.67,15.71
3,-21,-238,-20,-529,3947,0.03,-0.15,-5.51,-0.20,-5.29,39.47,-5.48,2.32,-1.99,-0.65,4.77,14.94
0,-1,-236,45,-559,3934,0.03,-0.14,-6.40,0.45,-5.59,39.34,-5.49,2.31,-1.96,0.11,-0.28,13.93
-1,-7,-238,24,-571,3922,0.02,-0.17,-7.21,0.24,-5.71,39.22,-5.51,2.29,-1.93,0.33,1.14,13.34
-4,-17,-271,42,-532,3951,-0.01,-0.26,-8.15,0.42,-5.32,39.51,-5.52,2.27,-1.90,0.99,3.35,15.26
1,-4,-286,53,-473,3908,-0.00,-0.25,-9.08,0.53,-4.73,39.08,-5.53,2.25,-1.86,-0.25,0.05,15.66
3,-3,-355,-4,-485,3937,0.02,-0.25,-10.33,-0.04,-4.85,39.37,-5.54,2.23,-1.82,-0.69,-0.18,20.33
16,-6,-369,49,-421,3954,0.11,-0.26,-11.55,0.49,-4.21,39.54,-5.55,2.21,-1.78,-3.63,0.54,20.37
10,-1,-418,-12,-443,3909,0.16,-0.24,-12.95,-0.12,-4.43,39.09,-5.56,2.18,-1.73,-1.92,-0.66,23.21
10,-1,-438,-11,-423,3882,0.21,-0.22,-14.32,-0.11,-4.23,38.82,-5.56,2.16,-1.67,-1.75,-0.59,23.61
-3,-12,-479,-79,-414,3923,0.17,-0.27,-15.81,-0.79,-4.14,39.23,-5.57,2.14,-1.61,1.40,2.02,25.69
19,-7,-507,-48,-322,3923,0.27,-0.29,-17.32,-0.48,-3.22,39.23,-5.56,2.11,-1.54,-3.81,0.69,26.64
4,11,-607,-57,-322,3891,0.26,-0.19,-19.29,-0.57,-3.22,38.91,-5.56,2.09,-1.46,-0.01,-3.53,33.27
-1,-9,-627,-14,-317,4103,0.23,-0.23,-21.19,-0.14,-3.17,41.03,-5.55,2.07,-1.38,1.14,1.42,33.18
19,3,-715,-12,-322,3966,0.32,-0.19,-23.43,-0.12,-3.22,39.66,-5.54,2.04,-1.28,-3.60,-1.47,38.53
7,-4,-744,-63,-324,3943,0.34,-0.19,-25.63,-0.63,-3.24,39.43,-5.53,2.01,-1.18,-0.51,0.28,38.93
5,-5,-843,-65,-309,3881,0.33,-0.20,-28.21,-0.65,-3.09,38.81,-5.52,1.99,-1.07,-0.01,0.50,44.90
11,0,-875,-36,-303,3923,0.37,-0.18,-30.72,-0.36,-3.03,39.23,-5.52,1.96,-0.95,-1.41,-0.70,45.25
23,-2,-983,21,-247,3965,0.47,-0.18,-33.65,0.21,-2.47,39.65,-5.51,1.93,-0.81,-4.07,-0.17,51.65
10,-6,-1017,10,-295,3937,0.48,-0.20,-36.49,0.10,-2.95,39.37,-5.50,1.90,-0.67,-0.71,0.78,51.87
15,-1,-1144,38,-319,3910,0.53,-0.18,-39.82,0.38,-3.19,39.10,-5.50,1.87,-0.51,-1.82,-0.44,59.50
14,7,-1204,-35,-370,3880,0.56,-0.12,-43.18,-0.35,-3.70,38.80,-5.50,1.83,-0.34,-1.44,-2.24,61.43
15,3,-1301,-61,-316,3877,0.60,-0.09,-46.80,-0.61,-3.16,38.77,-5.49,1.80,-0.15,-1.56,-1.11,66.26
10,2,-1332,-51,-355,3947,0.60,-0.07,-50.24,-0.51,-3.55,39.47,-5.49,1.77,0.05,-0.29,-0.78,65.65
36,-15,-1395,-101,-369,3964,0.76,-0.15,-53.73,-1.01,-3.69,39.64,-5.48,1.73,0.26,-6.29,3.22,67.72
31,-10,-1412,-104,-346,3941,0.87,-0.20,-56.97,-1.04,-3.46,39.41,-5.47,1.70,0.49,-4.59,1.78,66.12
22,-20,-1445,-118,-392,3968,0.92,-0.30,-60.09,-1.18,-3.92,39.68,-5.49,1.67,0.73,-2.13,3.94,65.99
24,-40,-1444,-148,-432,3940,0.97,-0.52,-62.89,-1.48,-4.32,39.40,-5.51,1.66,0.98,-2.43,8.22,63.28
32,-16,-1440,-201,-436,3987,1.07,-0.56,-65.38,-2.01,-4.36,39.87,-5.52,1.65,1.24,-4.10,1.94,60.60
8,-30,-1427,-176,-361,3962,1.01,-0.69,-67.55,-1.76,-3.61,39.62,-5.52,1.63,1.51,1.78,5.02,57.46
36,-31,-1403,-117,-356,3978,1.13,-0.81,-69.35,-1.17,-3.56,39.78,-5.51,1.61,1.78,-4.89,4.83,53.74
18,-13,-1397,-112,-437,3898,1.13,-0.81,-70.94,-1.12,-4.37,38.98,-5.53,1.58,2.06,-0.32,0.26,51.75
19,-13,-1387,-115,-459,3902,1.13,-0.81,-72.30,-1.15,-4.59,39.02,-5.55,1.55,2.35,-0.57,0.26,49.62
17,-10,-1390,-102,-540,3918,1.12,-0.79,-73.55,-1.02,-5.40,39.18,-5.57,1.51,2.65,-0.09,-0.43,48.70
7,4,-1410,-115,-526,3889,1.05,-0.68,-74.80,-1.15,-5.26,38.89,-5.59,1.48,2.94,2.19,-3.60,49.23
22,17,-1420,-109,-552,3912,1.08,-0.51,-75.98,-1.09,-5.52,39.12,-5.62,1.45,3.25,-1.51,-6.25,48.97
35,-23,-1434,-80,-552,3966,1.19,-0.60,-77.13,-0.80,-5.52,39.66,-5.64,1.42,3.55,-4.42,3.58,49.08
13,-2,-1434,-102,-560,3814,1.15,-0.55,-78.16,-1.02,-5.60,38.14,-5.66,1.39,3.87,1.02,-1.58,48.11
4,-17,-1394,-110,-641,3943,1.06,-0.60,-78.85,-1.10,-6.41,39.43,-5.68,1.35,4.18,2.97,2.05,44.08
15,-8,-1377,-91,-628,3944,1.04,-0.59,-79.37,-0.91,-6.28,39.44,-5.70,1.32,4.50,0.12,-0.20,42.16
32,-5,-1328,-7,-630,3944,1.13,-0.56,-79.53,-0.07,-6.30,39.44,-5.72,1.28,4.81,-3.86,-0.85,37.86
21,-11,-1303,-30,-590,3863,1.15,-0.57,-79.53,-0.30,-5.90,38.63,-5.74,1.24,5.13,-1.01,0.63,35.75
26,-10,-1260,-49,-427,3970,1.19,-0.58,-79.26,-0.49,-4.27,39.70,-5.75,1.19,5.45,-2.11,0.36,32.36
31,-15,-1249,-87,-417,3976,1.26,-0.61,-78.95,-0.87,-4.17,39.76,-5.77,1.16,5.76,-3.12,1.51,31.72
6,-13,-1203,-228,-360,3913,1.17,-0.63,-78.40,-2.28,-3.60,39.13,-5.77,1.15,6.07,2.90,0.93,28.35
9,-24,-1194,-192,-322,3944,1.11,-0.71,-77.84,-1.92,-3.22,39.44,-5.76,1.13,6.38,1.90,3.41,28.11
21,-22,-1161,-88,-373,3965,1.13,-0.77,-77.14,-0.88,-3.73,39.65,-5.75,1.10,6.69,-1.09,2.67,25.98
36,-25,-1151,-73,-364,3944,1.23,-0.85,-76.44,-0.73,-3.64,39.44,-5.73,1.06,6.99,-4.50,3.15,25.78
-7,-18,-1137,-27,-452,3887,1.07,-0.87,-75.74,-0.27,-4.52,38.87,-5.74,1.02,7.29,5.81,1.27,25.27
13,-6,-1141,-42,-415,3898,1.04,-0.82,-75.12,-0.42,-4.15,38.98,-5.76,0.97,7.59,0.62,-1.58,26.18
8,-18,-1135,-77,-455,3910,0.99,-0.85,-74.53,-0.77,-4.55,39.10,-5.78,0.94,7.89,1.68,1.36,26.23
17,-27,-1131,-24,-432,3941,0.99,-0.93,-73.98,-0.24,-4.32,39.41,-5.79,0.89,8.18,-0.58,3.35,26.41
15,-14,-1110,-11,-350,3974,0.98,-0.92,-73.35,-0.11,-3.50,39.74,-5.78,0.85,8.47,-0.10,0.07,25.22
5,-14,-1106,-34,-379,3989,0.91,-0.92,-72.76,-0.34,-3.79,39.89,-5.76,0.80,8.76,2.18,0.10,25.44
10,-14,-1111,-72,-400,3869,0.88,-0.91,-72.26,-0.72,-4.00,38.69,-5.77,0.78,9.05,0.80,0.12,26.33
18,-10,-1124,-105,-397,3896,0.91,-0.88,-71.89,-1.05,-3.97,38.96,-5.77,0.77,9.34,-1.16,-0.78,27.78
29,-21,-1185,-50,-414,3927,0.99,-0.92,-71.93,-0.50,-4.14,39.27,-5.79,0.73,9.62,-3.63,1.87,32.91
-2,-10,-1203,-89,-406,3837,0.88,-0.89,-72.08,-0.89,-4.06,38.37,-5.80,0.72,9.91,3.83,-0.81,34.30
22,-19,-1262,-64,-329,3921,0.93,-0.92,-72.57,-0.64,-3.29,39.21,-5.78,0.69,10.20,-2.09,1.37,38.84
28,-24,-1279,-66,-328,4008,1.00,-0.97,-73.11,-0.66,-3.28,40.08,-5.76,0.66,10.49,-3.33,2.44,39.76
22,-38,-1335,-20,-368,4027,1.04,-1.11,-73.95,-0.20,-3.68,40.27,-5.75,0.62,10.78,-1.67,5.49,43.73
21,-15,-1354,-3,-386,3906,1.06,-1.09,-74.81,-0.03,-3.86,39.06,-5.74,0.56,11.08,-1.33,-0.29,44.52
27,-22,-1382,-73,-387,3969,1.12,-1.11,-75.76,-0.73,-3.87,39.69,-5.73,0.55,11.38,-2.63,1.40,46.01
33,-27,-1382,-45,-363,3982,1.21,-1.17,-76.61,-0.45,-3.63,39.82,-5.71,0.51,11.68,-3.82,2.47,45.20
27,-20,-1367,-91,-373,3816,1.25,-1.17,-77.29,-0.91,-3.73,38.16,-5.71,0.50,11.99,-2.13,0.67,43.30
15,-26,-1362,-93,-393,3950,1.22,-1.21,-77.87,-0.93,-3.93,39.50,-5.71,0.48,12.30,0.79,2.03,42.33
14,-10,-1353,-66,-324,3993,1.18,-1.15,-78.34,-0.66,-3.24,39.93,-5.69,0.45,12.61,0.91,-1.80,41.13
20,-28,-1355,-62,-353,4020,1.19,-1.21,-78.77,-0.62,-3.53,40.20,-5.67,0.42,12.92,-0.61,2.56,40.89
26,-36,-1351,-86,-407,3940,1.23,-1.31,-79.13,-0.86,-4.07,39.40,-5.67,0.41,13.24,-1.98,4.22,40.21
-1,-25,-1355,-104,-464,3896,1.10,-1.33,-79.49,-1.04,-4.64,38.96,-5.68,0.38,13.55,4.40,1.34,40.22
45,-17,-1363,-35,-439,3978,1.26,-1.30,-79.85,-0.35,-4.39,39.78,-5.70,0.35,13.87,-6.67,-0.58,40.56
13,-28,-1358,-105,-524,3928,1.22,-1.34,-80.15,-1.05,-5.24,39.28,-5.71,0.32,14.19,1.28,2.06,39.85
19,-12,-1349,211,-724,3872,1.21,-1.28,-80.36,2.11,-7.24,38.72,-5.72,0.27,14.51,-0.26,-1.77,38.89
32,-12,-1341,-4,-682,4033,1.28,-1.22,-80.51,-0.04,-6.82,40.33,-5.74,0.24,14.83,-3.29,-1.57,38.08
23,3,-1217,48,-653,3856,1.30,-1.08,-79.88,0.48,-6.53,38.56,-5.75,0.19,15.15,-0.96,-4.85,28.16
11,12,-1191,-64,-678,3944,1.23,-0.90,-79.16,-0.64,-6.78,39.44,-5.76,0.16,15.46,1.86,-6.45,26.63
19,-2,-1093,-31,-589,3952,1.23,-0.82,-77.91,-0.31,-5.89,39.52,-5.78,0.13,15.77,-0.20,-2.60,19.50
1,-6,-1065,-40,-592,3925,1.11,-0.78,-76.61,-0.40,-5.92,39.25,-5.79,0.10,16.08,3.93,-1.41,18.35
16,-8,-970,2,-512,3929,1.10,-0.75,-74.87,0.02,-5.12,39.29,-5.81,0.06,16.37,0.07,-0.80,11.94
6,-14,-947,-20,-552,3952,1.02,-0.76,-73.16,-0.20,-5.52,39.52,-5.82,0.03,16.67,2.33,0.69,11.59
5,-3,-889,-15,-492,3879,0.95,-0.70,-71.27,-0.15,-4.92,38.79,-5.83,0.00,16.95,2.32,-1.89,8.46
18,-16,-863,1,-456,3957,0.97,-0.73,-69.40,0.01,-4.56,39.57,-5.85,-0.03,17.22,-0.93,1.31,8.00
-6,-21,-829,-82,-446,3912,0.83,-0.78,-67.52,-0.82,-4.46,39.12,-5.85,-0.04,17.49,4.67,2.38,6.89
11,-24,-822,-88,-428,3953,0.82,-0.85,-65.78,-0.88,-4.28,39.53,-5.86,-0.05,17.75,0.29,2.88,7.93
14,-12,-821,-48,-382,3912,0.82,-0.84,-64.21,-0.48,-3.82,39.12,-5.85,-0.07,18.01,-0.46,-0.12,9.32
12,-18,-822,-54,-395,3888,0.81,-0.87,-62.81,-0.54,-3.95,38.88,-5.84,-0.08,18.26,0.01,1.31,10.72
15,-20,-844,-49,-382,3891,0.82,-0.90,-61.67,-0.49,-3.82,38.91,-5.83,-0.09,18.50,-0.71,1.68,13.65
12,-16,-843,-50,-426,3973,0.81,-0.91,-60.65,-0.50,-4.26,39.73,-5.83,-0.10,18.74,0.02,0.64,14.53
6,-18,-826,-85,-417,3933,0.77,-0.93,-59.62,-0.85,-4.17,39.33,-5.83,-0.11,18.98,1.37,1.07,14.05
15,-28,-818,-109,-377,3969,0.78,-1.01,-58.65,-1.09,-3.77,39.69,-5.83,-0.12,19.21,-0.86,3.32,14.29
6,-31,-797,-92,-524,3921,0.74,-1.09,-57.65,-0.92,-5.24,39.21,-5.84,-0.14,19.44,1.27,3.75,13.45
2,-24,-770,-92,-487,3858,0.68,-1.13,-56.58,-0.92,-4.87,38.58,-5.85,-0.15,19.67,2.06,1.83,12.16
-4,-13,-734,-99,-529,3955,0.59,-1.10,-55.40,-0.99,-5.29,39.55,-5.86,-0.16,19.89,3.23,-0.84,10.22
4,-9,-732,-72,-511,3930,0.55,-1.04,-54.32,-0.72,-5.11,39.30,-5.87,-0.18,20.10,1.07,-1.65,11.06
-3,7,-724,-156,-561,3863,0.48,-0.90,-53.31,-1.56,-5.61,38.63,-5.88,-0.19,20.32,2.57,-5.16,11.34
18,-3,-728,-140,-553,3979,0.54,-0.82,-52.42,-1.40,-5.53,39.79,-5.89,-0.20,20.52,-2.53,-2.35,12.51
7,-8,-733,-132,-570,4026,0.53,-0.79,-51.65,-1.32,-5.70,40.26,-5.90,-0.22,20.73,0.22,-0.95,13.66
5,-10,-723,-54,-569,3843,0.51,-0.77,-50.89,-0.54,-5.69,38.43,-5.91,-0.23,20.93,0.64,-0.37,13.52
4,-6,-715,-59,-587,3891,0.48,-0.73,-50.17,-0.59,-5.87,38.91,-5.93,-0.25,21.13,0.80,-1.24,13.53
9,-15,-711,-32,-604,3867,0.49,-0.75,-49.49,-0.32,-6.04,38.67,-5.94,-0.27,21.33,-0.45,0.98,13.83
15,-30,-684,33,-553,3918,0.53,-0.86,-48.71,0.33,-5.53,39.18,-5.96,-0.29,21.52,-1.81,4.39,12.27
22,-15,-672,99,-490,3918,0.61,-0.86,-47.94,0.99,-4.90,39.18,-5.97,-0.33,21.71,-3.28,0.55,11.98
14,-5,-679,31,-442,3946,0.64,-0.81,-47.29,0.31,-4.42,39.46,-5.98,-0.36,21.90,-1.16,-1.78,13.18
16,5,-687,298,-322,3976,0.67,-0.70,-46.75,2.98,-3.22,39.76,-5.97,-0.40,22.08,-1.54,-3.90,14.36
6,-12,-702,-11,-230,3988,0.64,-0.70,-46.36,-0.11,-2.30,39.88,-5.95,-0.42,22.27,0.89,0.41,16.00
8,-8,-665,-101,-107,3886,0.62,-0.68,-45.78,-1.01,-1.07,38.86,-5.93,-0.43,22.45,0.32,-0.53,13.41
5,-6,-535,-165,-55,3935,0.59,-0.65,-44.46,-1.65,-0.55,39.35,-5.91,-0.44,22.63,0.96,-0.92,3.63
19,-18,-518,-126,-49,3902,0.65,-0.69,-43.18,-1.26,-0.49,39.02,-5.89,-0.45,22.80,-2.38,1.96,3.40
7,-11,-497,-101,-136,3873,0.63,-0.69,-41.89,-1.01,-1.36,38.73,-5.87,-0.47,22.97,0.59,0.19,2.83
2,-23,-510,-123,-133,3914,0.58,-0.76,-40.81,-1.23,-1.33,39.14,-5.85,-0.48,23.13,1.67,2.97,4.94
9,-10,-559,-138,-191,3985,0.57,-0.75,-40.14,-1.38,-1.91,39.85,-5.83,-0.49,23.29,-0.12,-0.28,9.72
5,-30,-579,-28,-253,3899,0.55,-0.86,-39.66,-0.28,-2.53,38.99,-5.81,-0.50,23.44,0.79,4.40,11.87
7,-15,-668,-31,-314,3926,0.53,-0.86,-39.77,-0.31,-3.14,39.26,-5.79,-0.51,23.60,0.24,0.56,19.31
17,-22,-693,31,-354,3999,0.58,-0.91,-40.02,0.31,-3.54,39.99,-5.77,-0.52,23.76,-2.11,2.16,21.19
14,2,-817,-42,-317,3919,0.61,-0.81,-41.00,-0.42,-3.17,39.19,-5.75,-0.53,23.92,-1.25,-3.55,30.77
21,-5,-859,-55,-330,3945,0.68,-0.76,-42.14,-0.55,-3.30,39.45,-5.74,-0.54,24.09,-2.78,-1.58,33.26
10,-7,-991,-163,-248,3905,0.67,-0.72,-43.97,-1.63,-2.48,39.05,-5.72,-0.54,24.27,-0.01,-0.95,42.73
24,-8,-1025,-98,-215,3970,0.75,-0.70,-45.83,-0.98,-2.15,39.70,-5.70,-0.55,24.45,-3.27,-0.61,43.86
-5,-14,-1133,-108,-319,3903,0.65,-0.71,-48.15,-1.08,-3.19,39.03,-5.69,-0.56,24.64,3.71,0.86,50.83
8,-10,-1176,-97,-279,3914,0.63,-0.70,-50.51,-0.97,-2.79,39.14,-5.67,-0.57,24.84,0.34,-0.12,52.26
23,-9,-1280,-60,-335,3961,0.71,-0.69,-53.27,-0.60,-3.35,39.61,-5.66,-0.57,25.05,-3.18,-0.31,58.48
22,-12,-1328,-113,-352,3914,0.77,-0.69,-56.04,-1.13,-3.52,39.14,-5.65,-0.58,25.28,-2.69,0.43,59.94
3,-19,-1411,-229,-416,3904,0.71,-0.74,-59.05,-2.29,-4.16,39.04,-5.65,-0.59,25.51,1.92,2.04,64.16
30,-26,-1443,-114,-421,3976,0.82,-0.82,-61.94,-1.14,-4.21,39.76,-5.65,-0.60,25.76,-4.52,3.50,64.15
31,-27,-1536,-89,-409,3980,0.93,-0.91,-65.12,-0.89,-4.09,39.80,-5.64,-0.61,26.02,-4.37,3.44,69.04
36,-31,-1561,-61,-448,3893,1.06,-1.01,-68.13,-0.61,-4.48,38.93,-5.64,-0.62,26.29,-5.16,4.09,68.34
-2,-17,-1607,-142,-533,3887,0.94,-1.01,-71.12,-1.42,-5.33,38.87,-5.65,-0.64,26.57,4.05,0.52,69.43
10,-28,-1618,-108,-465,3899,0.91,-1.08,-73.88,-1.08,-4.65,38.99,-5.65,-0.66,26.86,0.88,3.05,67.77
37,-11,-1643,-192,-449,3885,1.04,-1.04,-76.51,-1.92,-4.49,38.85,-5.65,-0.68,27.17,-5.48,-1.12,67.41
46,-26,-1650,-126,-440,4082,1.22,-1.09,-78.93,-1.26,-4.40,40.82,-5.64,-0.69,27.48,-7.10,2.49,65.74
12,-22,-1690,-166,-486,3939,1.17,-1.12,-81.34,-1.66,-4.86,39.39,-5.64,-0.71,27.80,1.36,1.38,66.86
43,-4,-1712,-103,-443,3974,1.31,-1.03,-83.65,-1.03,-4.43,39.74,-5.64,-0.73,28.14,-5.97,-2.87,66.56
29,-23,-1733,-73,-400,4008,1.36,-1.07,-85.86,-0.73,-4.00,40.08,-5.63,-0.75,28.48,-2.24,1.82,66.26
27,-20,-1732,-35,-372,3988,1.39,-1.08,-87.84,-0.35,-3.72,39.88,-5.61,-0.77,28.83,-1.63,1.00,64.32
7,-2,-1690,-46,-369,3950,1.29,-0.99,-89.36,-0.46,-3.69,39.50,-5.60,-0.79,29.18,3.09,-3.21,59.33
38,-17,-1674,-6,-291,3935,1.40,-0.99,-90.64,-0.06,-2.91,39.35,-5.57,-0.82,29.54,-4.40,0.58,56.78
22,-23,-1577,-44,-349,3906,1.39,-1.03,-91.19,-0.44,-3.49,39.06,-5.56,-0.85,29.91,-0.35,1.95,48.04
14,-16,-1547,-80,-298,3946,1.34,-1.03,-91.51,-0.80,-2.98,39.46,-5.54,-0.87,30.27,1.48,0.19,45.20
27,-23,-1461,-21,-290,3962,1.37,-1.06,-91.27,-0.21,-2.90,39.62,-5.51,-0.90,30.63,-1.71,1.83,38.14
20,-14,-1439,12,-344,3892,1.35,-1.04,-90.92,0.12,-3.44,38.92,-5.49,-0.92,31.00,0.01,-0.38,36.60
5,-10,-1380,-7,-373,3857,1.25,-1.00,-90.25,-0.07,-3.73,38.57,-5.48,-0.94,31.35,3.43,-1.23,32.23
16,-18,-1315,24,-420,3919,1.22,-1.01,-89.24,0.24,-4.20,39.19,-5.48,-0.97,31.71,0.53,0.77,27.67
4,7,-1163,84,-363,4000,1.12,-0.87,-87.41,0.84,-3.63,40.00,-5.46,-1.01,32.06,3.22,-5.05,16.51
15,22,-1128,33,-412,3950,1.10,-0.65,-85.55,0.33,-4.12,39.50,-5.46,-1.04,32.40,0.34,-8.03,15.29
11,32,-987,-78,-404,4043,1.06,-0.39,-83.02,-0.78,-4.04,40.43,-5.45,-1.05,32.73,1.20,-9.59,5.73
22,16,-947,-14,-413,3990,1.09,-0.25,-80.49,-0.14,-4.13,39.90,-5.45,-1.07,33.05,-1.49,-5.01,4.71
13,-12,-803,0,-485,3963,1.06,-0.30,-77.34,0.00,-4.85,39.63,-5.45,-1.09,33.36,0.68,1.92,-4.53
12,-3,-769,-13,-421,3820,1.03,-0.29,-74.30,-0.13,-4.21,38.20,-5.45,-1.10,33.65,0.81,-0.32,-4.56
-14,-2,-656,-33,-480,3874,0.84,-0.27,-70.87,-0.33,-4.80,38.74,-5.46,-1.11,33.93,6.72,-0.51,-10.91
26,3,-627,-31,-336,3986,0.91,-0.22,-67.61,-0.31,-3.36,39.86,-5.44,-1.12,34.20,-3.17,-1.61,-10.31
12,-1,-490,-9,-355,3982,0.89,-0.21,-63.84,-0.09,-3.55,39.82,-5.43,-1.13,34.46,0.32,-0.53,-18.37
20,1,-440,-6,-331,3910,0.93,-0.18,-60.14,-0.06,-3.31,39.10,-5.41,-1.14,34.70,-1.59,-0.94,-19.13
5,-7,-344,-183,-296,3934,0.86,-0.21,-56.22,-1.83,-2.96,39.34,-5.40,-1.14,34.92,1.99,1.00,-23.59
4,-14,-328,-157,-280,3907,0.80,-0.27,-52.60,-1.57,-2.80,39.07,-5.39,-1.15,35.13,2.01,2.54,-21.55
1,-21,-331,-212,-292,3922,0.73,-0.37,-49.36,-2.12,-2.92,39.22,-5.37,-1.15,35.33,2.49,3.93,-18.25
0,-21,-337,-175,-325,3939,0.66,-0.46,-46.48,-1.75,-3.25,39.39,-5.36,-1.15,35.51,2.47,3.59,-15.04
1,-12,-390,-88,-390,3876,0.60,-0.49,-44.21,-0.88,-3.90,38.76,-5.36,-1.15,35.69,1.99,1.20,-8.42
17,-5,-412,-52,-396,3993,0.64,-0.47,-42.30,-0.52,-3.96,39.93,-5.36,-1.15,35.86,-1.91,-0.51,-4.76
14,8,-497,-75,-304,4009,0.66,-0.38,-41.10,-0.75,-3.04,40.09,-5.34,-1.15,36.02,-1.06,-3.45,3.56
5,-3,-521,-63,-272,3926,0.63,-0.36,-40.17,-0.63,-2.72,39.26,-5.33,-1.15,36.18,1.09,-0.58,6.47
9,-5,-584,-28,-286,3869,0.62,-0.35,-39.72,-0.28,-2.86,38.69,-5.31,-1.15,36.34,0.04,-0.05,12.24
4,-8,-633,-44,-255,4001,0.58,-0.36,-39.61,-0.44,-2.55,40.01,-5.29,-1.16,36.50,1.17,0.66,16.49
19,3,-732,11,-277,3978,0.64,-0.31,-40.11,0.11,-2.77,39.78,-5.27,-1.16,36.66,-2.42,-1.93,24.41
-3,-17,-751,0,-311,3993,0.56,-0.38,-40.68,0.00,-3.11,39.93,-5.26,-1.16,36.82,2.86,2.88,25.48
8,-8,-817,-33,-238,3973,0.55,-0.39,-41.60,-0.33,-2.38,39.73,-5.24,-1.17,36.98,0.04,0.55,30.21
9,-7,-836,-59,-281,3882,0.55,-0.40,-42.54,-0.59,-2.81,38.82,-5.22,-1.17,37.15,-0.22,0.28,30.94
16,-17,-911,-32,-336,3923,0.59,-0.46,-43.84,-0.32,-3.36,39.23,-5.21,-1.17,37.33,-1.83,2.58,36.07
1,-12,-928,-117,-394,3833,0.54,-0.49,-45.12,-1.17,-3.94,38.33,-5.21,-1.17,37.51,1.78,1.21,36.31
-3,-1,-964,-113,-437,3889,0.47,-0.45,-46.49,-1.13,-4.37,38.89,-5.21,-1.17,37.69,2.52,-1.43,38.08
20,-21,-968,-93,-405,4121,0.54,-0.53,-47.74,-0.93,-4.05,41.21,-5.21,-1.17,37.88,-3.04,3.34,37.24
17,-4,-960,-63,-447,3936,0.59,-0.50,-48.82,-0.63,-4.47,39.36,-5.21,-1.18,38.08,-2.09,-0.87,35.54
34,-10,-942,-122,-415,3977,0.74,-0.51,-49.69,-1.22,-4.15,39.77,-5.21,-1.18,38.27,-5.85,0.61,33.21
16,-5,-916,-115,-457,4057,0.76,-0.49,-50.31,-1.15,-4.57,40.57,-5.21,-1.18,38.47,-1.19,-0.58,30.42
20,-18,-902,49,-331,3911,0.81,-0.55,-50.78,0.49,-3.31,39.11,-5.19,-1.19,38.68,-2.03,2.50,28.79
11,-12,-863,-7,-370,3931,0.80,-0.57,-50.96,-0.07,-3.70,39.31,-5.19,-1.19,38.88,0.20,0.90,25.32
4,2,-860,-15,-351,3847,0.74,-0.50,-51.11,-0.15,-3.51,38.47,-5.18,-1.19,39.08,1.77,-2.40,24.92
-1,1,-851,-84,-291,3871,0.66,-0.44,-51.19,-0.84,-2.91,38.71,-5.17,-1.19,39.29,2.74,-1.93,24.08
1,6,-857,-73,-225,3952,0.60,-0.36,-51.30,-0.73,-2.25,39.52,-5.15,-1.20,39.49,2.01,-2.90,24.49
-14,5,-882,-136,-351,3889,0.45,-0.30,-51.55,-1.36,-3.51,38.89,-5.14,-1.20,39.70,5.27,-2.39,26.37
-8,-4,-886,-68,-350,3964,0.36,-0.29,-51.80,-0.68,-3.50,39.64,-5.14,-1.20,39.90,3.39,-0.08,26.48
-25,-2,-907,21,-392,3986,0.17,-0.27,-52.15,0.21,-3.92,39.86,-5.14,-1.21,40.11,7.00,-0.53,27.93
-92,-5,-884,-3,-514,4116,-0.41,-0.28,-52.33,-0.03,-5.14,41.16,-5.15,-1.22,40.32,21.85,0.22,25.81
-66,14,-861,-223,-474,3859,-0.77,-0.16,-52.35,-2.23,-4.74,38.59,-5.16,-1.22,40.53,13.88,-4.18,23.85
-34,6,-849,-332,-508,3949,-0.90,-0.11,-52.29,-3.32,-5.08,39.49,-5.16,-1.22,40.74,5.26,-1.95,22.88
-6,-6,-843,-185,-442,3941,-0.85,-0.14,-52.21,-1.85,-4.42,39.41,-5.17,-1.22,40.94,-1.66,1.01,22.45
-17,-26,-830,-127,-444,3880,-0.86,-0.28,-52.05,-1.27,-4.44,38.80,-5.18,-1.23,41.15,1.07,5.55,21.50
-3,-31,-768,-127,-492,3755,-0.80,-0.44,-51.53,-1.27,-4.92,37.55,-5.18,-1.23,41.35,-2.24,6.21,16.74
11,-26,-739,-91,-449,3956,-0.65,-0.56,-50.88,-0.91,-4.49,39.56,-5.19,-1.24,41.56,-5.24,4.51,14.89
9,-33,-611,-11,-468,3979,-0.53,-0.70,-49.52,-0.11,-4.68,39.79,-5.20,-1.25,41.75,-4.28,5.74,5.32
19,-41,-580,75,-428,3947,-0.36,-0.88,-48.11,0.75,-4.28,39.47,-5.22,-1.26,41.95,-6.19,7.09,4.02
45,-45,-433,56,-449,4041,-0.05,-1.07,-45.94,0.56,-4.49,40.41,-5.23,-1.28,42.13,-11.63,7.41,-6.40
34,-60,-337,35,-463,3911,0.16,-1.33,-43.40,0.35,-4.63,39.11,-5.24,-1.29,42.30,-8.03,10.25,-12.15
80,-17,-240,-3,-384,4060,0.63,-1.30,-40.52,-0.03,-3.84,40.60,-5.24,-1.29,42.46,-17.94,-0.57,-17.66
47,-12,-215,30,-385,4054,0.86,-1.24,-37.78,0.30,-3.85,40.54,-5.24,-1.29,42.61,-8.72,-1.63,-17.21
12,58,-219,27,-319,3923,0.84,-0.76,-35.34,0.27,-3.19,39.23,-5.22,-1.29,42.75,0.13,-17.62,-14.58
-2,44,-204,37,-366,4039,0.75,-0.42,-33.05,0.37,-3.66,40.39,-5.21,-1.29,42.88,3.33,-12.76,-13.70
-34,14,-202,-17,-321,4044,0.47,-0.29,-30.98,-0.17,-3.21,40.44,-5.20,-1.28,43.01,10.40,-4.66,-11.92
-114,4,-214,-24,-271,4151,-0.28,-0.24,-29.19,-0.24,-2.71,41.51,-5.19,-1.28,43.12,27.94,-1.92,-9.22
-20,11,-251,-142,-257,3957,-0.37,-0.15,-27.80,-1.42,-2.57,39.57,-5.18,-1.28,43.23,3.69,-3.35,-4.78
-20,9,-267,-144,-265,3931,-0.46,-0.08,-26.65,-1.44,-2.65,39.31,-5.17,-1.27,43.34,3.37,-2.58,-2.35
5,9,-354,-107,-262,3936,-0.38,-0.02,-26.14,-1.07,-2.62,39.36,-5.16,-1.26,43.44,-2.70,-2.35,5.50
7,-6,-391,-37,-262,4016,-0.30,-0.05,-25.91,-0.37,-2.62,40.16,-5.15,-1.26,43.55,-2.90,1.33,8.85
-16,-7,-471,-233,-331,4019,-0.37,-0.09,-26.19,-2.33,-3.31,40.19,-5.15,-1.25,43.65,2.69,1.45,15.36
-12,-20,-481,-137,-344,3944,-0.40,-0.20,-26.51,-1.37,-3.44,39.44,-5.15,-1.24,43.76,1.53,4.32,15.91
0,-19,-540,-155,-338,3926,-0.36,-0.30,-27.15,-1.55,-3.38,39.26,-5.14,-1.23,43.87,-1.36,3.71,20.31
10,-23,-553,-61,-443,3982,-0.27,-0.41,-27.81,-0.61,-4.43,39.82,-5.15,-1.23,43.98,-3.54,4.31,20.79
2,-6,-603,7,-293,3944,-0.23,-0.40,-28.71,0.07,-2.93,39.44,-5.14,-1.23,44.09,-1.36,0.00,24.18
14,-5,-616,70,-321,3959,-0.12,-0.39,-29.59,0.70,-3.21,39.59,-5.12,-1.23,44.21,-4.00,-0.21,24.45
-3,-17,-649,-30,-285,3996,-0.13,-0.46,-30.59,-0.30,-2.85,39.96,-5.11,-1.23,44.33,0.29,2.59,26.31
-10,-27,-658,49,-272,3962,-0.17,-0.58,-31.55,0.49,-2.72,39.62,-5.09,-1.23,44.46,1.89,4.69,26.18
-2,-23,-664,6,-421,4052,-0.17,-0.66,-32.44,0.06,-4.21,40.52,-5.10,-1.23,44.59,-0.12,3.36,25.84
-19,6,-663,-116,-613,3892,-0.27,-0.56,-33.24,-1.16,-6.13,38.92,-5.11,-1.24,44.72,3.82,-3.62,25.01
42,-73,-549,-73,-647,3838,0.02,-0.95,-33.27,-0.73,-6.47,38.38,-5.12,-1.24,44.85,-10.61,14.99,15.33
48,-90,-481,-134,-650,3877,0.31,-1.40,-32.88,-1.34,-6.50,38.77,-5.13,-1.25,44.98,-11.04,17.60,9.93
18,-40,-223,-7,-672,3942,0.39,-1.50,-30.95,-0.07,-6.72,39.42,-5.15,-1.26,45.10,-3.12,4.50,-10.11
9,-40,-157,-74,-681,4058,0.40,-1.60,-28.81,-0.74,-6.81,40.58,-5.16,-1.27,45.22,-0.77,4.14,-13.70
1,-23,-54,-88,-476,4084,0.37,-1.58,-26.26,-0.88,-4.76,40.84,-5.17,-1.27,45.32,1.13,-0.10,-20.03
2,-15,-70,-149,-495,3928,0.34,-1.51,-24.06,-1.49,-4.95,39.28,-5.17,-1.27,45.41,0.79,-1.89,-16.61
3,-6,-80,-106,-478,3988,0.33,-1.40,-22.14,-1.06,-4.78,39.88,-5.18,-1.27,45.50,0.47,-3.74,-13.96
1,4,-84,-104,-497,3871,0.30,-1.23,-20.44,-1.04,-4.97,38.71,-5.19,-1.27,45.58,0.88,-5.66,-12.02
-2,11,-84,-126,-371,3865,0.26,-1.04,-18.91,-1.26,-3.71,38.65,-5.18,-1.26,45.66,1.48,-6.73,-10.59
2,7,-81,-43,-241,4024,0.24,-0.90,-17.51,-0.43,-2.41,40.24,-5.17,-1.25,45.73,0.42,-5.16,-9.53
5,15,-100,121,-185,3972,0.25,-0.71,-16.37,1.21,-1.85,39.72,-5.15,-1.27,45.79,-0.32,-6.51,-6.85
2,5,-110,128,-179,3939,0.24,-0.61,-15.40,1.28,-1.79,39.39,-5.13,-1.28,45.85,0.39,-3.58,-5.09
7,19,-246,-70,-316,3876,0.26,-0.44,-15.36,-0.70,-3.16,38.76,-5.12,-1.27,45.92,-0.81,-6.47,6.47
7,26,-261,5,-288,3992,0.27,-0.23,-15.42,0.05,-2.88,39.92,-5.11,-1.26,45.98,-0.75,-7.49,7.68
-18,108,-341,80,-233,3994,0.14,0.45,-15.96,0.80,-2.33,39.94,-5.09,-1.26,46.04,5.09,-25.76,13.96
-11,59,-329,12,-215,4020,0.06,0.76,-16.37,0.12,-2.15,40.20,-5.07,-1.26,46.11,3.01,-12.12,12.55
-1,1,-290,0,-143,3894,0.04,0.69,-16.50,0.00,-1.43,38.94,-5.05,-1.25,46.17,0.42,2.36,9.13
13,2,-282,84,-69,3896,0.12,0.64,-16.57,0.84,-0.69,38.96,-5.03,-1.26,46.24,-2.85,1.89,8.38
-16,-12,-280,21,-98,4012,0.01,0.50,-16.62,0.21,-0.98,40.12,-5.01,-1.26,46.31,4.10,4.93,8.17
-11,-18,-315,-159,-145,3858,-0.06,0.34,-16.88,-1.59,-1.45,38.58,-5.00,-1.25,46.38,2.58,5.85,10.89
28,-31,-468,-262,-227,3939,0.12,0.12,-18.05,-2.62,-2.27,39.39,-4.99,-1.23,46.45,-6.67,8.32,22.75
41,-28,-516,-228,-196,3880,0.36,-0.07,-19.39,-2.28,-1.96,38.80,-4.98,-1.23,46.52,-9.08,6.87,25.56
13,-16,-708,63,-232,3922,0.40,-0.16,-21.77,0.63,-2.32,39.22,-4.96,-1.23,46.61,-1.79,3.47,39.59
-21,-31,-784,250,-239,3993,0.23,-0.33,-24.38,2.50,-2.39,39.93,-4.95,-1.25,46.71,6.21,6.63,43.59
-45,-24,-1021,-308,-39,3807,-0.07,-0.44,-28.17,-3.08,-0.39,38.07,-4.93,-1.25,46.82,11.19,4.43,60.11
-10,-50,-1058,-367,-36,3850,-0.12,-0.70,-31.80,-3.67,-0.36,38.50,-4.92,-1.25,46.95,2.09,10.05,59.83
14,-95,-1185,128,-66,4285,-0.02,-1.21,-35.85,1.28,-0.66,42.85,-4.90,-1.27,47.09,-3.64,19.57,66.78
23,-198,-1208,283,-142,4050,0.12,-2.30,-39.64,2.83,-1.42,40.50,-4.88,-1.30,47.25,-5.39,41.66,65.18
-25,-89,-1384,-56,-187,4163,-0.04,-2.61,-44.11,-0.56,-1.87,41.63,-4.87,-1.32,47.42,6.19,12.78,75.89
3,-49,-1443,-247,-200,3703,-0.02,-2.65,-48.51,-2.47,-2.00,37.03,-4.86,-1.33,47.62,-0.84,2.47,76.76
-65,-100,-1545,-49,-156,3760,-0.42,-3.00,-53.08,-0.49,-1.56,37.60,-4.84,-1.35,47.83,14.96,14.13,81.11
-38,-63,-1593,136,-144,3943,-0.61,-3.08,-57.49,1.36,-1.44,39.43,-4.82,-1.38,48.06,7.38,4.41,81.04
-92,-88,-1696,-121,-148,3734,-1.11,-3.31,-62.09,-1.21,-1.48,37.34,-4.81,-1.40,48.30,19.22,9.90,85.45
-74,-19,-1717,-188,-210,3792,-1.45,-3.09,-66.35,-1.88,-2.10,37.92,-4.80,-1.42,48.57,13.36,-6.83,83.22
-191,-208,-1692,-70,-275,3766,-2.47,-4.05,-70.04,-0.70,-2.75,37.66,-4.80,-1.44,48.84,39.25,37.60,77.64
-257,-276,-1689,4,-294,3774,-3.79,-5.33,-73.34,0.04,-2.94,37.74,-4.80,-1.47,49.14,51.05,50.07,74.29
-424,-508,-1613,67,-326,4336,-6.00,-7.90,-75.84,0.67,-3.26,43.36,-4.80,-1.51,49.44,85.18,99.37,65.50
-478,-552,-1592,15,-486,3972,-8.31,-10.47,-77.97,0.15,-4.86,39.72,-4.84,-1.57,49.74,90.18,100.85,61.72
-481,-552,-1535,-7,-432,3871,-10.42,-12.79,-79.54,-0.07,-4.32,38.71,-4.89,-1.63,50.05,83.03,92.11,55.42
-360,-482,-1492,64,-638,3875,-11.57,-14.46,-80.68,0.64,-6.38,38.75,-4.95,-1.72,50.37,47.92,68.06,50.70
-400,-471,-1431,-98,-645,3992,-12.85,-15.88,-81.34,-0.98,-6.45,39.92,-5.00,-1.80,50.69,53.26,59.89,44.91
-400,-511,-1396,80,-862,4029,-14.01,-17.41,-81.72,0.80,-8.62,40.29,-5.07,-1.89,51.01,48.91,64.30,41.59
-475,-520,-1260,80,-877,3856,-15.50,-18.84,-81.24,0.80,-8.77,38.56,-5.13,-2.00,51.32,62.34,61.20,30.53
-484,-504,-1219,74,-694,3905,-16.91,-20.03,-80.55,0.74,-6.94,39.05,-5.21,-2.10,51.64,59.34,52.65,27.70
-335,-449,-1040,310,-1068,3833,-17.26,-20.77,-78.84,3.10,-10.68,38.33,-5.28,-2.22,51.94,20.14,35.90,14.14
-295,-415,-983,146,-816,3829,-17.33,-21.22,-76.95,1.46,-8.16,38.29,-5.36,-2.33,52.24,9.70,25.55,11.08
-179,-307,-814,389,-998,3896,-16.69,-20.97,-74.22,3.89,-9.98,38.96,-5.43,-2.45,52.53,-17.37,-0.96,-0.67
-164,-290,-751,391,-967,3930,-16.02,-20.64,-71.38,3.91,-9.67,39.30,-5.50,-2.56,52.81,-18.66,-4.05,-3.34
-197,-225,-539,287,-931,3808,-15.62,-19.95,-67.53,2.87,-9.31,38.08,-5.57,-2.67,53.07,-8.76,-17.96,-17.69
-215,-236,-417,236,-865,3908,-15.37,-19.40,-63.32,2.36,-8.65,39.08,-5.64,-2.78,53.31,-3.24,-13.07,-24.07
-147,-204,-182,295,-835,3794,-14.73,-18.70,-58.10,2.95,-8.35,37.94,-5.70,-2.88,53.53,-18.11,-18.58,-39.08
-98,-184,-144,236,-843,3699,-13.86,-17.95,-53.17,2.36,-8.43,36.99,-5.77,-2.97,53.74,-27.27,-20.85,-37.67
59,-91,-47,166,-779,3835,-12.11,-16.71,-48.14,1.66,-7.79,38.35,-5.82,-3.06,53.92,-60.60,-39.82,-41.16
105,-54,-42,258,-772,3970,-10.26,-15.37,-43.58,2.58,-7.72,39.70,-5.87,-3.14,54.09,-65.32,-44.16,-37.31
-53,-83,-50,295,-844,4178,-9.56,-14.34,-39.53,2.95,-8.44,41.78,-5.92,-3.21,54.24,-22.51,-32.91,-32.83
-64,-91,-55,274,-768,4114,-8.99,-13.46,-35.91,2.74,-7.68,41.14,-5.97,-3.28,54.37,-17.59,-27.56,-29.01
67,58,-65,287,-670,3856,-7.68,-11.76,-32.72,2.87,-6.70,38.56,-6.01,-3.35,54.50,-45.96,-59.03,-25.16
81,73,-63,308,-624,3988,-6.42,-10.14,-29.83,3.08,-6.24,39.88,-6.05,-3.41,54.61,-44.76,-56.74,-22.62
86,71,-71,294,-493,3882,-5.25,-8.69,-27.28,2.94,-4.93,38.82,-6.07,-3.47,54.72,-41.63,-50.78,-19.55
53,47,-83,320,-502,3880,-4.41,-7.54,-25.06,3.20,-5.02,38.80,-6.10,-3.52,54.81,-30.05,-40.32,-16.44
87,77,-110,334,-630,3935,-3.43,-6.31,-23.22,3.34,-6.30,39.35,-6.12,-3.56,54.90,-35.03,-43.34,-12.43
95,79,-116,315,-666,3957,-2.51,-5.20,-21.61,3.15,-6.66,39.57,-6.15,-3.59,54.98,-33.59,-39.65,-10.41
73,101,-117,294,-676,3979,-1.81,-4.06,-20.16,2.94,-6.76,39.79,-6.17,-3.62,55.06,-25.38,-40.97,-8.97
50,102,-127,274,-638,4002,-1.33,-3.04,-18.92,2.74,-6.38,40.02,-6.19,-3.64,55.13,-17.70,-37.34,-6.95
-3,108,-157,152,-552,4036,-1.21,-2.07,-17.98,1.52,-5.52,40.36,-6.20,-3.65,55.20,-3.79,-35.24,-3.53
-43,92,-152,72,-569,4000,-1.35,-1.30,-17.11,0.72,-5.69,40.00,-6.21,-3.65,55.27,5.84,-28.28,-3.14
-84,80,-108,134,-618,3891,-1.73,-0.69,-16.06,1.34,-6.18,38.91,-6.23,-3.65,55.33,14.84,-22.90,-5.88
-77,85,-93,114,-604,3921,-2.03,-0.10,-15.02,1.14,-6.04,39.21,-6.25,-3.64,55.39,11.95,-21.96,-6.18
-120,56,-72,47,-603,3944,-2.56,0.25,-13.96,0.47,-6.03,39.44,-6.27,-3.63,55.45,20.88,-13.27,-6.96
-144,34,-102,78,-688,3920,-3.18,0.43,-13.19,0.78,-6.88,39.20,-6.29,-3.63,55.50,24.64,-6.99,-3.69
-147,22,-132,170,-668,3885,-3.76,0.53,-12.67,1.70,-6.68,38.85,-6.32,-3.62,55.55,23.22,-3.60,-0.66
-134,22,-140,180,-654,3919,-4.20,0.61,-12.26,1.80,-6.54,39.19,-6.35,-3.62,55.60,18.25,-3.29,0.40
-215,-49,-185,239,-604,4026,-5.09,0.25,-12.16,2.39,-6.04,40.26,-6.39,-3.62,55.64,35.48,13.40,4.31
-287,-88,-188,248,-619,4073,-6.33,-0.31,-12.09,2.48,-6.19,40.73,-6.43,-3.63,55.69,49.11,21.20,4.62
-506,-199,-163,167,-522,4028,-8.79,-1.50,-11.88,1.67,-5.22,40.28,-6.47,-3.63,55.74,95.53,44.96,2.71
-545,-221,-153,192,-539,3968,-11.23,-2.70,-11.62,1.92,-5.39,39.68,-6.53,-3.63,55.78,96.23,46.03,2.10
-548,-207,-200,250,-733,3942,-13.45,-3.69,-11.68,2.50,-7.33,39.42,-6.60,-3.65,55.83,88.63,38.74,6.03
-572,-217,-230,68,-662,3977,-15.60,-4.64,-11.92,0.68,-6.62,39.77,-6.67,-3.66,55.87,86.66,37.68,8.35
-480,-196,-405,147,-480,3833,-16.96,-5.37,-13.19,1.47,-4.80,38.33,-6.74,-3.67,55.92,58.12,29.59,21.97
-399,-172,-513,204,-550,3859,-17.70,-5.89,-15.00,2.04,-5.50,38.59,-6.82,-3.69,55.98,34.75,21.56,29.43
-179,-71,-728,272,-598,3905,-17.02,-5.73,-17.94,2.72,-5.98,39.05,-6.91,-3.73,56.04,-18.61,-3.52,44.88
-136,-69,-765,315,-719,4046,-16.15,-5.58,-20.82,3.15,-7.19,40.46,-6.98,-3.76,56.12,-26.25,-3.46,45.32
-16,7,-833,348,-845,3873,-14.63,-4.98,-23.82,3.48,-8.45,38.73,-7.05,-3.80,56.21,-51.03,-20.51,48.26
-12,25,-846,308,-881,3845,-13.24,-4.33,-26.60,3.08,-8.81,38.45,-7.12,-3.83,56.32,-46.81,-22.64,46.75
18,64,-788,256,-1009,4116,-11.81,-3.50,-28.74,2.56,-10.09,41.16,-7.18,-3.86,56.43,-49.03,-29.45,39.83
10,55,-753,326,-916,3702,-10.57,-2.82,-30.46,3.26,-9.16,37.02,-7.23,-3.89,56.55,-42.32,-24.58,35.25
-23,113,-715,276,-848,3795,-9.65,-1.85,-31.78,2.76,-8.48,37.95,-7.28,-3.91,56.67,-30.48,-35.66,30.79
-25,97,-709,136,-909,4084,-8.84,-1.07,-32.92,1.36,-9.09,40.84,-7.32,-3.93,56.80,-26.91,-28.67,29.21
48,89,-668,240,-784,3827,-7.66,-0.42,-33.71,2.40,-7.84,38.27,-7.36,-3.94,56.93,-41.04,-24.19,25.00
60,113,-619,341,-1066,3723,-6.53,0.31,-34.11,3.41,-10.66,37.23,-7.39,-3.96,57.07,-39.82,-27.53,20.47
100,125,-498,261,-1049,3794,-5.27,1.04,-33.74,2.61,-10.49,37.94,-7.42,-3.98,57.20,-45.23,-27.83,10.57
95,128,-462,301,-1022,3720,-4.16,1.72,-33.18,3.01,-10.22,37.20,-7.45,-3.99,57.33,-39.79,-26.04,8.04
89,104,-253,388,-1135,3723,-3.20,2.18,-31.41,3.88,-11.35,37.23,-7.47,-4.00,57.46,-34.66,-18.20,-8.00
106,77,-199,379,-1114,3777,-2.23,2.43,-29.48,3.79,-11.14,37.77,-7.49,-4.01,57.57,-35.33,-10.39,-10.77
166,91,-29,282,-841,3666,-1.00,2.74,-26.71,2.82,-8.41,36.66,-7.50,-4.01,57.68,-45.93,-12.77,-22.57
204,98,-19,306,-842,3770,0.35,3.07,-24.15,3.06,-8.42,37.70,-7.51,-4.01,57.78,-50.52,-13.34,-21.02
248,71,21,207,-945,3776,1.82,3.19,-21.61,2.07,-9.45,37.76,-7.52,-4.01,57.86,-56.14,-6.00,-22.02
244,59,40,214,-1015,3658,3.13,3.23,-19.21,2.14,-10.15,36.58,-7.52,-4.01,57.94,-50.20,-2.80,-21.37
296,37,89,132,-919,3830,4.62,3.14,-16.74,1.32,-9.19,38.30,-7.51,-4.00,58.01,-57.80,2.43,-23.21
376,47,45,207,-954,3759,6.45,3.11,-14.79,2.07,-9.54,37.59,-7.50,-3.99,58.06,-71.23,-0.22,-17.65
563,159,23,140,-753,3650,9.24,3.77,-13.17,1.40,-7.53,36.50,-7.48,-3.97,58.12,-108.26,-26.20,-14.27
601,131,36,104,-715,3781,11.98,4.19,-11.64,1.04,-7.15,37.81,-7.44,-3.95,58.17,-107.59,-17.49,-13.93
524,49,171,61,-513,3956,13.98,4.07,-9.43,0.61,-5.13,39.56,-7.38,-3.92,58.20,-80.49,2.90,-23.29
428,29,215,47,-596,4044,15.20,3.84,-7.18,0.47,-5.96,40.44,-7.32,-3.89,58.24,-51.53,7.11,-24.90
285,-81,261,-42,-596,3850,15.41,2.96,-4.87,-0.42,-5.96,38.50,-7.27,-3.87,58.26,-14.36,31.76,-26.63
223,-105,298,-1,-584,3825,15.23,2.03,-2.56,-0.01,-5.84,38.25,-7.21,-3.84,58.27,0.72,34.33,-27.60
231,-167,351,135,-580,3850,15.12,0.80,-0.16,1.35,-5.80,38.50,-7.16,-3.82,58.27,-1.75,45.49,-29.84
250,-179,353,134,-591,3963,15.13,-0.37,2.01,1.34,-5.91,39.63,-7.11,-3.81,58.26,-6.53,44.13,-27.97
196,-188,341,206,-681,3908,14.81,-1.48,3.88,2.06,-6.81,39.08,-7.07,-3.81,58.24,6.00,42.23,-25.19
203,-155,345,118,-661,4033,14.57,-2.28,5.60,1.18,-6.61,40.33,-7.03,-3.80,58.22,3.31,30.84,-23.92
265,-82,310,211,-594,4067,14.73,-2.55,6.93,2.11,-5.94,40.67,-6.99,-3.80,58.19,-11.85,11.26,-19.71
294,-61,306,270,-536,3944,15.05,-2.67,8.11,2.70,-5.36,39.44,-6.95,-3.81,58.15,-18.02,5.48,-18.27
-72,-174,270,340,-555,4275,13.11,-3.46,8.94,3.40,-5.55,42.75,-6.91,-3.83,58.11,67.68,31.21,-14.43
-118,-183,268,212,-581,4192,11.08,-4.23,9.68,2.12,-5.81,41.92,-6.88,-3.83,58.07,71.73,30.59,-13.57
-190,-165,264,171,-603,3863,8.81,-4.81,10.32,1.71,-6.03,38.63,-6.86,-3.84,58.03,81.49,23.82,-12.63
-252,-218,259,100,-609,4184,6.39,-5.66,10.87,1.00,-6.09,41.84,-6.85,-3.84,57.98,88.14,34.10,-11.69
-301,-262,264,88,-611,4014,3.92,-6.69,11.40,0.88,-6.11,40.14,-6.85,-3.84,57.93,91.27,41.39,-11.62
-335,-275,263,99,-614,3697,1.48,-7.70,11.86,0.99,-6.14,36.97,-6.86,-3.86,57.88,90.74,40.90,-11.10
-329,-277,239,180,-559,3835,-0.67,-8.62,12.13,1.80,-5.59,38.35,-6.88,-3.87,57.83,81.10,37.95,-8.81
-297,-250,229,207,-599,3976,-2.42,-9.28,12.32,2.07,-5.99,39.76,-6.91,-3.89,57.77,66.39,28.59,-7.79
-255,-218,179,205,-674,3978,-3.73,-9.69,12.18,2.05,-6.74,39.78,-6.94,-3.92,57.72,50.77,18.94,-3.69
-229,-187,162,143,-632,3893,-4.76,-9.86,11.95,1.43,-6.32,38.93,-6.98,-3.94,57.66,40.31,10.42,-2.46
-81,-70,12,165,-693,3827,-4.77,-9.30,10.83,1.65,-6.93,38.27,-7.02,-3.97,57.62,2.62,-17.22,9.19
-53,-41,-3,181,-732,3908,-4.62,-8.62,9.72,1.81,-7.32,39.08,-7.06,-3.99,57.57,-3.92,-22.03,9.43
-18,-2,7,138,-851,3916,-4.27,-7.77,8.79,1.38,-8.51,39.16,-7.09,-4.01,57.53,-11.48,-28.74,7.71
-25,-5,13,130,-833,3847,-3.99,-7.02,7.99,1.30,-8.33,38.47,-7.13,-4.03,57.50,-8.67,-25.16,6.45
46,56,19,244,-766,3883,-3.31,-5.98,7.31,2.44,-7.66,38.83,-7.16,-4.04,57.46,-24.16,-36.74,5.30
61,75,35,293,-748,3884,-2.61,-4.92,6.79,2.93,-7.48,38.84,-7.19,-4.06,57.43,-25.32,-37.59,3.46
129,154,111,401,-795,3816,-1.56,-3.49,6.79,4.01,-7.95,38.16,-7.22,-4.08,57.40,-38.66,-52.27,-2.99
190,205,145,394,-724,3978,-0.25,-1.89,7.00,3.94,-7.24,39.78,-7.24,-4.09,57.37,-49.21,-59.21,-5.67
249,274,174,399,-737,3986,1.30,-0.03,7.36,3.99,-7.37,39.86,-7.25,-4.09,57.34,-58.39,-69.74,-7.79
251,274,180,382,-749,3861,2.70,1.64,7.72,3.82,-7.49,38.61,-7.26,-4.09,57.31,-53.62,-63.43,-7.96
336,362,212,291,-587,3785,4.48,3.69,8.24,2.91,-5.87,37.85,-7.26,-4.08,57.28,-68.52,-78.10,-10.18
350,379,226,308,-530,3881,6.17,5.63,8.80,3.08,-5.30,38.81,-7.25,-4.06,57.24,-65.72,-75.10,-10.85
317,345,244,236,-531,3932,7.48,7.17,9.40,2.36,-5.31,39.32,-7.24,-4.01,57.21,-52.37,-60.66,-11.80
288,309,228,241,-532,4063,8.49,8.34,9.86,2.41,-5.32,40.63,-7.21,-3.96,57.17,-41.20,-47.11,-10.02
194,247,211,206,-583,3827,8.83,9.01,10.16,2.06,-5.83,38.27,-7.19,-3.91,57.14,-16.05,-28.81,-8.30
176,220,208,127,-542,3995,9.02,9.45,10.41,1.27,-5.42,39.95,-7.16,-3.85,57.10,-10.76,-20.29,-7.81
228,229,110,118,-330,3949,9.51,9.90,10.04,1.18,-3.30,39.49,-7.11,-3.79,57.07,-22.13,-20.88,0.15
225,226,54,118,-425,3861,9.93,10.29,9.37,1.18,-4.25,38.61,-7.07,-3.73,57.03,-19.78,-18.65,4.26
188,186,6,228,-560,3950,10.08,10.40,8.47,2.28,-5.60,39.50,-7.05,-3.67,57.00,-9.80,-8.09,7.48
172,174,17,211,-581,3964,10.12,10.42,7.72,2.11,-5.81,39.64,-7.03,-3.62,56.98,-5.58,-4.96,5.85
139,144,35,180,-439,3900,9.96,10.26,7.16,1.80,-4.39,39.00,-6.98,-3.56,56.96,2.19,2.05,3.80
145,148,36,170,-433,3905,9.85,10.13,6.67,1.70,-4.33,39.05,-6.93,-3.50,56.93,0.25,0.57,3.25
160,159,51,164,-547,3911,9.84,10.09,6.31,1.64,-5.47,39.11,-6.91,-3.44,56.91,-3.60,-2.39,1.64
152,153,54,167,-536,3921,9.78,10.01,6.01,1.67,-5.36,39.21,-6.88,-3.39,56.89,-1.78,-1.15,1.10
140,133,30,165,-497,3968,9.66,9.82,5.59,1.65,-4.97,39.68,-6.85,-3.33,56.88,0.80,3.21,2.74
135,129,23,153,-502,3957,9.52,9.63,5.17,1.53,-5.02,39.57,-6.81,-3.27,56.86,1.54,3.49,2.94
114,114,44,145,-512,3910,9.26,9.36,4.92,1.45,-5.12,39.10,-6.79,-3.21,56.84,5.91,6.30,0.93
109,108,61,99,-464,3914,9.00,9.08,4.80,0.99,-4.64,39.14,-6.75,-3.16,56.83,6.20,6.78,-0.62
95,97,69,44,-409,3936,8.68,8.77,4.74,0.44,-4.09,39.36,-6.71,-3.10,56.81,8.55,8.38,-1.36
91,92,65,58,-434,3941,8.37,8.45,4.67,0.58,-4.34,39.41,-6.68,-3.05,56.80,8.39,8.46,-1.09
84,85,41,115,-500,3959,8.04,8.12,4.45,1.15,-5.00,39.59,-6.65,-3.00,56.79,8.95,9.01,0.74
85,86,41,124,-479,3958,7.76,7.84,4.25,1.24,-4.79,39.58,-6.62,-2.95,56.77,7.62,7.67,0.56
94,94,57,102,-448,3916,7.55,7.63,4.18,1.02,-4.48,39.16,-6.59,-2.90,56.76,4.57,4.85,-0.87
91,92,56,82,-467,3934,7.35,7.43,4.10,0.82,-4.67,39.34,-6.57,-2.85,56.75,4.58,4.60,-0.86
61,63,68,78,-446,3929,6.99,7.07,4.11,0.78,-4.46,39.29,-6.54,-2.80,56.73,10.83,10.62,-1.87
44,47,64,79,-434,3925,6.56,6.65,4.09,0.79,-4.34,39.25,-6.51,-2.75,56.72,13.53,13.10,-1.55
-13,-10,29,131,-401,3940,5.82,5.92,3.85,1.31,-4.01,39.40,-6.48,-2.71,56.71,25.25,24.86,1.20
-33,-33,11,148,-429,3953,5.04,5.13,3.54,1.48,-4.29,39.53,-6.45,-2.67,56.70,27.38,27.71,2.42
-56,-54,-2,63,-496,3942,4.19,4.29,3.17,0.63,-4.96,39.42,-6.44,-2.64,56.69,30.04,29.88,3.18
-61,-58,2,22,-502,3921,3.40,3.50,2.87,0.22,-5.02,39.21,-6.43,-2.61,56.68,28.33,27.95,2.55
-77,-69,25,-39,-415,3916,2.59,2.73,2.73,-0.39,-4.15,39.16,-6.42,-2.58,56.67,29.34,27.84,0.48
-80,-72,32,-27,-378,3921,1.85,2.02,2.65,-0.27,-3.78,39.21,-6.41,-2.55,56.66,27.29,25.92,-0.19
-102,-91,31,124,-463,3922,1.04,1.26,2.58,1.24,-4.63,39.22,-6.41,-2.53,56.65,29.84,27.90,-0.17
-107,-97,23,170,-481,3935,0.28,0.54,2.46,1.70,-4.81,39.35,-6.43,-2.52,56.64,28.27,26.72,0.39
-94,-86,5,195,-508,3923,-0.32,-0.03,2.24,1.95,-5.08,39.23,-6.45,-2.53,56.63,22.70,21.74,1.72
-78,-72,2,205,-507,3921,-0.76,-0.47,2.03,2.05,-5.07,39.21,-6.47,-2.53,56.62,16.96,16.54,1.77
-27,-23,-9,164,-498,3916,-0.85,-0.56,1.77,1.64,-4.98,39.16,-6.49,-2.53,56.61,3.66,3.73,2.46
-11,-11,-22,132,-501,3923,-0.83,-0.57,1.46,1.32,-5.01,39.23,-6.51,-2.52,56.60,-0.34,0.64,3.27
19,15,-35,174,-576,3903,-0.63,-0.43,1.10,1.74,-5.76,39.03,-6.53,-2.52,56.60,-7.21,-5.40,4.03
24,20,-37,154,-576,3916,-0.42,-0.26,0.77,1.54,-5.76,39.16,-6.55,-2.52,56.59,-7.69,-6.05,3.89
27,23,-20,56,-506,3926,-0.22,-0.09,0.57,0.56,-5.06,39.26,-6.56,-2.51,56.59,-7.67,-6.19,2.26
19,17,-15,55,-500,3921,-0.08,0.02,0.42,0.55,-5.00,39.21,-6.56,-2.49,56.59,-5.12,-4.24,1.70
1,-2,-18,97,-493,3923,-0.07,0.00,0.27,0.97,-4.93,39.23,-6.57,-2.47,56.59,-0.49,0.54,1.81
-3,-4,-20,106,-490,3923,-0.08,-0.02,0.12,1.06,-4.90,39.23,-6.58,-2.46,56.59,0.48,0.95,1.84
-17,-16,-21,154,-482,3935,-0.17,-0.12,-0.02,1.54,-4.82,39.35,-6.60,-2.45,56.59,3.67,3.64,1.79
-17,-15,-22,186,-484,3934,-0.26,-0.20,-0.15,1.86,-4.84,39.34,-6.62,-2.46,56.59,3.35,3.09,1.75
-2,-1,-40,235,-576,3951,-0.25,-0.18,-0.38,2.35,-5.76,39.51,-6.63,-2.47,56.59,-0.41,-0.42,3.06
5,7,-38,186,-555,3947,-0.19,-0.12,-0.58,1.86,-5.55,39.47,-6.65,-2.47,56.59,-1.98,-2.23,2.71
48,46,-18,65,-408,3872,0.12,0.17,-0.63,0.65,-4.08,38.72,-6.64,-2.45,56.59,-11.74,-11.04,0.97
58,54,-27,88,-387,3896,0.46,0.48,-0.73,0.88,-3.87,38.96,-6.63,-2.44,56.59,-12.99,-11.89,1.64
51,48,-22,111,-413,3980,0.73,0.73,-0.79,1.11,-4.13,39.80,-6.62,-2.42,56.60,-10.22,-9.45,1.15
44,41,-19,111,-424,3958,0.92,0.91,-0.83,1.11,-4.24,39.58,-6.60,-2.40,56.60,-7.70,-7.00,0.87
26,18,-45,108,-443,3937,0.99,0.92,-1.02,1.08,-4.43,39.37,-6.59,-2.38,56.61,-2.87,-1.08,2.89
21,19,-43,88,-510,3985,1.02,0.95,-1.18,0.88,-5.10,39.85,-6.60,-2.36,56.61,-1.49,-1.25,2.57
37,46,-17,68,-550,3905,1.14,1.13,-1.17,0.68,-5.50,39.05,-6.61,-2.35,56.62,-5.09,-7.41,0.38
53,57,-24,66,-525,3889,1.35,1.37,-1.20,0.66,-5.25,38.89,-6.61,-2.33,56.62,-8.37,-9.32,0.94
125,124,-3,101,-598,3938,1.98,1.99,-1.09,1.01,-5.98,39.38,-6.62,-2.31,56.63,-24.31,-24.02,-0.74
152,153,23,105,-603,3933,2.71,2.72,-0.84,1.05,-6.03,39.33,-6.63,-2.30,56.63,-28.43,-28.62,-2.71
222,216,15,65,-526,3950,3.79,3.77,-0.67,0.65,-5.26,39.50,-6.62,-2.27,56.63,-42.14,-40.70,-1.87
240,231,22,115,-477,3920,4.88,4.80,-0.47,1.15,-4.77,39.20,-6.61,-2.23,56.64,-42.63,-40.62,-2.27
233,232,183,84,-361,3908,5.81,5.74,0.70,0.84,-3.61,39.08,-6.58,-2.20,56.64,-37.33,-37.35,-14.82
225,222,184,73,-320,3942,6.60,6.52,1.75,0.73,-3.20,39.42,-6.53,-2.16,56.63,-32.32,-31.87,-13.91
190,193,150,54,-310,3979,7.10,7.04,2.49,0.54,-3.10,39.79,-6.49,-2.12,56.63,-21.54,-22.52,-10.34
181,185,140,47,-362,3946,7.49,7.47,3.09,0.47,-3.62,39.46,-6.45,-2.08,56.62,-17.77,-18.89,-8.92
174,181,121,31,-395,3901,7.81,7.82,3.52,0.31,-3.95,39.01,-6.41,-2.03,56.61,-14.82,-16.53,-6.91
179,185,130,26,-440,3928,8.12,8.17,3.96,0.26,-4.40,39.28,-6.38,-1.97,56.60,-14.92,-16.24,-7.26
185,190,131,10,-416,3961,8.43,8.51,4.37,0.10,-4.16,39.61,-6.34,-1.92,56.58,-15.25,-16.22,-6.97
201,202,133,21,-421,3928,8.82,8.89,4.74,0.21,-4.21,39.28,-6.30,-1.86,56.57,-17.87,-17.84,-6.78
119,131,144,52,-372,3955,8.66,8.80,5.15,0.52,-3.72,39.55,-6.26,-1.81,56.55,2.38,-0.13,-7.34
87,127,143,51,-361,3773,8.33,8.70,5.50,0.51,-3.61,37.73,-6.21,-1.76,56.54,9.25,0.49,-6.92
29,104,171,13,-332,3943,7.67,8.46,6.00,0.13,-3.32,39.43,-6.17,-1.71,56.52,21.52,5.45,-8.83
6,79,178,7,-333,4054,6.94,8.10,6.48,0.07,-3.33,40.54,-6.13,-1.66,56.49,24.62,10.43,-8.96
-3,56,203,-47,-317,3896,6.23,7.63,7.07,-0.47,-3.17,38.96,-6.10,-1.61,56.47,24.22,14.51,-10.53
-7,58,205,-62,-363,3826,5.56,7.22,7.62,-0.62,-3.63,38.26,-6.07,-1.57,56.44,22.73,12.46,-10.19
7,60,185,19,-401,3936,5.05,6.86,7.98,0.19,-4.01,39.36,-6.05,-1.52,56.41,17.24,10.61,-8.15
2,59,183,73,-425,3995,4.56,6.54,8.30,0.73,-4.25,39.95,-6.03,-1.47,56.38,16.65,9.63,-7.68
-26,68,217,75,-494,3978,3.94,6.30,8.79,0.75,-4.94,39.78,-6.04,-1.43,56.35,21.46,6.45,-10.10
-15,82,264,-15,-435,3962,3.46,6.17,9.53,-0.15,-4.35,39.62,-6.02,-1.39,56.31,16.83,2.40,-13.39
-9,103,321,-113,-316,3955,3.06,6.18,10.53,-1.13,-3.16,39.55,-6.01,-1.34,56.28,13.80,-2.90,-17.28
-15,95,342,-138,-391,3917,2.66,6.14,11.56,-1.38,-3.91,39.17,-5.99,-1.29,56.23,13.83,-1.01,-18.09
5,98,406,-218,-387,3914,2.42,6.13,12.88,-2.18,-3.87,39.14,-5.98,-1.25,56.18,7.86,-1.83,-22.27
16,103,414,-177,-405,3911,2.28,6.14,14.12,-1.77,-4.05,39.11,-5.98,-1.20,56.13,4.52,-3.04,-21.79
2,99,392,-124,-380,3918,2.06,6.13,15.10,-1.24,-3.80,39.18,-5.97,-1.15,56.07,7.26,-2.07,-19.01
4,90,382,-106,-402,3969,1.88,6.07,15.92,-1.06,-4.02,39.69,-5.96,-1.10,56.01,6.07,-0.02,-17.39
1,50,393,-60,-417,3831,1.70,5.77,16.73,-0.60,-4.17,38.31,-5.96,-1.05,55.95,6.15,9.01,-17.57
-4,40,406,-23,-440,3846,1.50,5.43,17.53,-0.23,-4.40,38.46,-5.96,-1.01,55.88,6.68,10.30,-17.91
-12,-2,441,30,-369,3883,1.28,4.88,18.47,0.30,-3.69,38.83,-5.94,-0.97,55.81,7.88,18.88,-20.00
-2,0,455,-20,-328,3981,1.14,4.39,19.40,-0.20,-3.28,39.81,-5.92,-0.93,55.73,4.80,16.54,-20.31
-5,-42,474,-83,-467,3984,1.00,3.69,20.35,-0.83,-4.67,39.84,-5.93,-0.89,55.65,5.02,24.59,-21.03
-16,-56,485,-141,-395,3684,0.80,2.98,21.27,-1.41,-3.95,36.84,-5.93,-0.85,55.57,7.08,25.47,-21.10
50,-36,490,12,-329,3896,1.02,2.47,22.13,0.12,-3.29,38.96,-5.91,-0.82,55.48,-8.85,18.44,-20.71
62,-23,500,-81,-361,3963,1.30,2.08,22.97,-0.81,-3.61,39.63,-5.90,-0.78,55.39,-10.86,13.68,-20.78
69,-89,522,-72,-342,3840,1.59,1.33,23.86,-0.72,-3.42,38.40,-5.89,-0.75,55.30,-11.55,27.62,-21.81
100,-73,536,70,-315,3878,2.04,0.75,24.74,0.70,-3.15,38.78,-5.86,-0.74,55.20,-17.73,21.38,-22.16
258,79,589,123,-398,4119,3.41,1.16,25.86,1.23,-3.98,41.19,-5.84,-0.75,55.10,-52.73,-15.72,-25.61
222,67,583,48,-323,4485,4.42,1.45,26.83,0.48,-3.23,44.85,-5.81,-0.73,54.99,-39.76,-11.57,-24.19
-99,21,525,2,-402,3956,3.38,1.43,27.35,0.02,-4.02,39.56,-5.80,-0.69,54.88,37.89,0.06,-18.79
-29,69,498,-18,-419,3827,2.86,1.71,27.65,-0.18,-4.19,38.27,-5.79,-0.66,54.77,18.16,-11.09,-16.22
-25,1,506,-226,-402,3864,2.42,1.55,27.97,-2.26,-4.02,38.64,-5.79,-0.62,54.66,15.49,5.57,-16.59
39,73,514,26,-296,3973,2.42,1.84,28.31,0.26,-2.96,39.73,-5.76,-0.60,54.55,-0.80,-11.64,-16.95
66,115,533,83,-289,4199,2.58,2.35,28.73,0.83,-2.89,41.99,-5.73,-0.58,54.44,-7.06,-20.36,-18.17
23,116,524,53,-323,3978,2.46,2.83,29.06,0.53,-3.23,39.78,-5.71,-0.56,54.32,3.43,-18.84,-17.11
-97,73,508,-220,-191,3801,1.62,2.99,29.25,-2.20,-1.91,38.01,-5.69,-0.53,54.21,30.77,-7.29,-15.57
-151,-11,511,-295,-205,3814,0.54,2.62,29.44,-2.95,-2.05,38.14,-5.68,-0.49,54.09,40.42,12.68,-15.64
25,63,518,-26,-205,3837,0.64,2.74,29.66,-0.26,-2.05,38.37,-5.66,-0.46,53.98,-3.95,-5.67,-16.04
64,81,506,-97,-260,3779,0.97,2.96,29.78,-0.97,-2.60,37.79,-5.65,-0.42,53.86,-12.63,-9.42,-14.91
131,77,428,-243,-315,3910,1.67,3.14,29.41,-2.43,-3.15,39.10,-5.64,-0.38,53.74,-27.01,-7.75,-8.64
79,32,382,-203,-286,4006,1.98,3.02,28.80,-2.03,-2.86,40.06,-5.62,-0.34,53.63,-12.61,3.24,-5.32
-55,-136,331,-148,-366,3783,1.45,1.89,27.94,-1.48,-3.66,37.83,-5.62,-0.30,53.52,19.44,41.68,-1.81
34,-90,328,-2,-318,3736,1.51,1.15,27.15,-0.02,-3.18,37.36,-5.59,-0.28,53.41,-2.95,27.21,-2.30
75,-25,394,115,-319,4048,1.82,0.88,26.83,1.15,-3.19,40.48,-5.57,-0.28,53.31,-12.21,9.68,-8.19
-35,-43,421,93,-334,4175,1.42,0.53,26.72,0.93,-3.34,41.75,-5.56,-0.28,53.20,14.25,12.93,-10.58
-111,-72,485,-88,-292,3854,0.60,0.04,27.01,-0.88,-2.92,38.54,-5.54,-0.26,53.09,30.48,18.45,-15.74
-47,-70,497,-110,-319,3786,0.26,-0.39,27.34,-1.10,-3.19,37.86,-5.54,-0.23,52.98,12.91,16.32,-16.45
-17,-80,541,-74,-277,3949,0.13,-0.84,27.90,-0.74,-2.77,39.49,-5.52,-0.21,52.87,4.80,17.17,-19.64
-60,-102,549,-25,-246,3962,-0.25,-1.38,28.46,-0.25,-2.46,39.62,-5.51,-0.20,52.76,14.30,20.73,-19.80
-124,-153,537,1,-289,3955,-0.98,-2.17,28.89,0.01,-2.89,39.55,-5.49,-0.20,52.64,27.81,30.70,-18.38
-119,-148,531,6,-322,3973,-1.61,-2.86,29.24,0.06,-3.22,39.73,-5.48,-0.19,52.52,24.18,26.85,-17.54
-53,-48,505,-55,-428,3956,-1.77,-2.87,29.40,-0.55,-4.28,39.56,-5.50,-0.18,52.41,6.79,1.40,-15.19
-39,-30,497,-58,-409,4020,-1.83,-2.76,29.49,-0.58,-4.09,40.20,-5.51,-0.16,52.29,3.01,-2.78,-14.43
1,16,455,-61,-239,3878,-1.64,-2.39,29.32,-0.61,-2.39,38.78,-5.50,-0.15,52.17,-6.45,-13.06,-11.04
3,8,461,-81,-332,3806,-1.46,-2.10,29.20,-0.81,-3.32,38.06,-5.50,-0.13,52.05,-6.27,-9.95,-11.66
-8,15,505,-86,-438,3841,-1.36,-1.80,29.36,-0.86,-4.38,38.41,-5.52,-0.11,51.94,-3.10,-10.59,-15.24
-6,24,509,-78,-448,3920,-1.26,-1.47,29.53,-0.78,-4.48,39.20,-5.54,-0.09,51.82,-3.24,-11.65,-15.42
-18,19,481,-144,-609,3968,-1.25,-1.21,29.51,-1.44,-6.09,39.68,-5.56,-0.08,51.70,-0.12,-9.39,-13.06
-6,9,467,-180,-597,3990,-1.16,-1.03,29.41,-1.80,-5.97,39.90,-5.57,-0.06,51.58,-2.84,-6.18,-11.97
4,17,437,-137,-576,3992,-1.02,-0.83,29.13,-1.37,-5.76,39.92,-5.59,-0.04,51.47,-4.86,-7.43,-9.69
-5,17,450,-72,-540,3889,-0.95,-0.64,28.96,-0.72,-5.40,38.89,-5.61,-0.02,51.35,-2.30,-6.73,-10.95
1,4,565,60,-387,3891,-0.85,-0.55,29.51,0.60,-3.87,38.91,-5.62,-0.03,51.23,-3.44,-3.09,-20.18
-18,-1,613,-6,-310,3818,-0.87,-0.50,30.30,-0.06,-3.10,38.18,-5.60,-0.02,51.11,1.29,-1.64,-23.51
4,1,748,252,-150,3947,-0.76,-0.45,31.83,2.52,-1.50,39.47,-5.59,-0.02,50.98,-3.88,-1.93,-33.51
5,8,791,263,-158,3847,-0.65,-0.35,33.48,2.63,-1.58,38.47,-5.59,-0.02,50.85,-3.73,-3.36,-35.61
-14,-20,837,172,-284,3999,-0.67,-0.44,35.23,1.72,-2.84,39.99,-5.58,-0.03,50.71,1.02,3.43,-37.86
-15,-15,802,51,-202,3899,-0.70,-0.49,36.60,0.51,-2.02,38.99,-5.56,-0.02,50.57,1.18,1.98,-33.61
-1,3,659,25,-236,3896,-0.63,-0.42,36.96,0.25,-2.36,38.96,-5.55,-0.01,50.42,-2.14,-2.34,-21.16
-6,14,623,-13,-266,3831,-0.61,-0.29,37.07,-0.13,-2.66,38.31,-5.53,0.01,50.27,-0.76,-4.66,-18.01
23,53,460,-181,-181,3842,-0.41,0.06,36.17,-1.81,-1.81,38.42,-5.52,0.03,50.13,-7.38,-13.24,-5.05
49,61,352,-126,-191,4020,-0.07,0.43,34.70,-1.26,-1.91,40.20,-5.51,0.06,49.99,-12.71,-13.90,2.72
4,39,326,45,-476,3973,-0.04,0.62,33.22,0.45,-4.76,39.73,-5.52,0.07,49.86,-1.15,-7.57,3.53
-6,26,329,-16,-481,3942,-0.07,0.72,31.90,-0.16,-4.81,39.42,-5.54,0.08,49.73,1.27,-3.90,2.04
-3,16,321,-70,-493,3883,-0.08,0.74,30.67,-0.70,-4.93,38.83,-5.56,0.11,49.61,0.46,-1.26,1.56
2,19,316,-87,-565,3931,-0.06,0.79,29.53,-0.87,-5.65,39.31,-5.57,0.13,49.49,-0.73,-1.87,0.91
-11,1,293,-105,-647,3970,-0.12,0.71,28.36,-1.05,-6.47,39.70,-5.59,0.15,49.38,2.34,2.43,1.77
-7,13,284,-124,-674,3869,-0.15,0.72,27.26,-1.24,-6.74,38.69,-5.61,0.17,49.27,1.21,-0.59,1.49
-6,4,290,-54,-566,3849,-0.17,0.67,26.30,-0.54,-5.66,38.49,-5.63,0.19,49.17,0.87,1.52,0.08
-3,1,301,-39,-532,3977,-0.17,0.61,25.51,-0.39,-5.32,39.77,-5.64,0.20,49.06,0.11,2.05,-1.60
6,-1,356,54,-470,3936,-0.12,0.54,25.13,0.54,-4.70,39.36,-5.66,0.20,48.96,-1.98,2.31,-6.61
-14,9,375,-137,-472,3840,-0.19,0.54,24.90,-1.37,-4.72,38.40,-5.67,0.23,48.87,2.83,-0.23,-8.43
78,-24,69,-150,343,4057,0.30,0.34,22.83,-1.50,3.43,40.57,-5.65,0.24,48.77,-18.69,7.40,15.55
123,-31,23,-2,64,3876,1.02,0.12,20.69,-0.02,0.64,38.76,-5.63,0.25,48.69,-27.41,8.33,17.43
139,-17,89,-41,-351,4236,1.77,0.00,19.17,-0.41,-3.51,42.36,-5.60,0.26,48.62,-28.67,4.34,10.41
85,-39,68,-9,-337,4181,2.11,-0.23,17.66,-0.09,-3.37,41.81,-5.58,0.27,48.55,-13.66,9.03,10.77
12,-25,50,-68,-432,3997,1.97,-0.36,16.20,-0.68,-4.32,39.97,-5.58,0.29,48.48,4.38,4.99,10.93
6,-20,56,-76,-443,3921,1.81,-0.45,14.92,-0.76,-4.43,39.21,-5.59,0.30,48.42,5.30,3.40,9.22
-1,-5,87,-103,-404,3959,1.62,-0.43,13.96,-1.03,-4.04,39.59,-5.58,0.32,48.37,6.37,-0.36,5.69
-8,-8,89,-88,-372,3993,1.41,-0.44,13.11,-0.88,-3.72,39.93,-5.57,0.34,48.31,7.35,0.38,4.72
-2,6,101,-39,-313,3949,1.26,-0.36,12.41,-0.39,-3.13,39.49,-5.55,0.35,48.26,5.25,-2.88,3.05
1,23,99,-28,-321,3992,1.14,-0.18,11.78,-0.28,-3.21,39.92,-5.52,0.36,48.22,4.04,-6.53,2.62
-3,22,92,-31,-407,3938,1.01,-0.03,11.16,-0.31,-4.07,39.38,-5.54,0.37,48.17,4.55,-5.70,2.63
-1,16,89,-29,-409,3907,0.90,0.07,10.59,-0.29,-4.09,39.07,-5.55,0.37,48.13,3.64,-3.80,2.35
-1,5,71,-71,-339,3918,0.80,0.09,9.96,-0.71,-3.39,39.18,-5.54,0.39,48.09,3.28,-0.92,3.29
-2,8,78,-76,-335,3931,0.71,0.13,9.44,-0.76,-3.35,39.31,-5.52,0.41,48.05,3.19,-1.53,2.21
-8,5,148,-76,-353,3937,0.59,0.15,9.40,-0.76,-3.53,39.37,-5.51,0.43,48.02,4.26,-0.70,-3.76
0,7,164,-68,-294,3919,0.53,0.18,9.46,-0.68,-2.94,39.19,-5.49,0.44,47.98,2.00,-1.11,-5.06
-6,9,162,-10,-278,3950,0.44,0.22,9.50,-0.10,-2.78,39.50,-5.47,0.44,47.94,3.19,-1.48,-4.85
-9,13,158,19,-237,3972,0.34,0.27,9.52,0.19,-2.37,39.72,-5.45,0.44,47.90,3.58,-2.27,-4.50
-105,16,146,18,-238,4067,-0.33,0.34,9.45,0.18,-2.38,40.67,-5.44,0.44,47.86,25.44,-2.77,-3.54
-161,14,119,41,-171,3993,-1.28,0.39,9.24,0.41,-1.71,39.93,-5.42,0.44,47.83,36.10,-2.07,-1.46
-64,30,68,-24,-345,3873,-1.54,0.54,8.73,-0.24,-3.45,38.73,-5.41,0.44,47.79,10.45,-5.60,2.38
-42,34,72,-75,-351,3824,-1.64,0.69,8.29,-0.75,-3.51,38.24,-5.41,0.46,47.76,4.48,-6.04,1.64
-16,40,80,-38,-349,3986,-1.58,0.87,7.95,-0.38,-3.49,39.86,-5.40,0.47,47.73,-1.88,-6.90,0.64
-36,45,84,-18,-371,4057,-1.64,1.05,7.67,-0.18,-3.71,40.57,-5.40,0.46,47.70,2.97,-7.47,0.03
-82,59,76,-16,-314,3967,-1.98,1.31,7.37,-0.16,-3.14,39.67,-5.39,0.47,47.67,13.40,-10.07,0.43
-50,72,60,-25,-339,3927,-2.08,1.62,7.00,-0.25,-3.39,39.27,-5.38,0.47,47.64,4.86,-12.21,1.43
27,100,67,191,-339,3955,-1.71,2.07,6.70,1.91,-3.39,39.55,-5.38,0.47,47.62,-13.31,-17.64,0.57
114,135,191,382,-424,3708,-0.84,2.68,7.20,3.82,-4.24,37.08,-5.39,0.46,47.59,-32.15,-24.21,-9.47
172,131,679,157,-761,4043,0.29,3.21,10.62,1.57,-7.61,40.43,-5.40,0.47,47.55,-42.63,-21.19,-47.60
29,98,825,-19,-833,4123,0.44,3.49,14.59,-0.19,-8.33,41.23,-5.42,0.49,47.49,-5.72,-11.76,-56.25
-56,100,999,-228,-848,4024,0.05,3.75,19.23,-2.28,-8.48,40.24,-5.43,0.52,47.42,14.43,-11.29,-66.64
16,120,1027,-268,-773,3962,0.14,4.11,23.57,-2.68,-7.73,39.62,-5.45,0.55,47.32,-3.52,-15.03,-64.93
189,253,1075,-208,-552,3978,1.28,5.24,27.77,-2.08,-5.52,39.78,-5.45,0.60,47.21,-43.21,-44.57,-65.05
160,257,1076,-181,-477,3944,2.13,6.28,31.56,-1.81,-4.77,39.44,-5.46,0.65,47.09,-32.64,-41.65,-61.58
13,225,1039,-209,-343,4008,2.00,7.03,34.74,-2.09,-3.43,40.08,-5.44,0.71,46.96,4.22,-30.72,-55.46
27,222,1020,-238,-335,4047,1.96,7.68,37.49,-2.38,-3.35,40.47,-5.43,0.77,46.81,0.53,-27.50,-51.27
-12,175,924,-281,-349,3865,1.69,7.98,39.37,-2.81,-3.49,38.65,-5.42,0.83,46.66,9.42,-14.43,-41.37
-22,161,890,-278,-381,3800,1.39,8.16,40.87,-2.78,-3.81,38.00,-5.41,0.90,46.50,10.82,-10.17,-37.08
26,120,799,-247,-260,3857,1.41,8.08,41.65,-2.47,-2.60,38.57,-5.39,0.96,46.33,-1.30,-0.07,-28.64
15,104,768,-169,-149,3943,1.36,7.91,42.17,-1.69,-1.49,39.43,-5.37,1.02,46.17,1.31,3.34,-25.52
19,69,693,-120,-70,3885,1.34,7.54,42.18,-1.20,-0.70,38.85,-5.34,1.07,46.00,0.21,10.84,-19.16
2,58,672,-105,-5,3867,1.22,7.14,42.06,-1.05,-0.05,38.67,-5.32,1.11,45.84,4.08,12.13,-17.49
15,32,585,-92,25,3983,1.19,6.62,41.43,-0.92,0.25,39.83,-5.29,1.16,45.67,0.66,16.79,-10.72
9,19,557,-85,1,3957,1.12,6.07,40.68,-0.85,0.01,39.57,-5.26,1.20,45.51,1.94,18.04,-9.05
6,7,438,-147,-57,3870,1.05,5.51,39.28,-1.47,-0.57,38.70,-5.24,1.24,45.36,2.42,18.96,-0.27
8,10,398,-151,-97,3833,0.99,5.02,37.78,-1.51,-0.97,38.33,-5.21,1.27,45.21,1.70,16.35,1.71
-2,-36,228,-226,-215,3915,0.88,4.30,35.40,-2.26,-2.15,39.15,-5.19,1.32,45.07,3.82,25.33,13.87
2,-50,177,-215,-276,3906,0.80,3.56,32.94,-2.15,-2.76,39.06,-5.18,1.36,44.94,2.52,26.12,15.88
-2,-75,63,-183,-395,3884,0.71,2.75,30.03,-1.83,-3.95,38.84,-5.18,1.40,44.82,3.19,29.41,22.80
-6,-76,33,-122,-391,3977,0.60,2.01,27.23,-1.22,-3.91,39.77,-5.19,1.43,44.71,3.80,26.88,22.72
-6,-59,36,-101,-411,3998,0.51,1.45,24.72,-1.01,-4.11,39.98,-5.20,1.44,44.62,3.43,20.45,20.11
-3,-57,48,-100,-381,3980,0.44,0.96,22.54,-1.00,-3.81,39.80,-5.22,1.45,44.53,2.41,18.08,17.05
3,-50,100,-146,-336,3894,0.41,0.56,20.90,-1.46,-3.36,38.94,-5.21,1.48,44.44,0.79,14.80,11.10
-2,-53,109,-137,-361,3908,0.36,0.18,19.47,-1.37,-3.61,39.08,-5.20,1.51,44.37,1.86,14.13,9.00
0,-69,115,-105,-426,3920,0.32,-0.26,18.23,-1.05,-4.26,39.20,-5.22,1.51,44.29,1.22,16.55,7.32
-5,-77,124,-87,-412,3947,0.26,-0.71,17.16,-0.87,-4.12,39.47,-5.23,1.51,44.23,2.25,16.91,5.56
-1,-66,203,-49,-505,3897,0.23,-1.04,16.68,-0.49,-5.05,38.97,-5.25,1.50,44.16,1.11,12.86,-1.58
-5,-64,230,-52,-503,3950,0.17,-1.32,16.42,-0.52,-5.03,39.50,-5.26,1.50,44.09,1.93,11.27,-4.12
-7,-63,336,-20,-503,3940,0.11,-1.58,16.83,-0.20,-5.03,39.40,-5.28,1.49,44.03,2.21,10.07,-12.72
-3,-58,402,-46,-494,3925,0.08,-1.77,17.60,-0.46,-4.94,39.25,-5.29,1.48,43.96,1.08,8.06,-17.59
0,-75,532,-76,-465,3891,0.08,-2.05,19.08,-0.76,-4.65,38.91,-5.31,1.48,43.88,0.29,11.33,-27.21
-4,-75,563,-76,-481,3913,0.04,-2.30,20.61,-0.76,-4.81,39.13,-5.32,1.47,43.80,1.18,10.38,-28.40
5,-96,648,-69,-515,3962,0.07,-2.66,22.50,-0.69,-5.15,39.62,-5.34,1.46,43.71,-1.01,14.38,-33.83
16,-96,667,-83,-488,3915,0.16,-2.98,24.32,-0.83,-4.88,39.15,-5.35,1.46,43.61,-3.46,13.17,-33.73
0,-129,745,-108,-394,3946,0.14,-3.47,26.43,-1.08,-3.94,39.46,-5.37,1.46,43.50,0.54,19.72,-38.35
1,-134,775,-103,-359,3862,0.14,-3.94,28.52,-1.03,-3.59,38.62,-5.35,1.47,43.39,0.26,19.22,-38.94
-211,-235,900,-101,-200,4145,-1.16,-4.98,31.15,-1.01,-2.00,41.45,-5.33,1.46,43.26,49.24,40.97,-47.05
-226,-254,934,-83,-163,3995,-2.43,-6.03,33.74,-0.83,-1.63,39.95,-5.32,1.45,43.13,48.30,41.84,-47.51
-119,-127,1004,-74,-23,3949,-2.91,-6.20,36.49,-0.74,-0.23,39.49,-5.31,1.43,42.98,19.28,8.92,-50.85
-37,-55,994,-85,-66,4013,-2.84,-5.92,38.90,-0.85,-0.66,40.13,-5.30,1.42,42.82,-1.31,-8.31,-47.74
22,-1,843,-68,-106,4042,-2.43,-5.33,40.15,-0.68,-1.06,40.42,-5.29,1.42,42.66,-14.73,-19.83,-33.77
-2,4,772,-49,-50,4023,-2.20,-4.77,40.85,-0.49,-0.50,40.23,-5.28,1.41,42.49,-7.76,-19.00,-27.10
-24,16,543,-95,-72,3925,-2.12,-4.20,40.07,-0.95,-0.72,39.25,-5.26,1.41,42.33,-1.90,-19.88,-8.43
-23,19,508,-93,-70,3878,-2.05,-3.66,39.17,-0.93,-0.70,38.78,-5.25,1.41,42.17,-1.88,-18.63,-6.32
-27,15,341,-135,-205,3899,-2.01,-3.21,37.33,-1.35,-2.05,38.99,-5.23,1.41,42.02,-0.71,-15.89,6.11
-10,17,305,-113,-336,3875,-1.87,-2.78,35.46,-1.13,-3.36,38.75,-5.22,1.43,41.88,-4.50,-14.80,7.40
4,61,209,-52,-413,4023,-1.66,-2.13,33.19,-0.52,-4.13,40.23,-5.24,1.42,41.75,-7.27,-23.53,13.40
3,68,214,-68,-409,4043,-1.47,-1.50,31.17,-0.68,-4.09,40.43,-5.26,1.41,41.62,-6.32,-22.95,11.09
8,74,221,-114,-361,3908,-1.28,-0.90,29.40,-1.14,-3.61,39.08,-5.26,1.44,41.51,-6.85,-22.20,8.83
41,80,232,-78,-367,3858,-0.90,-0.32,27.88,-0.78,-3.67,38.58,-5.27,1.43,41.39,-13.81,-21.55,6.47
60,69,245,-42,-374,3974,-0.44,0.13,26.59,-0.42,-3.74,39.74,-5.27,1.42,41.29,-16.92,-17.05,4.15
42,60,245,-41,-374,3968,-0.14,0.48,25.42,-0.41,-3.74,39.68,-5.27,1.41,41.19,-11.22,-13.43,3.06
17,52,258,-89,-411,3905,-0.03,0.75,24.45,-0.89,-4.11,39.05,-5.29,1.42,41.09,-4.42,-10.39,1.05
25,48,268,-124,-412,3885,0.13,0.97,23.64,-1.24,-4.12,38.85,-5.30,1.44,41.00,-5.87,-8.55,-0.56
84,36,292,-127,-445,3922,0.63,1.09,23.06,-1.27,-4.45,39.22,-5.31,1.46,40.91,-18.98,-5.04,-3.14
88,30,289,-121,-438,3901,1.10,1.17,22.52,-1.21,-4.38,39.01,-5.33,1.48,40.82,-18.21,-3.23,-3.39
15,3,296,-117,-505,3962,1.08,1.07,22.07,-1.17,-5.05,39.62,-5.34,1.49,40.73,0.27,3.26,-4.41
5,-4,299,-90,-543,3989,1.01,0.94,21.69,-0.90,-5.43,39.89,-5.35,1.51,40.64,2.52,4.54,-5.02
27,12,299,-183,-563,3924,1.07,0.92,21.34,-1.83,-5.63,39.24,-5.36,1.52,40.56,-2.83,0.40,-5.34
24,7,335,-192,-567,3921,1.11,0.87,21.25,-1.92,-5.67,39.21,-5.37,1.54,40.48,-1.92,1.49,-8.48
3,-8,449,-102,-498,3947,1.02,0.73,21.87,-1.02,-4.98,39.47,-5.38,1.55,40.39,3.07,4.79,-17.56
-14,-13,502,-92,-516,3882,0.83,0.58,22.74,-0.92,-5.16,38.82,-5.39,1.56,40.30,6.68,5.48,-21.23
-60,-48,688,-61,-533,3861,0.38,0.23,24.66,-0.61,-5.33,38.61,-5.41,1.57,40.20,16.68,13.06,-35.18
-44,-30,731,-55,-517,3916,0.07,0.02,26.66,-0.55,-5.17,39.16,-5.42,1.57,40.10,11.46,7.71,-36.95
-52,-31,852,-82,-457,3867,-0.25,-0.17,29.19,-0.82,-4.57,38.67,-5.44,1.58,39.98,12.27,7.24,-44.83
-44,-28,877,-89,-467,3975,-0.49,-0.32,31.62,-0.89,-4.67,39.75,-5.45,1.58,39.86,9.32,5.90,-44.66
-62,-33,917,-132,-428,3886,-0.82,-0.49,34.05,-1.32,-4.28,38.86,-5.47,1.60,39.72,12.66,6.53,-45.77
-67,-46,922,-119,-361,3987,-1.15,-0.72,36.27,-1.19,-3.61,39.87,-5.45,1.62,39.58,12.70,8.97,-44.11
-61,-45,904,-243,-260,3986,-1.41,-0.93,38.16,-2.43,-2.60,39.86,-5.44,1.64,39.42,10.21,7.95,-40.81
-105,-75,871,-265,-310,3913,-1.91,-1.29,39.65,-2.65,-3.10,39.13,-5.44,1.67,39.26,19.51,14.20,-36.61
63,-10,738,-187,-362,3841,-1.33,-1.22,40.19,-1.87,-3.62,38.41,-5.44,1.70,39.10,-21.03,-2.06,-24.84
82,-3,689,-146,-397,3855,-0.70,-1.12,40.37,-1.46,-3.97,38.55,-5.45,1.72,38.94,-23.47,-3.45,-20.52
74,1,534,-37,-433,4004,-0.18,-1.00,39.59,-0.37,-4.33,40.04,-5.45,1.72,38.78,-19.47,-4.02,-8.12
63,4,503,-29,-415,3942,0.23,-0.88,38.70,-0.29,-4.15,39.42,-5.46,1.71,38.63,-15.16,-4.32,-6.33
34,4,495,39,-349,3960,0.41,-0.76,37.85,0.39,-3.49,39.60,-5.45,1.70,38.48,-7.10,-3.90,-6.45
23,5,512,45,-317,3955,0.51,-0.66,37.19,0.45,-3.17,39.55,-5.43,1.70,38.33,-3.93,-3.75,-8.51
3,-1,563,8,-332,3960,0.48,-0.60,36.91,0.08,-3.32,39.60,-5.42,1.69,38.18,1.03,-2.00,-13.10
-6,3,557,-2,-359,3952,0.39,-0.52,36.61,-0.02,-3.59,39.52,-5.41,1.69,38.04,3.00,-2.72,-12.86
-7,6,586,98,-257,3927,0.31,-0.43,36.53,0.98,-2.57,39.27,-5.40,1.68,37.89,2.95,-3.15,-15.40
-13,10,615,101,-218,3989,0.20,-0.33,36.63,1.01,-2.18,39.89,-5.38,1.68,37.74,4.06,-3.77,-17.77
-5,8,647,67,-83,3906,0.15,-0.25,36.91,0.67,-0.83,39.06,-5.36,1.68,37.60,1.83,-2.96,-20.21
-14,-2,651,38,-107,3954,0.05,-0.23,37.19,0.38,-1.07,39.54,-5.34,1.69,37.45,3.74,-0.37,-20.29
-11,-29,616,-8,-105,3910,-0.02,-0.39,37.23,-0.08,-1.05,39.10,-5.32,1.69,37.30,2.71,5.91,-17.29
-8,-28,590,-10,-101,3930,-0.07,-0.52,37.10,-0.10,-1.01,39.30,-5.30,1.70,37.15,1.77,5.16,-15.20
-6,-28,437,-167,-263,3923,-0.10,-0.64,36.06,-1.67,-2.63,39.23,-5.28,1.72,37.01,1.15,4.71,-3.22
-9,-34,398,-167,-293,3927,-0.14,-0.78,34.88,-1.67,-2.93,39.27,-5.26,1.74,36.87,1.74,5.70,-1.02
-7,-6,291,-118,-320,3935,-0.17,-0.74,33.17,-1.18,-3.20,39.35,-5.24,1.75,36.73,1.13,-1.26,6.44
0,-2,280,-103,-340,3917,-0.15,-0.68,31.56,-1.03,-3.40,39.17,-5.22,1.74,36.61,-0.58,-2.05,5.86
-3,-1,272,16,-336,3956,-0.16,-0.62,30.06,0.16,-3.36,39.56,-5.22,1.73,36.49,0.17,-2.07,5.13
-2,3,289,34,-283,3952,-0.15,-0.54,28.82,0.34,-2.83,39.52,-5.20,1.72,36.37,-0.07,-2.78,2.52
-9,8,346,74,-196,3955,-0.19,-0.43,28.05,0.74,-1.96,39.55,-5.19,1.72,36.26,1.56,-3.67,-3.03
-7,9,363,40,-180,3903,-0.22,-0.34,27.46,0.40,-1.80,39.03,-5.17,1.72,36.15,0.96,-3.55,-5.02
-8,-12,417,-168,-212,3901,-0.24,-0.38,27.26,-1.68,-2.12,39.01,-5.15,1.73,36.04,1.11,1.64,-9.79
-10,-17,423,-204,-197,3953,-0.28,-0.44,27.11,-2.04,-1.97,39.53,-5.14,1.75,35.93,1.48,2.66,-10.43
-10,-54,423,-339,-240,4013,-0.31,-0.73,26.98,-3.39,-2.40,40.13,-5.13,1.77,35.82,1.36,10.99,-10.56
1,-29,425,-373,-290,3883,-0.28,-0.83,26.87,-3.73,-2.90,38.83,-5.12,1.79,35.72,-1.30,4.24,-10.83
-12,-24,381,-138,-513,3949,-0.32,-0.89,26.51,-1.38,-5.13,39.49,-5.14,1.80,35.61,1.84,2.73,-7.44
-8,-10,352,-34,-566,3974,-0.34,-0.87,26.01,-0.34,-5.66,39.74,-5.15,1.80,35.51,0.76,-0.72,-5.45
-9,15,239,33,-525,4006,-0.36,-0.69,24.86,0.33,-5.25,40.06,-5.16,1.79,35.41,0.93,-6.40,3.05
-7,23,209,-43,-455,3912,-0.37,-0.48,23.65,-0.43,-4.55,39.12,-5.17,1.79,35.31,0.40,-7.65,4.45
-6,17,165,-44,-396,3868,-0.37,-0.33,22.29,-0.44,-3.96,38.68,-5.18,1.78,35.23,0.14,-5.55,6.90
-2,11,151,-49,-422,3949,-0.34,-0.23,20.99,-0.49,-4.22,39.49,-5.19,1.77,35.14,-0.78,-3.65,6.86
-4,12,113,20,-433,3984,-0.33,-0.13,19.58,0.20,-4.33,39.84,-5.20,1.76,35.06,-0.23,-3.55,8.76
-3,3,102,53,-422,3925,-0.32,-0.10,18.24,0.53,-4.22,39.25,-5.21,1.75,34.99,-0.43,-1.14,8.43
-6,69,68,62,-452,3831,-0.32,0.33,16.83,0.62,-4.52,38.31,-5.21,1.74,34.92,0.31,-16.29,9.99
-5,106,53,81,-403,3862,-0.32,0.94,15.47,0.81,-4.03,38.62,-5.22,1.73,34.86,0.06,-23.39,9.99
-3,37,12,21,-212,3970,-0.31,1.08,14.00,0.21,-2.12,39.70,-5.20,1.73,34.81,-0.39,-5.35,12.08
9,-64,-16,-591,-408,3906,-0.22,0.58,12.50,-5.91,-4.08,39.06,-5.21,1.76,34.76,-3.12,18.44,13.04
-5,-74,20,-73,-368,3770,-0.23,0.07,11.37,-0.73,-3.68,37.70,-5.21,1.74,34.71,0.41,19.07,8.93
1,-30,67,2,-253,3992,-0.20,-0.12,10.64,0.02,-2.53,39.92,-5.20,1.73,34.67,-1.01,7.17,4.27
-11,-34,157,-94,-20,3997,-0.25,-0.32,10.54,-0.94,-0.20,39.97,-5.18,1.74,34.63,1.86,7.45,-3.46
-15,-44,183,-83,-19,3911,-0.31,-0.55,10.60,-0.83,-0.19,39.11,-5.16,1.73,34.58,2.63,9.10,-5.60
-15,-40,162,-56,-292,3917,-0.37,-0.74,10.53,-0.56,-2.92,39.17,-5.15,1.72,34.54,2.40,7.37,-3.89
4,-15,145,66,-341,3979,-0.31,-0.76,10.36,0.66,-3.41,39.79,-5.15,1.71,34.50,-2.19,0.95,-2.61
5,4,36,-172,-482,3939,-0.25,-0.66,9.54,-1.72,-4.82,39.39,-5.17,1.71,34.46,-2.22,-3.50,5.86
0,-3,-14,-471,-499,3932,-0.23,-0.61,8.50,-4.71,-4.99,39.32,-5.17,1.73,34.43,-0.85,-1.54,9.12
-4,0,-86,-304,-172,3892,-0.23,-0.55,7.13,-3.04,-1.72,38.92,-5.16,1.74,34.40,0.16,-2.07,13.93
12,5,-108,-134,-316,4070,-0.13,-0.46,5.76,-1.34,-3.16,40.70,-5.14,1.75,34.38,-3.55,-3.02,14.51
12,18,-232,85,-485,3992,-0.05,-0.31,3.77,0.85,-4.85,39.92,-5.15,1.73,34.36,-3.22,-5.74,23.14
9,14,-242,50,-558,3879,0.01,-0.19,1.91,0.50,-5.58,38.79,-5.17,1.72,34.35,-2.23,-4.28,22.25
5,21,-200,32,-579,3878,0.04,-0.04,0.50,0.32,-5.79,38.78,-5.18,1.71,34.35,-1.11,-5.51,17.37
1,16,-172,46,-567,3966,0.05,0.06,-0.60,0.46,-5.67,39.66,-5.20,1.70,34.36,-0.08,-3.85,13.96
-1,9,-59,117,-489,3920,0.03,0.11,-0.90,1.17,-4.89,39.20,-5.20,1.68,34.36,0.38,-1.89,4.11
-3,7,-32,60,-434,3926,0.01,0.14,-1.00,0.60,-4.34,39.26,-5.21,1.67,34.36,0.81,-1.26,1.72
-3,1,-8,-38,-378,3936,-0.01,0.13,-0.95,-0.38,-3.78,39.36,-5.22,1.65,34.37,0.74,0.24,-0.27
-1,2,-1,-56,-375,3930,-0.01,0.13,-0.86,-0.56,-3.75,39.30,-5.22,1.63,34.37,0.21,-0.02,-0.77
0,1,2,-36,-354,3937,-0.01,0.12,-0.76,-0.36,-3.54,39.37,-5.22,1.61,34.37,-0.04,0.21,-0.94
1,2,3,-40,-363,3928,-0.00,0.12,-0.67,-0.40,-3.63,39.28,-5.22,1.60,34.38,-0.27,-0.05,-0.93
-1,-2,5,-53,-369,3928,-0.01,0.10,-0.57,-0.53,-3.69,39.28,-5.22,1.58,34.38,0.22,0.88,-1.01
0,-1,0,-42,-353,3931,-0.01,0.08,-0.51,-0.42,-3.53,39.31,-5.22,1.56,34.38,-0.03,0.56,-0.53
0,2,-1,-38,-359,3939,-0.01,0.09,-0.47,-0.38,-3.59,39.39,-5.22,1.54,34.38,-0.03,-0.18,-0.41
-2,0,-1,-45,-370,3933,-0.02,0.08,-0.43,-0.45,-3.70,39.33,-5.23,1.52,34.39,0.44,0.29,-0.37
3,9,-1,-43,-401,3968,0.00,0.12,-0.39,-0.43,-4.01,39.68,-5.24,1.51,34.39,-0.76,-1.82,-0.33
-1,13,-6,-26,-403,3942,-0.01,0.19,-0.39,-0.26,-4.03,39.42,-5.24,1.49,34.39,0.23,-2.58,0.09
-2,5,-47,-86,-380,3923,-0.02,0.20,-0.64,-0.86,-3.80,39.23,-5.26,1.48,34.39,0.44,-0.51,3.33
0,4,-45,-66,-364,3933,-0.02,0.21,-0.85,-0.66,-3.64,39.33,-5.26,1.46,34.40,-0.06,-0.24,2.97
-1,4,-91,-29,-412,3929,-0.02,0.21,-1.32,-0.29,-4.12,39.29,-5.27,1.45,34.40,0.18,-0.22,6.42
-3,4,-105,-33,-411,3935,-0.04,0.21,-1.83,-0.33,-4.11,39.35,-5.28,1.43,34.41,0.63,-0.21,7.13
-1,2,-128,-9,-319,3936,-0.04,0.20,-2.42,-0.09,-3.19,39.36,-5.27,1.42,34.42,0.11,0.26,8.52
-1,-1,-130,35,-268,3931,-0.04,0.18,-2.98,0.35,-2.68,39.31,-5.26,1.40,34.43,0.10,0.93,8.17
-2,-5,-69,-179,-378,3921,-0.05,0.13,-3.10,-1.79,-3.78,39.21,-5.27,1.42,34.44,0.32,1.76,2.89
-6,-4,-40,-120,-380,3920,-0.08,0.09,-3.03,-1.20,-3.80,39.20,-5.28,1.43,34.45,1.22,1.36,0.49
-3,-2,-7,-76,-355,3937,-0.09,0.07,-2.77,-0.76,-3.55,39.37,-5.27,1.42,34.47,0.42,0.78,-2.06
-1,-1,1,-71,-355,3937,-0.09,0.06,-2.49,-0.71,-3.55,39.37,-5.27,1.40,34.48,-0.08,0.47,-2.47
-1,0,-1,-49,-353,3929,-0.09,0.05,-2.25,-0.49,-3.53,39.29,-5.27,1.38,34.48,-0.07,0.20,-2.07
0,1,3,-61,-378,3954,-0.08,0.05,-2.00,-0.61,-3.78,39.54,-5.27,1.36,34.49,-0.29,-0.06,-2.18
-1,-1,1,-57,-370,3937,-0.08,0.04,-1.80,-0.57,-3.70,39.37,-5.28,1.34,34.50,-0.03,0.41,-1.82
-1,-1,2,-60,-368,3929,-0.07,0.03,-1.60,-0.60,-3.68,39.29,-5.28,1.32,34.51,-0.02,0.37,-1.72
-2,4,2,-49,-366,3929,-0.08,0.05,-1.43,-0.49,-3.66,39.29,-5.28,1.31,34.51,0.21,-0.82,-1.56
-1,4,0,-46,-358,3944,-0.08,0.07,-1.29,-0.46,-3.58,39.44,-5.28,1.29,34.52,-0.04,-0.75,-1.26
0,9,-1,-65,-357,3926,-0.07,0.12,-1.17,-0.65,-3.57,39.26,-5.28,1.27,34.52,-0.26,-1.84,-1.06
-1,7,-2,-95,-368,3924,-0.07,0.15,-1.06,-0.95,-3.68,39.24,-5.29,1.28,34.53,-0.00,-1.21,-0.88
0,2,2,-56,-355,3929,-0.06,0.15,-0.94,-0.56,-3.55,39.29,-5.28,1.27,34.53,-0.23,0.05,-1.10
1,2,2,-41,-369,3935,-0.05,0.14,-0.84,-0.41,-3.69,39.35,-5.28,1.25,34.53,-0.44,0.04,-1.00
-3,0,-11,84,-395,3880,-0.06,0.13,-0.82,0.84,-3.95,38.80,-5.29,1.23,34.54,0.53,0.49,0.11
-1,-1,-18,57,-360,3920,-0.06,0.11,-0.85,0.57,-3.60,39.20,-5.29,1.21,34.54,0.02,0.67,0.68
0,-3,-25,-88,-348,3934,-0.06,0.08,-0.92,-0.88,-3.48,39.34,-5.27,1.22,34.54,-0.21,1.07,1.21
1,0,-21,-92,-362,3943,-0.04,0.07,-0.95,-0.92,-3.62,39.43,-5.27,1.24,34.55,-0.42,0.28,0.84
2,3,-25,-13,-453,3918,-0.03,0.08,-1.01,-0.13,-4.53,39.18,-5.28,1.22,34.55,-0.61,-0.44,1.12
2,7,-40,7,-507,3943,-0.01,0.12,-1.15,0.07,-5.07,39.43,-5.30,1.21,34.56,-0.56,-1.33,2.26
-2,8,-27,-120,-607,3946,-0.02,0.16,-1.20,-1.20,-6.07,39.46,-5.32,1.22,34.56,0.42,-1.45,1.11
-3,4,-21,-176,-594,3898,-0.04,0.16,-1.21,-1.76,-5.94,38.98,-5.33,1.22,34.57,0.61,-0.40,0.60
-6,-4,120,-280,-666,3915,-0.07,0.12,-0.36,-2.80,-6.66,39.15,-5.35,1.23,34.57,1.25,1.48,-10.55
-11,-4,150,-142,-233,3877,-0.13,0.09,0.59,-1.42,-2.33,38.77,-5.33,1.24,34.57,2.30,1.34,-12.20
-2,-7,135,-146,-439,3951,-0.13,0.04,1.36,-1.46,-4.39,39.51,-5.35,1.25,34.56,0.01,1.91,-10.21
1,-3,166,-138,-493,3942,-0.11,0.01,2.23,-1.38,-4.93,39.42,-5.36,1.26,34.55,-0.68,0.81,-12.01
-4,-1,264,-23,-504,3968,-0.13,0.01,3.62,-0.23,-5.04,39.68,-5.38,1.26,34.54,0.54,0.28,-19.01
3,4,291,11,-524,3956,-0.09,0.03,5.03,0.11,-5.24,39.56,-5.40,1.25,34.52,-1.12,-0.90,-19.98
-12,11,392,-8,-513,3946,-0.16,0.09,6.92,-0.08,-5.13,39.46,-5.41,1.24,34.49,2.45,-2.44,-26.76
0,25,432,-20,-455,3926,-0.14,0.24,8.87,-0.20,-4.55,39.26,-5.43,1.23,34.46,-0.54,-5.46,-28.33
-19,16,510,-87,-274,3961,-0.24,0.31,11.09,-0.87,-2.74,39.61,-5.41,1.24,34.41,3.91,-2.90,-32.85
-3,20,536,-124,-235,3950,-0.24,0.40,13.25,-1.24,-2.35,39.50,-5.39,1.25,34.36,-0.13,-3.57,-33.02
-8,13,623,-99,-211,3894,-0.26,0.44,15.73,-0.99,-2.11,38.94,-5.37,1.26,34.30,1.04,-1.64,-38.07
-6,11,628,-85,-216,3956,-0.27,0.46,17.98,-0.85,-2.16,39.56,-5.35,1.27,34.22,0.50,-1.05,-36.37
-5,7,594,-46,-297,3956,-0.28,0.46,19.81,-0.46,-2.97,39.56,-5.34,1.27,34.15,0.23,-0.05,-31.78
-11,5,568,-29,-334,3963,-0.32,0.44,21.29,-0.29,-3.34,39.63,-5.33,1.26,34.06,1.61,0.40,-28.18
-1,3,477,-52,-331,3966,-0.29,0.42,22.07,-0.52,-3.31,39.66,-5.31,1.26,33.97,-0.84,0.81,-19.74
-2,1,467,-91,-358,3886,-0.27,0.38,22.71,-0.91,-3.58,38.86,-5.30,1.29,33.88,-0.52,1.19,-18.29
-12,8,448,-42,-398,3913,-0.32,0.39,23.18,-0.42,-3.98,39.13,-5.31,1.28,33.79,1.85,-0.55,-16.25
-6,15,448,-6,-334,3970,-0.32,0.45,23.59,-0.06,-3.34,39.70,-5.30,1.28,33.70,0.30,-2.14,-15.86
-11,21,486,-11,-344,3901,-0.36,0.53,24.20,-0.11,-3.44,39.01,-5.30,1.27,33.60,1.44,-3.35,-18.51
-12,23,496,22,-357,3884,-0.40,0.62,24.80,0.22,-3.57,38.84,-5.30,1.26,33.50,1.56,-3.52,-18.79
-2,116,556,-44,-267,3857,-0.37,1.26,25.71,-0.44,-2.67,38.57,-5.28,1.27,33.40,-0.88,-24.73,-23.01
-5,92,529,-42,-279,4033,-0.36,1.70,26.37,-0.42,-2.79,40.33,-5.26,1.28,33.29,-0.09,-16.99,-20.11
-2,34,550,-191,-262,3937,-0.34,1.74,27.09,-1.91,-2.62,39.37,-5.25,1.31,33.19,-0.77,-2.11,-21.22
-10,19,570,-171,-284,3922,-0.37,1.68,27.86,-1.71,-2.84,39.22,-5.24,1.34,33.08,1.16,1.49,-22.19
-13,1,610,-107,-352,3984,-0.41,1.52,28.79,-1.07,-3.52,39.84,-5.22,1.37,32.96,1.77,5.45,-24.70
-13,3,620,-57,-388,3942,-0.45,1.38,29.69,-0.57,-3.88,39.42,-5.23,1.37,32.84,1.62,4.44,-24.70
-24,11,638,-83,-443,3906,-0.55,1.31,30.62,-0.83,-4.43,39.06,-5.25,1.38,32.72,4.03,2.14,-25.36
31,50,652,-53,-434,3946,-0.30,1.49,31.53,-0.53,-4.34,39.46,-5.26,1.39,32.60,-9.03,-7.12,-25.68
83,95,694,-48,-453,3975,0.23,1.92,32.61,-0.48,-4.53,39.75,-5.27,1.40,32.47,-20.22,-16.93,-28.23
86,104,707,-7,-444,3892,0.73,2.36,33.66,-0.07,-4.44,38.92,-5.28,1.41,32.34,-19.10,-17.55,-28.34
14,48,787,-114,-388,3847,0.75,2.42,35.10,-1.14,-3.88,38.47,-5.29,1.44,32.20,-0.75,-3.10,-33.77
-1,29,822,-124,-404,3934,0.67,2.35,36.60,-1.24,-4.04,39.34,-5.30,1.47,32.05,2.76,1.48,-35.33
1,28,901,-121,-336,3902,0.60,2.29,38.44,-1.21,-3.36,39.02,-5.28,1.51,31.90,2.02,1.50,-40.30
-5,18,918,-96,-379,3951,0.51,2.17,40.19,-0.96,-3.79,39.51,-5.29,1.52,31.74,3.21,3.59,-40.09
0,26,920,-61,-334,3943,0.46,2.11,41.79,-0.61,-3.34,39.43,-5.27,1.53,31.58,1.74,1.34,-38.76
4,28,912,-107,-295,3958,0.44,2.07,43.17,-1.07,-2.95,39.58,-5.25,1.56,31.40,0.64,0.68,-36.78
-21,29,888,-80,-316,3898,0.27,2.04,44.27,-0.80,-3.16,38.98,-5.23,1.57,31.23,6.35,0.31,-33.72
12,16,848,-97,-268,3963,0.31,1.93,45.02,-0.97,-2.68,39.63,-5.20,1.59,31.05,-1.87,3.21,-29.63
3,36,799,-13,-306,3918,0.30,1.96,45.39,-0.13,-3.06,39.18,-5.19,1.60,30.87,0.37,-1.77,-25.13
-6,58,776,-27,-314,3906,0.23,2.12,45.58,-0.27,-3.14,39.06,-5.17,1.61,30.69,2.41,-6.77,-23.00
-5,83,751,-28,-377,3928,0.18,2.41,45.61,-0.28,-3.77,39.28,-5.17,1.62,30.51,1.95,-12.01,-20.86
-9,86,748,-36,-344,3976,0.11,2.70,45.61,-0.36,-3.44,39.76,-5.16,1.63,30.32,2.69,-11.71,-20.60
1,92,744,-68,-326,3956,0.10,2.99,45.59,-0.68,-3.26,39.56,-5.15,1.64,30.14,0.13,-12.14,-20.28
-2,96,752,-78,-272,3891,0.08,3.27,45.61,-0.78,-2.72,38.91,-5.12,1.66,29.96,0.81,-12.07,-20.93
3,65,802,-129,-169,3902,0.09,3.34,45.95,-1.29,-1.69,39.02,-5.10,1.69,29.78,-0.42,-3.93,-24.86
4,69,820,-114,-176,3912,0.11,3.43,46.35,-1.14,-1.76,39.12,-5.08,1.72,29.60,-0.62,-4.62,-26.00
14,37,865,-153,-170,3908,0.18,3.31,46.99,-1.53,-1.70,39.08,-5.05,1.76,29.41,-2.88,3.07,-29.21
6,7,858,-106,-163,3996,0.20,3.02,47.53,-1.06,-1.63,39.96,-5.03,1.78,29.22,-0.77,9.61,-28.12
13,20,786,-40,-232,3922,0.26,2.84,47.57,-0.40,-2.32,39.22,-5.00,1.80,29.03,-2.33,5.62,-21.98
10,21,752,-56,-282,3993,0.29,2.69,47.40,-0.56,-2.82,39.93,-4.98,1.81,28.84,-1.44,4.78,-19.26
118,19,638,-81,-231,4030,0.98,2.53,46.55,-0.81,-2.31,40.30,-4.96,1.83,28.66,-26.28,4.71,-10.40
65,32,630,-75,-351,3852,1.28,2.48,45.74,-0.75,-3.51,38.52,-4.95,1.84,28.48,-11.69,1.19,-10.48
4,57,579,-100,-392,3819,1.18,2.58,44.70,-1.00,-3.92,38.19,-4.96,1.86,28.30,3.42,-4.79,-7.14
-2,63,562,-124,-374,3939,1.05,2.70,43.66,-1.24,-3.74,39.39,-4.97,1.89,28.13,4.46,-5.84,-6.68
3,51,544,-114,-492,3915,0.96,2.74,42.61,-1.14,-4.92,39.15,-4.98,1.91,27.96,2.86,-2.63,-6.13
0,37,550,-91,-474,3868,0.87,2.70,41.70,-0.91,-4.74,38.68,-4.99,1.93,27.79,3.26,0.74,-7.49
3,0,590,-125,-433,3847,0.80,2.43,41.13,-1.25,-4.33,38.47,-4.99,1.95,27.63,2.24,9.13,-11.42
3,-12,594,-145,-447,3906,0.74,2.11,40.64,-1.45,-4.47,39.06,-5.00,1.98,27.47,2.01,10.99,-12.22
3,-49,592,-119,-452,3842,0.68,1.60,40.19,-1.19,-4.52,38.42,-5.01,1.99,27.31,1.80,18.48,-12.47
6,-52,596,-104,-484,3902,0.65,1.12,39.81,-1.04,-4.84,39.02,-5.02,2.01,27.15,0.92,17.44,-13.17
-15,-40,635,-29,-469,4031,0.49,0.77,39.70,-0.29,-4.69,40.31,-5.03,2.01,27.00,5.67,13.05,-16.58
-4,-20,650,-47,-451,3920,0.42,0.57,39.69,-0.47,-4.51,39.20,-5.04,2.02,26.84,2.59,7.22,-17.85
-16,-1,700,-29,-398,4020,0.28,0.50,39.99,-0.29,-3.98,40.20,-5.04,2.02,26.68,5.12,2.15,-21.81
7,5,716,-52,-374,3928,0.29,0.48,40.36,-0.52,-3.74,39.28,-5.03,2.01,26.52,-0.67,0.55,-22.82
11,20,754,-95,-349,3930,0.33,0.56,40.93,-0.95,-3.49,39.30,-5.03,2.01,26.36,-1.55,-2.98,-25.51
-4,13,770,-85,-346,3970,0.27,0.58,41.53,-0.85,-3.46,39.70,-5.02,2.01,26.19,2.05,-1.12,-26.29
11,30,794,-82,-338,3891,0.31,0.71,42.22,-0.82,-3.38,38.91,-5.01,2.01,26.02,-1.61,-4.97,-27.68
-3,18,772,-113,-307,3920,0.26,0.75,42.71,-1.13,-3.07,39.20,-4.99,2.02,25.85,1.76,-1.77,-25.36
-9,2,753,-97,-412,3918,0.18,0.68,43.03,-0.97,-4.12,39.18,-5.00,2.03,25.68,2.98,2.06,-23.45
-12,4,751,-152,-494,3876,0.09,0.64,43.31,-1.52,-4.94,38.76,-5.01,2.05,25.51,3.39,1.39,-23.01
4,-5,749,-85,-427,3899,0.11,0.55,43.55,-0.85,-4.27,38.99,-5.02,2.05,25.34,-0.62,3.32,-22.62
-10,4,753,-91,-427,3918,0.04,0.51,43.79,-0.91,-4.27,39.18,-5.03,2.06,25.16,2.67,0.92,-22.74
1,3,788,-33,-410,3915,0.04,0.48,44.21,-0.33,-4.10,39.15,-5.03,2.06,24.99,-0.11,1.05,-25.30
-5,7,808,-72,-368,3982,0.00,0.48,44.72,-0.72,-3.68,39.82,-5.03,2.06,24.81,1.28,0.01,-26.52
3,7,864,-104,-283,3983,0.02,0.47,45.52,-1.04,-2.83,39.83,-5.01,2.07,24.63,-0.68,-0.01,-30.51
-10,8,875,-104,-330,3908,-0.04,0.47,46.30,-1.04,-3.30,39.08,-5.00,2.07,24.44,2.38,-0.26,-30.71
-2,8,877,-84,-337,3876,-0.05,0.47,47.02,-0.84,-3.37,38.76,-4.99,2.07,24.26,0.32,-0.25,-30.20
2,-5,860,-47,-325,3999,-0.03,0.40,47.57,-0.47,-3.25,39.99,-4.98,2.07,24.07,-0.63,2.76,-28.25
2,4,829,-145,-277,3945,-0.02,0.38,47.87,-1.45,-2.77,39.45,-4.95,2.09,23.87,-0.57,0.41,-25.34
-14,-22,804,-23,-224,4004,-0.10,0.21,47.99,-0.23,-2.24,40.04,-4.93,2.10,23.68,3.18,6.37,-23.11
-14,-30,704,-156,-257,3873,-0.18,0.01,47.48,-1.56,-2.57,38.73,-4.91,2.11,23.49,2.89,7.64,-15.11
-19,-36,682,-166,-286,3823,-0.27,-0.22,46.89,-1.66,-2.86,38.23,-4.89,2.14,23.30,3.79,8.33,-13.80
-67,-98,561,-169,-315,3859,-0.66,-0.79,45.63,-1.69,-3.15,38.59,-4.87,2.17,23.12,14.56,21.92,-4.74
-64,-104,534,-149,-340,3826,-0.98,-1.35,44.32,-1.49,-3.40,38.26,-4.89,2.18,22.95,12.57,21.36,-3.68
-37,-137,459,-95,-352,4054,-1.11,-2.05,42.69,-0.95,-3.52,40.54,-4.89,2.17,22.77,5.23,27.10,1.14
-42,-99,423,-30,-352,4080,-1.25,-2.45,41.00,-0.30,-3.52,40.80,-4.89,2.16,22.61,5.95,15.94,2.61
-21,-19,334,-80,-485,3999,-1.26,-2.32,38.94,-0.80,-4.85,39.99,-4.90,2.15,22.45,0.60,-3.91,8.21
-16,-6,314,-105,-549,3998,-1.23,-2.12,36.96,-1.05,-5.49,39.98,-4.92,2.15,22.31,-0.56,-6.48,8.05
-6,-6,275,-181,-496,3951,-1.14,-1.95,34.94,-1.81,-4.96,39.51,-4.94,2.16,22.17,-2.78,-5.81,9.46
-8,-4,264,-144,-440,3931,-1.08,-1.78,33.06,-1.44,-4.40,39.31,-4.95,2.16,22.04,-2.02,-5.68,8.62
-3,4,242,-74,-469,3946,-0.99,-1.57,31.23,-0.74,-4.69,39.46,-4.97,2.16,21.91,-2.96,-6.95,8.77
-3,6,245,-59,-492,3935,-0.91,-1.38,29.60,-0.59,-4.92,39.35,-4.98,2.15,21.79,-2.65,-6.73,6.98
-3,5,303,-94,-555,3919,-0.83,-1.21,28.49,-0.94,-5.55,39.19,-5.00,2.15,21.68,-2.38,-5.84,1.03
-11,4,324,-103,-565,3894,-0.82,-1.07,27.62,-1.03,-5.65,38.94,-5.02,2.16,21.57,-0.29,-5.04,-1.57
0,0,378,-96,-479,3962,-0.74,-0.96,27.16,-0.96,-4.79,39.62,-5.03,2.15,21.46,-2.77,-3.62,-6.58
-7,1,391,-114,-488,3901,-0.71,-0.86,26.83,-1.14,-4.88,39.01,-5.05,2.16,21.36,-0.88,-3.49,-7.99
-8,0,426,-192,-437,3941,-0.68,-0.77,26.74,-1.92,-4.37,39.41,-5.06,2.17,21.25,-0.54,-2.91,-11.03
-11,-7,435,-145,-430,3924,-0.68,-0.74,26.72,-1.45,-4.30,39.24,-5.08,2.18,21.14,0.23,-1.00,-11.81
-12,-3,438,-118,-416,3936,-0.69,-0.68,26.72,-1.18,-4.16,39.36,-5.10,2.17,21.04,0.46,-1.81,-12.07
-14,-3,439,-116,-416,3955,-0.70,-0.63,26.73,-1.16,-4.16,39.55,-5.11,2.17,20.93,0.91,-1.62,-12.15
-18,-7,460,-119,-419,3951,-0.74,-0.61,26.86,-1.19,-4.19,39.51,-5.13,2.17,20.82,1.77,-0.53,-13.80
-38,-19,463,-125,-399,3966,-0.90,-0.67,27.00,-1.25,-3.99,39.66,-5.14,2.17,20.72,6.26,2.32,-13.93
-47,-27,485,-166,-418,3884,-1.10,-0.76,27.26,-1.66,-4.18,38.84,-5.16,2.18,20.61,7.81,3.98,-15.55
-34,-6,506,-165,-407,3892,-1.20,-0.72,27.62,-1.65,-4.07,38.92,-5.18,2.19,20.50,4.14,-1.21,-16.99
-28,-1,546,-110,-435,3872,-1.25,-0.66,28.19,-1.10,-4.35,38.72,-5.20,2.19,20.39,2.42,-2.23,-19.84
5,12,558,-69,-400,3948,-1.09,-0.52,28.77,-0.69,-4.00,39.48,-5.20,2.18,20.27,-5.38,-5.01,-20.31
4,23,606,-85,-431,3932,-0.96,-0.33,29.59,-0.85,-4.31,39.32,-5.22,2.18,20.16,-4.62,-7.08,-23.61
8,20,624,-123,-447,3960,-0.81,-0.17,30.44,-1.23,-4.47,39.60,-5.23,2.19,20.03,-5.10,-5.74,-24.34
-25,-1,651,-106,-487,3895,-0.88,-0.16,31.37,-1.06,-4.87,38.95,-5.25,2.19,19.91,3.02,-0.36,-25.75
-17,-5,654,-110,-460,3890,-0.90,-0.18,32.22,-1.10,-4.60,38.90,-5.26,2.20,19.78,0.93,0.61,-25.21
-85,-63,668,-72,-411,3915,-1.33,-0.54,33.07,-0.72,-4.11,39.15,-5.27,2.19,19.65,16.60,13.97,-25.59
-104,-67,673,-109,-413,3897,-1.83,-0.90,33.87,-1.09,-4.13,38.97,-5.29,2.19,19.52,19.54,13.65,-25.27
-31,-22,721,24,-401,4002,-1.84,-0.94,34.88,0.24,-4.01,40.02,-5.30,2.18,19.38,0.96,2.04,-28.39
-29,-6,738,-31,-399,3916,-1.83,-0.88,35.89,-0.31,-3.99,39.16,-5.30,2.17,19.23,0.48,-1.81,-28.87
-19,-1,813,-45,-414,3927,-1.76,-0.80,37.26,-0.45,-4.14,39.27,-5.31,2.17,19.08,-1.81,-2.77,-33.94
-24,14,836,-105,-451,3895,-1.73,-0.64,38.64,-1.05,-4.51,38.95,-5.33,2.17,18.93,-0.42,-5.96,-34.60
-12,14,893,-73,-353,3958,-1.63,-0.49,40.22,-0.73,-3.53,39.58,-5.33,2.16,18.77,-3.10,-5.40,-37.94
-5,16,890,-76,-316,4013,-1.50,-0.34,41.63,-0.76,-3.16,40.13,-5.32,2.16,18.60,-4.38,-5.35,-36.37
-17,12,857,-35,-403,3942,-1.45,-0.23,42.69,-0.35,-4.03,39.42,-5.32,2.16,18.43,-1.15,-3.93,-32.57
-24,13,840,-58,-425,3876,-1.45,-0.13,43.55,-0.58,-4.25,38.76,-5.33,2.16,18.26,0.62,-3.80,-30.33
0,18,770,4,-371,3939,-1.31,-0.01,43.89,0.04,-3.71,39.39,-5.33,2.16,18.09,-4.93,-4.61,-24.08
-7,3,747,15,-402,3985,-1.22,0.01,44.06,0.15,-4.02,39.85,-5.33,2.16,17.91,-2.82,-0.72,-21.97
-15,2,694,67,-424,3951,-1.19,0.02,43.89,0.67,-4.24,39.51,-5.33,2.16,17.74,-0.67,-0.43,-17.64
-6,17,686,68,-399,3878,-1.11,0.12,43.68,0.68,-3.99,38.78,-5.33,2.16,17.56,-2.65,-3.86,-17.16
0,18,692,4,-335,3935,-1.00,0.22,43.53,0.04,-3.35,39.35,-5.33,2.15,17.39,-3.75,-3.75,-17.80
-5,20,700,-48,-303,3918,-0.93,0.32,43.45,-0.48,-3.03,39.18,-5.32,2.16,17.21,-2.22,-3.88,-18.56
-1,14,716,-39,-255,3907,-0.84,0.37,43.47,-0.39,-2.55,39.07,-5.30,2.16,17.04,-2.91,-2.15,-19.89
-6,10,712,-7,-332,3919,-0.79,0.40,43.47,-0.07,-3.32,39.19,-5.29,2.16,16.87,-1.46,-1.05,-19.56
-2,18,664,-39,-441,3920,-0.73,0.47,43.17,-0.39,-4.41,39.20,-5.30,2.16,16.70,-2.23,-2.82,-15.77
0,9,643,-20,-439,3969,-0.65,0.48,42.78,-0.20,-4.39,39.69,-5.30,2.17,16.53,-2.46,-0.50,-14.36
-10,-1,584,-117,-518,3861,-0.65,0.42,42.06,-1.17,-5.18,38.61,-5.32,2.18,16.36,0.10,1.84,-10.04
-11,-9,562,-106,-503,3929,-0.65,0.33,41.28,-1.06,-5.03,39.29,-5.33,2.19,16.20,0.34,3.51,-8.90
-9,-13,497,-74,-398,3945,-0.64,0.21,40.19,-0.74,-3.98,39.45,-5.34,2.19,16.04,-0.13,4.10,-4.43
-4,-7,474,-62,-398,3983,-0.60,0.15,39.06,-0.62,-3.98,39.83,-5.34,2.19,15.88,-1.25,2.34,-3.54
-7,-3,421,-64,-394,3949,-0.58,0.12,37.72,-0.64,-3.94,39.49,-5.34,2.18,15.73,-0.42,1.20,-0.30
-3,11,413,-73,-415,3892,-0.54,0.17,36.47,-0.73,-4.15,38.92,-5.35,2.18,15.59,-1.29,-2.15,-0.80
2,10,362,0,-456,3947,-0.48,0.22,35.03,0.00,-4.56,39.47,-5.35,2.18,15.45,-2.31,-1.73,2.17
-5,1,336,31,-453,3899,-0.46,0.20,33.58,0.31,-4.53,38.99,-5.36,2.18,15.31,-0.46,0.50,3.01
-2,9,349,10,-572,3987,-0.43,0.23,32.35,0.10,-5.72,39.87,-5.37,2.18,15.18,-1.10,-1.41,0.75
-7,2,368,11,-463,3954,-0.43,0.22,31.36,0.11,-4.63,39.54,-5.37,2.18,15.06,0.17,0.33,-1.79
-10,2,425,-92,-433,3874,-0.44,0.21,30.82,-0.92,-4.33,38.74,-5.38,2.18,14.94,0.87,0.29,-7.13
-9,0,438,-109,-398,3908,-0.46,0.19,30.41,-1.09,-3.98,39.08,-5.39,2.17,14.82,0.57,0.72,-8.61
-6,5,467,-116,-335,3941,-0.45,0.20,30.21,-1.16,-3.35,39.41,-5.38,2.17,14.70,-0.15,-0.51,-11.25
-2,-1,470,-98,-316,3997,-0.41,0.18,30.06,-0.98,-3.16,39.97,-5.36,2.17,14.58,-1.05,0.92,-11.65
-13,4,457,-143,-352,3914,-0.45,0.18,29.84,-1.43,-3.52,39.14,-5.34,2.18,14.46,1.60,-0.33,-10.75
-8,1,444,-121,-340,3946,-0.46,0.17,29.57,-1.21,-3.40,39.46,-5.32,2.18,14.34,0.32,0.39,-9.91
-9,-8,388,-88,-396,3983,-0.46,0.11,28.98,-0.88,-3.96,39.83,-5.33,2.17,14.22,0.54,2.43,-5.72
1,6,346,-52,-433,3938,-0.41,0.13,28.19,-0.52,-4.33,39.38,-5.34,2.17,14.11,-1.81,-1.03,-2.90
-12,6,274,25,-438,3931,-0.44,0.15,27.04,0.25,-4.38,39.31,-5.34,2.16,14.00,1.38,-0.95,2.12
-7,12,258,6,-429,3984,-0.44,0.21,25.91,0.06,-4.29,39.84,-5.34,2.15,13.90,0.11,-2.25,2.42
-5,2,231,-13,-471,3945,-0.43,0.20,24.73,-0.13,-4.71,39.45,-5.35,2.15,13.80,-0.34,0.25,3.60
-5,3,229,-18,-442,3910,-0.42,0.20,23.65,-0.18,-4.42,39.10,-5.36,2.14,13.71,-0.30,-0.01,2.76
-3,0,228,-44,-465,3895,-0.39,0.18,22.68,-0.44,-4.65,38.95,-5.37,2.14,13.62,-0.72,0.68,1.93
-2,-3,225,-19,-443,3954,-0.37,0.14,21.78,-0.19,-4.43,39.54,-5.38,2.13,13.53,-0.87,1.30,1.34
-6,-4,180,-94,-439,3952,-0.37,0.11,20.70,-0.94,-4.39,39.52,-5.39,2.13,13.45,0.15,1.41,4.14
-1,-5,169,-93,-462,3928,-0.34,0.06,19.66,-0.93,-4.62,39.28,-5.41,2.13,13.37,-1.01,1.51,4.09
-4,-25,123,-103,-533,3876,-0.33,-0.09,18.45,-1.03,-5.33,38.76,-5.42,2.13,13.30,-0.21,6.00,6.85
-9,-34,110,-108,-396,3932,-0.35,-0.29,17.27,-1.08,-3.96,39.32,-5.43,2.12,13.23,0.98,7.54,6.85
-7,-32,70,-87,-352,3994,-0.36,-0.46,15.97,-0.87,-3.52,39.94,-5.42,2.11,13.17,0.44,6.40,9.02
-2,-22,52,-124,-338,3970,-0.33,-0.55,14.69,-1.24,-3.38,39.70,-5.41,2.10,13.11,-0.74,3.53,9.34
-4,-5,19,-150,-331,4008,-0.32,-0.52,13.34,-1.50,-3.31,40.08,-5.39,2.10,13.05,-0.20,-0.70,10.86
