gyroADC_X,gyroADC_Y,gyroADC_Z,accADC_X,accADC_Y,accADC_Z,GyroX,GyroY,GyroZ,AccX,AccY,AccZ,roll_IMU,pitch_IMU,yaw_IMU,roll_PID,pitch_PID,yaw_PID
0,3,2,-74,-395,3887,-0.08,-0.01,0.01,-0.74,-3.95,38.87,-5.65,1.02,0.23,3.53,-1.13,-0.18
-2,1,2,-84,-375,3893,-0.08,0.00,0.02,-0.84,-3.75,38.93,-5.64,1.03,0.23,3.82,-0.82,-0.17
1,2,4,-81,-388,3856,-0.07,0.01,0.04,-0.81,-3.88,38.56,-5.65,1.05,0.23,3.40,-0.96,-0.32
0,1,3,-66,-393,3916,-0.06,0.02,0.05,-0.66,-3.93,39.16,-5.66,1.04,0.23,3.57,-0.79,-0.22
-4,1,3,-77,-383,3933,-0.08,0.02,0.07,-0.77,-3.83,39.33,-5.65,1.05,0.23,4.14,-0.79,-0.20
-1,4,3,-83,-401,3893,-0.08,0.04,0.08,-0.83,-4.01,38.93,-5.66,1.06,0.23,3.69,-1.22,-0.19
-1,2,0,-80,-399,3894,-0.07,0.05,0.07,-0.80,-3.99,38.94,-5.68,1.07,0.23,3.71,-0.90,0.05
-1,1,1,-78,-386,3910,-0.07,0.05,0.07,-0.78,-3.86,39.10,-5.67,1.08,0.23,3.70,-0.76,-0.03
-1,1,1,-59,-389,3873,-0.07,0.05,0.07,-0.59,-3.89,38.73,-5.68,1.07,0.23,3.71,-0.75,-0.03
1,0,1,-53,-366,3896,-0.06,0.05,0.07,-0.53,-3.66,38.96,-5.66,1.05,0.23,3.42,-0.60,-0.03
1,0,1,-53,-376,3904,-0.05,0.04,0.07,-0.53,-3.76,39.04,-5.65,1.04,0.23,3.44,-0.59,-0.03
0,-1,1,-65,-387,3892,-0.04,0.03,0.07,-0.65,-3.87,38.92,-5.66,1.02,0.23,3.60,-0.45,-0.03
1,-1,1,-59,-382,3890,-0.03,0.02,0.07,-0.59,-3.82,38.90,-5.65,1.00,0.23,3.46,-0.46,-0.03
1,-1,0,-57,-383,3919,-0.02,0.02,0.06,-0.57,-3.83,39.19,-5.65,0.99,0.22,3.48,-0.46,0.04
1,0,0,-64,-387,3916,-0.01,0.01,0.05,-0.64,-3.87,39.16,-5.65,0.97,0.22,3.49,-0.60,0.04
2,0,-1,-84,-392,3897,-0.00,0.01,0.04,-0.84,-3.92,38.97,-5.65,0.99,0.22,3.37,-0.62,0.11
2,-2,-2,-82,-390,3913,0.01,-0.00,0.03,-0.82,-3.90,39.13,-5.66,1.00,0.22,3.39,-0.35,0.18
-1,-1,0,-85,-388,3902,0.00,-0.01,0.02,-0.85,-3.88,39.02,-5.66,1.02,0.22,3.84,-0.52,0.01
-1,-1,-1,-85,-387,3915,-0.00,-0.01,0.01,-0.85,-3.87,39.15,-5.66,1.04,0.22,3.83,-0.55,0.08
-1,0,0,-66,-374,3925,-0.01,-0.01,0.01,-0.66,-3.74,39.25,-5.64,1.03,0.22,3.80,-0.69,-0.00
-1,0,1,-62,-378,3895,-0.01,-0.01,0.02,-0.62,-3.78,38.95,-5.63,1.02,0.22,3.79,-0.68,-0.08
-2,1,1,-62,-387,3908,-0.02,-0.00,0.02,-0.62,-3.87,39.08,-5.63,1.00,0.22,3.92,-0.81,-0.08
-2,1,1,-58,-383,3896,-0.03,0.00,0.03,-0.58,-3.83,38.96,-5.63,0.98,0.22,3.90,-0.79,-0.07
-2,1,0,-59,-393,3903,-0.04,0.01,0.02,-0.59,-3.93,39.03,-5.64,0.97,0.22,3.89,-0.77,0.01
0,1,0,-58,-391,3903,-0.04,0.01,0.02,-0.58,-3.91,39.03,-5.65,0.95,0.22,3.60,-0.75,0.01
-1,0,0,-69,-385,3909,-0.04,0.01,0.02,-0.69,-3.85,39.09,-5.64,0.97,0.22,3.75,-0.61,0.00
-1,0,-1,-74,-386,3914,-0.04,0.01,0.01,-0.74,-3.86,39.14,-5.64,0.99,0.22,3.74,-0.62,0.08
0,0,0,-80,-387,3902,-0.04,0.01,0.01,-0.80,-3.87,39.02,-5.65,1.01,0.22,3.60,-0.64,-0.01
0,0,0,-76,-380,3906,-0.03,0.01,0.01,-0.76,-3.80,39.06,-5.63,1.02,0.22,3.60,-0.65,-0.01
0,0,1,-72,-384,3905,-0.03,0.01,0.01,-0.72,-3.84,39.05,-5.62,1.04,0.22,3.60,-0.66,-0.09
-1,0,0,-69,-388,3902,-0.03,0.01,0.01,-0.69,-3.88,39.02,-5.64,1.03,0.22,3.76,-0.65,-0.00
0,0,-1,-61,-397,3915,-0.03,0.01,0.01,-0.61,-3.97,39.15,-5.65,1.02,0.22,3.62,-0.65,0.07
0,0,0,-63,-396,3901,-0.03,0.01,0.00,-0.63,-3.96,39.01,-5.67,1.01,0.22,3.63,-0.64,-0.01
0,0,0,-64,-379,3902,-0.02,0.01,0.00,-0.64,-3.79,39.02,-5.65,1.00,0.22,3.63,-0.64,-0.01
1,-1,-1,-64,-380,3910,-0.02,-0.00,-0.00,-0.64,-3.80,39.10,-5.64,0.99,0.22,3.48,-0.49,0.07
0,-1,-1,-65,-378,3909,-0.01,-0.01,-0.01,-0.65,-3.78,39.09,-5.62,0.98,0.22,3.63,-0.50,0.06
0,-1,0,-66,-376,3899,-0.01,-0.01,-0.01,-0.66,-3.76,38.99,-5.60,0.98,0.22,3.62,-0.51,-0.02
0,0,0,-69,-390,3905,-0.01,-0.01,-0.01,-0.69,-3.90,39.05,-5.62,0.98,0.22,3.63,-0.66,-0.02
0,0,0,-63,-389,3909,-0.01,-0.01,-0.01,-0.63,-3.89,39.09,-5.63,0.97,0.22,3.64,-0.65,-0.02
0,1,0,-68,-385,3910,-0.01,-0.00,-0.01,-0.68,-3.85,39.10,-5.63,0.99,0.22,3.64,-0.80,-0.02
-1,0,0,-67,-387,3915,-0.01,-0.00,-0.00,-0.67,-3.87,39.15,-5.64,0.98,0.22,3.79,-0.64,-0.02
-2,1,0,-52,-380,3893,-0.03,0.00,-0.00,-0.52,-3.80,38.93,-5.64,0.96,0.22,3.92,-0.77,-0.02
-2,0,-1,-60,-381,3909,-0.04,0.00,-0.01,-0.60,-3.81,39.09,-5.62,0.95,0.22,3.90,-0.61,0.06
-1,0,0,-62,-383,3915,-0.04,0.00,-0.01,-0.62,-3.83,39.15,-5.61,0.93,0.22,3.73,-0.60,-0.02
-1,0,0,-60,-383,3898,-0.04,0.00,-0.01,-0.60,-3.83,38.98,-5.61,0.91,0.22,3.73,-0.59,-0.02
-1,-2,-3,-52,-397,3889,-0.04,-0.01,-0.03,-0.52,-3.97,38.89,-5.63,0.90,0.22,3.73,-0.30,0.21
-2,-2,-6,-54,-396,3898,-0.05,-0.02,-0.06,-0.54,-3.96,38.98,-5.64,0.89,0.22,3.88,-0.31,0.43
-2,-2,-8,-64,-384,3910,-0.06,-0.03,-0.10,-0.64,-3.84,39.10,-5.63,0.91,0.22,3.86,-0.34,0.56
-2,-4,-7,-54,-383,3905,-0.06,-0.05,-0.13,-0.54,-3.83,39.05,-5.63,0.89,0.22,3.85,-0.06,0.44
-1,-4,-7,-64,-387,3911,-0.06,-0.07,-0.16,-0.64,-3.87,39.11,-5.64,0.90,0.23,3.70,-0.11,0.41
-2,-2,-5,-59,-387,3899,-0.07,-0.08,-0.18,-0.59,-3.87,38.99,-5.65,0.89,0.23,3.85,-0.41,0.23
0,0,0,-55,-371,3894,-0.06,-0.07,-0.16,-0.55,-3.71,38.94,-5.63,0.88,0.23,3.55,-0.70,-0.18
1,0,1,-61,-375,3909,-0.05,-0.06,-0.14,-0.61,-3.75,39.09,-5.61,0.88,0.23,3.40,-0.69,-0.24
0,3,4,-71,-375,3906,-0.05,-0.04,-0.10,-0.71,-3.75,39.06,-5.60,0.90,0.23,3.56,-1.11,-0.46
1,4,5,-74,-367,3918,-0.03,-0.01,-0.06,-0.74,-3.67,39.18,-5.59,0.91,0.23,3.42,-1.22,-0.50
2,4,6,-56,-379,3906,-0.02,0.02,-0.02,-0.56,-3.79,39.06,-5.58,0.89,0.23,3.29,-1.16,-0.54
1,3,6,-65,-379,3894,-0.01,0.03,0.02,-0.65,-3.79,38.94,-5.57,0.91,0.23,3.45,-0.99,-0.50
0,2,4,-67,-381,3910,-0.01,0.04,0.04,-0.67,-3.81,39.10,-5.57,0.93,0.23,3.60,-0.83,-0.31
0,2,3,-55,-384,3901,-0.01,0.05,0.06,-0.55,-3.84,39.01,-5.58,0.91,0.23,3.61,-0.81,-0.21
0,1,3,-62,-389,3894,-0.01,0.05,0.07,-0.62,-3.89,38.94,-5.60,0.91,0.23,3.62,-0.65,-0.20
0,1,3,-60,-392,3897,-0.01,0.05,0.08,-0.60,-3.92,38.97,-5.61,0.91,0.23,3.64,-0.65,-0.19
0,1,1,-58,-384,3907,-0.01,0.05,0.08,-0.58,-3.84,39.07,-5.61,0.89,0.23,3.64,-0.63,-0.02
-1,0,0,-61,-386,3911,-0.01,0.05,0.07,-0.61,-3.86,39.11,-5.63,0.89,0.23,3.79,-0.49,0.06
0,0,0,-64,-383,3900,-0.01,0.04,0.06,-0.64,-3.83,39.00,-5.62,0.91,0.23,3.64,-0.51,0.05
0,0,0,-69,-381,3902,-0.01,0.04,0.06,-0.69,-3.81,39.02,-5.62,0.92,0.23,3.63,-0.53,0.04
0,0,0,-65,-378,3902,-0.01,0.03,0.05,-0.65,-3.78,39.02,-5.60,0.93,0.22,3.62,-0.54,0.04
0,-1,-1,-68,-377,3901,-0.01,0.03,0.04,-0.68,-3.77,39.01,-5.58,0.94,0.22,3.62,-0.41,0.11
1,0,0,-67,-381,3910,-0.00,0.02,0.04,-0.67,-3.81,39.10,-5.58,0.96,0.22,3.47,-0.58,0.02
1,0,0,-71,-388,3909,0.01,0.02,0.03,-0.71,-3.88,39.09,-5.59,0.97,0.22,3.49,-0.59,0.02
0,0,0,-73,-384,3896,0.00,0.02,0.03,-0.73,-3.84,38.96,-5.60,0.99,0.22,3.65,-0.61,0.01
0,0,0,-72,-383,3900,0.00,0.02,0.03,-0.72,-3.83,39.00,-5.60,1.00,0.22,3.65,-0.62,0.01
0,0,0,-72,-378,3906,0.00,0.01,0.02,-0.72,-3.78,39.06,-5.58,1.01,0.22,3.64,-0.63,0.01
0,1,0,-66,-381,3912,0.00,0.02,0.02,-0.66,-3.81,39.12,-5.58,1.00,0.22,3.63,-0.76,0.01
-1,0,0,-66,-385,3899,-0.00,0.02,0.02,-0.66,-3.85,38.99,-5.59,0.99,0.22,3.78,-0.61,0.00
0,0,0,-63,-378,3909,-0.00,0.02,0.02,-0.63,-3.78,39.09,-5.58,0.98,0.22,3.62,-0.61,0.00
0,0,0,-67,-374,3899,-0.00,0.01,0.02,-0.67,-3.74,38.99,-5.56,0.98,0.22,3.61,-0.61,0.00
0,0,0,-66,-374,3899,-0.00,0.01,0.01,-0.66,-3.74,38.99,-5.54,0.97,0.22,3.60,-0.61,-0.00
0,0,0,-67,-376,3903,-0.00,0.01,0.01,-0.67,-3.76,39.03,-5.53,0.98,0.22,3.59,-0.61,-0.00
-1,1,0,-68,-378,3902,-0.01,0.02,0.01,-0.68,-3.78,39.02,-5.53,0.99,0.22,3.73,-0.77,-0.00
-1,1,0,-77,-378,3891,-0.01,0.02,0.01,-0.77,-3.78,38.91,-5.54,1.01,0.22,3.73,-0.77,-0.01
0,2,0,-67,-378,3895,-0.01,0.03,0.01,-0.67,-3.78,38.95,-5.54,0.99,0.22,3.58,-0.89,-0.01
0,7,3,-79,-390,3902,-0.01,0.07,0.03,-0.79,-3.90,39.02,-5.55,1.01,0.22,3.59,-1.59,-0.24
-1,1,2,-107,-410,3916,-0.02,0.07,0.04,-1.07,-4.10,39.16,-5.56,1.02,0.22,3.74,-0.69,-0.15
-2,4,2,-83,-372,3898,-0.03,0.09,0.04,-0.83,-3.72,38.98,-5.56,1.04,0.22,3.87,-1.12,-0.14
0,2,-15,-121,-335,3890,-0.02,0.09,-0.05,-1.21,-3.35,38.90,-5.54,1.05,0.22,3.56,-0.82,1.20
0,8,-120,-93,-391,3886,-0.02,0.13,-0.78,-0.93,-3.91,38.86,-5.55,1.07,0.23,3.57,-1.67,9.37
0,11,-158,-127,-329,3876,-0.02,0.18,-1.66,-1.27,-3.29,38.76,-5.54,1.08,0.23,3.57,-2.04,11.70
2,-1,-88,-203,-501,3785,-0.01,0.16,-2.03,-2.03,-5.01,37.85,-5.55,1.09,0.24,3.30,-0.26,5.40
3,17,-69,-459,-473,3774,0.01,0.25,-2.25,-4.59,-4.73,37.74,-5.56,1.11,0.25,3.18,-2.86,3.57
6,12,-3,-578,-569,3797,0.05,0.30,-2.05,-5.78,-5.69,37.97,-5.57,1.13,0.26,2.79,-2.02,-1.82
-3,-1,-25,-537,-571,3988,0.03,0.26,-1.99,-5.37,-5.71,39.88,-5.57,1.15,0.27,4.13,-0.11,0.10
3,-14,-60,-111,-380,4044,0.04,0.15,-2.16,-1.11,-3.80,40.44,-5.57,1.16,0.28,3.24,1.65,2.90
-3,-12,-49,24,-285,3850,0.02,0.06,-2.24,0.24,-2.85,38.50,-5.55,1.15,0.28,4.10,1.20,1.88
-8,-13,28,435,-181,3942,-0.03,-0.02,-1.85,4.35,-1.81,39.42,-5.55,1.13,0.29,4.77,1.20,-4.25
-4,-11,42,501,-214,3931,-0.05,-0.09,-1.41,5.01,-2.14,39.31,-5.54,1.11,0.30,4.11,0.79,-4.99
-5,-18,-12,432,-371,3899,-0.08,-0.19,-1.34,4.32,-3.71,38.99,-5.54,1.09,0.30,4.22,1.68,-0.35
-4,-22,-42,308,-404,3887,-0.09,-0.31,-1.46,3.08,-4.04,38.87,-5.54,1.07,0.31,4.04,2.09,2.07
-3,-11,-136,-45,-400,3915,-0.10,-0.34,-2.14,-0.45,-4.00,39.15,-5.55,1.06,0.32,3.88,0.36,9.35
1,-9,-134,-122,-403,3907,-0.09,-0.36,-2.75,-1.22,-4.03,39.07,-5.56,1.07,0.33,3.30,0.01,8.57
0,-8,-92,-84,-394,3912,-0.08,-0.38,-3.03,-0.84,-3.94,39.12,-5.58,1.08,0.34,3.48,-0.17,4.72
0,-13,-61,-137,-366,3818,-0.07,-0.42,-3.10,-1.37,-3.66,38.18,-5.58,1.09,0.35,3.49,0.50,2.03
-2,-1,-59,-128,-417,3977,-0.08,-0.38,-3.15,-1.28,-4.17,39.77,-5.59,1.11,0.36,3.80,-1.27,1.81
3,2,-72,-145,-404,3924,-0.05,-0.33,-3.28,-1.45,-4.04,39.24,-5.59,1.12,0.38,3.09,-1.64,2.78
5,0,-128,-136,-285,3926,-0.01,-0.30,-3.73,-1.36,-2.85,39.26,-5.58,1.13,0.39,2.84,-1.28,7.07
2,-2,-138,-164,-269,3902,-0.00,-0.28,-4.20,-1.64,-2.69,39.02,-5.56,1.14,0.41,3.31,-0.95,7.45
-6,-5,-165,-181,-233,3906,-0.04,-0.28,-4.79,-1.81,-2.33,39.06,-5.55,1.14,0.43,4.45,-0.50,9.15
-5,-3,-171,-170,-207,3884,-0.06,-0.27,-5.35,-1.70,-2.07,38.84,-5.53,1.15,0.45,4.24,-0.79,9.09
3,-5,-230,-137,-240,3912,-0.04,-0.28,-6.22,-1.37,-2.40,39.12,-5.52,1.15,0.47,3.06,-0.50,13.21
9,-7,-255,-180,-257,3895,0.02,-0.29,-7.15,-1.80,-2.57,38.95,-5.50,1.16,0.50,2.24,-0.22,14.39
4,-5,-310,-167,-177,3838,0.04,-0.29,-8.33,-1.67,-1.77,38.38,-5.49,1.17,0.53,3.03,-0.53,17.87
6,-7,-318,-134,-218,3947,0.07,-0.31,-9.43,-1.34,-2.18,39.47,-5.47,1.17,0.57,2.78,-0.25,17.43
7,-2,-370,-116,-230,3959,0.11,-0.29,-10.75,-1.16,-2.30,39.59,-5.45,1.17,0.61,2.68,-0.98,20.51
12,2,-387,-131,-229,3915,0.17,-0.25,-12.03,-1.31,-2.29,39.15,-5.44,1.17,0.66,2.02,-1.52,20.66
2,-20,-471,-138,-325,3984,0.17,-0.34,-13.70,-1.38,-3.25,39.84,-5.42,1.17,0.71,3.53,1.65,26.10
15,-2,-498,-147,-287,3857,0.24,-0.32,-15.37,-1.47,-2.87,38.57,-5.41,1.18,0.77,1.67,-1.05,26.71
6,-7,-576,-90,-344,3923,0.25,-0.33,-17.35,-0.90,-3.44,39.23,-5.39,1.18,0.84,3.06,-0.31,31.33
13,-2,-597,-74,-288,3941,0.31,-0.31,-19.25,-0.74,-2.88,39.41,-5.37,1.17,0.92,2.08,-1.03,31.19
22,-9,-673,-113,-325,4058,0.41,-0.34,-21.43,-1.13,-3.25,40.58,-5.36,1.16,1.00,0.89,-0.00,35.43
6,-14,-688,-99,-337,3953,0.41,-0.39,-23.49,-0.99,-3.37,39.53,-5.34,1.16,1.10,3.31,0.67,34.63
10,-20,-745,-88,-253,3919,0.43,-0.47,-25.68,-0.88,-2.53,39.19,-5.33,1.15,1.20,2.72,1.43,37.25
5,-5,-777,-100,-253,3895,0.41,-0.45,-27.85,-1.00,-2.53,38.95,-5.31,1.14,1.31,3.45,-0.82,37.77
14,-12,-842,-139,-304,3851,0.46,-0.48,-30.21,-1.39,-3.04,38.51,-5.30,1.15,1.43,2.15,0.20,40.91
-1,-23,-868,-142,-340,3952,0.41,-0.57,-32.48,-1.42,-3.40,39.52,-5.29,1.15,1.56,4.34,1.70,40.82
2,-24,-961,-94,-341,3920,0.38,-0.66,-35.09,-0.94,-3.41,39.20,-5.28,1.14,1.70,3.82,1.70,46.07
5,-28,-987,-97,-325,3951,0.37,-0.77,-37.61,-0.97,-3.25,39.51,-5.26,1.13,1.85,3.34,2.12,45.74
29,-24,-1060,-33,-271,3914,0.51,-0.84,-40.31,-0.33,-2.71,39.14,-5.25,1.11,2.01,-0.07,1.40,49.20
10,-30,-1077,-68,-301,3872,0.52,-0.94,-42.85,-0.68,-3.01,38.72,-5.23,1.09,2.18,2.83,2.14,48.08
11,-28,-1125,-66,-285,3906,0.54,-1.01,-45.43,-0.66,-2.85,39.06,-5.21,1.06,2.36,2.70,1.71,49.54
6,-33,-1142,-69,-365,3921,0.52,-1.11,-47.85,-0.69,-3.65,39.21,-5.23,1.03,2.55,3.44,2.31,48.54
22,-23,-1224,-102,-336,3856,0.60,-1.14,-50.53,-1.02,-3.36,38.56,-5.22,1.03,2.75,1.15,0.74,52.78
14,-22,-1272,-131,-351,3965,0.63,-1.16,-53.24,-1.31,-3.51,39.65,-5.22,1.02,2.96,2.41,0.55,54.11
9,-32,-1332,-136,-337,3977,0.62,-1.24,-56.04,-1.36,-3.37,39.77,-5.21,1.01,3.18,3.16,1.93,56.37
26,-45,-1358,-102,-290,3902,0.72,-1.39,-58.72,-1.02,-2.90,39.02,-5.20,0.99,3.42,0.73,3.65,55.87
25,-49,-1448,-102,-363,3933,0.80,-1.55,-61.68,-1.02,-3.63,39.33,-5.20,0.98,3.66,1.04,3.97,60.50
21,-32,-1464,-71,-386,3852,0.84,-1.59,-64.44,-0.71,-3.86,38.52,-5.22,0.95,3.92,1.75,1.33,59.07
4,-26,-1474,-91,-354,3849,0.78,-1.59,-66.99,-0.91,-3.54,38.49,-5.23,0.94,4.18,4.23,0.42,57.34
21,-25,-1467,-88,-308,3928,0.83,-1.58,-69.24,-0.88,-3.08,39.28,-5.21,0.92,4.46,1.72,0.30,54.47
26,-21,-1434,-74,-466,3931,0.91,-1.55,-71.06,-0.74,-4.66,39.31,-5.23,0.89,4.74,1.11,-0.24,49.82
18,-23,-1421,-42,-412,3882,0.93,-1.54,-72.62,-0.42,-4.12,38.82,-5.25,0.85,5.03,2.38,0.12,47.13
21,-24,-1349,-27,-425,3896,0.96,-1.53,-73.59,-0.27,-4.25,38.96,-5.26,0.81,5.32,2.00,0.31,40.04
27,-18,-1292,-102,-491,3887,1.03,-1.49,-74.11,-1.02,-4.91,38.87,-5.28,0.78,5.62,1.22,-0.51,34.67
27,-10,-1117,18,-523,3976,1.09,-1.40,-73.52,0.18,-5.23,39.76,-5.30,0.74,5.91,1.34,-1.54,20.42
22,-9,-1070,30,-572,3809,1.12,-1.32,-72.69,0.30,-5.72,38.09,-5.31,0.70,6.20,2.16,-1.51,17.25
22,-5,-901,104,-593,3845,1.14,-1.21,-70.92,1.04,-5.93,38.45,-5.33,0.66,6.48,2.21,-1.91,4.69
18,-3,-848,32,-585,3893,1.14,-1.11,-69.00,0.32,-5.85,38.93,-5.34,0.63,6.76,2.82,-2.00,2.10
16,-6,-693,-145,-567,3900,1.12,-1.04,-66.33,-1.45,-5.67,39.00,-5.36,0.60,7.02,3.11,-1.39,-8.36
8,-18,-666,-138,-544,3906,1.06,-1.04,-63.76,-1.38,-5.44,39.06,-5.37,0.59,7.27,4.22,0.44,-8.09
11,-12,-583,-33,-491,3932,1.02,-1.01,-60.94,-0.33,-4.91,39.32,-5.39,0.56,7.52,3.70,-0.40,-12.31
-2,-11,-560,-16,-446,3897,0.90,-0.98,-58.26,-0.16,-4.46,38.97,-5.40,0.53,7.75,5.49,-0.47,-11.58
3,-10,-491,-59,-376,3924,0.83,-0.94,-55.43,-0.59,-3.76,39.24,-5.41,0.52,7.97,4.59,-0.55,-14.60
1,-19,-464,-17,-409,3848,0.76,-0.96,-52.72,-0.17,-4.09,38.48,-5.42,0.49,8.18,4.76,0.80,-14.18
1,-11,-435,54,-343,3877,0.69,-0.93,-50.10,0.54,-3.43,38.77,-5.42,0.45,8.38,4.63,-0.34,-14.03
10,-9,-428,71,-352,3855,0.68,-0.89,-47.70,0.71,-3.52,38.55,-5.41,0.41,8.57,3.24,-0.54,-12.22
6,-6,-398,-20,-364,3888,0.65,-0.84,-45.36,-0.20,-3.64,38.88,-5.40,0.37,8.75,3.79,-0.88,-12.43
1,-2,-394,-73,-356,3869,0.59,-0.77,-43.22,-0.73,-3.56,38.69,-5.40,0.37,8.92,4.44,-1.36,-10.64
0,-9,-382,-36,-255,3890,0.53,-0.75,-41.23,-0.36,-2.55,38.90,-5.38,0.36,9.08,4.47,-0.24,-9.66
7,-4,-381,-39,-257,3944,0.52,-0.70,-39.43,-0.39,-2.57,39.44,-5.36,0.34,9.24,3.37,-0.90,-7.95
-6,-13,-445,-175,-339,3891,0.43,-0.71,-38.20,-1.75,-3.39,38.91,-5.36,0.34,9.39,5.19,0.46,-1.31
7,-29,-472,-194,-386,3964,0.43,-0.81,-37.26,-1.94,-3.86,39.64,-5.36,0.34,9.54,3.21,2.70,1.91
13,-21,-580,-83,-351,3904,0.47,-0.86,-37.07,-0.83,-3.51,39.04,-5.35,0.34,9.69,2.36,1.39,11.24
8,-12,-617,-57,-351,3945,0.47,-0.85,-37.13,-0.57,-3.51,39.45,-5.34,0.34,9.84,3.12,0.05,14.31
2,-3,-666,13,-444,3980,0.43,-0.78,-37.48,0.13,-4.44,39.80,-5.36,0.32,9.98,3.98,-1.19,18.10
-1,-8,-667,29,-383,3878,0.38,-0.75,-37.80,0.29,-3.83,38.78,-5.36,0.28,10.13,4.35,-0.35,17.85
20,2,-653,-37,-417,3824,0.47,-0.66,-38.00,-0.37,-4.17,38.24,-5.38,0.27,10.29,1.31,-1.71,16.45
10,1,-639,-41,-466,3891,0.48,-0.59,-38.10,-0.41,-4.66,38.91,-5.40,0.26,10.44,2.87,-1.41,15.16
-4,-2,-580,-47,-510,3911,0.41,-0.54,-37.83,-0.47,-5.10,39.11,-5.41,0.24,10.59,4.88,-0.86,10.42
9,-11,-556,-8,-495,3880,0.42,-0.56,-37.44,-0.08,-4.95,38.80,-5.43,0.23,10.74,2.94,0.50,8.77
16,7,-469,94,-416,3976,0.48,-0.46,-36.56,0.94,-4.16,39.76,-5.43,0.19,10.88,1.97,-2.04,2.28
7,-9,-438,125,-383,3883,0.47,-0.47,-35.57,1.25,-3.83,38.83,-5.43,0.16,11.02,3.34,0.41,0.63
7,-9,-401,212,-449,3913,0.47,-0.48,-34.46,2.12,-4.49,39.13,-5.44,0.13,11.16,3.33,0.41,-1.40
3,-8,-399,-26,-456,3866,0.44,-0.48,-33.45,-0.26,-4.56,38.66,-5.45,0.12,11.29,3.90,0.26,-0.56
0,-3,-409,-110,-421,3868,0.40,-0.45,-32.60,-1.10,-4.21,38.68,-5.46,0.12,11.42,4.28,-0.45,1.13
2,-1,-411,-64,-361,3894,0.37,-0.41,-31.85,-0.64,-3.61,38.94,-5.46,0.12,11.55,3.92,-0.68,2.04
11,7,-387,-47,-427,3844,0.40,-0.33,-31.02,-0.47,-4.27,38.44,-5.47,0.12,11.67,2.61,-1.75,0.83
9,0,-384,-21,-329,3973,0.41,-0.29,-30.26,-0.21,-3.29,39.73,-5.45,0.11,11.79,2.93,-0.61,1.33
0,-8,-307,-18,-472,3922,0.37,-0.31,-29.11,-0.18,-4.72,39.22,-5.47,0.10,11.91,4.24,0.58,-4.05
5,3,-284,21,-511,3815,0.37,-0.26,-27.93,0.21,-5.11,38.15,-5.49,0.09,12.02,3.48,-1.00,-4.82
-1,6,-249,-81,-468,3865,0.32,-0.20,-26.66,-0.81,-4.68,38.65,-5.50,0.09,12.13,4.32,-1.34,-6.51
8,0,-242,-34,-471,3918,0.34,-0.18,-25.47,-0.34,-4.71,39.18,-5.51,0.08,12.23,2.99,-0.38,-5.92
3,6,-218,-99,-512,3926,0.32,-0.13,-24.25,-0.99,-5.12,39.26,-5.53,0.08,12.32,3.73,-1.20,-6.74
11,5,-208,-20,-492,3876,0.36,-0.08,-23.09,-0.20,-4.92,38.76,-5.55,0.08,12.42,2.59,-0.96,-6.43
3,-1,-185,-74,-485,3869,0.34,-0.08,-21.91,-0.74,-4.85,38.69,-5.56,0.08,12.50,3.79,-0.05,-7.20
9,0,-182,-106,-509,3916,0.36,-0.07,-20.83,-1.06,-5.09,39.16,-5.57,0.08,12.59,2.92,-0.18,-6.37
-4,-2,-200,-270,-545,3992,0.30,-0.08,-19.97,-2.70,-5.45,39.92,-5.58,0.09,12.67,4.79,0.11,-3.99
4,0,-195,-224,-482,3911,0.30,-0.07,-19.16,-2.24,-4.82,39.11,-5.59,0.10,12.74,3.57,-0.19,-3.61
-2,6,-109,-61,-383,3892,0.25,-0.03,-17.91,-0.61,-3.83,38.92,-5.59,0.11,12.81,4.40,-1.03,-9.64
4,1,-62,-45,-355,3845,0.25,-0.02,-16.50,-0.45,-3.55,38.45,-5.58,0.12,12.88,3.48,-0.26,-12.21
0,-10,193,138,-490,3914,0.23,-0.08,-13.67,1.38,-4.90,39.14,-5.59,0.10,12.93,4.05,1.32,-30.98
-3,-13,212,243,-186,3855,0.19,-0.15,-11.01,2.43,-1.86,38.55,-5.58,0.08,12.98,4.43,1.66,-29.92
-9,-10,220,102,-183,3931,0.11,-0.19,-8.57,1.02,-1.83,39.31,-5.56,0.06,13.01,5.19,1.13,-28.15
-11,-6,240,136,-224,3929,0.03,-0.21,-6.25,1.36,-2.24,39.29,-5.55,0.05,13.04,5.35,0.49,-27.52
-16,-10,379,237,-246,3898,-0.07,-0.25,-3.31,2.37,-2.46,38.98,-5.54,0.03,13.05,5.92,1.04,-36.35
2,5,389,77,-233,3867,-0.05,-0.20,-0.61,0.77,-2.33,38.67,-5.52,0.02,13.05,3.20,-1.14,-34.48
-10,-1,456,47,-304,3987,-0.10,-0.18,2.24,0.47,-3.04,39.87,-5.51,0.01,13.04,4.91,-0.19,-37.30
-10,-3,493,4,-268,3939,-0.15,-0.18,5.02,0.04,-2.68,39.39,-5.49,0.01,13.02,4.81,0.11,-37.64
-21,-12,429,-60,-387,3940,-0.27,-0.24,7.13,-0.60,-3.87,39.40,-5.49,0.03,12.99,6.28,1.37,-30.09
-9,-5,420,-69,-391,3912,-0.30,-0.24,8.98,-0.69,-3.91,39.12,-5.50,0.05,12.96,4.40,0.28,-27.47
-12,3,421,-58,-344,3899,-0.34,-0.20,10.65,-0.58,-3.44,38.99,-5.49,0.07,12.92,4.77,-0.87,-25.88
-14,-7,421,-33,-343,3978,-0.39,-0.22,12.16,-0.33,-3.43,39.78,-5.48,0.09,12.87,4.97,0.60,-24.37
-8,5,442,-12,-304,4012,-0.40,-0.17,13.64,-0.12,-3.04,40.12,-5.46,0.09,12.81,4.03,-1.14,-24.65
0,14,467,-1,-301,3863,-0.36,-0.07,15.12,-0.01,-3.01,38.63,-5.44,0.10,12.75,2.87,-2.32,-25.28
-8,12,505,-83,-246,3846,-0.37,0.01,16.69,-0.83,-2.46,38.46,-5.43,0.11,12.69,4.06,-1.88,-26.92
-3,9,520,-103,-254,4000,-0.35,0.07,18.19,-1.03,-2.54,40.00,-5.41,0.13,12.61,3.32,-1.34,-26.67
-7,5,568,-91,-258,3898,-0.36,0.09,19.84,-0.91,-2.58,38.98,-5.40,0.15,12.53,3.91,-0.69,-29.08
-22,10,573,-127,-346,3791,-0.46,0.14,21.35,-1.27,-3.46,37.91,-5.40,0.18,12.45,6.02,-1.38,-27.98
-18,8,536,-60,-329,3862,-0.52,0.18,22.48,-0.60,-3.29,38.62,-5.39,0.20,12.36,5.29,-1.03,-23.70
-12,13,530,-58,-340,3864,-0.54,0.24,23.47,-0.58,-3.40,38.64,-5.38,0.23,12.27,4.33,-1.69,-22.20
-5,12,510,-109,-298,3897,-0.52,0.29,24.23,-1.09,-2.98,38.97,-5.38,0.25,12.17,3.30,-1.46,-19.73
-11,4,500,-103,-294,3986,-0.54,0.28,24.86,-1.03,-2.94,39.86,-5.36,0.27,12.07,4.18,-0.27,-18.25
-12,11,461,-117,-319,3915,-0.55,0.32,25.19,-1.17,-3.19,39.15,-5.36,0.30,11.97,4.29,-1.28,-14.61
-2,7,436,-72,-298,3954,-0.51,0.33,25.33,-0.72,-2.98,39.54,-5.35,0.32,11.87,2.84,-0.66,-12.34
-4,13,416,-90,-334,3916,-0.48,0.38,25.33,-0.90,-3.34,39.16,-5.34,0.35,11.77,3.19,-1.51,-10.64
-22,13,412,-92,-373,3863,-0.57,0.42,25.31,-0.92,-3.73,38.63,-5.34,0.38,11.67,5.78,-1.45,-10.31
-10,5,360,-112,-351,3853,-0.57,0.41,24.98,-1.12,-3.51,38.53,-5.34,0.41,11.57,3.94,-0.28,-6.24
-6,8,347,-104,-398,3872,-0.55,0.42,24.60,-1.04,-3.98,38.72,-5.35,0.44,11.47,3.37,-0.74,-5.51
-13,10,330,-39,-368,3898,-0.58,0.44,24.15,-0.39,-3.68,38.98,-5.36,0.46,11.38,4.40,-1.02,-4.51
-3,5,323,-49,-423,4020,-0.54,0.42,23.70,-0.49,-4.23,40.20,-5.38,0.48,11.28,2.96,-0.30,-4.36
-9,3,298,-67,-446,3996,-0.54,0.40,23.15,-0.67,-4.46,39.96,-5.40,0.50,11.19,3.89,-0.05,-2.79
-10,-1,279,-50,-465,3893,-0.55,0.35,22.54,-0.50,-4.65,38.93,-5.41,0.51,11.10,4.04,0.47,-1.79
-2,-1,235,-100,-387,3901,-0.50,0.31,21.72,-1.00,-3.87,39.01,-5.42,0.54,11.01,2.90,0.38,1.12
-2,4,224,-80,-424,3938,-0.47,0.30,20.91,-0.80,-4.24,39.38,-5.44,0.56,10.93,2.98,-0.41,1.25
-2,4,181,-65,-400,3928,-0.43,0.30,19.93,-0.65,-4.00,39.28,-5.45,0.58,10.85,3.05,-0.44,3.91
-5,7,173,-54,-419,3895,-0.42,0.31,18.99,-0.54,-4.19,38.95,-5.47,0.60,10.78,3.54,-0.88,3.65
-3,-2,107,-120,-387,3921,-0.40,0.27,17.74,-1.20,-3.87,39.21,-5.47,0.62,10.71,3.29,0.40,8.00
-5,-2,95,-128,-392,3886,-0.39,0.23,16.55,-1.28,-3.92,38.86,-5.48,0.65,10.64,3.61,0.31,7.82
-5,3,69,-104,-357,3894,-0.38,0.22,15.31,-1.04,-3.57,38.94,-5.47,0.67,10.58,3.62,-0.48,8.79
-3,3,54,-115,-360,3900,-0.36,0.22,14.11,-1.15,-3.60,39.00,-5.47,0.69,10.52,3.35,-0.50,8.85
-2,2,8,-52,-350,3901,-0.33,0.21,12.75,-0.52,-3.50,39.01,-5.45,0.70,10.47,3.23,-0.37,11.39
-2,0,9,-61,-348,3907,-0.31,0.19,11.53,-0.61,-3.48,39.07,-5.44,0.72,10.43,3.26,-0.12,10.08
-2,-1,1,-61,-351,3915,-0.29,0.16,10.38,-0.61,-3.51,39.15,-5.42,0.73,10.38,3.29,-0.02,9.61
-1,1,2,-35,-370,3898,-0.27,0.15,9.36,-0.35,-3.70,38.98,-5.42,0.72,10.35,3.18,-0.33,8.50
-1,1,3,-45,-367,3911,-0.25,0.14,8.44,-0.45,-3.67,39.11,-5.41,0.71,10.31,3.21,-0.35,7.50
0,0,2,-59,-357,3909,-0.23,0.13,7.61,-0.59,-3.57,39.09,-5.40,0.72,10.28,3.09,-0.23,6.75
-1,0,3,-60,-360,3912,-0.21,0.12,6.86,-0.60,-3.60,39.12,-5.38,0.74,10.26,3.27,-0.26,5.92
-1,1,2,-54,-367,3915,-0.19,0.11,6.19,-0.54,-3.67,39.15,-5.38,0.76,10.23,3.29,-0.44,5.33
0,1,2,-54,-365,3906,-0.17,0.11,5.58,-0.54,-3.65,39.06,-5.36,0.77,10.21,3.16,-0.46,4.72
-1,0,1,-57,-362,3903,-0.16,0.10,5.03,-0.57,-3.62,39.03,-5.35,0.79,10.19,3.33,-0.33,4.25
-1,0,2,-64,-356,3898,-0.15,0.09,4.54,-0.64,-3.56,38.98,-5.34,0.80,10.17,3.34,-0.36,3.68
0,1,0,-63,-360,3912,-0.14,0.08,4.09,-0.63,-3.60,39.12,-5.33,0.82,10.15,3.21,-0.53,3.39
0,0,1,-56,-359,3905,-0.12,0.08,3.68,-0.56,-3.59,39.05,-5.31,0.82,10.14,3.22,-0.39,2.90
-1,-1,1,-52,-356,3902,-0.12,0.06,3.32,-0.52,-3.56,39.02,-5.29,0.81,10.13,3.38,-0.26,2.54
0,1,-1,-61,-364,3903,-0.11,0.06,2.98,-0.61,-3.64,39.03,-5.30,0.83,10.11,3.25,-0.58,2.37
0,0,0,-55,-363,3905,-0.10,0.06,2.69,-0.55,-3.63,39.05,-5.31,0.81,10.10,3.27,-0.43,1.99
-1,1,1,-57,-358,3920,-0.09,0.06,2.42,-0.57,-3.58,39.20,-5.29,0.82,10.09,3.42,-0.58,1.64
0,1,1,-51,-356,3904,-0.08,0.06,2.19,-0.51,-3.56,39.04,-5.28,0.81,10.08,3.28,-0.57,1.40
0,1,0,-56,-356,3908,-0.07,0.06,1.97,-0.56,-3.56,39.08,-5.26,0.81,10.08,3.28,-0.57,1.27
-1,-1,0,-57,-361,3903,-0.07,0.05,1.77,-0.57,-3.61,39.03,-5.27,0.82,10.07,3.45,-0.30,1.07
-1,0,1,-54,-363,3907,-0.07,0.04,1.60,-0.54,-3.63,39.07,-5.29,0.81,10.06,3.46,-0.45,0.82
0,0,1,-43,-360,3906,-0.06,0.04,1.45,-0.43,-3.60,39.06,-5.28,0.79,10.06,3.32,-0.45,0.66
0,0,1,-54,-361,3907,-0.06,0.03,1.31,-0.54,-3.61,39.07,-5.27,0.78,10.05,3.32,-0.45,0.52
0,0,1,-46,-361,3905,-0.05,0.03,1.18,-0.46,-3.61,39.05,-5.27,0.76,10.05,3.33,-0.44,0.40
0,0,1,-47,-361,3907,-0.05,0.03,1.07,-0.47,-3.61,39.07,-5.28,0.75,10.04,3.34,-0.44,0.29
0,1,1,-49,-354,3896,-0.04,0.03,0.97,-0.49,-3.54,38.96,-5.26,0.74,10.04,3.34,-0.58,0.19
-1,0,1,-58,-354,3900,-0.04,0.03,0.88,-0.58,-3.54,39.00,-5.25,0.76,10.04,3.48,-0.44,0.10
-1,0,0,-57,-356,3898,-0.05,0.02,0.79,-0.57,-3.56,38.98,-5.24,0.77,10.03,3.47,-0.46,0.09
-1,1,1,-47,-356,3898,-0.05,0.03,0.72,-0.47,-3.56,38.98,-5.24,0.76,10.03,3.47,-0.59,-0.07
-1,0,1,-49,-357,3896,-0.05,0.03,0.65,-0.49,-3.57,38.96,-5.24,0.74,10.03,3.47,-0.43,-0.13
-1,1,1,-50,-355,3899,-0.05,0.03,0.59,-0.50,-3.55,38.99,-5.22,0.74,10.02,3.45,-0.58,-0.19
-1,1,1,-48,-354,3911,-0.05,0.03,0.54,-0.48,-3.54,39.11,-5.20,0.72,10.02,3.44,-0.56,-0.24
-1,1,1,-56,-352,3908,-0.05,0.03,0.49,-0.56,-3.52,39.08,-5.19,0.74,10.02,3.43,-0.57,-0.29
-1,1,1,-57,-355,3916,-0.05,0.04,0.45,-0.57,-3.55,39.16,-5.19,0.76,10.02,3.43,-0.58,-0.34
0,0,1,-55,-354,3909,-0.05,0.03,0.41,-0.55,-3.54,39.09,-5.19,0.78,10.02,3.28,-0.44,-0.37
0,0,1,-53,-353,3915,-0.04,0.03,0.38,-0.53,-3.53,39.15,-5.17,0.77,10.01,3.28,-0.45,-0.41
0,1,1,-48,-362,3914,-0.04,0.03,0.34,-0.48,-3.62,39.14,-5.18,0.76,10.01,3.30,-0.59,-0.44
0,0,1,-45,-358,3915,-0.03,0.03,0.32,-0.45,-3.58,39.15,-5.19,0.75,10.01,3.31,-0.43,-0.47
-1,0,1,-51,-361,3901,-0.04,0.03,0.29,-0.51,-3.61,39.01,-5.21,0.75,10.01,3.47,-0.44,-0.49
-1,-1,1,-56,-353,3905,-0.04,0.02,0.27,-0.56,-3.53,39.05,-5.20,0.76,10.01,3.46,-0.31,-0.52
-1,0,0,-52,-364,3911,-0.04,0.02,0.24,-0.52,-3.64,39.11,-5.22,0.76,10.01,3.47,-0.47,-0.46
-1,0,1,-50,-362,3912,-0.04,0.01,0.22,-0.50,-3.62,39.12,-5.23,0.76,10.01,3.47,-0.46,-0.56
-1,0,1,-63,-363,3906,-0.05,0.01,0.21,-0.63,-3.63,39.06,-5.24,0.77,10.01,3.48,-0.48,-0.58
-1,0,1,-67,-364,3907,-0.05,0.01,0.19,-0.67,-3.64,39.07,-5.25,0.79,10.01,3.48,-0.49,-0.59
-1,0,1,-52,-365,3917,-0.05,0.01,0.18,-0.52,-3.65,39.17,-5.27,0.78,10.01,3.49,-0.49,-0.61
-1,0,1,-49,-364,3905,-0.05,0.01,0.17,-0.49,-3.64,39.05,-5.28,0.77,10.01,3.49,-0.48,-0.62
0,0,1,-48,-356,3911,-0.04,0.01,0.16,-0.48,-3.56,39.11,-5.26,0.76,10.01,3.34,-0.48,-0.63
1,0,1,-51,-357,3917,-0.03,0.01,0.15,-0.51,-3.57,39.17,-5.25,0.75,10.01,3.19,-0.47,-0.64
-1,0,1,-56,-361,3904,-0.04,0.01,0.14,-0.56,-3.61,39.04,-5.26,0.77,10.00,3.50,-0.49,-0.65
-1,0,0,-64,-354,3903,-0.04,0.01,0.12,-0.64,-3.54,39.03,-5.25,0.79,10.00,3.49,-0.50,-0.58
-2,1,2,-49,-361,3889,-0.05,0.01,0.12,-0.49,-3.61,38.89,-5.26,0.77,10.00,3.64,-0.63,-0.75
-1,0,1,-50,-363,3898,-0.05,0.01,0.12,-0.50,-3.63,38.98,-5.28,0.76,10.00,3.49,-0.48,-0.67
-1,0,1,-53,-363,3905,-0.05,0.01,0.11,-0.53,-3.63,39.05,-5.29,0.77,10.00,3.50,-0.48,-0.67
-1,0,1,-53,-361,3894,-0.05,0.01,0.11,-0.53,-3.61,38.94,-5.30,0.78,10.00,3.50,-0.49,-0.68
-1,0,1,-55,-354,3895,-0.05,0.01,0.10,-0.55,-3.54,38.95,-5.28,0.79,10.00,3.49,-0.50,-0.68
-1,0,1,-60,-355,3897,-0.05,0.01,0.10,-0.60,-3.55,38.97,-5.27,0.80,10.00,3.48,-0.51,-0.69
-1,0,2,-58,-361,3911,-0.05,0.01,0.10,-0.58,-3.61,39.11,-5.27,0.82,10.00,3.48,-0.52,-0.77
0,0,2,-61,-363,3911,-0.05,0.01,0.10,-0.61,-3.63,39.11,-5.28,0.84,10.00,3.34,-0.53,-0.77
-1,0,2,-57,-360,3905,-0.05,0.01,0.10,-0.57,-3.60,39.05,-5.26,0.83,10.00,3.48,-0.53,-0.76
-1,1,1,-59,-361,3925,-0.05,0.01,0.10,-0.59,-3.61,39.25,-5.26,0.85,10.00,3.48,-0.68,-0.68
0,0,2,-45,-358,3902,-0.05,0.01,0.10,-0.45,-3.58,39.02,-5.26,0.83,10.00,3.33,-0.52,-0.77
0,0,1,-46,-366,3907,-0.04,0.01,0.10,-0.46,-3.66,39.07,-5.27,0.81,10.00,3.35,-0.51,-0.69
-1,0,1,-55,-361,3905,-0.04,0.01,0.09,-0.55,-3.61,39.05,-5.28,0.80,10.00,3.51,-0.51,-0.69
-1,1,1,-55,-364,3903,-0.04,0.01,0.09,-0.55,-3.64,39.03,-5.30,0.80,10.00,3.51,-0.65,-0.69
-1,-2,2,-33,-342,3893,-0.05,-0.00,0.09,-0.33,-3.42,38.93,-5.29,0.79,10.00,3.50,-0.21,-0.77
1,-8,6,-35,-343,3903,-0.04,-0.05,0.12,-0.35,-3.43,39.03,-5.28,0.78,10.00,3.21,0.62,-1.09
1,7,5,-62,-330,3877,-0.03,-0.00,0.14,-0.62,-3.30,38.77,-5.26,0.78,10.00,3.22,-1.58,-0.98
0,5,11,-94,-236,3909,-0.02,0.03,0.19,-0.94,-2.36,39.09,-5.24,0.79,10.00,3.36,-1.22,-1.44
8,11,42,-124,-205,3933,0.03,0.09,0.43,-1.24,-2.05,39.33,-5.22,0.80,9.99,2.23,-2.02,-3.83
2,6,73,-117,-176,3880,0.04,0.12,0.83,-1.17,-1.76,38.80,-5.21,0.80,9.99,3.15,-1.22,-6.05
2,11,164,-291,-223,3869,0.05,0.18,1.75,-2.91,-2.23,38.69,-5.20,0.82,9.98,3.16,-1.89,-12.84
-3,1,180,-282,-255,3871,0.02,0.16,2.67,-2.82,-2.55,38.71,-5.19,0.84,9.97,3.87,-0.40,-13.27
-7,7,274,-138,-281,3925,-0.02,0.19,4.08,-1.38,-2.81,39.25,-5.18,0.86,9.96,4.39,-1.27,-19.82
-1,7,294,-116,-306,3998,-0.03,0.21,5.46,-1.16,-3.06,39.98,-5.16,0.87,9.93,3.46,-1.24,-20.12
-2,8,316,-27,-372,3883,-0.04,0.24,6.84,-0.27,-3.72,38.83,-5.17,0.86,9.91,3.60,-1.33,-20.60
3,12,310,29,-334,3917,-0.01,0.29,8.05,0.29,-3.34,39.17,-5.17,0.85,9.88,2.88,-1.84,-18.87
0,9,235,30,-328,3881,-0.01,0.32,8.68,0.30,-3.28,38.81,-5.16,0.83,9.84,3.33,-1.33,-11.89
2,7,229,35,-378,3901,0.00,0.33,9.21,0.35,-3.78,39.01,-5.17,0.82,9.80,3.06,-1.00,-10.84
2,15,224,-67,-434,3932,0.01,0.39,9.65,-0.67,-4.34,39.32,-5.19,0.83,9.77,3.09,-2.11,-9.97
7,13,215,-88,-407,3856,0.05,0.43,10.00,-0.88,-4.07,38.56,-5.20,0.84,9.73,2.41,-1.74,-8.86
1,11,200,-132,-302,3873,0.06,0.45,10.22,-1.32,-3.02,38.73,-5.19,0.86,9.69,3.32,-1.41,-7.36
-5,9,208,-136,-266,3893,0.02,0.46,10.47,-1.36,-2.66,38.93,-5.18,0.88,9.64,4.16,-1.09,-7.79
-11,4,262,-303,-133,3953,-0.05,0.44,11.02,-3.03,-1.33,39.53,-5.16,0.90,9.60,4.94,-0.38,-11.81
-3,4,284,-420,-128,3940,-0.06,0.42,11.65,-4.20,-1.28,39.40,-5.15,0.92,9.55,3.69,-0.43,-13.04
-2,1,353,-529,-221,3934,-0.07,0.38,12.64,-5.29,-2.21,39.34,-5.15,0.94,9.50,3.52,-0.06,-17.89
22,2,362,-392,-416,3524,0.07,0.36,13.58,-3.92,-4.16,35.24,-5.15,0.97,9.45,0.13,-0.27,-17.70
1,0,-27,497,-883,3813,0.07,0.32,12.06,4.97,-8.83,38.13,-5.16,0.96,9.40,3.33,-0.03,13.73
14,3,-108,439,-715,3811,0.15,0.31,10.19,4.39,-7.15,38.11,-5.17,0.95,9.36,1.50,-0.51,18.73
6,-10,-268,125,-200,3873,0.17,0.22,7.54,1.25,-2.00,38.73,-5.16,0.94,9.33,2.75,1.31,29.62
6,-16,-313,178,-246,3858,0.19,0.10,4.88,1.78,-2.46,38.58,-5.15,0.92,9.31,2.78,2.02,30.76
-7,-14,-323,25,-227,3920,0.13,0.00,2.42,0.25,-2.27,39.20,-5.14,0.91,9.30,4.64,1.54,29.14
4,-20,-340,43,-176,3992,0.14,-0.12,0.10,0.43,-1.76,39.92,-5.12,0.90,9.30,2.98,2.24,28.26
3,-25,-514,-67,-119,3949,0.14,-0.26,-3.04,-0.67,-1.19,39.49,-5.10,0.90,9.31,3.12,2.74,39.84
-1,-15,-590,-278,-165,3892,0.12,-0.33,-6.34,-2.78,-1.65,38.92,-5.09,0.91,9.34,3.69,1.09,42.97
18,-11,-628,-325,-185,3945,0.22,-0.36,-9.53,-3.25,-1.85,39.45,-5.08,0.92,9.38,0.96,0.41,42.98
10,-14,-628,-216,-174,3797,0.26,-0.41,-12.41,-2.16,-1.74,37.97,-5.07,0.93,9.43,2.25,0.77,40.09
18,-4,-623,2,-185,3849,0.34,-0.39,-14.97,0.02,-1.85,38.49,-5.05,0.92,9.48,1.17,-0.71,37.09
11,1,-618,64,-230,3904,0.38,-0.35,-17.24,0.64,-2.30,39.04,-5.04,0.90,9.55,2.29,-1.38,34.38
6,-2,-574,135,-371,3885,0.38,-0.33,-19.02,1.35,-3.71,38.85,-5.04,0.87,9.63,3.05,-0.86,28.86
10,-2,-550,127,-396,3935,0.40,-0.31,-20.47,1.27,-3.96,39.35,-5.04,0.84,9.71,2.49,-0.81,25.36
4,1,-454,159,-417,3946,0.38,-0.27,-21.20,1.59,-4.17,39.46,-5.05,0.82,9.79,3.38,-1.18,16.50
6,2,-440,142,-395,3951,0.38,-0.23,-21.76,1.42,-3.95,39.51,-5.05,0.79,9.88,3.07,-1.24,14.74
-1,1,-480,11,-277,3905,0.34,-0.20,-22.51,0.11,-2.77,39.05,-5.04,0.77,9.97,4.05,-1.02,17.37
2,-2,-512,-93,-278,3821,0.32,-0.19,-23.38,-0.93,-2.78,38.21,-5.02,0.77,10.06,3.54,-0.55,19.20
0,1,-618,-281,-259,3905,0.28,-0.17,-24.82,-2.81,-2.59,39.05,-5.02,0.78,10.16,3.78,-0.97,26.73
9,-4,-659,-304,-266,3877,0.31,-0.17,-26.35,-3.04,-2.66,38.77,-5.01,0.79,10.27,2.46,-0.22,28.66
15,-11,-800,-230,-370,4010,0.37,-0.22,-28.60,-2.30,-3.70,40.10,-5.01,0.79,10.38,1.66,0.75,38.34
14,-3,-816,-204,-414,3830,0.42,-0.22,-30.72,-2.04,-4.14,38.30,-5.02,0.80,10.50,1.90,-0.47,37.56
-1,-14,-884,-97,-365,3918,0.37,-0.28,-33.04,-0.97,-3.65,39.18,-5.03,0.80,10.64,4.11,1.09,40.98
18,-6,-901,-65,-406,4008,0.44,-0.29,-35.23,-0.65,-4.06,40.08,-5.05,0.79,10.78,1.36,-0.14,40.21
9,-16,-904,-152,-306,3950,0.45,-0.36,-37.22,-1.52,-3.06,39.50,-5.04,0.79,10.92,2.74,1.26,38.46
16,-19,-921,-153,-377,3907,0.51,-0.44,-39.12,-1.53,-3.77,39.07,-5.05,0.80,11.08,1.77,1.57,37.98
9,-22,-1053,-228,-310,3856,0.51,-0.53,-41.63,-2.28,-3.10,38.56,-5.04,0.80,11.25,2.85,1.86,46.63
26,-16,-1118,-157,-321,3924,0.62,-0.57,-44.29,-1.57,-3.21,39.24,-5.04,0.80,11.42,0.45,0.86,49.46
29,-23,-1246,-264,-363,3927,0.73,-0.66,-47.46,-2.64,-3.63,39.27,-5.04,0.80,11.61,0.21,1.78,57.11
32,-36,-1292,-131,-494,3887,0.86,-0.81,-50.59,-1.31,-4.94,38.87,-5.06,0.78,11.81,-0.02,3.48,57.84
-3,-46,-1454,-156,-426,3832,0.75,-1.01,-54.40,-1.56,-4.26,38.32,-5.07,0.77,12.03,5.14,4.65,67.73
7,-43,-1459,-155,-408,3863,0.72,-1.17,-57.86,-1.55,-4.08,38.63,-5.08,0.76,12.26,3.56,3.90,64.66
14,-23,-1369,-50,-295,3888,0.73,-1.20,-60.43,-0.50,-2.95,38.88,-5.06,0.74,12.50,2.50,0.82,54.45
16,-34,-1323,22,-223,3878,0.76,-1.28,-62.45,0.22,-2.23,38.78,-5.04,0.70,12.75,2.23,2.36,48.50
26,-17,-1149,166,-339,3952,0.84,-1.26,-63.22,1.66,-3.39,39.52,-5.04,0.66,13.00,0.86,-0.15,32.97
21,-17,-1098,151,-405,3925,0.88,-1.24,-63.59,1.51,-4.05,39.25,-5.05,0.61,13.25,1.71,-0.08,28.26
12,-15,-933,55,-519,3894,0.87,-1.20,-62.93,0.55,-5.19,38.94,-5.06,0.58,13.50,3.06,-0.31,14.93
16,-1,-876,25,-481,3914,0.88,-1.09,-61.98,0.25,-4.81,39.14,-5.08,0.54,13.75,2.48,-2.21,11.04
3,-8,-813,48,-428,3918,0.81,-1.03,-60.74,0.48,-4.28,39.18,-5.09,0.50,13.99,4.34,-1.00,6.92
21,-13,-813,69,-447,3964,0.86,-1.01,-59.62,0.69,-4.47,39.64,-5.10,0.46,14.23,1.69,-0.17,8.03
10,-13,-816,19,-415,3877,0.83,-0.98,-58.64,0.19,-4.15,38.77,-5.11,0.43,14.46,3.33,-0.11,9.25
7,-18,-811,43,-393,3867,0.79,-1.00,-57.72,0.43,-3.93,38.67,-5.12,0.39,14.69,3.72,0.66,9.73
7,-19,-806,84,-324,3861,0.76,-1.01,-56.87,0.84,-3.24,38.61,-5.12,0.35,14.92,3.65,0.81,10.15
25,-4,-802,94,-368,3950,0.83,-0.94,-56.07,0.94,-3.68,39.50,-5.12,0.30,15.14,1.05,-1.31,10.60
13,-16,-798,-45,-354,3890,0.83,-0.94,-55.33,-0.45,-3.54,38.90,-5.12,0.30,15.36,2.87,0.51,10.99
-2,-23,-813,-97,-335,3889,0.73,-0.99,-54.76,-0.97,-3.35,38.89,-5.11,0.29,15.58,4.98,1.50,12.82
10,-22,-896,-225,-417,3933,0.72,-1.02,-54.75,-2.25,-4.17,39.33,-5.12,0.29,15.80,3.13,1.29,19.84
22,-11,-948,-244,-389,3916,0.78,-0.99,-55.06,-2.44,-3.89,39.16,-5.12,0.28,16.02,1.42,-0.32,23.92
10,-13,-979,-194,-363,3852,0.77,-0.97,-55.52,-1.94,-3.63,38.52,-5.12,0.28,16.24,3.21,0.02,26.07
16,-15,-978,-192,-352,3929,0.79,-0.96,-55.94,-1.92,-3.52,39.29,-5.12,0.27,16.46,2.34,0.34,25.55
10,-11,-919,-52,-349,3866,0.77,-0.93,-55.95,-0.52,-3.49,38.66,-5.12,0.26,16.68,3.22,-0.21,20.53
13,-15,-899,34,-332,3906,0.77,-0.93,-55.84,0.34,-3.32,39.06,-5.11,0.22,16.90,2.76,0.43,18.93
18,-10,-805,62,-311,3915,0.80,-0.90,-55.16,0.62,-3.11,39.15,-5.10,0.18,17.12,2.05,-0.25,11.62
12,-11,-769,96,-356,3892,0.80,-0.88,-54.34,0.96,-3.56,38.92,-5.10,0.14,17.34,2.95,-0.03,9.39
24,-4,-683,217,-314,3888,0.86,-0.81,-53.07,2.17,-3.14,38.88,-5.09,0.10,17.55,1.24,-0.96,3.36
17,-5,-655,162,-344,3939,0.88,-0.76,-51.76,1.62,-3.44,39.39,-5.09,0.06,17.76,2.34,-0.68,2.29
-3,-14,-575,102,-291,3888,0.77,-0.77,-50.09,1.02,-2.91,38.88,-5.08,0.03,17.96,5.18,0.70,-2.83
-2,-13,-538,101,-391,3877,0.68,-0.77,-48.36,1.01,-3.91,38.77,-5.08,-0.01,18.15,4.87,0.56,-4.24
1,-5,-460,-117,-375,3915,0.62,-0.73,-46.33,-1.17,-3.75,39.15,-5.08,-0.01,18.33,4.30,-0.57,-8.82
6,-6,-431,-120,-455,3891,0.60,-0.69,-44.33,-1.20,-4.55,38.91,-5.09,-0.02,18.51,3.49,-0.35,-9.28
-2,7,-345,-152,-417,3851,0.52,-0.58,-42.00,-1.52,-4.17,38.51,-5.10,-0.02,18.68,4.59,-2.12,-14.24
7,-4,-336,-95,-442,3961,0.52,-0.55,-39.85,-0.95,-4.42,39.61,-5.11,-0.02,18.83,3.20,-0.38,-12.86
12,-2,-308,-32,-360,3937,0.54,-0.50,-37.74,-0.32,-3.60,39.37,-5.11,-0.02,18.98,2.48,-0.61,-13.13
2,-5,-296,26,-416,3910,0.50,-0.48,-35.78,0.26,-4.16,39.10,-5.12,-0.04,19.13,3.94,-0.10,-12.18
6,-8,-307,9,-361,3916,0.48,-0.48,-34.07,0.09,-3.61,39.16,-5.14,-0.06,19.26,3.31,0.37,-9.54
1,-5,-317,-22,-359,3914,0.44,-0.47,-32.60,-0.22,-3.59,39.14,-5.14,-0.06,19.39,4.00,-0.06,-7.22
11,-7,-345,-12,-352,3908,0.46,-0.46,-31.44,-0.12,-3.52,39.08,-5.14,-0.05,19.52,2.52,0.25,-3.70
5,-6,-340,-78,-366,3915,0.45,-0.45,-30.37,-0.78,-3.66,39.15,-5.14,-0.05,19.64,3.40,0.11,-3.06
5,-3,-353,-83,-348,3901,0.43,-0.43,-29.49,-0.83,-3.48,39.01,-5.14,-0.04,19.76,3.38,-0.30,-1.08
7,2,-356,-132,-333,3927,0.43,-0.37,-28.71,-1.32,-3.33,39.27,-5.13,-0.04,19.87,3.07,-0.96,-0.05
11,2,-398,-208,-225,3898,0.46,-0.32,-28.27,-2.08,-2.25,38.98,-5.12,-0.03,19.98,2.49,-0.88,3.94
4,-13,-428,-116,-227,3935,0.44,-0.37,-28.05,-1.16,-2.27,39.35,-5.11,-0.03,20.09,3.51,1.32,6.69
2,-17,-563,-51,-221,3905,0.40,-0.44,-28.68,-0.51,-2.21,39.05,-5.09,-0.04,20.21,3.75,1.81,17.49
20,-5,-602,-121,-154,3890,0.49,-0.42,-29.48,-1.21,-1.54,38.90,-5.07,-0.04,20.32,1.14,0.01,19.98
26,-2,-702,-95,-210,3919,0.60,-0.39,-30.82,-0.95,-2.10,39.19,-5.05,-0.04,20.45,0.42,-0.39,27.11
14,-3,-705,-31,-257,3880,0.62,-0.37,-32.04,-0.31,-2.57,38.80,-5.03,-0.05,20.58,2.28,-0.20,26.13
13,-3,-677,-51,-300,3893,0.64,-0.35,-32.96,-0.51,-3.00,38.93,-5.02,-0.04,20.71,2.46,-0.16,22.82
16,-5,-637,24,-320,3868,0.67,-0.35,-33.55,0.24,-3.20,38.68,-5.01,-0.07,20.84,2.05,0.17,18.83
9,4,-554,119,-403,3876,0.66,-0.29,-33.58,1.19,-4.03,38.76,-5.01,-0.10,20.97,3.10,-1.08,11.76
16,15,-537,108,-382,3941,0.69,-0.17,-33.49,1.08,-3.82,39.41,-5.01,-0.13,21.11,2.09,-2.51,10.39
2,-5,-476,54,-345,3954,0.63,-0.18,-33.05,0.54,-3.45,39.54,-5.01,-0.16,21.24,4.12,0.53,5.66
2,-11,-466,138,-410,3923,0.58,-0.23,-32.59,1.38,-4.10,39.23,-5.02,-0.19,21.37,4.03,1.37,5.27
-10,-24,-436,-14,-372,3892,0.46,-0.35,-31.99,-0.14,-3.72,38.92,-5.03,-0.19,21.50,5.65,3.13,3.32
19,0,-423,13,-409,3985,0.53,-0.32,-31.37,0.13,-4.09,39.85,-5.04,-0.20,21.62,1.36,-0.46,2.83
-2,-15,-371,-134,-325,3871,0.47,-0.38,-30.50,-1.34,-3.25,38.71,-5.04,-0.20,21.74,4.44,1.72,-0.70
8,-3,-356,-134,-361,3865,0.47,-0.36,-29.62,-1.34,-3.61,38.65,-5.04,-0.19,21.86,2.92,-0.08,-1.10
4,-1,-398,-135,-265,3875,0.45,-0.33,-29.08,-1.35,-2.65,38.75,-5.03,-0.18,21.98,3.48,-0.33,2.98
3,-1,-439,-69,-245,3846,0.42,-0.30,-28.85,-0.69,-2.45,38.46,-5.01,-0.18,22.09,3.58,-0.29,6.68
8,11,-545,-145,-219,3882,0.43,-0.20,-29.29,-1.45,-2.19,38.82,-5.00,-0.18,22.21,2.82,-1.94,15.21
10,17,-574,-116,-193,3872,0.45,-0.08,-29.86,-1.16,-1.93,38.72,-4.98,-0.18,22.33,2.54,-2.63,17.09
19,46,-651,-24,-342,3933,0.52,0.21,-30.85,-0.24,-3.42,39.33,-4.98,-0.17,22.45,1.29,-6.52,22.61
26,43,-633,-18,-390,3916,0.62,0.45,-31.63,-0.18,-3.90,39.16,-4.99,-0.17,22.58,0.43,-5.62,20.30
7,0,-560,68,-406,3969,0.60,0.40,-31.88,0.68,-4.06,39.69,-5.00,-0.19,22.70,3.30,0.87,13.85
15,7,-534,27,-521,3897,0.64,0.41,-31.95,0.27,-5.21,38.97,-5.02,-0.20,22.83,2.15,-0.19,11.57
0,-6,-409,55,-493,3919,0.57,0.33,-31.25,0.55,-4.93,39.19,-5.03,-0.22,22.95,4.33,1.66,1.67
-11,-11,-386,10,-421,3891,0.45,0.23,-30.48,0.10,-4.21,38.91,-5.05,-0.23,23.08,5.79,2.25,0.49
-2,-18,-361,13,-295,3905,0.39,0.10,-29.63,0.13,-2.95,39.05,-5.03,-0.24,23.19,4.29,3.08,-0.79
-19,-25,-380,-4,-280,3988,0.24,-0.07,-28.99,-0.04,-2.80,39.88,-5.01,-0.24,23.31,6.59,3.85,1.46
12,-8,-420,55,-310,3887,0.29,-0.11,-28.65,0.55,-3.10,38.87,-5.00,-0.27,23.42,1.94,1.19,5.18
6,-1,-426,43,-273,3870,0.29,-0.10,-28.38,0.43,-2.73,38.70,-4.98,-0.28,23.54,2.86,0.15,5.95
15,-1,-459,-2,-294,3921,0.36,-0.10,-28.35,-0.02,-2.94,39.21,-4.96,-0.29,23.65,1.59,0.16,8.78
10,6,-464,-36,-292,3863,0.38,-0.05,-28.34,-0.36,-2.92,38.63,-4.95,-0.28,23.76,2.39,-0.83,9.20
6,-6,-431,-52,-313,3894,0.38,-0.08,-28.14,-0.52,-3.13,38.94,-4.94,-0.27,23.88,3.00,0.94,6.60
-11,-11,-419,-95,-352,3880,0.27,-0.14,-27.88,-0.95,-3.52,38.80,-4.94,-0.27,23.99,5.39,1.59,5.83
-2,-8,-367,-85,-460,3942,0.23,-0.18,-27.33,-0.85,-4.60,39.42,-4.95,-0.26,24.09,3.96,1.06,1.97
-3,-4,-365,-127,-399,3904,0.19,-0.18,-26.82,-1.27,-3.99,39.04,-4.96,-0.26,24.20,4.04,0.44,2.30
2,-2,-276,-42,-548,3922,0.19,-0.18,-25.82,-0.42,-5.48,39.22,-4.97,-0.26,24.30,3.27,0.15,-4.24
-8,-2,-259,-12,-426,3913,0.12,-0.17,-24.82,-0.12,-4.26,39.13,-4.99,-0.26,24.40,4.68,0.16,-4.68
-1,-7,-264,-27,-285,3919,0.10,-0.20,-23.95,-0.27,-2.85,39.19,-4.98,-0.26,24.50,3.57,0.87,-3.39
-8,-9,-262,15,-280,3866,0.04,-0.23,-23.15,0.15,-2.80,38.66,-4.96,-0.27,24.59,4.52,1.12,-2.77
3,-10,-318,46,-254,3910,0.06,-0.27,-22.78,0.46,-2.54,39.10,-4.94,-0.28,24.68,2.86,1.21,2.35
0,-3,-365,-23,-304,3908,0.05,-0.26,-22.73,-0.23,-3.04,39.08,-4.93,-0.28,24.77,3.30,0.16,6.37
9,-5,-502,48,-247,3903,0.10,-0.27,-23.52,0.48,-2.47,39.03,-4.91,-0.29,24.87,2.00,0.46,17.18
8,-7,-541,-1,-254,3884,0.14,-0.28,-24.46,-0.01,-2.54,38.84,-4.89,-0.30,24.96,2.21,0.74,19.53
6,-8,-643,-125,-306,3898,0.16,-0.30,-25.94,-1.25,-3.06,38.98,-4.89,-0.29,25.07,2.56,0.85,26.68
4,-17,-657,-91,-220,3917,0.17,-0.38,-27.35,-0.91,-2.20,39.17,-4.87,-0.29,25.18,2.87,2.09,26.44
17,13,-675,-106,-523,3888,0.26,-0.26,-28.74,-1.06,-5.23,38.88,-4.88,-0.29,25.29,1.06,-2.27,26.57
18,4,-659,-158,-529,3882,0.34,-0.21,-29.88,-1.58,-5.29,38.82,-4.90,-0.29,25.41,1.07,-0.81,24.05
2,2,-600,-158,-406,3884,0.32,-0.18,-30.55,-1.58,-4.06,38.84,-4.90,-0.28,25.53,3.47,-0.45,18.37
-3,-2,-591,-110,-429,3912,0.27,-0.17,-31.10,-1.10,-4.29,39.12,-4.91,-0.28,25.65,4.14,0.17,17.05
35,14,-641,-118,-267,3948,0.46,-0.07,-31.90,-1.18,-2.67,39.48,-4.90,-0.27,25.78,-1.31,-2.08,20.47
33,23,-675,-178,-322,3820,0.61,0.08,-32.83,-1.78,-3.22,38.20,-4.90,-0.27,25.91,-0.72,-3.19,22.42
60,45,-701,-85,-228,3891,0.92,0.35,-33.82,-0.85,-2.28,38.91,-4.88,-0.26,26.05,-4.29,-6.05,23.61
70,38,-691,27,-228,3923,1.25,0.54,-34.66,0.27,-2.28,39.23,-4.85,-0.28,26.19,-5.21,-4.62,21.92
54,40,-664,13,-243,3844,1.46,0.73,-35.24,0.13,-2.43,38.44,-4.83,-0.28,26.33,-2.41,-4.57,19.03
38,33,-655,-22,-368,3854,1.54,0.86,-35.71,-0.22,-3.68,38.54,-4.84,-0.28,26.47,0.19,-3.26,17.79
48,45,-602,-35,-280,3877,1.68,1.05,-35.81,-0.35,-2.80,38.77,-4.82,-0.27,26.61,-1.09,-4.75,13.19
45,24,-552,-42,-331,3926,1.79,1.09,-35.60,-0.42,-3.31,39.26,-4.81,-0.26,26.75,-0.44,-1.48,9.16
23,20,-474,23,-314,3928,1.75,1.10,-34.93,0.23,-3.14,39.28,-4.78,-0.27,26.89,2.83,-0.84,3.21
23,22,-451,23,-346,3896,1.71,1.13,-34.19,0.23,-3.46,38.96,-4.79,-0.29,27.03,2.77,-1.09,2.00
13,7,-388,-25,-285,3905,1.62,1.06,-33.14,-0.25,-2.85,39.05,-4.77,-0.28,27.16,4.11,1.06,-2.29
7,11,-377,-11,-347,3889,1.50,1.02,-32.12,-0.11,-3.47,38.89,-4.78,-0.27,27.29,4.81,0.38,-2.22
4,-11,-304,41,-346,3875,1.38,0.85,-30.76,0.41,-3.46,38.75,-4.79,-0.29,27.41,5.04,3.43,-7.05
2,-12,-285,48,-374,4014,1.25,0.69,-29.43,0.48,-3.74,40.14,-4.79,-0.31,27.53,5.12,3.31,-7.32
-28,-35,-340,49,-303,3896,0.96,0.41,-28.56,0.49,-3.03,38.96,-4.78,-0.33,27.65,9.14,6.31,-1.80
-14,-31,-347,33,-353,3925,0.77,0.18,-27.82,0.33,-3.53,39.25,-4.79,-0.35,27.76,6.68,5.28,-0.47
-24,-38,-350,-44,-268,3937,0.55,-0.07,-27.17,-0.44,-2.68,39.37,-4.78,-0.34,27.87,7.78,5.89,0.42
-13,-21,-343,-49,-281,3840,0.42,-0.19,-26.55,-0.49,-2.81,38.40,-4.76,-0.34,27.97,5.85,3.07,0.45
3,1,-403,-200,-221,3873,0.39,-0.17,-26.35,-2.00,-2.21,38.73,-4.76,-0.33,28.08,3.36,-0.25,5.72
18,8,-411,-130,-196,3889,0.46,-0.10,-26.22,-1.30,-1.96,38.89,-4.74,-0.32,28.18,1.19,-1.20,6.52
19,23,-478,-97,-223,3898,0.53,0.05,-26.52,-0.97,-2.23,38.98,-4.73,-0.32,28.29,1.16,-3.21,11.90
33,19,-496,-86,-288,3891,0.68,0.16,-26.89,-0.86,-2.88,38.91,-4.72,-0.31,28.39,-0.71,-2.40,13.04
47,26,-472,-71,-366,3959,0.90,0.30,-27.08,-0.71,-3.66,39.59,-4.72,-0.30,28.50,-2.44,-3.21,10.81
35,36,-468,-88,-397,3919,1.02,0.49,-27.23,-0.88,-3.97,39.19,-4.73,-0.29,28.61,-0.38,-4.39,10.31
34,22,-471,-24,-405,3963,1.13,0.58,-27.38,-0.24,-4.05,39.63,-4.74,-0.29,28.72,-0.03,-2.10,10.41
29,22,-479,-71,-349,3919,1.19,0.65,-27.56,-0.71,-3.49,39.19,-4.74,-0.28,28.83,0.85,-1.97,10.89
23,8,-535,6,-340,3862,1.21,0.64,-28.07,0.06,-3.40,38.62,-4.75,-0.27,28.94,1.81,0.13,15.12
16,-14,-538,39,-294,4004,1.19,0.49,-28.54,0.39,-2.94,40.04,-4.72,-0.29,29.06,2.82,3.22,14.89
11,-1,-553,-8,-208,3996,1.14,0.43,-29.06,-0.08,-2.08,39.96,-4.70,-0.29,29.17,3.48,1.14,15.63
8,-4,-573,-76,-235,3848,1.07,0.37,-29.65,-0.76,-2.35,38.48,-4.69,-0.29,29.29,3.80,1.47,16.73
16,-10,-627,-143,-230,3913,1.06,0.27,-30.51,-1.43,-2.30,39.13,-4.67,-0.28,29.41,2.56,2.20,20.43
4,11,-633,-236,-196,3901,0.98,0.31,-31.32,-2.36,-1.96,39.01,-4.66,-0.27,29.54,4.23,-0.93,20.12
12,-11,-648,-116,-194,3931,0.96,0.21,-32.14,-1.16,-1.94,39.31,-4.64,-0.27,29.67,2.95,2.24,20.56
16,-8,-634,-65,-240,3934,0.96,0.14,-32.80,-0.65,-2.40,39.34,-4.63,-0.27,29.80,2.33,1.65,18.71
6,-4,-638,-89,-311,3919,0.90,0.10,-33.41,-0.89,-3.11,39.19,-4.62,-0.26,29.93,3.75,0.97,18.42
-4,-4,-652,-106,-310,3866,0.78,0.07,-34.04,-1.06,-3.10,38.66,-4.62,-0.25,30.07,5.06,0.90,18.96
8,-11,-634,-1,-401,4001,0.76,-0.01,-34.51,-0.01,-4.01,40.01,-4.63,-0.26,30.20,3.18,1.83,16.96
5,-7,-622,4,-395,3929,0.71,-0.05,-34.85,0.04,-3.95,39.29,-4.64,-0.27,30.34,3.57,1.15,15.59
-4,5,-493,12,-307,3839,0.61,-0.01,-34.37,0.12,-3.07,38.39,-4.63,-0.26,30.48,4.75,-0.62,5.13
3,-13,-467,51,-415,3962,0.57,-0.09,-33.78,0.51,-4.15,39.62,-4.64,-0.28,30.61,3.61,2.00,3.51
-2,-8,-395,65,-350,3934,0.50,-0.13,-32.82,0.65,-3.50,39.34,-4.65,-0.31,30.74,4.25,1.18,-1.63
-3,0,-389,4,-415,3915,0.43,-0.12,-31.91,0.04,-4.15,39.15,-4.67,-0.31,30.87,4.29,-0.01,-1.23
-2,-9,-373,38,-356,3931,0.38,-0.16,-30.99,0.38,-3.56,39.31,-4.68,-0.33,30.99,4.04,1.29,-1.68
-1,-5,-376,10,-352,3863,0.33,-0.18,-30.19,0.10,-3.52,38.63,-4.70,-0.34,31.11,3.82,0.66,-0.63
-11,-9,-454,16,-348,3917,0.23,-0.21,-29.94,0.16,-3.48,39.17,-4.71,-0.34,31.23,5.17,1.20,6.22
9,-8,-457,71,-425,3932,0.27,-0.24,-29.73,0.71,-4.25,39.32,-4.73,-0.36,31.35,2.19,1.01,6.68
-3,-13,-451,41,-304,3845,0.22,-0.30,-29.51,0.41,-3.04,38.45,-4.71,-0.39,31.47,3.93,1.69,6.38
20,-6,-433,76,-278,3834,0.32,-0.30,-29.20,0.76,-2.78,38.34,-4.70,-0.41,31.59,0.60,0.63,5.16
10,-16,-445,97,-343,3921,0.35,-0.37,-28.99,0.97,-3.43,39.21,-4.70,-0.44,31.70,2.18,2.04,6.38
7,-16,-452,77,-347,3945,0.36,-0.43,-28.85,0.77,-3.47,39.45,-4.71,-0.47,31.82,2.65,1.95,7.10
3,-24,-475,-120,-283,3913,0.34,-0.53,-28.86,-1.20,-2.83,39.13,-4.70,-0.46,31.93,3.23,2.98,9.03
0,-18,-501,-153,-293,4003,0.31,-0.59,-29.03,-1.53,-2.93,40.03,-4.70,-0.46,32.05,3.62,1.95,11.06
4,-11,-605,-210,-217,3937,0.30,-0.60,-29.82,-2.10,-2.17,39.37,-4.69,-0.45,32.17,2.99,0.87,19.07
13,-2,-607,-156,-246,3933,0.35,-0.55,-30.54,-1.56,-2.46,39.33,-4.68,-0.45,32.29,1.70,-0.42,18.51
8,-5,-626,-202,-308,3980,0.36,-0.53,-31.31,-2.02,-3.08,39.80,-4.67,-0.44,32.41,2.49,0.08,19.34
15,17,-629,-177,-318,3831,0.42,-0.37,-32.01,-1.77,-3.18,38.31,-4.67,-0.43,32.54,1.52,-2.99,18.88
10,-10,-622,69,-271,3919,0.44,-0.39,-32.61,0.69,-2.71,39.19,-4.65,-0.46,32.67,2.31,1.10,17.68
-1,-20,-597,21,-286,3996,0.39,-0.48,-32.99,0.21,-2.86,39.96,-4.63,-0.47,32.80,3.88,2.47,15.17
5,-10,-528,27,-423,3936,0.38,-0.49,-32.91,0.27,-4.23,39.36,-4.65,-0.48,32.93,2.96,0.93,9.39
7,-13,-517,88,-393,3921,0.38,-0.52,-32.77,0.88,-3.93,39.21,-4.66,-0.50,33.06,2.67,1.35,8.59
4,0,-476,39,-432,3898,0.37,-0.47,-32.40,0.39,-4.32,38.98,-4.68,-0.51,33.19,3.11,-0.53,5.48
-4,0,-482,5,-388,3903,0.31,-0.42,-32.10,0.05,-3.88,39.03,-4.69,-0.52,33.32,4.23,-0.44,6.28
10,-12,-424,45,-316,3920,0.34,-0.45,-31.47,0.45,-3.16,39.20,-4.68,-0.55,33.44,2.14,1.35,1.98
9,-4,-387,57,-320,3901,0.36,-0.43,-30.69,0.57,-3.20,39.01,-4.68,-0.58,33.57,2.33,0.19,-0.37
6,12,-460,-113,-361,3963,0.36,-0.32,-30.43,-1.13,-3.61,39.63,-4.68,-0.57,33.69,2.79,-2.04,6.07
11,-6,-481,-79,-270,3898,0.39,-0.32,-30.32,-0.79,-2.70,38.98,-4.67,-0.56,33.81,2.08,0.69,7.95
5,-2,-555,-4,-182,3877,0.38,-0.30,-30.67,-0.04,-1.82,38.77,-4.65,-0.57,33.93,2.97,0.12,13.86
5,-13,-593,-36,-221,3878,0.37,-0.35,-31.22,-0.36,-2.21,38.78,-4.63,-0.57,34.06,2.94,1.71,16.51
4,-12,-626,-60,-235,3900,0.36,-0.39,-31.92,-0.60,-2.35,39.00,-4.62,-0.57,34.18,3.06,1.48,18.60
4,0,-615,-124,-195,3855,0.35,-0.35,-32.48,-1.24,-1.95,38.55,-4.61,-0.56,34.31,3.03,-0.28,17.10
-4,9,-490,-2,-209,3767,0.29,-0.26,-32.22,-0.02,-2.09,37.67,-4.59,-0.57,34.44,4.13,-1.48,6.76
26,-3,-423,-85,-398,3983,0.42,-0.25,-31.58,-0.85,-3.98,39.83,-4.59,-0.56,34.57,-0.21,0.36,1.72
-2,2,-330,-13,-371,3910,0.37,-0.21,-30.43,-0.13,-3.71,39.10,-4.60,-0.56,34.69,3.97,-0.33,-5.02
4,-7,-326,-16,-362,3925,0.35,-0.24,-29.38,-0.16,-3.62,39.25,-4.61,-0.56,34.80,3.04,1.00,-4.31
5,-7,-282,69,-340,3878,0.35,-0.25,-28.16,0.69,-3.40,38.78,-4.62,-0.58,34.92,2.89,0.98,-6.82
2,-10,-279,48,-305,3876,0.33,-0.29,-27.05,0.48,-3.05,38.76,-4.61,-0.61,35.02,3.29,1.38,-5.97
0,0,-287,3,-270,3910,0.29,-0.26,-26.09,0.03,-2.70,39.10,-4.59,-0.60,35.13,3.53,-0.09,-4.34
7,-3,-314,12,-293,3854,0.31,-0.25,-25.40,0.12,-2.93,38.54,-4.58,-0.60,35.23,2.47,0.38,-1.36
-6,-11,-298,-16,-328,3820,0.24,-0.30,-24.68,-0.16,-3.28,38.20,-4.58,-0.59,35.33,4.34,1.52,-2.00
4,4,-307,-6,-282,3992,0.24,-0.24,-24.08,-0.06,-2.82,39.92,-4.57,-0.58,35.42,2.80,-0.68,-0.64
2,-9,-334,54,-222,3861,0.23,-0.27,-23.71,0.54,-2.22,38.61,-4.55,-0.59,35.52,3.07,1.26,2.01
-6,-3,-346,-28,-287,3973,0.17,-0.26,-23.45,-0.28,-2.87,39.73,-4.54,-0.59,35.61,4.18,0.35,3.28
12,-9,-408,55,-197,3989,0.23,-0.29,-23.59,0.55,-1.97,39.89,-4.52,-0.60,35.71,1.52,1.22,8.38
2,4,-422,26,-248,3863,0.21,-0.24,-23.81,0.26,-2.48,38.63,-4.50,-0.60,35.80,3.02,-0.66,9.35
-14,7,-621,-337,-656,3924,0.11,-0.17,-25.22,-3.37,-6.56,39.24,-4.51,-0.60,35.90,5.27,-1.00,24.79
9,11,-709,-259,-469,3968,0.15,-0.09,-27.02,-2.59,-4.69,39.68,-4.52,-0.59,36.01,1.85,-1.46,30.42
19,4,-867,-100,-311,3879,0.25,-0.05,-29.61,-1.00,-3.11,38.79,-4.52,-0.58,36.13,0.51,-0.33,41.20
11,5,-847,-16,-186,3827,0.29,-0.02,-31.81,-0.16,-1.86,38.27,-4.50,-0.58,36.25,1.79,-0.42,37.29
2,-4,-665,37,-222,3869,0.28,-0.04,-32.69,0.37,-2.22,38.69,-4.48,-0.59,36.39,3.12,0.92,20.98
6,-3,-605,77,-266,3886,0.29,-0.06,-33.11,0.77,-2.66,38.86,-4.46,-0.62,36.52,2.51,0.76,15.46
1,7,-447,-19,-323,3885,0.26,-0.01,-32.52,-0.19,-3.23,38.85,-4.47,-0.61,36.65,3.24,-0.68,2.65
5,-2,-414,13,-374,3939,0.27,-0.02,-31.80,0.13,-3.74,39.39,-4.48,-0.61,36.77,2.64,0.67,0.58
-8,-4,-259,-14,-374,3905,0.19,-0.04,-30.20,-0.14,-3.74,39.05,-4.49,-0.61,36.89,4.49,0.93,-10.95
-3,-7,-221,-47,-329,3949,0.15,-0.08,-28.53,-0.47,-3.29,39.49,-4.49,-0.60,37.01,3.66,1.31,-12.50
-1,-2,-150,-107,-333,3891,0.13,-0.08,-26.59,-1.07,-3.33,38.91,-4.50,-0.59,37.11,3.32,0.53,-16.58
0,2,-130,-109,-302,3898,0.12,-0.06,-24.72,-1.09,-3.02,38.98,-4.49,-0.58,37.21,3.14,-0.04,-16.41
-2,11,-120,-110,-301,3877,0.10,0.01,-22.98,-1.10,-3.01,38.77,-4.49,-0.57,37.30,3.40,-1.29,-15.52
-1,11,-117,-72,-306,3871,0.08,0.08,-21.40,-0.72,-3.06,38.71,-4.49,-0.56,37.39,3.22,-1.17,-14.19
-1,11,-112,3,-313,3900,0.07,0.14,-19.94,0.03,-3.13,39.00,-4.49,-0.55,37.47,3.19,-1.07,-13.15
-4,12,-111,26,-328,3915,0.03,0.20,-18.62,0.26,-3.28,39.15,-4.51,-0.54,37.54,3.61,-1.12,-11.92
-7,-1,-88,-25,-293,3938,-0.01,0.17,-17.30,-0.25,-2.93,39.38,-4.50,-0.53,37.61,3.97,0.81,-12.54
10,-4,-90,-41,-365,4007,0.05,0.13,-16.12,-0.41,-3.65,40.07,-4.51,-0.52,37.68,1.50,1.18,-11.19
1,1,-134,-46,-182,3881,0.05,0.12,-15.32,-0.46,-1.82,38.81,-4.50,-0.51,37.74,2.87,0.40,-6.67
-2,-4,-168,-94,-176,3913,0.03,0.09,-14.82,-0.94,-1.76,39.13,-4.48,-0.50,37.80,3.28,1.09,-3.29
2,0,-222,-14,-250,3857,0.04,0.08,-14.69,-0.14,-2.50,38.57,-4.47,-0.49,37.86,2.68,0.46,1.41
-1,-5,-223,-31,-302,3936,0.03,0.04,-14.58,-0.31,-3.02,39.36,-4.47,-0.48,37.91,3.12,1.15,1.60
5,-8,-249,-98,-315,3930,0.06,-0.01,-14.64,-0.98,-3.15,39.30,-4.47,-0.47,37.97,2.25,1.50,3.74
-2,-4,-237,-50,-363,3922,0.04,-0.04,-14.62,-0.50,-3.63,39.22,-4.48,-0.46,38.03,3.29,0.84,2.74
-5,0,-105,-53,-292,3973,0.01,-0.03,-13.80,-0.53,-2.92,39.73,-4.47,-0.44,38.09,3.68,0.23,-7.62
-4,-5,-121,-94,-232,3899,-0.02,-0.06,-13.16,-0.94,-2.32,38.99,-4.46,-0.43,38.14,3.48,0.93,-5.63
-4,-2,-121,13,-286,3886,-0.04,-0.07,-12.58,0.13,-2.86,38.86,-4.45,-0.42,38.19,3.43,0.46,-5.05
-2,-1,-119,-5,-253,3910,-0.05,-0.07,-12.05,-0.05,-2.53,39.10,-4.43,-0.42,38.24,3.10,0.30,-4.69
5,1,-136,-9,-281,3860,-0.01,-0.05,-11.67,-0.09,-2.81,38.60,-4.43,-0.40,38.28,2.09,0.01,-2.88
2,-3,-138,11,-314,3905,0.00,-0.07,-11.35,0.11,-3.14,39.05,-4.44,-0.39,38.33,2.58,0.59,-2.38
1,-3,-108,-17,-294,3935,0.01,-0.08,-10.87,-0.17,-2.94,39.35,-4.43,-0.38,38.37,2.74,0.56,-4.45
0,-5,-116,-67,-305,3903,0.01,-0.10,-10.49,-0.67,-3.05,39.03,-4.43,-0.36,38.41,2.89,0.81,-3.39
2,-1,-129,-15,-294,3924,0.02,-0.10,-10.23,-0.15,-2.94,39.24,-4.43,-0.35,38.45,2.60,0.20,-2.03
-1,6,-118,-52,-378,3867,0.01,-0.05,-9.93,-0.52,-3.78,38.67,-4.44,-0.34,38.49,3.06,-0.79,-2.66
-8,7,-47,5,-408,3894,-0.04,-0.00,-9.22,0.05,-4.08,38.94,-4.46,-0.34,38.53,4.04,-0.85,-7.97
-5,5,-23,1,-377,3931,-0.07,0.03,-8.44,0.01,-3.77,39.31,-4.47,-0.34,38.56,3.55,-0.49,-9.22
-4,-2,2,-23,-311,3884,-0.08,0.01,-7.58,-0.23,-3.11,38.84,-4.48,-0.32,38.59,3.36,0.54,-10.48
-7,-2,-3,-49,-330,3900,-0.12,-0.00,-6.84,-0.49,-3.30,39.00,-4.48,-0.31,38.62,3.76,0.50,-9.32
-3,2,-23,-29,-317,3914,-0.13,0.01,-6.30,-0.29,-3.17,39.14,-4.49,-0.29,38.65,3.14,-0.09,-7.08
-3,1,-24,-40,-318,3891,-0.13,0.02,-5.82,-0.40,-3.18,38.91,-4.49,-0.27,38.67,3.14,0.06,-6.51
1,-1,-43,-9,-262,3914,-0.11,0.01,-5.50,-0.09,-2.62,39.14,-4.48,-0.27,38.69,2.55,0.34,-4.58
-3,0,-53,-12,-237,3882,-0.12,0.01,-5.27,-0.12,-2.37,38.82,-4.46,-0.26,38.71,3.14,0.18,-3.51
1,3,-60,-20,-366,3908,-0.10,0.03,-5.11,-0.20,-3.66,39.08,-4.48,-0.25,38.73,2.57,-0.25,-2.76
-3,3,-38,-29,-372,3928,-0.11,0.04,-4.83,-0.29,-3.72,39.28,-4.49,-0.24,38.75,3.18,-0.22,-4.34
-4,0,-11,-28,-346,3908,-0.12,0.04,-4.41,-0.28,-3.46,39.08,-4.50,-0.23,38.77,3.31,0.22,-6.21
-3,-1,-6,-33,-326,3906,-0.13,0.03,-4.01,-0.33,-3.26,39.06,-4.51,-0.21,38.79,3.15,0.34,-6.23
-2,-3,-5,-26,-293,3906,-0.13,0.01,-3.64,-0.26,-2.93,39.06,-4.50,-0.20,38.80,3.00,0.60,-5.95
-1,-3,-6,-38,-295,3899,-0.12,-0.01,-3.31,-0.38,-2.95,38.99,-4.50,-0.18,38.81,2.85,0.55,-5.53
4,-2,-37,-66,-247,3931,-0.08,-0.02,-3.21,-0.66,-2.47,39.31,-4.49,-0.17,38.83,2.15,0.37,-2.80
5,-3,-50,-46,-263,3906,-0.05,-0.04,-3.19,-0.46,-2.63,39.06,-4.48,-0.16,38.84,2.06,0.49,-1.69
2,-1,-34,45,-362,3892,-0.03,-0.04,-3.08,0.45,-3.62,38.92,-4.49,-0.17,38.85,2.56,0.18,-2.93
-1,-2,-20,33,-355,3893,-0.03,-0.05,-2.89,0.33,-3.55,38.93,-4.51,-0.17,38.86,3.03,0.33,-3.93
-3,-3,-4,-14,-302,3915,-0.05,-0.06,-2.63,-0.14,-3.02,39.15,-4.51,-0.16,38.87,3.30,0.44,-5.02
-2,-4,-4,-19,-314,3916,-0.05,-0.08,-2.39,-0.19,-3.14,39.16,-4.51,-0.14,38.88,3.14,0.55,-4.78
-1,-3,-2,-19,-301,3904,-0.06,-0.09,-2.16,-0.19,-3.01,39.04,-4.51,-0.12,38.89,2.98,0.37,-4.72
-2,-3,-2,-22,-307,3910,-0.06,-0.10,-1.96,-0.22,-3.07,39.10,-4.51,-0.11,38.90,3.12,0.34,-4.52
-1,-1,-1,-20,-298,3905,-0.06,-0.10,-1.77,-0.20,-2.98,39.05,-4.50,-0.09,38.91,2.96,0.03,-4.41
0,1,-2,-19,-298,3897,-0.06,-0.08,-1.60,-0.19,-2.98,38.97,-4.49,-0.07,38.91,2.82,-0.25,-4.16
1,3,-3,-25,-301,3916,-0.04,-0.05,-1.46,-0.25,-3.01,39.16,-4.49,-0.06,38.92,2.68,-0.52,-3.94
2,4,-5,-30,-286,3906,-0.03,-0.02,-1.35,-0.30,-2.86,39.06,-4.48,-0.04,38.92,2.56,-0.63,-3.65
8,0,-35,-77,-257,3902,0.02,-0.02,-1.43,-0.77,-2.57,39.02,-4.47,-0.03,38.93,1.73,-0.02,-1.19
14,0,-47,-72,-253,3932,0.11,-0.02,-1.57,-0.72,-2.53,39.32,-4.46,-0.01,38.94,0.96,-0.03,-0.32
7,11,-110,-58,-144,3891,0.14,0.05,-2.08,-0.58,-1.44,38.91,-4.44,-0.01,38.94,2.08,-1.58,4.50
-14,-12,-79,-141,-242,3885,0.04,-0.03,-2.36,-1.41,-2.42,38.85,-4.43,0.01,38.95,5.09,1.77,1.60
-5,6,-100,39,-352,3868,0.01,0.01,-2.73,0.39,-3.52,38.68,-4.45,-0.00,38.96,3.66,-0.89,3.00
-3,5,-71,69,-387,3910,-0.01,0.04,-2.89,0.69,-3.87,39.10,-4.46,-0.01,38.98,3.33,-0.68,0.38
-9,-4,37,8,-403,3881,-0.07,0.01,-2.38,0.08,-4.03,38.81,-4.48,-0.02,38.98,4.16,0.64,-8.25
-14,3,22,45,-443,3906,-0.15,0.03,-2.00,0.45,-4.43,39.06,-4.50,-0.02,38.99,4.79,-0.39,-6.61
0,8,1,-34,-326,3897,-0.13,0.07,-1.80,-0.34,-3.26,38.97,-4.51,-0.01,39.00,2.69,-1.08,-4.62
1,11,-5,-23,-282,3925,-0.11,0.13,-1.65,-0.23,-2.82,39.25,-4.50,0.00,39.01,2.56,-1.43,-3.96
-1,12,-16,-27,-264,3927,-0.11,0.19,-1.58,-0.27,-2.64,39.27,-4.48,0.01,39.01,2.87,-1.48,-2.96
4,12,-24,-54,-283,3885,-0.07,0.25,-1.57,-0.54,-2.83,38.85,-4.47,0.03,39.02,2.17,-1.39,-2.27
11,8,-103,-206,-245,3924,0.00,0.27,-2.04,-2.06,-2.45,39.24,-4.47,0.05,39.03,1.23,-0.75,3.95
3,-4,-135,-183,-68,3919,0.02,0.22,-2.66,-1.83,-0.68,39.19,-4.45,0.06,39.04,2.48,0.98,6.03
-6,-1,-208,-71,-260,3918,-0.02,0.19,-3.66,-0.71,-2.60,39.18,-4.44,0.08,39.05,3.77,0.46,11.21
2,3,-215,-93,-260,3915,-0.00,0.19,-4.61,-0.93,-2.60,39.15,-4.44,0.09,39.07,2.57,-0.16,10.85
-1,5,-149,103,-345,3869,-0.01,0.20,-5.06,1.03,-3.45,38.69,-4.44,0.07,39.09,3.02,-0.44,4.81
5,3,-107,37,-380,3893,0.02,0.20,-5.20,0.37,-3.80,38.93,-4.46,0.06,39.11,2.18,-0.13,1.10
-3,0,20,88,-431,3894,0.00,0.18,-4.56,0.88,-4.31,38.94,-4.47,0.05,39.13,3.37,0.30,-9.01
-6,0,34,109,-430,3919,-0.04,0.16,-3.90,1.09,-4.30,39.19,-4.49,0.04,39.15,3.77,0.27,-9.53
-4,-3,16,5,-345,3908,-0.06,0.13,-3.41,0.05,-3.45,39.08,-4.51,0.04,39.16,3.43,0.67,-7.52
-2,-4,15,-7,-332,3905,-0.06,0.09,-2.98,-0.07,-3.32,39.05,-4.52,0.04,39.17,3.13,0.75,-7.00
-2,0,6,24,-301,3915,-0.07,0.08,-2.64,0.24,-3.01,39.15,-4.52,0.02,39.18,3.11,0.14,-5.90
-4,-2,3,-7,-305,3920,-0.09,0.06,-2.36,-0.07,-3.05,39.20,-4.51,0.03,39.19,3.38,0.40,-5.37
-4,-1,3,-13,-304,3915,-0.10,0.05,-2.11,-0.13,-3.04,39.15,-4.50,0.05,39.20,3.35,0.21,-5.11
-4,0,3,-14,-313,3906,-0.12,0.04,-1.88,-0.14,-3.13,39.06,-4.51,0.07,39.21,3.33,0.04,-4.88
-2,-1,13,-22,-313,3934,-0.12,0.03,-1.61,-0.22,-3.13,39.34,-4.51,0.08,39.21,3.02,0.16,-5.46
2,-3,15,-60,-319,3886,-0.09,0.01,-1.36,-0.60,-3.19,38.86,-4.52,0.10,39.22,2.46,0.41,-5.38
-1,6,23,-11,-300,3911,-0.09,0.05,-1.08,-0.11,-3.00,39.11,-4.50,0.11,39.22,2.91,-0.90,-5.78
-1,6,23,-29,-303,3886,-0.09,0.08,-0.83,-0.29,-3.03,38.86,-4.50,0.13,39.23,2.92,-0.85,-5.53
2,6,15,-9,-315,3909,-0.07,0.11,-0.66,-0.09,-3.15,39.09,-4.52,0.13,39.23,2.51,-0.80,-4.68
1,6,15,-5,-315,3898,-0.05,0.13,-0.50,-0.05,-3.15,38.98,-4.53,0.12,39.23,2.70,-0.75,-4.52
0,5,12,5,-269,3898,-0.05,0.15,-0.38,0.05,-2.69,38.98,-4.52,0.11,39.23,2.85,-0.56,-4.14
0,4,7,-12,-267,3922,-0.04,0.16,-0.30,-0.12,-2.67,39.22,-4.50,0.12,39.23,2.84,-0.39,-3.64
0,3,1,-26,-307,3905,-0.04,0.16,-0.26,-0.26,-3.07,39.05,-4.50,0.14,39.24,2.85,-0.25,-3.09
-1,3,1,-28,-311,3921,-0.04,0.16,-0.23,-0.28,-3.11,39.21,-4.50,0.15,39.24,3.00,-0.25,-3.06
-3,5,5,-14,-317,3905,-0.06,0.18,-0.18,-0.14,-3.17,39.05,-4.52,0.16,39.24,3.29,-0.54,-3.35
-4,6,8,-10,-315,3904,-0.07,0.20,-0.11,-0.10,-3.15,39.04,-4.54,0.16,39.24,3.42,-0.65,-3.53
-6,4,29,13,-331,3914,-0.10,0.20,0.08,0.13,-3.31,39.14,-4.55,0.15,39.24,3.68,-0.33,-5.12
0,0,35,12,-319,3893,-0.09,0.18,0.28,0.12,-3.19,38.93,-4.56,0.13,39.24,2.79,0.25,-5.43
-1,-2,12,-55,-278,3885,-0.09,0.15,0.33,-0.55,-2.78,38.85,-4.55,0.15,39.24,2.94,0.49,-3.43
-2,0,5,-25,-271,3903,-0.09,0.14,0.33,-0.25,-2.71,39.03,-4.53,0.15,39.23,3.08,0.15,-2.84
0,0,-5,-28,-302,3906,-0.08,0.12,0.26,-0.28,-3.02,39.06,-4.52,0.17,39.23,2.79,0.12,-2.06
0,0,-4,-31,-302,3906,-0.08,0.11,0.21,-0.31,-3.02,39.06,-4.52,0.19,39.23,2.80,0.08,-2.19
-1,0,-2,-20,-307,3908,-0.07,0.10,0.18,-0.20,-3.07,39.08,-4.51,0.21,39.23,2.95,0.05,-2.40
-1,1,-2,-24,-312,3909,-0.07,0.10,0.15,-0.24,-3.12,39.09,-4.52,0.22,39.23,2.96,-0.12,-2.43
-5,4,6,-54,-372,3909,-0.10,0.11,0.17,-0.54,-3.72,39.09,-4.54,0.23,39.23,3.53,-0.56,-3.08
-7,6,7,-6,-307,3897,-0.13,0.14,0.20,-0.06,-3.07,38.97,-4.53,0.22,39.23,3.78,-0.81,-3.14
0,2,2,-34,-289,3905,-0.12,0.13,0.19,-0.34,-2.89,39.05,-4.52,0.23,39.23,2.72,-0.21,-2.73
-1,3,2,-31,-315,3903,-0.11,0.14,0.18,-0.31,-3.15,39.03,-4.53,0.25,39.23,2.89,-0.36,-2.73
-4,6,120,46,-400,3937,-0.12,0.16,0.90,0.46,-4.00,39.37,-4.54,0.24,39.23,3.33,-0.77,-12.01
-11,1,137,-56,-321,3908,-0.18,0.15,1.64,-0.56,-3.21,39.08,-4.55,0.26,39.22,4.30,-0.04,-12.70
4,1,50,-126,-217,3913,-0.14,0.14,1.78,-1.26,-2.17,39.13,-4.54,0.27,39.21,2.09,-0.07,-5.19
3,2,21,-37,-256,3897,-0.10,0.14,1.73,-0.37,-2.56,38.97,-4.52,0.28,39.20,2.29,-0.23,-2.78
0,2,5,-35,-301,3917,-0.09,0.14,1.59,-0.35,-3.01,39.17,-4.51,0.30,39.20,2.76,-0.24,-1.57
-2,2,5,-34,-311,3907,-0.10,0.14,1.46,-0.34,-3.11,39.07,-4.51,0.32,39.19,3.06,-0.26,-1.70
-1,1,2,-13,-307,3916,-0.09,0.13,1.33,-0.13,-3.07,39.16,-4.51,0.30,39.19,2.91,-0.11,-1.58
-1,1,2,-15,-311,3915,-0.09,0.12,1.21,-0.15,-3.11,39.15,-4.52,0.28,39.18,2.92,-0.11,-1.70
3,8,58,202,-444,3897,-0.06,0.16,1.44,2.02,-4.44,38.97,-4.53,0.27,39.18,2.37,-1.10,-6.21
4,5,116,120,-439,3894,-0.03,0.17,2.00,1.20,-4.39,38.94,-4.54,0.26,39.17,2.28,-0.61,-10.56
-2,-11,82,-84,-290,3916,-0.04,0.09,2.30,-0.84,-2.90,39.16,-4.53,0.27,39.16,3.18,1.66,-7.38
-5,-5,71,-33,-243,3899,-0.07,0.05,2.51,-0.33,-2.43,38.99,-4.52,0.28,39.15,3.57,0.67,-6.24
-5,0,76,28,-307,3901,-0.09,0.04,2.72,0.28,-3.07,39.01,-4.52,0.26,39.14,3.53,-0.09,-6.45
-7,0,99,27,-328,3894,-0.12,0.04,3.05,0.27,-3.28,38.94,-4.52,0.25,39.13,3.78,-0.09,-8.06
-6,-5,87,-85,-288,3924,-0.15,0.01,3.28,-0.85,-2.88,39.24,-4.52,0.26,39.11,3.58,0.60,-6.82
-2,-5,73,-86,-280,3916,-0.15,-0.03,3.39,-0.86,-2.80,39.16,-4.51,0.28,39.10,2.97,0.53,-5.51
-3,0,93,5,-381,3874,-0.15,-0.02,3.62,0.05,-3.81,38.74,-4.53,0.28,39.09,3.13,-0.22,-6.98
-6,-2,116,-43,-461,3882,-0.17,-0.03,3.97,-0.43,-4.61,38.82,-4.55,0.28,39.07,3.56,0.06,-8.58
-2,4,165,-80,-365,3935,-0.17,-0.00,4.58,-0.80,-3.65,39.35,-4.56,0.30,39.05,2.96,-0.81,-12.12
4,0,167,-66,-349,3924,-0.13,-0.00,5.14,-0.66,-3.49,39.24,-4.57,0.31,39.03,2.13,-0.21,-11.72
-3,5,192,-33,-443,3883,-0.13,0.03,5.80,-0.33,-4.43,38.83,-4.59,0.32,39.01,3.20,-0.92,-13.18
-14,12,211,-24,-375,3886,-0.20,0.10,6.50,-0.24,-3.75,38.86,-4.61,0.32,38.98,4.76,-1.86,-14.08
10,2,213,-81,-302,3905,-0.12,0.10,7.15,-0.81,-3.02,39.05,-4.61,0.34,38.95,1.24,-0.34,-13.59
-1,8,200,-63,-280,3929,-0.12,0.14,7.66,-0.63,-2.80,39.29,-4.60,0.36,38.92,2.93,-1.20,-11.98
-2,2,163,8,-274,3886,-0.12,0.14,7.89,0.08,-2.74,38.86,-4.58,0.35,38.89,3.07,-0.28,-8.62
-6,-1,163,-3,-272,3879,-0.14,0.12,8.09,-0.03,-2.72,38.79,-4.57,0.34,38.86,3.62,0.15,-8.41
-2,3,133,-32,-287,3837,-0.14,0.12,8.09,-0.32,-2.87,38.37,-4.55,0.35,38.83,3.00,-0.46,-5.86
-1,7,142,-25,-341,3912,-0.13,0.15,8.15,-0.25,-3.41,39.12,-4.57,0.36,38.79,2.88,-1.02,-6.56
-4,11,210,21,-474,3849,-0.14,0.21,8.62,0.21,-4.74,38.49,-4.59,0.36,38.76,3.33,-1.53,-11.86
-2,6,240,19,-452,3958,-0.14,0.22,9.22,0.19,-4.52,39.58,-4.60,0.35,38.72,3.04,-0.74,-13.79
6,-2,302,-44,-390,3995,-0.09,0.19,10.14,-0.44,-3.90,39.95,-4.62,0.36,38.68,1.92,0.41,-18.12
-2,5,304,-87,-352,3891,-0.09,0.20,10.98,-0.87,-3.52,38.91,-4.63,0.38,38.64,3.14,-0.64,-17.44
-7,10,324,12,-301,3902,-0.13,0.24,11.86,0.12,-3.01,39.02,-4.62,0.37,38.59,3.84,-1.32,-18.25
-3,3,318,-11,-282,3949,-0.13,0.23,12.61,-0.11,-2.82,39.49,-4.61,0.37,38.54,3.21,-0.27,-16.98
-2,9,259,-40,-217,3838,-0.13,0.27,12.93,-0.40,-2.17,38.38,-4.59,0.38,38.49,3.05,-1.13,-11.66
0,7,245,-11,-244,3952,-0.12,0.28,13.13,-0.11,-2.44,39.52,-4.57,0.38,38.44,2.75,-0.79,-10.26
0,4,197,-23,-252,3882,-0.11,0.28,13.02,-0.23,-2.52,38.82,-4.55,0.38,38.39,2.76,-0.35,-6.31
-2,2,187,20,-274,3906,-0.11,0.26,12.86,0.20,-2.74,39.06,-4.54,0.37,38.34,3.06,-0.06,-5.62
-5,3,203,34,-305,3894,-0.13,0.25,12.81,0.34,-3.05,38.94,-4.54,0.36,38.28,3.48,-0.22,-7.02
-3,-4,200,-15,-283,3929,-0.13,0.20,12.75,-0.15,-2.83,39.29,-4.52,0.36,38.23,3.15,0.75,-6.82
-9,1,211,15,-287,3914,-0.17,0.19,12.76,0.15,-2.87,39.14,-4.52,0.35,38.18,3.99,-0.03,-7.74
-3,6,221,-2,-308,3899,-0.18,0.21,12.83,-0.02,-3.08,38.99,-4.52,0.34,38.13,3.07,-0.75,-8.51
-8,3,266,81,-306,3843,-0.21,0.21,13.17,0.81,-3.06,38.43,-4.52,0.32,38.08,3.77,-0.29,-11.98
-6,-6,279,12,-278,3949,-0.22,0.15,13.56,0.12,-2.78,39.49,-4.50,0.31,38.02,3.43,0.98,-12.69
-6,1,306,-41,-349,3892,-0.24,0.14,14.07,-0.41,-3.49,38.92,-4.52,0.33,37.97,3.42,-0.11,-14.46
-13,9,311,-16,-271,3878,-0.29,0.18,14.56,-0.16,-2.71,38.78,-4.50,0.33,37.91,4.37,-1.25,-14.39
-2,5,295,-6,-282,3880,-0.28,0.19,14.90,-0.06,-2.82,38.80,-4.49,0.32,37.85,2.72,-0.62,-12.68
-6,8,289,-110,-222,3940,-0.28,0.22,15.18,-1.10,-2.22,39.40,-4.48,0.34,37.79,3.30,-1.03,-11.90
-2,3,249,10,-303,3944,-0.27,0.22,15.18,0.10,-3.03,39.44,-4.48,0.33,37.73,2.72,-0.27,-8.50
-6,6,251,-44,-273,3864,-0.28,0.23,15.19,-0.44,-2.73,38.64,-4.46,0.35,37.67,3.30,-0.71,-8.65
0,3,246,-26,-322,3942,-0.25,0.23,15.17,-0.26,-3.22,39.42,-4.48,0.35,37.61,2.45,-0.27,-8.24
1,3,251,-28,-331,3903,-0.22,0.22,15.19,-0.28,-3.31,39.03,-4.50,0.36,37.55,2.37,-0.28,-8.65
0,12,268,-85,-337,3924,-0.20,0.27,15.30,-0.85,-3.37,39.24,-4.51,0.39,37.49,2.57,-1.57,-9.97
-3,7,275,-42,-399,3905,-0.20,0.29,15.45,-0.42,-3.99,39.05,-4.53,0.39,37.43,3.04,-0.79,-10.41
-4,6,308,-12,-320,3953,-0.20,0.30,15.78,-0.12,-3.20,39.53,-4.53,0.38,37.36,3.19,-0.62,-12.87
-2,5,314,0,-249,3958,-0.19,0.30,16.12,0.00,-2.49,39.58,-4.52,0.38,37.30,2.89,-0.46,-13.03
0,6,356,50,-334,3931,-0.17,0.30,16.68,0.50,-3.34,39.31,-4.52,0.37,37.23,2.62,-0.59,-16.02
-7,5,363,19,-367,3885,-0.20,0.30,17.23,0.19,-3.67,38.85,-4.54,0.37,37.16,3.65,-0.44,-16.06
-2,6,387,-48,-344,3875,-0.19,0.31,17.86,-0.48,-3.44,38.75,-4.55,0.38,37.09,2.91,-0.59,-17.45
-8,10,379,-62,-327,3881,-0.22,0.34,18.39,-0.62,-3.27,38.81,-4.56,0.41,37.02,3.78,-1.16,-16.24
2,13,340,-53,-340,3876,-0.19,0.39,18.62,-0.53,-3.40,38.76,-4.58,0.43,36.95,2.33,-1.55,-12.69
-9,15,342,-78,-313,3849,-0.22,0.44,18.85,-0.78,-3.13,38.49,-4.58,0.45,36.87,3.94,-1.77,-12.63
-1,6,330,-34,-282,3912,-0.21,0.43,18.98,-0.34,-2.82,39.12,-4.56,0.46,36.80,2.74,-0.42,-11.48
-7,11,341,13,-325,3929,-0.23,0.46,19.16,0.13,-3.25,39.29,-4.57,0.45,36.72,3.61,-1.13,-12.23
-9,-13,418,-57,-147,3839,-0.26,0.33,19.79,-0.57,-1.47,38.39,-4.55,0.46,36.64,3.85,2.29,-18.11
-17,-12,472,-54,-112,3820,-0.34,0.22,20.69,-0.54,-1.12,38.20,-4.53,0.47,36.56,4.91,1.94,-21.77
-15,-12,699,69,-388,3938,-0.40,0.13,22.89,0.69,-3.88,39.38,-4.54,0.47,36.47,4.51,1.76,-38.80
-23,-4,762,25,-362,3921,-0.50,0.09,25.25,0.25,-3.62,39.21,-4.56,0.46,36.37,5.55,0.48,-41.76
-28,-15,974,117,-477,3976,-0.62,-0.01,28.66,1.17,-4.77,39.76,-4.57,0.46,36.25,6.10,1.97,-56.28
-43,-23,1042,129,-538,3879,-0.82,-0.15,32.15,1.29,-5.38,38.79,-4.59,0.46,36.12,8.03,2.94,-58.53
-101,-82,1157,192,-441,3931,-1.35,-0.63,36.00,1.92,-4.41,39.31,-4.60,0.45,35.98,15.90,11.04,-64.41
-119,-89,1179,203,-475,3906,-1.94,-1.11,39.59,2.03,-4.75,39.06,-4.62,0.44,35.82,17.57,11.23,-62.65
-101,-54,1218,182,-320,3873,-2.37,-1.33,43.06,1.82,-3.20,38.73,-4.63,0.43,35.65,14.05,5.50,-62.46
-114,-72,1172,94,-224,3896,-2.82,-1.64,45.90,0.94,-2.24,38.96,-4.63,0.43,35.47,15.19,7.68,-55.70
-85,-66,1021,5,-186,3950,-3.06,-1.88,47.54,0.05,-1.86,39.50,-4.62,0.43,35.28,10.32,6.33,-41.25
-61,-39,970,-24,-155,3958,-3.13,-1.93,48.70,-0.24,-1.55,39.58,-4.61,0.44,35.08,6.54,2.11,-35.74
-26,-6,768,-113,-245,3894,-2.97,-1.77,48.52,-1.13,-2.45,38.94,-4.61,0.46,34.89,1.48,-2.65,-18.80
-20,5,719,-129,-258,3873,-2.80,-1.56,48.05,-1.29,-2.58,38.73,-4.61,0.49,34.70,0.89,-3.96,-15.11
11,18,542,-232,-303,3937,-2.45,-1.30,46.55,-2.32,-3.03,39.37,-4.62,0.51,34.51,-3.19,-5.47,-1.60
-2,13,489,-171,-406,3878,-2.22,-1.09,44.88,-1.71,-4.06,38.78,-4.64,0.54,34.33,-0.77,-4.34,1.22
4,11,307,-205,-360,3930,-1.97,-0.91,42.27,-2.05,-3.60,39.30,-4.65,0.57,34.16,-1.22,-3.73,14.03
9,23,271,-210,-358,3910,-1.72,-0.68,39.69,-2.10,-3.58,39.10,-4.66,0.59,34.00,-1.52,-5.15,14.51
3,11,211,-106,-291,3910,-1.53,-0.55,37.01,-1.06,-2.91,39.10,-4.65,0.62,33.85,-0.25,-3.09,16.91
0,8,187,-87,-298,3900,-1.38,-0.44,34.45,-0.87,-2.98,39.00,-4.65,0.65,33.72,0.49,-2.46,16.38
0,9,146,-30,-290,3880,-1.24,-0.34,31.90,-0.30,-2.90,38.80,-4.64,0.65,33.59,0.73,-2.43,17.30
2,13,144,-34,-308,3910,-1.10,-0.23,29.58,-0.34,-3.08,39.10,-4.63,0.64,33.47,0.67,-2.82,15.16
-4,-2,117,-112,-238,3895,-1.02,-0.22,27.34,-1.12,-2.38,38.95,-4.62,0.66,33.36,1.74,-0.53,15.20
-2,-3,104,-115,-256,3912,-0.93,-0.22,25.24,-1.15,-2.56,39.12,-4.61,0.68,33.26,1.59,-0.38,14.20
1,4,33,-64,-287,3910,-0.83,-0.17,22.92,-0.64,-2.87,39.10,-4.59,0.70,33.17,1.31,-1.38,17.89
2,3,22,-62,-304,3915,-0.73,-0.13,20.76,-0.62,-3.04,39.15,-4.59,0.72,33.09,1.32,-1.17,16.66
-2,1,7,-32,-325,3907,-0.67,-0.11,18.73,-0.32,-3.25,39.07,-4.60,0.71,33.01,2.05,-0.83,15.90
-2,1,6,-18,-330,3904,-0.62,-0.10,16.89,-0.18,-3.30,39.04,-4.61,0.70,32.95,2.16,-0.79,14.14
-5,-3,24,-4,-358,3917,-0.59,-0.11,15.35,-0.04,-3.58,39.17,-4.62,0.69,32.88,2.69,-0.19,11.07
-7,-6,39,-6,-370,3920,-0.57,-0.13,14.05,-0.06,-3.70,39.20,-4.64,0.68,32.83,3.03,0.23,8.50
-20,2,102,42,-433,3874,-0.64,-0.11,13.27,0.42,-4.33,38.74,-4.65,0.68,32.78,4.90,-0.94,2.38
2,8,111,78,-457,3998,-0.56,-0.05,12.62,0.78,-4.57,39.98,-4.67,0.67,32.73,1.70,-1.74,0.97
-4,-6,166,-6,-330,3833,-0.53,-0.08,12.37,-0.06,-3.30,38.33,-4.68,0.66,32.68,2.68,0.34,-3.93
-5,-6,186,55,-373,3928,-0.51,-0.11,12.27,0.55,-3.73,39.28,-4.69,0.64,32.63,2.88,0.30,-5.73
-6,0,238,17,-367,3945,-0.49,-0.10,12.49,0.17,-3.67,39.45,-4.70,0.63,32.58,3.06,-0.59,-9.90
1,8,249,-2,-391,3889,-0.44,-0.04,12.76,-0.02,-3.91,38.89,-4.72,0.63,32.53,2.11,-1.70,-10.56
2,9,280,-62,-356,3896,-0.38,0.02,13.19,-0.62,-3.56,38.96,-4.73,0.64,32.47,2.07,-1.75,-12.75
-10,6,288,-35,-410,3903,-0.40,0.06,13.63,-0.35,-4.10,39.03,-4.75,0.64,32.42,3.87,-1.23,-12.99
-4,12,315,-26,-339,3910,-0.39,0.12,14.19,-0.26,-3.39,39.10,-4.77,0.63,32.36,2.99,-2.02,-14.71
0,13,330,-2,-366,3859,-0.35,0.19,14.78,-0.02,-3.66,38.59,-4.78,0.63,32.31,2.46,-2.04,-15.38
2,21,363,48,-444,3907,-0.30,0.30,15.52,0.48,-4.44,39.07,-4.79,0.62,32.24,2.26,-3.06,-17.43
-3,13,371,23,-428,3908,-0.29,0.35,16.23,0.23,-4.28,39.08,-4.81,0.62,32.18,3.05,-1.74,-17.39
5,25,417,115,-460,3961,-0.23,0.47,17.15,1.15,-4.60,39.61,-4.82,0.61,32.11,1.95,-3.35,-20.36
8,25,430,83,-394,3907,-0.16,0.57,18.06,0.83,-3.94,39.07,-4.83,0.60,32.04,1.63,-3.15,-20.54
2,14,511,59,-499,3950,-0.13,0.60,19.37,0.59,-4.99,39.50,-4.85,0.60,31.96,2.60,-1.42,-26.08
5,23,537,23,-449,3927,-0.09,0.68,20.71,0.23,-4.49,39.27,-4.86,0.60,31.88,2.24,-2.65,-26.94
3,24,608,-45,-441,3861,-0.06,0.76,22.35,-0.45,-4.41,38.61,-4.88,0.61,31.79,2.60,-2.66,-31.30
-42,-14,630,-86,-217,3751,-0.31,0.60,23.96,-0.86,-2.17,37.51,-4.86,0.63,31.70,8.99,2.83,-31.55
-3,16,627,-73,-376,3789,-0.30,0.64,25.38,-0.73,-3.76,37.89,-4.88,0.65,31.60,3.08,-1.69,-29.85
14,23,617,-158,-379,3936,-0.18,0.71,26.61,-1.58,-3.79,39.36,-4.88,0.68,31.49,0.70,-2.64,-27.76
-8,5,594,-69,-294,3896,-0.21,0.67,27.57,-0.69,-2.94,38.96,-4.87,0.70,31.38,3.99,0.02,-24.84
-8,10,583,-89,-252,3897,-0.24,0.67,28.37,-0.89,-2.52,38.97,-4.85,0.72,31.27,3.93,-0.77,-23.10
-7,14,526,-107,-254,3944,-0.26,0.68,28.74,-1.07,-2.54,39.44,-4.84,0.75,31.15,3.73,-1.36,-17.89
-5,14,507,-98,-206,3887,-0.26,0.70,28.96,-0.98,-2.06,38.87,-4.82,0.77,31.04,3.41,-1.34,-16.05
1,7,422,-89,-273,3903,-0.23,0.67,28.64,-0.89,-2.73,39.03,-4.80,0.79,30.92,2.54,-0.34,-9.17
-11,3,415,-54,-271,3894,-0.28,0.62,28.31,-0.54,-2.71,38.94,-4.78,0.80,30.81,4.28,0.17,-8.90
-22,-5,420,-5,-292,3868,-0.38,0.53,28.04,-0.05,-2.92,38.68,-4.77,0.80,30.70,5.75,1.22,-9.59
-3,12,424,-28,-354,3983,-0.36,0.55,27.82,-0.28,-3.54,39.83,-4.78,0.79,30.59,2.90,-1.33,-10.13
-2,4,424,-148,-363,3911,-0.34,0.52,27.62,-1.48,-3.63,39.11,-4.79,0.82,30.48,2.80,-0.18,-10.32
-1,8,417,-169,-372,3882,-0.31,0.52,27.41,-1.69,-3.72,38.82,-4.80,0.85,30.37,2.70,-0.82,-9.94
-8,9,402,-117,-410,3910,-0.33,0.52,27.12,-1.17,-4.10,39.10,-4.81,0.87,30.26,3.74,-0.98,-8.95
-5,15,403,-127,-396,3882,-0.33,0.56,26.86,-1.27,-3.96,38.82,-4.82,0.90,30.15,3.30,-1.84,-9.29
-9,10,380,-4,-353,3937,-0.35,0.57,26.50,-0.04,-3.53,39.37,-4.83,0.89,30.05,3.87,-1.06,-7.70
4,16,376,-70,-342,3904,-0.29,0.61,26.14,-0.70,-3.42,39.04,-4.84,0.91,29.95,2.01,-1.92,-7.71
-12,1,370,30,-330,3927,-0.33,0.55,25.78,0.30,-3.30,39.27,-4.84,0.90,29.84,4.36,0.28,-7.55
-11,-2,369,-14,-308,3897,-0.37,0.48,25.46,-0.14,-3.08,38.97,-4.84,0.90,29.74,4.14,0.61,-7.79
-4,7,353,-29,-320,3889,-0.35,0.48,25.06,-0.29,-3.20,38.89,-4.83,0.89,29.64,3.10,-0.76,-6.82
-5,7,350,-15,-337,3893,-0.35,0.47,24.69,-0.15,-3.37,38.93,-4.83,0.88,29.54,3.26,-0.77,-6.93
-5,1,322,-14,-270,3860,-0.35,0.43,24.19,-0.14,-2.70,38.60,-4.82,0.88,29.45,3.26,0.07,-5.06
-2,6,310,-83,-359,3894,-0.32,0.43,23.66,-0.83,-3.59,38.94,-4.83,0.90,29.35,2.85,-0.72,-4.57
-8,9,310,-11,-357,3888,-0.34,0.44,23.18,-0.11,-3.57,38.88,-4.84,0.90,29.26,3.74,-1.15,-5.04
-1,13,308,-60,-326,3894,-0.31,0.47,22.74,-0.60,-3.26,38.94,-4.82,0.90,29.17,2.71,-1.70,-5.30
-6,7,310,-59,-417,3872,-0.32,0.47,22.36,-0.59,-4.17,38.72,-4.84,0.91,29.08,3.48,-0.79,-5.85
4,3,309,-4,-346,3964,-0.26,0.44,22.01,-0.04,-3.46,39.64,-4.85,0.90,28.99,2.06,-0.23,-6.11
-4,2,333,5,-346,3973,-0.26,0.41,21.84,0.05,-3.46,39.73,-4.85,0.89,28.91,3.28,-0.13,-8.31
0,11,333,-16,-352,3884,-0.23,0.43,21.69,-0.16,-3.52,38.84,-4.86,0.88,28.82,2.73,-1.45,-8.46
3,11,346,-1,-262,3873,-0.19,0.46,21.63,-0.01,-2.62,38.73,-4.84,0.88,28.73,2.34,-1.41,-9.61
-1,-2,356,39,-257,3953,-0.18,0.40,21.64,0.39,-2.57,39.53,-4.83,0.88,28.65,2.96,0.47,-10.44
-10,7,363,16,-339,3889,-0.22,0.40,21.69,0.16,-3.39,38.89,-4.83,0.87,28.56,4.26,-0.89,-10.98
-6,2,381,-23,-300,3948,-0.24,0.37,21.84,-0.23,-3.00,39.48,-4.82,0.86,28.47,3.61,-0.17,-12.34
-11,8,414,6,-371,3877,-0.28,0.39,22.18,0.06,-3.71,38.77,-4.83,0.86,28.39,4.30,-1.06,-14.79
-14,5,416,-20,-380,3943,-0.34,0.38,22.50,-0.20,-3.80,39.43,-4.84,0.85,28.30,4.66,-0.62,-14.63
-12,7,427,7,-330,3939,-0.38,0.38,22.86,0.07,-3.30,39.39,-4.84,0.84,28.21,4.28,-0.91,-15.20
-12,5,434,3,-349,3894,-0.41,0.38,23.22,0.03,-3.49,38.94,-4.85,0.84,28.11,4.22,-0.61,-15.43
-17,6,435,-2,-301,3880,-0.47,0.37,23.55,-0.02,-3.01,38.80,-4.84,0.83,28.02,4.86,-0.76,-15.17
-10,6,440,9,-378,3949,-0.49,0.37,23.88,0.09,-3.78,39.49,-4.85,0.82,27.92,3.78,-0.76,-15.26
-13,1,442,13,-345,3873,-0.52,0.34,24.19,0.13,-3.45,38.73,-4.86,0.81,27.83,4.18,-0.05,-15.11
1,17,441,-14,-314,3904,-0.46,0.41,24.46,-0.14,-3.14,39.04,-4.85,0.81,27.73,2.15,-2.36,-14.75
-2,6,448,-29,-437,3951,-0.43,0.41,24.75,-0.29,-4.37,39.51,-4.87,0.81,27.63,2.68,-0.69,-15.05
-3,4,444,-58,-413,3927,-0.40,0.39,24.98,-0.58,-4.13,39.27,-4.89,0.82,27.53,2.89,-0.43,-14.47
1,17,451,-73,-298,3952,-0.36,0.46,25.23,-0.73,-2.98,39.52,-4.87,0.84,27.43,2.36,-2.30,-14.80
-2,18,480,-78,-237,3881,-0.33,0.52,25.64,-0.78,-2.37,38.81,-4.85,0.86,27.33,2.84,-2.34,-16.84
3,13,519,-16,-385,3911,-0.28,0.55,26.24,-0.16,-3.85,39.11,-4.86,0.86,27.23,2.19,-1.53,-19.53
-10,17,529,-10,-371,3890,-0.31,0.60,26.84,-0.10,-3.71,38.90,-4.88,0.85,27.12,4.12,-2.05,-19.77
-4,26,568,76,-302,3869,-0.31,0.69,27.62,0.76,-3.02,38.69,-4.87,0.85,27.01,3.21,-3.23,-22.28
-10,12,586,4,-327,3899,-0.34,0.70,28.44,0.04,-3.27,38.99,-4.87,0.84,26.90,4.07,-1.09,-22.98
-13,9,651,-15,-396,3961,-0.38,0.68,29.56,-0.15,-3.96,39.61,-4.88,0.84,26.78,4.45,-0.66,-27.35
-11,-2,658,5,-362,3878,-0.41,0.60,30.62,0.05,-3.62,38.78,-4.89,0.84,26.66,4.10,0.87,-26.87
-18,8,670,-121,-362,3884,-0.48,0.59,31.65,-1.21,-3.62,38.84,-4.90,0.87,26.53,5.04,-0.69,-26.85
-5,10,657,-129,-360,3939,-0.46,0.59,32.49,-1.29,-3.60,39.39,-4.91,0.90,26.40,3.10,-1.02,-24.90
-8,6,612,-67,-281,3871,-0.47,0.57,32.97,-0.67,-2.81,38.71,-4.89,0.92,26.27,3.54,-0.46,-20.59
-15,9,607,-71,-262,3916,-0.51,0.57,33.38,-0.71,-2.62,39.16,-4.87,0.93,26.14,4.51,-0.93,-19.75
-12,10,579,-44,-243,3912,-0.53,0.57,33.57,-0.44,-2.43,39.12,-4.85,0.94,26.00,4.00,-1.08,-17.17
-13,13,569,-90,-283,3913,-0.56,0.59,33.69,-0.90,-2.83,39.13,-4.83,0.96,25.87,4.10,-1.51,-16.20
1,12,528,-58,-185,3925,-0.50,0.61,33.54,-0.58,-1.85,39.25,-4.82,0.98,25.74,2.06,-1.34,-12.87
-12,0,506,-32,-245,3906,-0.52,0.55,33.27,-0.32,-2.45,39.06,-4.80,0.98,25.60,3.99,0.37,-11.26
-9,8,448,-108,-292,3905,-0.52,0.54,32.68,-1.08,-2.92,39.05,-4.79,1.01,25.47,3.52,-0.88,-6.93
6,4,431,-114,-272,3949,-0.43,0.51,32.04,-1.14,-2.72,39.49,-4.77,1.03,25.35,1.39,-0.34,-6.13
-5,13,396,-118,-306,3913,-0.42,0.54,31.25,-1.18,-3.06,39.13,-4.76,1.06,25.22,3.08,-1.68,-3.94
-8,5,386,-114,-253,3895,-0.43,0.52,30.48,-1.14,-2.53,38.95,-4.75,1.08,25.10,3.52,-0.51,-3.86
-1,11,353,-88,-299,3928,-0.39,0.53,29.58,-0.88,-2.99,39.28,-4.73,1.10,24.98,2.51,-1.41,-1.96
-6,2,341,-62,-257,3945,-0.39,0.49,28.71,-0.62,-2.57,39.45,-4.71,1.11,24.87,3.26,-0.12,-1.81
-7,6,333,-38,-255,3889,-0.39,0.48,27.87,-0.38,-2.55,38.89,-4.70,1.11,24.75,3.40,-0.76,-1.97
-3,5,325,-69,-281,3947,-0.37,0.46,27.06,-0.69,-2.81,39.47,-4.68,1.12,24.65,2.81,-0.64,-2.09
0,8,312,-79,-357,3865,-0.33,0.46,26.26,-0.79,-3.57,38.65,-4.69,1.13,24.54,2.43,-1.10,-1.79
-8,7,312,-91,-314,3904,-0.35,0.46,25.54,-0.91,-3.14,39.04,-4.69,1.16,24.44,3.62,-0.97,-2.51
-6,1,318,-53,-325,3937,-0.35,0.42,24.92,-0.53,-3.25,39.37,-4.69,1.15,24.34,3.31,-0.13,-3.63
-10,6,321,-101,-350,3912,-0.38,0.41,24.39,-1.01,-3.50,39.12,-4.70,1.17,24.24,3.89,-0.91,-4.41
-12,8,335,-95,-373,3925,-0.41,0.42,23.99,-0.95,-3.73,39.25,-4.72,1.19,24.15,4.14,-1.21,-5.99
-7,7,353,-102,-342,3904,-0.41,0.42,23.75,-1.02,-3.42,39.04,-4.73,1.21,24.06,3.38,-1.07,-7.75
-4,-1,411,-96,-312,3901,-0.40,0.37,23.88,-0.96,-3.12,39.01,-4.72,1.23,23.96,2.94,0.04,-12.53
-7,-7,430,-61,-263,3887,-0.40,0.29,24.11,-0.61,-2.63,38.87,-4.70,1.23,23.86,3.39,0.81,-13.89
-5,-1,468,-86,-316,3885,-0.39,0.26,24.56,-0.86,-3.16,38.85,-4.68,1.25,23.77,3.09,-0.19,-16.66
-9,-4,479,-96,-281,3920,-0.41,0.21,25.02,-0.96,-2.81,39.20,-4.67,1.27,23.67,3.66,0.17,-17.12
-11,-3,514,-85,-317,3917,-0.43,0.17,25.66,-0.85,-3.17,39.17,-4.65,1.27,23.56,3.90,-0.05,-19.44
-3,-3,524,-51,-280,3896,-0.41,0.13,26.29,-0.51,-2.80,38.96,-4.64,1.26,23.46,2.72,-0.12,-19.65
-9,-5,555,0,-361,3937,-0.42,0.09,27.04,0.00,-3.61,39.37,-4.64,1.25,23.35,3.61,0.11,-21.51
-1,-7,547,-16,-352,3955,-0.39,0.04,27.68,-0.16,-3.52,39.55,-4.65,1.25,23.24,2.46,0.33,-20.19
2,-10,501,-35,-313,3964,-0.34,-0.03,27.97,-0.35,-3.13,39.64,-4.65,1.24,23.13,2.10,0.67,-15.99
-14,-1,491,-19,-366,3908,-0.39,-0.03,28.16,-0.19,-3.66,39.08,-4.66,1.23,23.02,4.45,-0.70,-14.94
-1,3,482,-89,-345,3890,-0.35,-0.01,28.29,-0.89,-3.45,38.90,-4.67,1.24,22.90,2.54,-1.28,-14.04
-5,-2,490,-77,-373,3877,-0.35,-0.02,28.45,-0.77,-3.73,38.77,-4.69,1.25,22.79,3.17,-0.54,-14.55
-12,6,506,-18,-384,3884,-0.39,0.02,28.69,-0.18,-3.84,38.84,-4.70,1.25,22.68,4.17,-1.69,-15.66
-13,2,499,13,-405,3896,-0.43,0.03,28.86,0.13,-4.05,38.96,-4.71,1.24,22.56,4.26,-1.06,-14.88
-14,4,480,-48,-382,3859,-0.47,0.05,28.91,-0.48,-3.82,38.59,-4.73,1.24,22.45,4.34,-1.33,-13.22
-9,7,470,-103,-390,3917,-0.48,0.09,28.88,-1.03,-3.90,39.17,-4.75,1.26,22.33,3.57,-1.72,-12.39
-8,7,414,-95,-298,3939,-0.48,0.12,28.52,-0.95,-2.98,39.39,-4.73,1.27,22.22,3.41,-1.67,-8.00
-4,11,398,-66,-323,3878,-0.46,0.18,28.10,-0.66,-3.23,38.78,-4.73,1.26,22.11,2.84,-2.17,-7.06
3,10,393,-5,-347,3887,-0.39,0.22,27.68,-0.05,-3.47,38.87,-4.73,1.26,22.00,1.90,-1.94,-7.04
-3,8,391,-41,-414,3912,-0.37,0.25,27.30,-0.41,-4.14,39.12,-4.75,1.26,21.89,2.86,-1.58,-7.25
-8,11,389,-59,-410,3941,-0.38,0.29,26.94,-0.59,-4.10,39.41,-4.77,1.26,21.78,3.61,-1.97,-7.43
0,4,395,-12,-430,3947,-0.34,0.28,26.66,-0.12,-4.30,39.47,-4.78,1.26,21.67,2.47,-0.91,-8.22
-7,7,449,2,-391,3910,-0.35,0.30,26.73,0.02,-3.91,39.10,-4.79,1.26,21.57,3.53,-1.33,-12.71
-12,8,454,70,-383,3898,-0.39,0.32,26.83,0.70,-3.83,38.98,-4.79,1.25,21.46,4.23,-1.45,-13.03
-7,8,450,7,-267,3905,-0.39,0.33,26.89,0.07,-2.67,39.05,-4.78,1.25,21.35,3.45,-1.41,-12.63
-4,6,454,-24,-256,3926,-0.38,0.34,26.97,-0.24,-2.56,39.26,-4.77,1.24,21.25,3.01,-1.10,-12.88
-14,-1,440,-127,-302,3881,-0.43,0.30,26.96,-1.27,-3.02,38.81,-4.76,1.27,21.14,4.44,-0.12,-11.70
-3,8,436,-143,-315,3894,-0.40,0.32,26.92,-1.43,-3.15,38.94,-4.76,1.30,21.03,2.81,-1.48,-11.39
-3,9,424,-118,-296,3902,-0.38,0.34,26.82,-1.18,-2.96,39.02,-4.74,1.32,20.92,2.84,-1.60,-10.47
-2,9,439,-86,-332,3922,-0.35,0.36,26.81,-0.86,-3.32,39.22,-4.76,1.32,20.82,2.74,-1.57,-11.73
-9,8,411,-21,-316,3903,-0.37,0.37,26.64,-0.21,-3.16,39.03,-4.75,1.31,20.71,3.77,-1.38,-9.53
-8,9,404,-6,-327,3884,-0.39,0.39,26.44,-0.06,-3.27,38.84,-4.75,1.31,20.61,3.60,-1.50,-9.13
0,10,364,41,-255,3915,-0.35,0.41,26.01,0.41,-2.55,39.15,-4.74,1.30,20.50,2.44,-1.61,-6.16
-5,7,351,51,-233,3936,-0.34,0.41,25.55,0.51,-2.33,39.36,-4.73,1.29,20.40,3.21,-1.14,-5.51
-9,-8,272,81,-314,3925,-0.36,0.32,24.66,0.81,-3.14,39.25,-4.73,1.29,20.30,3.78,0.98,0.29
-9,-10,251,18,-302,3916,-0.38,0.23,23.72,0.18,-3.02,39.16,-4.73,1.28,20.21,3.74,1.12,1.14
-4,-13,160,-141,-258,3928,-0.37,0.13,22.33,-1.41,-2.58,39.28,-4.71,1.30,20.12,2.99,1.38,7.45
-2,-12,144,-132,-208,3953,-0.34,0.04,20.97,-1.32,-2.08,39.53,-4.69,1.31,20.03,2.72,1.06,7.45
-8,-66,110,-200,-252,3910,-0.36,-0.36,19.55,-2.00,-2.52,39.10,-4.68,1.33,19.96,3.60,8.53,8.91
-7,-39,136,-188,-343,3841,-0.36,-0.57,18.42,-1.88,-3.43,38.41,-4.69,1.35,19.88,3.44,4.03,5.58
-6,-3,170,-126,-294,3909,-0.36,-0.53,17.62,-1.26,-2.94,39.09,-4.68,1.37,19.81,3.28,-1.40,1.90
-7,-9,169,-92,-290,3894,-0.37,-0.53,16.89,-0.92,-2.90,38.94,-4.66,1.37,19.74,3.41,-0.50,1.25
-11,0,232,-75,-286,3882,-0.40,-0.48,16.61,-0.75,-2.86,38.82,-4.64,1.37,19.68,3.96,-1.77,-4.36
-5,8,255,-65,-284,3936,-0.39,-0.38,16.51,-0.65,-2.84,39.36,-4.63,1.36,19.61,3.05,-2.80,-6.41
-8,12,311,-6,-256,3930,-0.40,-0.27,16.75,-0.06,-2.56,39.30,-4.62,1.35,19.54,3.48,-3.20,-10.90
-9,10,330,-13,-241,3905,-0.42,-0.18,17.09,-0.13,-2.41,39.05,-4.61,1.34,19.48,3.60,-2.73,-12.16
-5,7,359,13,-302,3880,-0.40,-0.12,17.57,0.13,-3.02,38.80,-4.60,1.33,19.41,3.01,-2.15,-14.13
-8,9,357,43,-317,3941,-0.41,-0.05,17.99,0.43,-3.17,39.41,-4.60,1.31,19.33,3.45,-2.32,-13.54
-3,10,333,64,-334,3917,-0.39,0.01,18.22,0.64,-3.34,39.17,-4.61,1.30,19.26,2.73,-2.35,-11.27
-14,10,327,91,-330,3938,-0.44,0.07,18.40,0.91,-3.30,39.38,-4.61,1.29,19.19,4.32,-2.23,-10.58
-11,0,244,67,-351,3881,-0.46,0.07,18.05,0.67,-3.51,38.81,-4.61,1.28,19.12,3.83,-0.71,-3.89
-4,5,213,27,-352,3920,-0.44,0.09,17.54,0.27,-3.52,39.20,-4.62,1.27,19.05,2.80,-1.42,-1.77
-7,4,199,29,-358,3927,-0.44,0.10,17.00,0.29,-3.58,39.27,-4.62,1.25,18.98,3.27,-1.23,-1.12
-4,7,206,28,-385,3891,-0.42,0.14,16.56,0.28,-3.85,38.91,-4.63,1.24,18.91,2.85,-1.62,-2.16
-11,5,210,41,-374,3894,-0.44,0.15,16.18,0.41,-3.74,38.94,-4.64,1.23,18.85,3.88,-1.28,-2.87
-4,7,213,3,-374,3887,-0.42,0.18,15.86,0.03,-3.74,38.87,-4.65,1.22,18.79,2.85,-1.53,-3.44
-4,4,262,37,-397,3915,-0.41,0.19,15.87,0.37,-3.97,39.15,-4.66,1.21,18.72,2.89,-1.05,-7.57
-10,8,278,12,-494,3899,-0.43,0.22,15.98,0.12,-4.94,38.99,-4.68,1.21,18.66,3.78,-1.61,-8.81
-4,9,302,-44,-394,3916,-0.41,0.25,16.23,-0.44,-3.94,39.16,-4.69,1.21,18.59,2.91,-1.70,-10.60
-2,8,301,-13,-367,3896,-0.38,0.27,16.44,-0.13,-3.67,38.96,-4.71,1.20,18.53,2.66,-1.49,-10.29
4,16,294,-23,-367,3890,-0.32,0.34,16.59,-0.23,-3.67,38.90,-4.72,1.19,18.46,1.87,-2.58,-9.55
-1,11,280,-50,-377,3907,-0.29,0.38,16.64,-0.50,-3.77,39.07,-4.73,1.19,18.40,2.69,-1.76,-8.31
-1,6,226,-17,-344,3920,-0.27,0.38,16.35,-0.17,-3.44,39.20,-4.74,1.18,18.33,2.74,-0.99,-4.01
-5,7,219,-49,-369,3873,-0.27,0.38,16.05,-0.49,-3.69,38.73,-4.75,1.18,18.27,3.35,-1.13,-3.72
-3,4,215,-59,-374,3887,-0.26,0.37,15.76,-0.59,-3.74,38.87,-4.77,1.18,18.21,3.07,-0.70,-3.67
5,9,214,-98,-369,3918,-0.21,0.39,15.49,-0.98,-3.69,39.18,-4.79,1.19,18.15,1.97,-1.44,-3.85
7,10,216,-94,-410,3928,-0.14,0.41,15.26,-0.94,-4.10,39.28,-4.80,1.20,18.09,1.79,-1.55,-4.25
-7,2,216,-91,-405,3880,-0.17,0.38,15.05,-0.91,-4.05,38.80,-4.82,1.21,18.03,3.88,-0.39,-4.45
-10,8,214,-75,-401,3911,-0.22,0.39,14.85,-0.75,-4.01,39.11,-4.84,1.21,17.97,4.27,-1.29,-4.48
-7,2,211,-97,-385,3864,-0.24,0.36,14.65,-0.97,-3.85,38.64,-4.86,1.22,17.91,3.79,-0.43,-4.42
-8,9,205,-46,-365,3903,-0.26,0.38,14.44,-0.46,-3.65,39.03,-4.87,1.22,17.85,3.90,-1.46,-4.12
-8,6,206,-44,-309,3948,-0.28,0.38,14.25,-0.44,-3.09,39.48,-4.86,1.21,17.80,3.85,-1.00,-4.39
-4,4,194,-100,-360,3896,-0.28,0.37,14.01,-1.00,-3.60,38.96,-4.87,1.22,17.74,3.26,-0.73,-3.61
-6,2,191,-86,-369,3879,-0.29,0.34,13.77,-0.86,-3.69,38.79,-4.89,1.23,17.69,3.56,-0.47,-3.59
-3,6,194,-84,-326,3883,-0.28,0.34,13.58,-0.84,-3.26,38.83,-4.87,1.24,17.63,3.11,-1.08,-4.04
-3,5,194,-103,-324,3929,-0.27,0.34,13.40,-1.03,-3.24,39.29,-4.86,1.26,17.58,3.12,-0.95,-4.21
-5,9,197,-80,-307,3935,-0.27,0.36,13.27,-0.80,-3.07,39.35,-4.85,1.26,17.52,3.41,-1.53,-4.60
-6,12,205,-64,-274,3886,-0.28,0.40,13.19,-0.64,-2.74,38.86,-4.83,1.26,17.47,3.53,-1.91,-5.35
-7,25,217,-78,-362,3908,-0.30,0.51,13.19,-0.78,-3.62,39.08,-4.85,1.26,17.42,3.67,-3.69,-6.36
-3,30,233,-87,-349,3899,-0.28,0.64,13.30,-0.87,-3.49,38.99,-4.86,1.27,17.37,3.09,-4.21,-7.61
-4,48,284,-51,-334,3921,-0.28,0.87,13.70,-0.51,-3.34,39.21,-4.86,1.26,17.31,3.25,-6.53,-11.52
-7,49,287,-112,-333,3870,-0.30,1.08,14.08,-1.12,-3.33,38.70,-4.87,1.29,17.26,3.69,-6.31,-11.39
-4,26,275,-60,-296,3896,-0.29,1.13,14.35,-0.60,-2.96,38.96,-4.85,1.29,17.20,3.23,-2.71,-10.10
-3,27,267,-55,-301,3888,-0.28,1.18,14.54,-0.55,-3.01,38.88,-4.84,1.28,17.14,3.09,-2.77,-9.22
-2,26,254,-49,-334,3923,-0.26,1.23,14.64,-0.49,-3.34,39.23,-4.84,1.27,17.08,2.96,-2.53,-8.02
-1,15,248,-41,-315,3964,-0.24,1.19,14.69,-0.41,-3.15,39.64,-4.83,1.27,17.03,2.84,-0.91,-7.46
-9,-1,244,81,-281,3914,-0.27,1.07,14.71,0.81,-2.81,39.14,-4.83,1.26,16.97,4.01,1.31,-7.10
-19,-1,254,49,-311,3828,-0.36,0.96,14.79,0.49,-3.11,38.28,-4.83,1.25,16.91,5.37,1.10,-7.86
-5,4,279,-95,-367,3901,-0.36,0.88,15.01,-0.95,-3.67,39.01,-4.84,1.26,16.85,3.25,0.20,-9.75
-6,6,296,-112,-334,3924,-0.36,0.83,15.31,-1.12,-3.34,39.24,-4.84,1.29,16.79,3.40,-0.22,-10.88
-8,-1,379,-48,-322,3878,-0.37,0.74,16.09,-0.48,-3.22,38.78,-4.84,1.28,16.72,3.68,0.69,-17.12
-3,14,397,-47,-331,3926,-0.35,0.75,16.91,-0.47,-3.31,39.26,-4.84,1.27,16.66,2.96,-1.57,-17.83
-4,13,452,-3,-449,3925,-0.34,0.76,17.97,-0.03,-4.49,39.25,-4.86,1.27,16.59,3.14,-1.41,-21.41
-6,10,462,-36,-416,3931,-0.34,0.74,18.99,-0.36,-4.16,39.31,-4.87,1.27,16.51,3.45,-0.98,-21.23
-3,7,473,52,-383,3907,-0.33,0.71,19.98,0.52,-3.83,39.07,-4.88,1.26,16.43,3.02,-0.57,-21.17
-13,6,475,59,-364,3889,-0.37,0.68,20.88,0.59,-3.64,38.89,-4.88,1.25,16.35,4.46,-0.48,-20.43
-11,1,415,32,-336,3910,-0.40,0.62,21.32,0.32,-3.36,39.10,-4.88,1.24,16.26,4.11,0.17,-14.89
-10,-4,384,68,-333,3938,-0.42,0.53,21.53,0.68,-3.33,39.38,-4.88,1.23,16.18,3.91,0.78,-12.05
-4,-20,288,15,-276,3916,-0.41,0.35,21.14,0.15,-2.76,39.16,-4.87,1.23,16.09,3.03,2.91,-4.31
-6,-18,241,-50,-275,3917,-0.40,0.21,20.49,-0.50,-2.75,39.17,-4.85,1.22,16.01,3.33,2.34,-0.97
-4,-9,195,-90,-314,3922,-0.39,0.13,19.63,-0.90,-3.14,39.22,-4.84,1.24,15.93,3.04,0.81,2.07
-4,-11,190,-66,-316,3886,-0.37,0.05,18.83,-0.66,-3.16,38.86,-4.83,1.23,15.86,3.06,0.98,1.69
-13,13,220,-27,-381,3950,-0.41,0.13,18.29,-0.27,-3.81,39.50,-4.84,1.22,15.79,4.36,-2.54,-1.38
4,2,227,-67,-315,3946,-0.35,0.13,17.84,-0.67,-3.15,39.46,-4.82,1.22,15.71,1.88,-0.86,-2.42
-4,5,265,-41,-320,3849,-0.34,0.14,17.68,-0.41,-3.20,38.49,-4.82,1.20,15.64,3.12,-1.28,-5.80
-9,0,287,-26,-332,3908,-0.36,0.13,17.66,-0.26,-3.32,39.08,-4.82,1.19,15.57,3.85,-0.54,-7.68
-7,-1,382,-69,-296,3870,-0.37,0.11,18.22,-0.69,-2.96,38.70,-4.81,1.19,15.50,3.52,-0.42,-15.15
-2,12,397,-40,-329,3914,-0.34,0.17,18.82,-0.40,-3.29,39.14,-4.81,1.18,15.43,2.80,-2.28,-15.82
-8,6,411,-105,-383,3901,-0.36,0.19,19.45,-1.05,-3.83,39.01,-4.82,1.20,15.35,3.70,-1.34,-16.37
-10,4,425,-45,-333,3911,-0.38,0.20,20.10,-0.45,-3.33,39.11,-4.82,1.18,15.27,3.96,-1.02,-16.90
-7,8,488,-6,-287,3920,-0.39,0.23,21.06,-0.06,-2.87,39.20,-4.81,1.18,15.18,3.48,-1.57,-21.26
-13,6,508,2,-273,3913,-0.43,0.24,22.06,0.02,-2.73,39.13,-4.80,1.17,15.10,4.32,-1.23,-21.95
-1,8,570,-106,-234,3886,-0.39,0.27,23.33,-1.06,-2.34,38.86,-4.79,1.18,15.00,2.54,-1.50,-25.92
-5,7,594,-40,-309,3907,-0.38,0.28,24.62,-0.40,-3.09,39.07,-4.78,1.18,14.91,3.16,-1.31,-26.66
-6,10,627,-109,-390,3937,-0.38,0.31,25.98,-1.09,-3.90,39.37,-4.79,1.19,14.80,3.33,-1.72,-28.08
-3,9,614,-125,-398,3883,-0.36,0.34,27.13,-1.25,-3.98,38.83,-4.81,1.21,14.69,2.92,-1.54,-25.81
-16,0,534,-73,-420,3936,-0.42,0.30,27.67,-0.73,-4.20,39.36,-4.83,1.22,14.58,4.80,-0.23,-18.48
-12,9,503,-109,-382,3953,-0.45,0.33,27.97,-1.09,-3.82,39.53,-4.84,1.24,14.47,4.14,-1.57,-15.55
-9,5,465,-169,-383,3883,-0.46,0.33,28.01,-1.69,-3.83,38.83,-4.85,1.27,14.36,3.67,-0.98,-12.28
-9,4,463,-124,-387,3858,-0.47,0.32,28.04,-1.24,-3.87,38.58,-4.87,1.29,14.25,3.67,-0.86,-12.08
-4,10,449,-92,-292,3914,-0.45,0.35,27.97,-0.92,-2.92,39.14,-4.85,1.30,14.14,2.93,-1.73,-10.95
-6,7,441,-63,-344,3894,-0.44,0.36,27.86,-0.63,-3.44,38.94,-4.85,1.29,14.03,3.26,-1.25,-10.37
-4,13,386,-8,-391,3938,-0.42,0.40,27.43,-0.08,-3.91,39.38,-4.86,1.29,13.92,3.00,-2.09,-6.14
-7,9,346,-69,-365,3885,-0.42,0.41,26.80,-0.69,-3.65,38.85,-4.88,1.29,13.81,3.46,-1.45,-3.38
-3,4,227,-144,-353,3914,-0.40,0.40,25.50,-1.44,-3.53,39.14,-4.88,1.32,13.71,2.90,-0.74,5.41
-7,7,208,-85,-337,3870,-0.40,0.40,24.22,-0.85,-3.37,38.70,-4.90,1.32,13.62,3.51,-1.19,5.74
-4,4,107,-31,-369,3884,-0.38,0.38,22.45,-0.31,-3.69,38.84,-4.91,1.31,13.53,3.09,-0.75,12.53
-4,4,88,-45,-350,3897,-0.37,0.37,20.74,-0.45,-3.50,38.97,-4.91,1.30,13.44,3.12,-0.78,12.43
-5,5,62,-29,-337,3910,-0.36,0.36,19.05,-0.29,-3.37,39.10,-4.91,1.29,13.37,3.29,-0.93,12.93
0,-1,42,-83,-331,3897,-0.33,0.32,17.40,-0.83,-3.31,38.97,-4.90,1.29,13.30,2.58,-0.09,12.98
1,-2,17,-61,-337,3912,-0.29,0.28,15.76,-0.61,-3.37,39.12,-4.90,1.27,13.24,2.50,-0.01,13.46
3,0,17,-73,-354,3910,-0.24,0.25,14.29,-0.73,-3.54,39.10,-4.92,1.27,13.18,2.29,-0.37,11.98
0,0,29,-81,-372,3908,-0.22,0.22,13.04,-0.81,-3.72,39.08,-4.94,1.27,13.13,2.81,-0.41,9.71
0,0,34,-96,-379,3915,-0.20,0.20,11.94,-0.96,-3.79,39.15,-4.95,1.28,13.08,2.86,-0.46,8.19
1,4,68,-112,-382,3908,-0.17,0.21,11.16,-1.12,-3.82,39.08,-4.97,1.29,13.04,2.76,-1.07,4.53
3,5,80,-115,-387,3901,-0.13,0.22,10.53,-1.15,-3.87,39.01,-4.98,1.31,13.00,2.53,-1.21,2.89
1,4,105,-76,-345,3918,-0.12,0.22,10.12,-0.76,-3.45,39.18,-4.99,1.29,12.95,2.88,-1.05,0.36
2,2,104,-85,-357,3894,-0.09,0.21,9.74,-0.85,-3.57,38.94,-5.01,1.29,12.92,2.78,-0.76,0.07
1,4,118,-80,-363,3926,-0.08,0.21,9.49,-0.80,-3.63,39.26,-5.02,1.29,12.88,2.97,-1.06,-1.37
2,1,111,-45,-331,3892,-0.06,0.20,9.22,-0.45,-3.31,38.92,-5.02,1.28,12.84,2.85,-0.62,-1.05
-2,1,135,-72,-395,3892,-0.06,0.18,9.12,-0.72,-3.95,38.92,-5.03,1.28,12.81,3.46,-0.64,-3.18
-2,4,148,-88,-345,3908,-0.07,0.19,9.11,-0.88,-3.45,39.08,-5.05,1.29,12.77,3.46,-1.10,-4.29
-11,3,154,-76,-372,3929,-0.13,0.19,9.14,-0.76,-3.72,39.29,-5.06,1.29,12.73,4.73,-0.95,-4.76
-8,5,156,-69,-356,3915,-0.16,0.20,9.18,-0.69,-3.56,39.15,-5.07,1.27,12.70,4.21,-1.22,-4.89
-6,13,188,-29,-317,3919,-0.19,0.26,9.41,-0.29,-3.17,39.19,-5.06,1.26,12.66,3.86,-2.32,-7.37
-5,10,213,-16,-277,3912,-0.20,0.29,9.76,-0.16,-2.77,39.12,-5.05,1.25,12.62,3.68,-1.80,-9.13
-2,13,344,42,-266,3857,-0.19,0.34,10.89,0.42,-2.66,38.57,-5.04,1.24,12.58,3.23,-2.15,-19.10
1,7,396,22,-273,3901,-0.16,0.35,12.21,0.22,-2.73,39.01,-5.03,1.23,12.53,2.81,-1.22,-22.17
-5,8,511,-24,-337,3887,-0.18,0.37,14.11,-0.24,-3.37,38.87,-5.03,1.22,12.47,3.70,-1.34,-30.00
-5,5,536,38,-317,3956,-0.19,0.36,15.97,0.38,-3.17,39.56,-5.02,1.21,12.41,3.67,-0.89,-30.25
-12,5,567,-53,-402,3920,-0.25,0.35,17.83,-0.53,-4.02,39.20,-5.04,1.21,12.34,4.65,-0.89,-31.00
-11,9,574,-26,-381,3892,-0.29,0.37,19.55,-0.26,-3.81,38.92,-5.05,1.20,12.26,4.43,-1.46,-29.86
-10,14,602,-80,-331,3896,-0.32,0.42,21.27,-0.80,-3.31,38.96,-5.03,1.21,12.18,4.20,-2.14,-30.51
-8,7,612,-63,-339,3874,-0.34,0.42,22.87,-0.63,-3.39,38.74,-5.03,1.20,12.09,3.87,-1.07,-29.73
-1,19,645,-55,-374,3910,-0.31,0.50,24.52,-0.55,-3.74,39.10,-5.04,1.20,11.99,2.86,-2.76,-30.87
-14,12,654,-61,-388,3887,-0.36,0.52,26.06,-0.61,-3.88,38.87,-5.06,1.20,11.88,4.75,-1.65,-30.08
-14,11,682,-67,-393,3912,-0.41,0.53,27.61,-0.67,-3.93,39.12,-5.07,1.21,11.78,4.67,-1.48,-30.89
-3,15,684,-40,-378,3941,-0.39,0.57,29.02,-0.40,-3.78,39.41,-5.08,1.21,11.66,3.04,-2.02,-29.63
-15,13,680,-58,-404,3921,-0.44,0.59,30.27,-0.58,-4.04,39.21,-5.10,1.21,11.54,4.79,-1.67,-28.03
-17,3,650,-79,-405,3876,-0.50,0.55,31.21,-0.79,-4.05,38.76,-5.11,1.22,11.42,4.99,-0.23,-24.54
-9,21,581,-170,-376,3914,-0.51,0.63,31.63,-1.70,-3.76,39.14,-5.12,1.26,11.29,3.77,-2.86,-18.26
-13,2,550,-66,-457,3921,-0.54,0.58,31.82,-0.66,-4.57,39.21,-5.14,1.27,11.16,4.33,-0.07,-15.43
-12,9,436,3,-398,3896,-0.55,0.57,31.30,0.03,-3.98,38.96,-5.14,1.26,11.04,4.15,-1.14,-6.29
-11,5,406,-26,-415,3886,-0.57,0.55,30.65,-0.26,-4.15,38.86,-5.16,1.26,10.92,3.99,-0.58,-4.40
-2,4,311,18,-344,3915,-0.52,0.52,29.48,0.18,-3.44,39.15,-5.16,1.26,10.80,2.69,-0.48,2.49
-5,1,286,49,-387,3895,-0.50,0.47,28.28,0.49,-3.87,38.95,-5.16,1.25,10.69,3.19,-0.10,3.41
-2,6,198,-55,-331,3875,-0.46,0.46,26.66,-0.55,-3.31,38.75,-5.15,1.25,10.58,2.80,-0.88,9.24
-5,4,190,-86,-295,3937,-0.45,0.44,25.15,-0.86,-2.95,39.37,-5.13,1.26,10.48,3.27,-0.62,8.42
-9,-3,193,-56,-339,3894,-0.46,0.38,23.81,-0.56,-3.39,38.94,-5.12,1.25,10.39,3.86,0.34,6.83
-7,2,182,-88,-368,3913,-0.45,0.35,22.54,-0.88,-3.68,39.13,-5.14,1.26,10.30,3.57,-0.48,6.49
-3,4,157,-122,-298,3896,-0.43,0.34,21.24,-1.22,-2.98,38.96,-5.13,1.28,10.21,3.00,-0.82,7.31
-2,4,153,-93,-307,3892,-0.40,0.33,20.05,-0.93,-3.07,38.92,-5.11,1.29,10.13,2.89,-0.84,6.46
-1,10,142,-29,-366,3923,-0.36,0.36,18.91,-0.29,-3.66,39.23,-5.11,1.28,10.06,2.81,-1.70,6.25
-6,7,150,-59,-357,3858,-0.36,0.37,17.94,-0.59,-3.57,38.58,-5.12,1.27,9.99,3.57,-1.22,4.60
-6,9,142,-71,-333,3878,-0.36,0.38,17.01,-0.71,-3.33,38.78,-5.11,1.27,9.92,3.56,-1.49,4.35
-2,11,138,-72,-325,3904,-0.34,0.41,16.15,-0.72,-3.25,39.04,-5.09,1.27,9.85,2.99,-1.74,3.83
-3,24,128,-87,-351,3887,-0.32,0.52,15.32,-0.87,-3.51,38.87,-5.11,1.28,9.79,3.18,-3.54,3.85
-6,20,126,-68,-337,3932,-0.33,0.59,14.55,-0.68,-3.37,39.32,-5.10,1.27,9.74,3.62,-2.79,3.25
0,11,100,-104,-332,3921,-0.30,0.60,13.71,-1.04,-3.32,39.21,-5.09,1.29,9.68,2.76,-1.42,4.61
1,11,89,-106,-316,3923,-0.26,0.60,12.88,-1.06,-3.16,39.23,-5.07,1.31,9.63,2.66,-1.41,4.72
-2,10,114,28,-348,3901,-0.25,0.60,12.29,0.28,-3.48,39.01,-5.07,1.29,9.58,3.15,-1.25,2.01
-1,10,131,10,-319,3915,-0.23,0.60,11.86,0.10,-3.19,39.15,-5.06,1.28,9.53,3.03,-1.24,0.14
-5,1,244,-14,-228,3856,-0.24,0.55,12.16,-0.14,-2.28,38.56,-5.05,1.28,9.48,3.61,0.03,-9.13
-1,0,303,20,-248,3904,-0.22,0.50,12.79,0.20,-2.48,39.04,-5.04,1.27,9.43,3.02,0.09,-13.49
2,9,422,-52,-348,3903,-0.18,0.50,14.09,-0.52,-3.48,39.03,-5.04,1.26,9.38,2.63,-1.27,-22.27
-9,10,454,-39,-396,3892,-0.22,0.51,15.45,-0.39,-3.96,38.92,-5.05,1.26,9.32,4.25,-1.40,-23.61
-4,11,546,-98,-466,3921,-0.22,0.53,17.23,-0.98,-4.66,39.21,-5.07,1.27,9.25,3.49,-1.53,-29.60
-14,9,568,-99,-493,3898,-0.29,0.53,18.98,-0.99,-4.93,38.98,-5.09,1.28,9.17,4.91,-1.23,-29.72
-8,15,616,-137,-490,3882,-0.31,0.57,20.84,-1.37,-4.90,38.82,-5.10,1.29,9.09,3.97,-2.08,-31.91
-11,13,588,-84,-558,3936,-0.34,0.59,22.34,-0.84,-5.58,39.36,-5.12,1.30,9.00,4.37,-1.74,-28.02
-4,7,504,-156,-380,3886,-0.33,0.57,23.18,-1.56,-3.80,38.86,-5.13,1.33,8.91,3.33,-0.87,-20.05
-14,1,498,-88,-369,3857,-0.38,0.52,23.90,-0.88,-3.69,38.57,-5.15,1.34,8.82,4.77,-0.06,-18.82
-4,10,495,7,-367,3891,-0.37,0.53,24.53,0.07,-3.67,38.91,-5.15,1.33,8.72,3.27,-1.41,-17.92
-1,10,514,-16,-345,3907,-0.34,0.54,25.21,-0.16,-3.45,39.07,-5.14,1.32,8.62,2.87,-1.39,-18.84
-9,10,538,-12,-418,3952,-0.36,0.55,25.97,-0.12,-4.18,39.52,-5.16,1.32,8.52,4.06,-1.38,-20.10
-9,1,532,12,-414,3914,-0.38,0.50,26.62,0.12,-4.14,39.14,-5.16,1.32,8.41,4.03,-0.09,-18.94
-16,7,478,-2,-329,3851,-0.44,0.49,26.87,-0.02,-3.29,38.51,-5.16,1.31,8.30,4.98,-1.01,-14.10
-15,5,466,-40,-305,3912,-0.49,0.47,27.03,-0.40,-3.05,39.12,-5.15,1.31,8.19,4.74,-0.74,-12.92
-9,2,472,-36,-378,3884,-0.49,0.44,27.21,-0.36,-3.78,38.84,-5.15,1.30,8.09,3.81,-0.35,-13.24
-7,14,457,15,-336,3902,-0.49,0.48,27.27,0.15,-3.36,39.02,-5.15,1.30,7.98,3.52,-2.10,-11.90
0,14,463,-3,-399,3939,-0.44,0.52,27.37,-0.03,-3.99,39.39,-5.16,1.29,7.87,2.55,-2.02,-12.30
-4,10,459,0,-417,3916,-0.42,0.53,27.43,0.00,-4.17,39.16,-5.17,1.29,7.76,3.20,-1.39,-11.89
-16,6,425,-23,-386,3945,-0.47,0.51,27.28,-0.23,-3.86,39.45,-5.17,1.29,7.65,4.93,-0.81,-9.15
4,19,417,-92,-302,3939,-0.40,0.57,27.10,-0.92,-3.02,39.39,-5.16,1.30,7.54,2.00,-2.68,-8.65
-14,7,421,-117,-210,3927,-0.45,0.56,26.96,-1.17,-2.10,39.27,-5.14,1.31,7.44,4.65,-0.89,-9.13
-11,6,435,-101,-171,3893,-0.47,0.54,26.91,-1.01,-1.71,38.93,-5.12,1.33,7.33,4.14,-0.78,-10.35
-10,9,469,-191,-251,3892,-0.48,0.54,27.08,-1.91,-2.51,38.92,-5.11,1.35,7.22,3.95,-1.25,-13.05
-13,14,478,-190,-246,3870,-0.51,0.57,27.29,-1.90,-2.46,38.70,-5.09,1.38,7.11,4.34,-1.97,-13.60
-8,16,468,-170,-306,3937,-0.51,0.61,27.42,-1.70,-3.06,39.37,-5.08,1.40,7.00,3.58,-2.22,-12.62
-13,5,423,-143,-345,3854,-0.54,0.58,27.25,-1.43,-3.45,38.54,-5.08,1.43,6.89,4.29,-0.62,-8.96
-10,-2,317,-96,-384,3910,-0.55,0.51,26.46,-0.96,-3.84,39.10,-5.10,1.45,6.79,3.83,0.31,-0.77
-8,1,288,-116,-401,3923,-0.54,0.47,25.57,-1.16,-4.01,39.23,-5.12,1.46,6.69,3.55,-0.24,0.80
-5,-6,139,-107,-424,3888,-0.52,0.38,23.86,-1.07,-4.24,38.88,-5.13,1.47,6.59,3.15,0.66,11.72
-8,-7,110,-107,-465,3888,-0.51,0.30,22.15,-1.07,-4.65,38.88,-5.15,1.48,6.51,3.62,0.66,12.46
-5,-8,19,-101,-427,3905,-0.49,0.22,20.05,-1.01,-4.27,39.05,-5.17,1.49,6.43,3.21,0.66,18.07
-5,-12,10,-84,-392,3904,-0.47,0.13,18.11,-0.84,-3.92,39.04,-5.19,1.49,6.35,3.26,1.10,16.88
-1,-6,-1,-80,-371,3903,-0.43,0.08,16.29,-0.80,-3.71,39.03,-5.20,1.48,6.29,2.73,0.10,16.00
-1,-7,-2,-70,-380,3911,-0.40,0.03,14.65,-0.70,-3.80,39.11,-5.21,1.47,6.23,2.81,0.16,14.44
1,-11,-6,-48,-373,3909,-0.35,-0.04,13.15,-0.48,-3.73,39.09,-5.21,1.46,6.18,2.59,0.65,13.27
2,-8,-4,-89,-392,3903,-0.30,-0.09,11.81,-0.89,-3.92,39.03,-5.23,1.46,6.13,2.54,0.11,11.76
6,-29,-16,-97,-333,3953,-0.24,-0.25,10.53,-0.97,-3.33,39.53,-5.21,1.46,6.09,2.04,3.00,11.50
4,-39,-15,-75,-324,3937,-0.19,-0.47,9.38,-0.75,-3.24,39.37,-5.20,1.45,6.05,2.42,4.14,10.27
0,-36,-14,-54,-366,3900,-0.17,-0.64,8.36,-0.54,-3.66,39.00,-5.20,1.43,6.02,3.07,3.38,9.16
2,-49,-18,-73,-360,3950,-0.14,-0.88,7.42,-0.73,-3.60,39.50,-5.20,1.41,5.99,2.82,4.94,8.55
-3,-16,-3,-49,-360,3893,-0.14,-0.89,6.66,-0.49,-3.60,38.93,-5.21,1.39,5.96,3.57,-0.10,6.52
-3,-12,-1,-49,-359,3898,-0.15,-0.87,5.98,-0.49,-3.59,38.98,-5.21,1.37,5.94,3.57,-0.67,5.68
0,-5,0,-49,-359,3905,-0.13,-0.81,5.39,-0.49,-3.59,39.05,-5.21,1.36,5.92,3.14,-1.62,4.99
-1,-6,1,-54,-365,3908,-0.13,-0.77,4.85,-0.54,-3.65,39.08,-5.21,1.34,5.90,3.31,-1.37,4.37
-1,-3,1,-62,-365,3905,-0.12,-0.71,4.37,-0.62,-3.65,39.05,-5.22,1.32,5.88,3.32,-1.71,3.89
-1,-3,-1,-62,-363,3908,-0.11,-0.66,3.93,-0.62,-3.63,39.08,-5.22,1.30,5.86,3.34,-1.60,3.62
-2,-2,1,-52,-358,3906,-0.11,-0.60,3.54,-0.52,-3.58,39.06,-5.22,1.28,5.85,3.49,-1.64,3.06
-2,-4,-2,-87,-357,3931,-0.12,-0.57,3.18,-0.87,-3.57,39.31,-5.21,1.27,5.84,3.48,-1.26,2.95
-2,-2,0,-65,-362,3913,-0.12,-0.52,2.86,-0.65,-3.62,39.13,-5.21,1.25,5.82,3.48,-1.47,2.46
-1,-1,-1,-44,-365,3906,-0.11,-0.48,2.57,-0.44,-3.65,39.06,-5.21,1.23,5.81,3.34,-1.53,2.25
-1,-1,1,-45,-374,3900,-0.11,-0.44,2.32,-0.45,-3.74,39.00,-5.22,1.21,5.81,3.35,-1.44,1.83
-1,0,0,-59,-362,3916,-0.10,-0.39,2.08,-0.59,-3.62,39.16,-5.23,1.20,5.80,3.36,-1.50,1.69
-1,-1,1,-64,-368,3897,-0.10,-0.36,1.88,-0.64,-3.68,38.97,-5.24,1.18,5.79,3.38,-1.28,1.40
-1,-1,1,-57,-365,3887,-0.09,-0.33,1.70,-0.57,-3.65,38.87,-5.24,1.16,5.78,3.39,-1.21,1.22
0,-1,0,-48,-366,3905,-0.08,-0.30,1.53,-0.48,-3.66,39.05,-5.25,1.14,5.78,3.26,-1.15,1.13
0,-2,0,-62,-371,3910,-0.08,-0.28,1.38,-0.62,-3.71,39.10,-5.26,1.13,5.77,3.28,-0.95,0.98
-3,1,2,-65,-378,3891,-0.09,-0.25,1.25,-0.65,-3.78,38.91,-5.27,1.12,5.77,3.73,-1.34,0.68
-2,2,1,-45,-373,3890,-0.09,-0.21,1.13,-0.45,-3.73,38.90,-5.28,1.10,5.76,3.57,-1.41,0.65
-2,1,1,-57,-370,3897,-0.09,-0.19,1.03,-0.57,-3.70,38.97,-5.29,1.08,5.76,3.57,-1.20,0.54
-1,0,1,-67,-376,3913,-0.09,-0.17,0.93,-0.67,-3.76,39.13,-5.31,1.07,5.75,3.44,-1.01,0.45
-1,0,0,-70,-375,3901,-0.09,-0.15,0.84,-0.70,-3.75,39.01,-5.32,1.07,5.75,3.45,-0.97,0.44
-2,1,1,-61,-377,3891,-0.09,-0.13,0.76,-0.61,-3.77,38.91,-5.34,1.06,5.75,3.61,-1.08,0.27
-1,1,0,-53,-371,3900,-0.09,-0.11,0.68,-0.53,-3.71,39.00,-5.35,1.04,5.75,3.47,-1.03,0.28
-1,0,0,-54,-375,3912,-0.08,-0.10,0.61,-0.54,-3.75,39.12,-5.35,1.02,5.74,3.48,-0.85,0.21
0,0,1,-60,-373,3912,-0.08,-0.09,0.56,-0.60,-3.73,39.12,-5.36,1.01,5.74,3.35,-0.82,0.07
-1,1,-1,-54,-368,3903,-0.07,-0.07,0.50,-0.54,-3.68,39.03,-5.37,0.99,5.74,3.50,-0.93,0.18
-1,0,0,-57,-372,3912,-0.07,-0.07,0.45,-0.57,-3.72,39.12,-5.37,0.97,5.74,3.51,-0.75,0.05
-1,0,0,-62,-373,3911,-0.07,-0.06,0.40,-0.62,-3.73,39.11,-5.39,0.96,5.74,3.52,-0.73,0.00
-1,0,0,-64,-371,3910,-0.07,-0.05,0.36,-0.64,-3.71,39.10,-5.40,0.95,5.74,3.53,-0.72,-0.04
-1,1,0,-60,-375,3908,-0.07,-0.04,0.33,-0.60,-3.75,39.08,-5.42,0.94,5.73,3.54,-0.84,-0.07
0,1,0,-53,-358,3920,-0.06,-0.03,0.29,-0.53,-3.58,39.20,-5.40,0.92,5.73,3.39,-0.81,-0.11
0,0,0,-50,-361,3912,-0.06,-0.03,0.26,-0.50,-3.61,39.12,-5.39,0.91,5.73,3.40,-0.64,-0.14
-1,0,1,-61,-363,3908,-0.06,-0.03,0.24,-0.61,-3.63,39.08,-5.37,0.91,5.73,3.54,-0.64,-0.24
-1,1,0,-59,-368,3914,-0.06,-0.02,0.22,-0.59,-3.68,39.14,-5.37,0.89,5.73,3.54,-0.76,-0.18
-1,0,0,-53,-368,3913,-0.06,-0.02,0.20,-0.53,-3.68,39.13,-5.37,0.87,5.73,3.54,-0.59,-0.20
-1,0,0,-66,-368,3912,-0.06,-0.01,0.18,-0.66,-3.68,39.12,-5.37,0.89,5.73,3.54,-0.60,-0.22
0,0,0,-67,-369,3907,-0.05,-0.01,0.16,-0.67,-3.69,39.07,-5.38,0.90,5.73,3.40,-0.61,-0.24
-1,0,0,-63,-368,3903,-0.05,-0.01,0.14,-0.63,-3.68,39.03,-5.39,0.92,5.73,3.56,-0.62,-0.26
-1,1,0,-59,-365,3896,-0.05,-0.00,0.13,-0.59,-3.65,38.96,-5.38,0.91,5.73,3.55,-0.75,-0.27
-1,0,0,-56,-361,3905,-0.05,-0.00,0.12,-0.56,-3.61,39.05,-5.36,0.89,5.73,3.54,-0.59,-0.28
-1,1,0,-64,-365,3904,-0.06,0.00,0.10,-0.64,-3.65,39.04,-5.36,0.91,5.73,3.53,-0.74,-0.30
-1,1,1,-64,-376,3903,-0.06,0.01,0.10,-0.64,-3.76,39.03,-5.37,0.91,5.73,3.54,-0.73,-0.38
-1,1,1,-61,-368,3912,-0.06,0.01,0.10,-0.61,-3.68,39.12,-5.37,0.89,5.72,3.54,-0.71,-0.39
-2,1,0,-58,-358,3901,-0.06,0.02,0.09,-0.58,-3.58,39.01,-5.36,0.89,5.72,3.67,-0.70,-0.31
-4,1,0,-59,-358,3895,-0.08,0.02,0.08,-0.59,-3.58,38.95,-5.34,0.88,5.72,3.93,-0.69,-0.32
-4,3,1,-60,-368,3899,-0.10,0.04,0.08,-0.60,-3.68,38.99,-5.36,0.88,5.72,3.91,-0.96,-0.41
-5,3,1,-56,-370,3895,-0.12,0.05,0.07,-0.56,-3.70,38.95,-5.37,0.87,5.72,4.04,-0.92,-0.41
-4,2,1,-51,-375,3900,-0.13,0.06,0.07,-0.51,-3.75,39.00,-5.39,0.86,5.72,3.87,-0.75,-0.41
-4,2,1,-60,-384,3908,-0.14,0.07,0.07,-0.60,-3.84,39.08,-5.40,0.86,5.72,3.86,-0.74,-0.41
-4,2,0,-53,-376,3909,-0.15,0.07,0.07,-0.53,-3.76,39.09,-5.42,0.85,5.72,3.85,-0.72,-0.34
-5,2,1,-51,-369,3901,-0.17,0.08,0.06,-0.51,-3.69,39.01,-5.42,0.83,5.72,3.97,-0.70,-0.42
-4,2,0,-44,-370,3905,-0.18,0.08,0.06,-0.44,-3.70,39.05,-5.42,0.81,5.72,3.81,-0.68,-0.34
-4,3,0,-55,-364,3900,-0.18,0.09,0.05,-0.55,-3.64,39.00,-5.40,0.81,5.72,3.78,-0.82,-0.35
-3,3,0,-53,-358,3904,-0.18,0.10,0.05,-0.53,-3.58,39.04,-5.38,0.81,5.72,3.62,-0.80,-0.35
-1,3,-1,-62,-382,3904,-0.17,0.11,0.04,-0.62,-3.82,39.04,-5.40,0.81,5.72,3.35,-0.79,-0.28
-4,2,0,-73,-376,3897,-0.18,0.11,0.03,-0.73,-3.76,38.97,-5.41,0.83,5.72,3.80,-0.64,-0.37
-3,1,0,-69,-380,3905,-0.18,0.11,0.03,-0.69,-3.80,39.05,-5.42,0.85,5.72,3.65,-0.51,-0.37
-3,2,0,-70,-391,3904,-0.18,0.11,0.03,-0.70,-3.91,39.04,-5.44,0.86,5.72,3.66,-0.66,-0.37
-2,1,-1,-67,-377,3895,-0.17,0.10,0.02,-0.67,-3.77,38.95,-5.45,0.87,5.72,3.53,-0.53,-0.30
-2,1,-1,-61,-368,3901,-0.17,0.10,0.01,-0.61,-3.68,39.01,-5.43,0.88,5.72,3.53,-0.54,-0.31
-2,1,0,-56,-358,3915,-0.16,0.09,0.01,-0.56,-3.58,39.15,-5.41,0.87,5.72,3.52,-0.55,-0.39
-2,1,0,-53,-356,3905,-0.16,0.09,0.01,-0.53,-3.56,39.05,-5.40,0.87,5.72,3.52,-0.55,-0.39
-1,1,0,-49,-365,3893,-0.15,0.09,0.01,-0.49,-3.65,38.93,-5.39,0.85,5.72,3.38,-0.54,-0.39
-2,0,0,-61,-365,3897,-0.15,0.08,0.01,-0.61,-3.65,38.97,-5.38,0.86,5.72,3.53,-0.41,-0.39
-1,1,0,-69,-377,3907,-0.14,0.08,0.01,-0.69,-3.77,39.07,-5.39,0.88,5.72,3.40,-0.58,-0.39
-1,0,-1,-58,-380,3909,-0.13,0.07,-0.00,-0.58,-3.80,39.09,-5.41,0.87,5.72,3.43,-0.44,-0.32
-1,0,0,-52,-374,3899,-0.12,0.06,-0.00,-0.52,-3.74,38.99,-5.42,0.86,5.72,3.45,-0.44,-0.40
-1,0,-1,-64,-367,3893,-0.12,0.06,-0.01,-0.64,-3.67,38.93,-5.42,0.87,5.72,3.46,-0.46,-0.32
-2,0,0,-59,-364,3889,-0.12,0.05,-0.01,-0.59,-3.64,38.89,-5.40,0.87,5.72,3.60,-0.47,-0.41
-2,0,0,-57,-362,3896,-0.12,0.05,-0.01,-0.57,-3.62,38.96,-5.38,0.86,5.72,3.59,-0.48,-0.41
-1,1,0,-48,-365,3901,-0.11,0.05,-0.00,-0.48,-3.65,39.01,-5.38,0.85,5.72,3.44,-0.62,-0.41
-1,1,0,-51,-368,3902,-0.11,0.05,-0.00,-0.51,-3.68,39.02,-5.38,0.83,5.72,3.45,-0.60,-0.40
-2,0,1,-61,-370,3895,-0.11,0.04,0.00,-0.61,-3.70,38.95,-5.39,0.84,5.72,3.61,-0.47,-0.48
-2,0,1,-59,-378,3897,-0.11,0.04,0.01,-0.59,-3.78,38.97,-5.41,0.85,5.72,3.62,-0.48,-0.48
-2,1,0,-59,-373,3902,-0.11,0.04,0.01,-0.59,-3.73,39.02,-5.43,0.85,5.72,3.63,-0.63,-0.39
-2,0,0,-57,-375,3899,-0.11,0.04,0.01,-0.57,-3.75,38.99,-5.45,0.85,5.72,3.64,-0.48,-0.39
-1,0,0,-63,-375,3909,-0.11,0.03,0.01,-0.63,-3.75,39.09,-5.45,0.86,5.72,3.50,-0.50,-0.39
-1,0,-1,-64,-377,3909,-0.10,0.03,-0.00,-0.64,-3.77,39.09,-5.47,0.88,5.72,3.52,-0.52,-0.32
-1,0,0,-61,-371,3902,-0.10,0.03,-0.00,-0.61,-3.71,39.02,-5.45,0.89,5.72,3.51,-0.53,-0.40
-1,1,0,-66,-367,3905,-0.09,0.03,-0.00,-0.66,-3.67,39.05,-5.44,0.90,5.72,3.51,-0.68,-0.40
-1,0,0,-58,-372,3898,-0.09,0.03,-0.00,-0.58,-3.72,38.98,-5.44,0.88,5.72,3.52,-0.52,-0.40
-1,0,1,-58,-376,3899,-0.09,0.02,0.01,-0.58,-3.76,38.99,-5.46,0.87,5.72,3.54,-0.52,-0.48
-1,0,0,-58,-365,3903,-0.09,0.02,0.00,-0.58,-3.65,39.03,-5.44,0.87,5.72,3.53,-0.52,-0.40
-2,0,0,-57,-363,3903,-0.09,0.02,0.00,-0.57,-3.63,39.03,-5.42,0.86,5.72,3.67,-0.52,-0.40
0,0,0,-54,-367,3909,-0.08,0.02,0.00,-0.54,-3.67,39.09,-5.41,0.85,5.72,3.37,-0.52,-0.40
0,0,0,-64,-366,3902,-0.07,0.02,0.00,-0.64,-3.66,39.02,-5.40,0.87,5.72,3.38,-0.53,-0.40
-1,0,0,-61,-374,3897,-0.07,0.01,0.00,-0.61,-3.74,38.97,-5.42,0.87,5.72,3.55,-0.54,-0.40
0,0,0,-59,-373,3899,-0.06,0.01,0.00,-0.59,-3.73,38.99,-5.44,0.87,5.72,3.42,-0.54,-0.40
-1,0,1,-59,-368,3896,-0.06,0.01,0.01,-0.59,-3.68,38.96,-5.42,0.87,5.72,3.56,-0.54,-0.48
-1,0,1,-63,-368,3895,-0.06,0.01,0.01,-0.63,-3.68,38.95,-5.41,0.88,5.72,3.55,-0.55,-0.47
-1,0,0,-55,-367,3895,-0.06,0.01,0.01,-0.55,-3.67,38.95,-5.41,0.87,5.72,3.55,-0.55,-0.39
-1,1,0,-56,-373,3904,-0.06,0.01,0.01,-0.56,-3.73,39.04,-5.42,0.85,5.72,3.56,-0.68,-0.39
-2,1,0,-56,-367,3906,-0.07,0.02,0.01,-0.56,-3.67,39.06,-5.41,0.84,5.72,3.69,-0.67,-0.39
-1,1,-1,-65,-366,3906,-0.07,0.02,0.00,-0.65,-3.66,39.06,-5.40,0.86,5.72,3.54,-0.67,-0.31
-1,1,0,-56,-368,3903,-0.07,0.03,0.00,-0.56,-3.68,39.03,-5.39,0.84,5.72,3.53,-0.65,-0.40
-1,1,0,-57,-368,3903,-0.07,0.03,0.00,-0.57,-3.68,39.03,-5.38,0.83,5.72,3.53,-0.63,-0.40
-1,0,0,-64,-368,3912,-0.07,0.03,0.00,-0.64,-3.68,39.12,-5.38,0.85,5.72,3.53,-0.50,-0.40
0,1,0,-65,-369,3905,-0.06,0.03,0.00,-0.65,-3.69,39.05,-5.38,0.86,5.72,3.39,-0.66,-0.40
-1,0,0,-69,-370,3904,-0.06,0.03,0.00,-0.69,-3.70,39.04,-5.39,0.88,5.72,3.55,-0.52,-0.40
-1,1,0,-62,-371,3911,-0.06,0.03,0.00,-0.62,-3.71,39.11,-5.40,0.89,5.72,3.55,-0.68,-0.40
-1,1,0,-62,-377,3903,-0.06,0.03,0.00,-0.62,-3.77,39.03,-5.42,0.90,5.72,3.57,-0.67,-0.40
-2,0,0,-58,-376,3906,-0.07,0.03,0.00,-0.58,-3.76,39.06,-5.44,0.89,5.72,3.72,-0.52,-0.40
-1,0,-1,-54,-371,3915,-0.07,0.03,-0.00,-0.54,-3.71,39.15,-5.43,0.87,5.72,3.56,-0.51,-0.32
0,1,-1,-58,-369,3909,-0.06,0.03,-0.01,-0.58,-3.69,39.09,-5.42,0.86,5.72,3.41,-0.65,-0.33
0,-1,0,-53,-374,3896,-0.05,0.02,-0.01,-0.53,-3.74,38.96,-5.43,0.85,5.72,3.43,-0.36,-0.41
-1,1,1,-65,-374,3900,-0.05,0.03,-0.00,-0.65,-3.74,39.00,-5.44,0.86,5.72,3.59,-0.67,-0.49
0,0,1,-59,-367,3895,-0.05,0.02,0.00,-0.59,-3.67,38.95,-5.42,0.86,5.72,3.43,-0.52,-0.48
-1,0,1,-58,-377,3900,-0.05,0.02,0.01,-0.58,-3.77,39.00,-5.44,0.86,5.72,3.59,-0.52,-0.48
-1,1,0,-60,-369,3900,-0.05,0.02,0.01,-0.60,-3.69,39.00,-5.42,0.87,5.72,3.58,-0.67,-0.39
-1,1,0,-63,-366,3904,-0.05,0.03,0.01,-0.63,-3.66,39.04,-5.41,0.88,5.72,3.57,-0.67,-0.39
-1,0,0,-60,-375,3908,-0.05,0.03,0.01,-0.60,-3.75,39.08,-5.43,0.88,5.72,3.58,-0.52,-0.39
-1,0,0,-60,-368,3909,-0.05,0.02,0.01,-0.60,-3.68,39.09,-5.41,0.88,5.72,3.57,-0.53,-0.39
-1,1,1,-60,-366,3911,-0.05,0.03,0.01,-0.60,-3.66,39.11,-5.39,0.88,5.72,3.56,-0.67,-0.47
-1,0,1,-65,-364,3908,-0.06,0.02,0.02,-0.65,-3.64,39.08,-5.38,0.89,5.72,3.55,-0.53,-0.47
-1,1,0,-62,-363,3903,-0.06,0.03,0.02,-0.62,-3.63,39.03,-5.36,0.90,5.72,3.53,-0.68,-0.39
-1,1,0,-50,-367,3897,-0.06,0.03,0.01,-0.50,-3.67,38.97,-5.36,0.88,5.72,3.53,-0.67,-0.39
-1,0,0,-62,-367,3899,-0.06,0.03,0.01,-0.62,-3.67,38.99,-5.37,0.89,5.72,3.54,-0.53,-0.39
-1,-1,0,-56,-364,3907,-0.06,0.02,0.01,-0.56,-3.64,39.07,-5.36,0.88,5.72,3.53,-0.38,-0.39
-1,1,0,-65,-365,3909,-0.06,0.02,0.01,-0.65,-3.65,39.09,-5.35,0.90,5.72,3.53,-0.69,-0.39
-2,1,0,-60,-366,3912,-0.06,0.03,0.01,-0.60,-3.66,39.12,-5.35,0.88,5.72,3.66,-0.67,-0.39
-4,16,0,-29,-290,3958,-0.08,0.12,0.01,-0.29,-2.90,39.58,-5.33,0.87,5.72,3.92,-2.78,-0.39
8,7,-6,-77,-374,3875,-0.02,0.15,-0.03,-0.77,-3.74,38.75,-5.34,0.89,5.72,2.21,-1.36,0.08
2,2,-3,-75,-390,3878,-0.01,0.15,-0.04,-0.75,-3.90,38.78,-5.36,0.90,5.72,3.16,-0.61,-0.19
-1,0,-7,-44,-402,3929,-0.02,0.13,-0.08,-0.44,-4.02,39.29,-5.37,0.89,5.72,3.62,-0.33,0.11
-27,4,-58,251,-401,4031,-0.18,0.15,-0.43,2.51,-4.01,40.31,-5.38,0.87,5.72,7.28,-0.91,4.08
-12,4,-62,279,-561,3786,-0.23,0.16,-0.76,2.79,-5.61,37.86,-5.39,0.86,5.73,4.90,-0.88,4.09
6,0,-78,152,-599,3837,-0.17,0.14,-1.16,1.52,-5.99,38.37,-5.40,0.84,5.73,2.27,-0.29,5.04
4,-5,-71,109,-608,3971,-0.13,0.10,-1.48,1.09,-6.08,39.71,-5.42,0.83,5.74,2.67,0.40,4.13
-4,0,72,-81,-461,3969,-0.14,0.09,-0.89,-0.81,-4.61,39.69,-5.43,0.84,5.74,3.88,-0.39,-7.40
-7,-8,121,-115,-308,3933,-0.17,0.03,-0.07,-1.15,-3.08,39.33,-5.42,0.85,5.74,4.27,0.72,-10.72
2,4,272,-167,-256,3952,-0.14,0.05,1.60,-1.67,-2.56,39.52,-5.41,0.86,5.74,2.95,-1.08,-21.84
-12,-10,297,-32,-168,3903,-0.20,-0.02,3.25,-0.32,-1.68,39.03,-5.39,0.86,5.72,4.96,0.94,-22.30
4,-3,321,-66,-326,3874,-0.16,-0.03,4.88,-0.66,-3.26,38.74,-5.37,0.87,5.70,2.59,-0.17,-22.69
-14,9,371,-35,-502,3837,-0.23,0.03,6.66,-0.35,-5.02,38.37,-5.39,0.87,5.68,5.22,-1.89,-25.14
-25,-1,501,19,-449,3884,-0.36,0.02,9.05,0.19,-4.49,38.84,-5.41,0.86,5.64,6.67,-0.37,-33.76
-14,16,587,-345,-367,4077,-0.41,0.11,11.73,-3.45,-3.67,40.77,-5.41,0.88,5.59,4.90,-2.80,-38.35
-16,4,581,-336,-387,4060,-0.46,0.13,14.10,-3.36,-3.87,40.60,-5.41,0.90,5.54,5.10,-0.97,-35.46
-15,22,554,-446,-633,3814,-0.51,0.25,16.07,-4.46,-6.33,38.14,-5.42,0.93,5.47,4.87,-3.50,-31.19
-3,5,411,-267,-611,3906,-0.48,0.25,16.97,-2.67,-6.11,39.06,-5.43,0.95,5.41,3.11,-0.91,-18.17
-9,19,414,-263,-646,3819,-0.48,0.34,17.80,-2.63,-6.46,38.19,-5.45,0.96,5.34,4.02,-2.89,-17.58
-7,5,358,-10,-540,3858,-0.48,0.34,18.20,-0.10,-5.40,38.58,-5.47,0.97,5.26,3.74,-0.76,-12.43
-15,4,373,-26,-537,3987,-0.52,0.33,18.66,-0.26,-5.37,39.87,-5.48,0.97,5.19,4.89,-0.63,-13.24
-3,14,397,-22,-544,3937,-0.49,0.38,19.21,-0.22,-5.44,39.37,-5.50,0.98,5.11,3.14,-2.06,-14.71
-10,6,403,-26,-564,3835,-0.50,0.38,19.75,-0.26,-5.64,38.35,-5.52,0.98,5.04,4.19,-0.85,-14.67
-8,17,424,-89,-428,3867,-0.50,0.45,20.36,-0.89,-4.28,38.67,-5.54,1.00,4.95,3.90,-2.42,-15.83
0,19,435,-158,-329,3954,-0.45,0.52,20.98,-1.58,-3.29,39.54,-5.53,1.02,4.87,2.77,-2.61,-16.14
0,9,401,-71,-293,3944,-0.40,0.52,21.33,-0.71,-2.93,39.44,-5.51,1.03,4.79,2.84,-1.08,-12.90
-4,6,390,-83,-426,3820,-0.39,0.51,21.57,-0.83,-4.26,38.20,-5.53,1.05,4.70,3.49,-0.66,-11.71
-8,20,440,-58,-376,3879,-0.40,0.58,22.10,-0.58,-3.76,38.79,-5.53,1.04,4.61,4.08,-2.66,-15.42
-8,19,459,-47,-432,3957,-0.41,0.64,22.69,-0.47,-4.32,39.57,-5.55,1.04,4.52,4.08,-2.40,-16.43
-4,18,449,-105,-393,3958,-0.39,0.68,23.16,-1.05,-3.93,39.58,-5.55,1.07,4.43,3.50,-2.19,-15.10
-6,19,459,-153,-378,3869,-0.39,0.73,23.64,-1.53,-3.78,38.69,-5.55,1.10,4.34,3.81,-2.27,-15.46
5,21,457,-98,-310,3834,-0.32,0.78,24.07,-0.98,-3.10,38.34,-5.53,1.12,4.24,2.25,-2.49,-14.85
-2,16,449,-179,-357,3922,-0.30,0.80,24.40,-1.79,-3.57,39.22,-5.53,1.15,4.14,3.35,-1.71,-13.84
-1,18,446,-81,-391,3902,-0.28,0.83,24.68,-0.81,-3.91,39.02,-5.55,1.17,4.05,3.25,-1.97,-13.29
-12,20,482,-66,-414,3879,-0.32,0.87,25.15,-0.66,-4.14,38.79,-5.56,1.18,3.95,4.85,-2.21,-15.86
6,21,496,-126,-244,3828,-0.25,0.91,25.66,-1.26,-2.44,38.28,-5.54,1.20,3.85,2.22,-2.30,-16.53
-6,21,493,-133,-329,3908,-0.26,0.95,26.10,-1.33,-3.29,39.08,-5.53,1.22,3.74,4.02,-2.25,-15.83
2,20,537,-59,-315,3916,-0.23,0.98,26.77,-0.59,-3.15,39.16,-5.51,1.23,3.64,2.86,-2.05,-18.88
-14,10,514,-38,-285,3873,-0.29,0.94,27.23,-0.38,-2.85,38.73,-5.49,1.24,3.53,5.18,-0.60,-16.46
6,14,475,-55,-317,3757,-0.22,0.93,27.40,-0.55,-3.17,37.57,-5.48,1.24,3.42,2.23,-1.22,-12.97
-8,11,488,-50,-425,3860,-0.25,0.91,27.64,-0.50,-4.25,38.60,-5.49,1.24,3.31,4.33,-0.82,-13.83
-16,12,513,-18,-252,3862,-0.32,0.89,28.00,-0.18,-2.52,38.62,-5.47,1.25,3.20,5.40,-1.01,-15.57
-16,20,519,-150,-301,3915,-0.39,0.92,28.37,-1.50,-3.01,39.15,-5.46,1.28,3.08,5.27,-2.18,-15.71
-23,7,558,-48,-371,3908,-0.49,0.87,28.94,-0.48,-3.71,39.08,-5.46,1.27,2.97,6.15,-0.29,-18.43
-12,20,541,-30,-383,3950,-0.51,0.91,29.34,-0.30,-3.83,39.50,-5.46,1.27,2.85,4.43,-2.20,-16.58
-9,35,555,-133,-348,3937,-0.52,1.03,29.79,-1.33,-3.48,39.37,-5.45,1.30,2.73,3.96,-4.29,-17.30
-15,39,565,-140,-294,3845,-0.56,1.16,30.26,-1.40,-2.94,38.45,-5.43,1.33,2.61,4.79,-4.66,-17.67
-18,33,589,-31,-377,3869,-0.61,1.25,30.83,-0.31,-3.77,38.69,-5.44,1.33,2.49,5.15,-3.59,-19.13
-5,59,586,100,-322,3980,-0.58,1.48,31.32,1.00,-3.22,39.80,-5.43,1.33,2.37,3.22,-7.12,-18.37
-12,26,629,181,-248,3919,-0.60,1.49,32.02,1.81,-2.48,39.19,-5.42,1.33,2.24,4.26,-2.07,-21.30
-11,40,576,-29,-383,3961,-0.60,1.59,32.34,-0.29,-3.83,39.61,-5.42,1.33,2.11,4.09,-4.03,-16.49
1,42,600,-29,-382,3913,-0.54,1.69,32.76,-0.29,-3.82,39.13,-5.43,1.33,1.98,2.39,-4.16,-18.08
0,31,604,-132,-420,3911,-0.48,1.71,33.17,-1.32,-4.20,39.11,-5.44,1.36,1.85,2.64,-2.47,-18.00
-5,-1,672,49,-314,3893,-0.47,1.53,33.95,0.49,-3.14,38.93,-5.43,1.36,1.72,3.43,2.09,-22.97
-11,15,609,-15,-353,3897,-0.49,1.47,34.27,-0.15,-3.53,38.97,-5.42,1.36,1.58,4.31,-0.47,-17.30
-16,19,681,-74,-567,3806,-0.53,1.44,35.00,-0.74,-5.67,38.06,-5.44,1.38,1.44,4.99,-1.14,-22.66
-9,24,689,15,-556,3998,-0.54,1.44,35.70,0.15,-5.56,39.98,-5.46,1.39,1.30,3.93,-1.91,-22.62
-18,-9,604,-8,-278,3915,-0.59,1.24,35.82,-0.08,-2.78,39.15,-5.44,1.40,1.16,5.19,2.75,-15.30
-41,-19,522,77,-72,4018,-0.78,1.00,35.42,0.77,-0.72,40.18,-5.43,1.40,1.02,8.34,3.83,-8.74
-2,3,485,-102,-403,3755,-0.72,0.92,34.84,-1.02,-4.03,37.55,-5.44,1.42,0.88,2.52,0.31,-6.18
9,33,510,-77,-562,4036,-0.59,1.03,34.46,-0.77,-5.62,40.36,-5.46,1.44,0.74,1.09,-4.07,-8.66
-13,-44,581,41,-517,3760,-0.61,0.66,34.56,0.41,-5.17,37.60,-5.47,1.44,0.61,4.41,6.98,-14.57
-15,-14,605,-17,-431,3736,-0.64,0.51,34.80,-0.17,-4.31,37.36,-5.48,1.45,0.47,4.67,2.13,-16.36
-9,23,598,-72,-292,3934,-0.63,0.60,34.96,-0.72,-2.92,39.34,-5.47,1.46,0.33,3.76,-3.35,-15.59
-10,53,604,-40,-333,3835,-0.63,0.86,35.15,-0.40,-3.33,38.35,-5.46,1.46,0.19,3.91,-7.44,-15.90
-11,45,638,51,-343,3955,-0.63,1.05,35.53,0.51,-3.43,39.55,-5.45,1.46,0.05,4.05,-5.88,-18.39
0,47,641,28,-261,3864,-0.57,1.23,35.89,0.28,-2.61,38.64,-5.44,1.46,-0.10,2.48,-5.85,-18.28
-3,39,691,-78,-256,3822,-0.53,1.34,36.51,-0.78,-2.56,38.22,-5.42,1.48,-0.24,3.00,-4.43,-21.87
0,33,690,-111,-205,3982,-0.48,1.41,37.07,-1.11,-2.05,39.82,-5.40,1.50,-0.39,2.63,-3.40,-21.22
-16,18,707,-37,-437,4003,-0.53,1.38,37.68,-0.37,-4.37,40.03,-5.41,1.50,-0.54,4.98,-1.18,-22.04
-10,20,724,-99,-439,3946,-0.54,1.36,38.32,-0.99,-4.39,39.46,-5.42,1.52,-0.69,4.06,-1.52,-22.82
-6,2,698,89,-245,3876,-0.52,1.24,38.75,0.89,-2.45,38.76,-5.41,1.53,-0.84,3.48,0.99,-20.18
9,16,664,-55,-320,4002,-0.41,1.21,38.93,-0.55,-3.20,40.02,-5.40,1.53,-1.00,1.37,-1.20,-17.11
-9,31,780,-139,-493,3878,-0.43,1.28,39.79,-1.39,-4.93,38.78,-5.41,1.56,-1.16,4.10,-3.38,-26.06
-3,26,740,-18,-253,3943,-0.40,1.31,40.33,-0.18,-2.53,39.43,-5.39,1.57,-1.32,3.22,-2.57,-22.12
8,15,727,81,-142,3823,-0.31,1.27,40.73,0.81,-1.42,38.23,-5.38,1.58,-1.48,1.70,-0.97,-20.60
-5,-12,643,148,-239,3965,-0.31,1.07,40.58,1.48,-2.39,39.65,-5.36,1.58,-1.64,3.67,2.78,-13.63
-31,16,739,-291,-785,3895,-0.47,1.06,41.03,-2.91,-7.85,38.95,-5.38,1.61,-1.80,7.36,-1.53,-21.30
-14,27,864,-106,-521,3920,-0.51,1.12,42.20,-1.06,-5.21,39.20,-5.39,1.63,-1.97,4.70,-3.11,-30.70
-10,1,763,-190,-154,3817,-0.52,1.01,42.63,-1.90,-1.54,38.17,-5.37,1.65,-2.14,4.06,0.64,-21.70
-5,15,767,-124,-397,3783,-0.50,1.00,43.05,-1.24,-3.97,37.83,-5.39,1.68,-2.31,3.35,-1.53,-21.61
-10,32,847,-26,-448,3776,-0.51,1.10,43.91,-0.26,-4.48,37.76,-5.40,1.69,-2.49,4.10,-3.95,-27.51
-8,13,854,-50,-354,4078,-0.51,1.07,44.73,-0.50,-3.54,40.78,-5.39,1.69,-2.66,3.79,-1.11,-27.27
-11,20,798,-178,-396,3933,-0.52,1.08,45.12,-1.78,-3.96,39.33,-5.39,1.73,-2.84,4.22,-2.18,-22.11
-6,15,779,-151,-490,3891,-0.51,1.07,45.36,-1.51,-4.90,38.91,-5.41,1.76,-3.02,3.49,-1.46,-20.25
-11,30,752,-63,-418,3860,-0.52,1.14,45.41,-0.63,-4.18,38.60,-5.42,1.76,-3.20,4.23,-3.61,-17.90
6,39,743,-103,-433,3898,-0.43,1.27,45.40,-1.03,-4.33,38.98,-5.43,1.78,-3.38,1.81,-4.77,-17.13
-3,23,669,-208,-398,3935,-0.41,1.28,44.94,-2.08,-3.98,39.35,-5.43,1.82,-3.56,3.23,-2.33,-11.31
-6,19,651,-153,-459,3858,-0.41,1.27,44.42,-1.53,-4.59,38.58,-5.44,1.85,-3.74,3.71,-1.76,-10.30
-1,25,634,-116,-428,3914,-0.37,1.29,43.85,-1.16,-4.28,39.14,-5.46,1.87,-3.91,3.02,-2.64,-9.42
-15,15,587,72,-235,3800,-0.43,1.26,43.04,0.72,-2.35,38.00,-5.44,1.87,-4.08,5.04,-1.19,-6.24
-16,15,584,-46,-455,3913,-0.48,1.22,42.30,-0.46,-4.55,39.13,-5.45,1.88,-4.25,5.10,-1.26,-6.72
-18,23,582,-100,-475,3899,-0.54,1.24,41.62,-1.00,-4.75,38.99,-5.47,1.90,-4.41,5.30,-2.45,-7.22
-16,14,525,-150,-191,3870,-0.59,1.20,40.66,-1.50,-1.91,38.70,-5.45,1.92,-4.58,4.90,-1.17,-3.34
-7,3,537,-226,-355,3920,-0.57,1.10,39.87,-2.26,-3.55,39.20,-5.44,1.96,-4.73,3.55,0.30,-5.14
0,6,480,-150,-512,3999,-0.51,1.03,38.81,-1.50,-5.12,39.99,-5.45,1.98,-4.89,2.60,-0.31,-1.36
-16,14,514,-260,-549,3751,-0.56,1.01,38.07,-2.60,-5.49,37.51,-5.47,2.01,-5.04,4.96,-1.58,-4.98
-25,3,510,-58,-341,3827,-0.66,0.93,37.37,-0.58,-3.41,38.27,-5.46,2.01,-5.19,6.15,-0.05,-5.33
5,15,486,-95,-316,4010,-0.56,0.93,36.60,-0.95,-3.16,40.10,-5.44,2.01,-5.33,1.74,-1.89,-4.06
4,29,467,-53,-438,4037,-0.48,1.01,35.79,-0.53,-4.38,40.37,-5.45,2.02,-5.48,2.05,-3.87,-3.26
-1,4,441,-220,-474,4029,-0.44,0.93,34.90,-2.20,-4.74,40.29,-5.46,2.04,-5.61,2.89,-0.22,-1.94
7,15,417,-88,-301,4066,-0.35,0.93,33.95,-0.88,-3.01,40.66,-5.44,2.05,-5.75,1.82,-1.90,-0.84
-16,-6,417,-134,-318,3765,-0.41,0.80,33.10,-1.34,-3.18,37.65,-5.42,2.07,-5.88,5.20,1.05,-1.69
-17,4,436,-157,-444,3862,-0.48,0.75,32.45,-1.57,-4.44,38.62,-5.43,2.08,-6.01,5.25,-0.59,-3.94
-9,16,435,-97,-438,3926,-0.48,0.77,31.86,-0.97,-4.38,39.26,-5.44,2.09,-6.14,4.02,-2.38,-4.44
1,16,407,-139,-410,3923,-0.43,0.79,31.16,-1.39,-4.10,39.23,-5.46,2.10,-6.26,2.61,-2.35,-2.77
-6,5,402,-155,-270,3973,-0.42,0.74,30.49,-1.55,-2.70,39.73,-5.44,2.12,-6.38,3.67,-0.77,-3.00
-6,-12,324,-146,-287,3899,-0.42,0.59,29.42,-1.46,-2.87,38.99,-5.42,2.13,-6.50,3.67,1.54,2.54
2,0,337,-168,-478,3872,-0.36,0.53,28.53,-1.68,-4.78,38.72,-5.43,2.15,-6.61,2.56,-0.41,0.56
-12,21,493,-76,-408,3884,-0.40,0.61,28.69,-0.76,-4.08,38.84,-5.44,2.15,-6.73,4.63,-3.47,-12.50
-3,23,463,-94,-174,3917,-0.38,0.69,28.64,-0.94,-1.74,39.17,-5.42,2.15,-6.84,3.28,-3.64,-9.99
-4,7,415,-165,-384,3887,-0.36,0.66,28.31,-1.65,-3.84,38.87,-5.43,2.18,-6.95,3.47,-1.26,-6.25
-6,0,431,-70,-459,3945,-0.36,0.60,28.11,-0.70,-4.59,39.45,-5.44,2.18,-7.06,3.78,-0.32,-7.80
-1,20,484,-62,-486,3896,-0.33,0.66,28.25,-0.62,-4.86,38.96,-5.45,2.18,-7.18,3.08,-3.26,-12.14
-9,15,484,-78,-274,3945,-0.36,0.68,28.38,-0.78,-2.74,39.45,-5.43,2.19,-7.29,4.25,-2.45,-12.01
-2,18,399,-186,-637,4007,-0.33,0.73,27.97,-1.86,-6.37,40.07,-5.45,2.20,-7.40,3.23,-2.84,-5.20
-10,9,463,-140,-675,3966,-0.36,0.71,28.00,-1.40,-6.75,39.66,-5.46,2.22,-7.51,4.41,-1.51,-10.59
-14,15,513,-159,-301,3894,-0.41,0.73,28.33,-1.59,-3.01,38.94,-5.44,2.23,-7.62,4.92,-2.39,-14.49
-13,10,464,-63,-225,3898,-0.45,0.72,28.33,-0.63,-2.25,38.98,-5.42,2.24,-7.74,4.68,-1.66,-10.33
6,19,523,-148,-557,3884,-0.37,0.76,28.68,-1.48,-5.57,38.84,-5.44,2.25,-7.85,1.94,-2.96,-14.96
-17,10,527,-142,-442,3968,-0.43,0.75,29.03,-1.42,-4.42,39.68,-5.45,2.26,-7.96,5.34,-1.62,-14.95
2,21,594,-125,-352,3979,-0.38,0.80,29.75,-1.25,-3.52,39.79,-5.44,2.26,-8.08,2.53,-3.20,-19.89
-4,12,604,-78,-473,3961,-0.36,0.79,30.46,-0.78,-4.73,39.61,-5.45,2.26,-8.20,3.48,-1.84,-20.02
-19,3,550,-9,-372,3942,-0.44,0.73,30.77,-0.09,-3.72,39.42,-5.45,2.26,-8.33,5.62,-0.58,-15.13
-10,13,573,-151,-486,3805,-0.46,0.74,31.19,-1.51,-4.86,38.05,-5.46,2.27,-8.45,4.23,-2.10,-16.65
-19,-9,542,120,-283,3845,-0.53,0.61,31.38,1.20,-2.83,38.45,-5.45,2.27,-8.57,5.46,1.02,-13.82
10,19,519,-15,-447,3805,-0.42,0.66,31.40,-0.15,-4.47,38.05,-5.46,2.27,-8.70,1.26,-3.15,-11.84
-9,16,459,-145,-507,3739,-0.43,0.70,31.06,-1.45,-5.07,37.39,-5.47,2.28,-8.82,4.14,-2.64,-7.09
-3,2,468,-23,-431,3996,-0.41,0.64,30.81,-0.23,-4.31,39.96,-5.48,2.28,-8.94,3.27,-0.61,-8.09
3,13,454,-17,-279,3931,-0.35,0.65,30.50,-0.17,-2.79,39.31,-5.46,2.28,-9.07,2.46,-2.26,-7.21
-11,-4,439,-6,-260,3979,-0.38,0.56,30.13,-0.06,-2.60,39.79,-5.45,2.28,-9.19,4.52,0.17,-6.31
-6,-1,394,-107,-567,3884,-0.38,0.50,29.52,-1.07,-5.67,38.84,-5.46,2.29,-9.30,3.77,-0.41,-3.10
-1,4,414,-35,-517,3967,-0.35,0.48,29.09,-0.35,-5.17,39.67,-5.47,2.29,-9.42,3.07,-1.22,-5.21
4,4,389,-72,-350,3995,-0.29,0.45,28.56,-0.72,-3.50,39.95,-5.46,2.28,-9.53,2.41,-1.26,-3.62
-9,3,351,-128,-423,3825,-0.31,0.43,27.84,-1.28,-4.23,38.25,-5.48,2.29,-9.64,4.36,-1.16,-1.11
-9,15,396,39,-404,3945,-0.34,0.47,27.47,0.39,-4.04,39.45,-5.48,2.28,-9.75,4.31,-2.90,-5.29
-4,23,393,-87,-362,3960,-0.33,0.57,27.12,-0.87,-3.62,39.60,-5.47,2.28,-9.86,3.56,-3.94,-5.38
-7,10,387,-129,-361,3981,-0.34,0.57,26.77,-1.29,-3.61,39.81,-5.46,2.27,-9.97,3.99,-1.95,-5.21
4,28,384,-174,-379,3782,-0.28,0.69,26.44,-1.74,-3.79,37.82,-5.46,2.30,-10.07,2.43,-4.50,-5.29
8,13,379,-2,-384,3929,-0.20,0.70,26.10,-0.02,-3.84,39.29,-5.46,2.30,-10.17,1.96,-2.19,-5.19
-5,18,379,-91,-481,3771,-0.21,0.74,25.81,-0.91,-4.81,37.71,-5.47,2.30,-10.28,3.93,-2.88,-5.48
4,28,435,-112,-323,3804,-0.17,0.83,25.88,-1.12,-3.23,38.04,-5.46,2.30,-10.38,2.63,-4.23,-10.15
-8,28,448,-103,-423,3881,-0.20,0.92,26.02,-1.03,-4.23,38.81,-5.47,2.30,-10.48,4.41,-4.07,-11.10
0,18,406,-128,-429,3933,-0.18,0.94,25.90,-1.28,-4.29,39.33,-5.48,2.31,-10.58,3.23,-2.51,-7.66
-4,17,442,-87,-572,3772,-0.19,0.95,26.00,-0.87,-5.72,37.72,-5.49,2.31,-10.69,3.84,-2.35,-10.59
-2,18,453,-174,-323,3803,-0.18,0.96,26.17,-1.74,-3.23,38.03,-5.47,2.34,-10.79,3.53,-2.49,-11.35
-6,8,436,-82,-297,3940,-0.20,0.92,26.21,-0.82,-2.97,39.40,-5.46,2.34,-10.90,4.10,-1.05,-9.86
-10,-1,441,45,-399,4047,-0.24,0.82,26.28,0.45,-3.99,40.47,-5.46,2.33,-11.00,4.63,0.15,-10.21
-1,13,444,-101,-448,3849,-0.22,0.82,26.36,-1.01,-4.48,38.49,-5.47,2.33,-11.10,3.30,-2.00,-10.38
