gyroADC_X,gyroADC_Y,gyroADC_Z,accADC_X,accADC_Y,accADC_Z,GyroX,GyroY,GyroZ,AccX,AccY,AccZ,roll_IMU,pitch_IMU,yaw_IMU,roll_PID,pitch_PID,yaw_PID
0,0,0,2,-307,3897,-0.00,-0.00,-0.00,0.02,-3.07,38.97,-5.07,-0.29,82.40,3.34,0.19,-12.36
0,0,0,25,-368,3926,-0.00,-0.00,-0.00,0.25,-3.68,39.26,-5.09,-0.29,82.40,3.36,0.19,-12.36
0,0,0,21,-382,3949,-0.00,-0.00,-0.00,0.21,-3.82,39.49,-5.10,-0.29,82.40,3.37,0.19,-12.36
0,0,0,19,-362,3888,-0.00,-0.00,-0.00,0.19,-3.62,38.88,-5.12,-0.29,82.40,3.38,0.19,-12.36
0,0,0,27,-339,3900,-0.00,-0.00,-0.00,0.27,-3.39,39.00,-5.11,-0.30,82.40,3.37,0.20,-12.36
10,-23,-2,27,-297,3869,0.06,-0.14,-0.01,0.27,-2.97,38.69,-5.09,-0.31,82.40,3.14,0.71,-12.23
5,2,27,4,-326,3899,0.09,-0.11,0.15,0.04,-3.26,38.99,-5.07,-0.30,82.40,3.22,0.19,-14.10
4,0,28,11,-358,3899,0.10,-0.10,0.31,0.11,-3.58,38.99,-5.09,-0.28,82.40,3.25,0.22,-14.08
2,2,27,-1,-363,3892,0.10,-0.08,0.44,-0.01,-3.63,38.92,-5.10,-0.27,82.39,3.30,0.16,-13.94
1,0,26,-12,-361,3914,0.10,-0.07,0.56,-0.12,-3.61,39.14,-5.10,-0.25,82.39,3.32,0.19,-13.81
-1,0,27,-23,-386,3945,0.08,-0.06,0.67,-0.23,-3.86,39.45,-5.12,-0.24,82.39,3.37,0.18,-13.81
4,8,32,-10,-417,3857,0.10,-0.01,0.79,-0.10,-4.17,38.57,-5.13,-0.23,82.38,3.28,-0.01,-14.08
4,6,37,-21,-423,3921,0.11,0.03,0.94,-0.21,-4.23,39.21,-5.15,-0.22,82.38,3.29,0.02,-14.34
-4,4,51,-47,-393,3850,0.08,0.05,1.16,-0.47,-3.93,38.50,-5.16,-0.21,82.38,3.47,0.04,-15.16
-6,11,2,-81,-359,3918,0.03,0.11,1.05,-0.81,-3.59,39.18,-5.16,-0.19,82.37,3.52,-0.13,-11.90
-4,-2,-13,61,-377,3939,0.01,0.09,0.87,0.61,-3.77,39.39,-5.17,-0.21,82.37,3.49,0.15,-10.99
-2,-1,3,58,-405,3904,-0.01,0.07,0.80,0.58,-4.05,39.04,-5.18,-0.22,82.37,3.46,0.14,-12.11
-2,1,52,13,-355,3883,-0.02,0.07,1.04,0.13,-3.55,38.83,-5.20,-0.21,82.36,3.48,0.10,-15.30
6,11,65,32,-322,3844,0.02,0.13,1.33,0.32,-3.22,38.44,-5.18,-0.22,82.36,3.29,-0.12,-16.01
3,8,67,48,-222,3865,0.04,0.17,1.61,0.48,-2.22,38.65,-5.16,-0.22,82.35,3.34,-0.06,-15.99
4,1,56,51,-242,3927,0.06,0.16,1.79,0.51,-2.42,39.27,-5.15,-0.22,82.34,3.30,0.08,-15.14
2,-3,39,55,-317,3893,0.06,0.12,1.85,0.55,-3.17,38.93,-5.13,-0.24,82.34,3.33,0.18,-13.96
1,-1,39,62,-326,3883,0.06,0.10,1.90,0.62,-3.26,38.83,-5.13,-0.25,82.33,3.35,0.16,-13.93
2,0,36,31,-345,3906,0.07,0.09,1.93,0.31,-3.45,39.06,-5.12,-0.27,82.32,3.32,0.15,-13.71
2,0,37,35,-328,3901,0.07,0.08,1.96,0.35,-3.28,39.01,-5.10,-0.28,82.31,3.31,0.16,-13.75
1,4,33,54,-329,3895,0.07,0.10,1.97,0.54,-3.29,38.95,-5.10,-0.29,82.31,3.32,0.08,-13.48
1,5,30,50,-340,3897,0.07,0.12,1.95,0.50,-3.40,38.97,-5.09,-0.31,82.30,3.32,0.07,-13.28
2,3,27,31,-308,3896,0.08,0.13,1.92,0.31,-3.08,38.96,-5.07,-0.31,82.29,3.29,0.11,-13.09
2,2,28,47,-314,3868,0.08,0.13,1.90,0.47,-3.14,38.68,-5.06,-0.32,82.28,3.28,0.14,-13.17
0,1,25,2,-345,3909,0.07,0.12,1.86,0.02,-3.45,39.09,-5.06,-0.30,82.28,3.32,0.15,-12.99
0,2,23,-3,-344,3908,0.07,0.12,1.82,-0.03,-3.44,39.08,-5.06,-0.28,82.27,3.32,0.11,-12.88
1,9,22,26,-376,3940,0.07,0.16,1.77,0.26,-3.76,39.40,-5.07,-0.29,82.26,3.31,-0.04,-12.84
3,8,25,10,-396,3927,0.08,0.20,1.75,0.10,-3.96,39.27,-5.09,-0.28,82.25,3.28,-0.03,-13.05
3,10,27,29,-326,3888,0.09,0.24,1.74,0.29,-3.26,38.88,-5.07,-0.29,82.25,3.26,-0.08,-13.19
3,9,25,27,-343,3899,0.10,0.27,1.71,0.27,-3.43,38.99,-5.07,-0.30,82.24,3.26,-0.06,-13.07
10,11,21,47,-378,3926,0.15,0.31,1.67,0.47,-3.78,39.26,-5.08,-0.31,82.23,3.11,-0.10,-12.82
7,7,22,24,-340,3873,0.18,0.32,1.64,0.24,-3.40,38.73,-5.06,-0.32,82.23,3.15,-0.02,-12.91
2,8,21,1,-356,3905,0.17,0.34,1.60,0.01,-3.56,39.05,-5.07,-0.30,82.22,3.26,-0.05,-12.86
1,5,19,13,-330,3899,0.16,0.33,1.56,0.13,-3.30,38.99,-5.05,-0.29,82.22,3.27,0.00,-12.75
3,7,23,-1,-347,3920,0.16,0.34,1.54,-0.01,-3.47,39.20,-5.05,-0.27,82.21,3.23,-0.06,-13.02
4,10,24,4,-326,3904,0.17,0.37,1.53,0.04,-3.26,39.04,-5.04,-0.26,82.20,3.20,-0.13,-13.10
3,4,25,21,-351,3898,0.17,0.36,1.53,0.21,-3.51,38.98,-5.05,-0.27,82.20,3.23,-0.00,-13.16
3,4,24,21,-356,3903,0.17,0.35,1.53,0.21,-3.56,39.03,-5.07,-0.27,82.19,3.24,0.00,-13.10
3,7,27,17,-360,3909,0.17,0.35,1.54,0.17,-3.60,39.09,-5.09,-0.26,82.18,3.25,-0.06,-13.29
3,8,30,24,-349,3919,0.17,0.37,1.57,0.24,-3.49,39.19,-5.09,-0.28,82.18,3.25,-0.08,-13.48
3,8,24,32,-340,3885,0.18,0.38,1.56,0.32,-3.40,38.85,-5.08,-0.30,82.17,3.24,-0.07,-13.08
4,9,23,59,-351,3875,0.18,0.40,1.54,0.59,-3.51,38.75,-5.08,-0.31,82.17,3.22,-0.09,-13.02
5,5,18,28,-343,3899,0.19,0.39,1.50,0.28,-3.43,38.99,-5.07,-0.33,82.16,3.19,0.01,-12.70
5,6,19,20,-358,3910,0.21,0.39,1.46,0.20,-3.58,39.10,-5.09,-0.32,82.16,3.20,-0.02,-12.79
4,8,21,-19,-347,3928,0.21,0.40,1.45,-0.19,-3.47,39.28,-5.09,-0.30,82.15,3.22,-0.07,-12.93
2,8,22,-11,-360,3911,0.20,0.40,1.44,-0.11,-3.60,39.11,-5.09,-0.28,82.14,3.27,-0.09,-13.01
3,9,18,-3,-360,3904,0.20,0.42,1.40,-0.03,-3.60,39.04,-5.10,-0.26,82.14,3.25,-0.12,-12.75
4,8,13,-37,-378,3874,0.20,0.43,1.34,-0.37,-3.78,38.74,-5.11,-0.24,82.13,3.24,-0.12,-12.45
1,7,19,-11,-449,3894,0.19,0.43,1.32,-0.11,-4.49,38.94,-5.13,-0.24,82.13,3.31,-0.10,-12.86
-1,5,16,-21,-393,3866,0.16,0.41,1.29,-0.21,-3.93,38.66,-5.14,-0.22,82.12,3.37,-0.07,-12.68
0,2,4,84,-281,3896,0.15,0.38,1.18,0.84,-2.81,38.96,-5.13,-0.23,82.12,3.34,0.01,-11.92
0,2,7,73,-296,3905,0.13,0.36,1.11,0.73,-2.96,39.05,-5.11,-0.25,82.11,3.34,0.02,-12.17
3,-4,29,-10,-321,3890,0.14,0.30,1.17,-0.10,-3.21,38.90,-5.10,-0.23,82.11,3.27,0.15,-13.62
0,-4,38,40,-389,3865,0.12,0.24,1.29,0.40,-3.89,38.65,-5.12,-0.24,82.10,3.34,0.17,-14.17
2,1,36,53,-285,3914,0.12,0.23,1.38,0.53,-2.85,39.14,-5.10,-0.25,82.10,3.29,0.08,-13.98
2,2,33,63,-304,3903,0.12,0.22,1.44,0.63,-3.04,39.03,-5.09,-0.26,82.09,3.28,0.07,-13.74
2,4,27,52,-347,3893,0.12,0.22,1.46,0.52,-3.47,38.93,-5.09,-0.27,82.09,3.28,0.04,-13.32
1,6,26,33,-358,3895,0.12,0.23,1.48,0.33,-3.58,38.95,-5.10,-0.29,82.08,3.31,0.00,-13.25
-2,7,20,-7,-361,3916,0.09,0.25,1.45,-0.07,-3.61,39.16,-5.10,-0.27,82.08,3.38,-0.03,-12.85
2,9,21,-15,-433,3930,0.10,0.28,1.43,-0.15,-4.33,39.30,-5.12,-0.26,82.07,3.31,-0.09,-12.93
5,18,16,-64,-518,3851,0.12,0.36,1.39,-0.64,-5.18,38.51,-5.14,-0.25,82.07,3.26,-0.30,-12.62
-4,13,17,-106,-584,3906,0.08,0.41,1.35,-1.06,-5.84,39.06,-5.15,-0.24,82.06,3.46,-0.22,-12.70
2,7,49,-2,-441,3940,0.09,0.41,1.52,-0.02,-4.41,39.40,-5.17,-0.23,82.05,3.35,-0.10,-14.78
10,13,63,-4,-530,3823,0.14,0.45,1.75,-0.04,-5.30,38.23,-5.19,-0.23,82.05,3.18,-0.23,-15.60
-1,12,112,8,-384,3828,0.12,0.48,2.26,0.08,-3.84,38.28,-5.20,-0.22,82.04,3.42,-0.23,-18.63
9,18,118,10,-393,3881,0.16,0.54,2.75,0.10,-3.93,38.81,-5.22,-0.22,82.03,3.22,-0.37,-18.76
-9,5,141,171,-53,3846,0.09,0.51,3.34,1.71,-0.53,38.46,-5.21,-0.22,82.01,3.59,-0.09,-19.99
-1,7,126,176,-50,3929,0.07,0.51,3.77,1.76,-0.50,39.29,-5.19,-0.23,82.00,3.42,-0.13,-18.72
15,12,22,192,-312,3924,0.16,0.53,3.53,1.92,-3.12,39.24,-5.18,-0.24,81.99,3.07,-0.23,-11.81
1,8,20,106,-359,3857,0.15,0.52,3.30,1.06,-3.59,38.57,-5.19,-0.26,81.97,3.36,-0.14,-11.80
4,13,4,35,-321,3943,0.16,0.55,2.99,0.35,-3.21,39.43,-5.17,-0.26,81.96,3.29,-0.24,-10.89
2,8,-4,64,-382,3982,0.15,0.54,2.67,0.64,-3.82,39.82,-5.18,-0.28,81.95,3.33,-0.13,-10.52
7,8,-19,-44,-433,3918,0.18,0.54,2.29,-0.44,-4.33,39.18,-5.19,-0.26,81.94,3.23,-0.14,-9.72
8,11,-25,-18,-514,3928,0.21,0.55,1.90,-0.18,-5.14,39.28,-5.21,-0.25,81.93,3.22,-0.21,-9.53
-1,14,11,-37,-435,3871,0.19,0.58,1.78,-0.37,-4.35,38.71,-5.22,-0.24,81.93,3.42,-0.28,-12.04
-5,13,17,-39,-359,3879,0.14,0.60,1.71,-0.39,-3.59,38.79,-5.22,-0.22,81.92,3.51,-0.28,-12.48
2,14,60,-83,-438,3886,0.13,0.63,1.90,-0.83,-4.38,38.86,-5.23,-0.20,81.91,3.38,-0.32,-15.29
-7,15,77,-36,-401,3936,0.08,0.66,2.18,-0.36,-4.01,39.36,-5.24,-0.18,81.90,3.58,-0.36,-16.28
-7,11,92,-45,-420,4091,0.03,0.66,2.52,-0.45,-4.20,40.91,-5.26,-0.17,81.89,3.60,-0.29,-17.10
8,21,119,10,-397,3741,0.07,0.72,3.00,0.10,-3.97,37.41,-5.27,-0.16,81.88,3.30,-0.52,-18.67
5,13,164,11,-343,3821,0.10,0.73,3.70,0.11,-3.43,38.21,-5.25,-0.16,81.87,3.34,-0.36,-20.00
5,18,161,-88,-384,3760,0.12,0.77,4.31,-0.88,-3.84,37.60,-5.26,-0.14,81.85,3.34,-0.48,-20.00
7,21,158,44,-284,3861,0.15,0.82,4.84,0.44,-2.84,38.61,-5.24,-0.14,81.83,3.28,-0.56,-20.00
3,11,148,24,-186,3995,0.15,0.80,5.26,0.24,-1.86,39.95,-5.23,-0.14,81.81,3.35,-0.35,-19.35
-8,-8,139,-46,-258,4007,0.09,0.67,5.58,-0.46,-2.58,40.07,-5.21,-0.12,81.79,3.58,0.06,-18.56
-8,0,129,44,-352,3838,0.03,0.61,5.81,0.44,-3.52,38.38,-5.21,-0.14,81.77,3.59,-0.07,-17.75
2,10,119,-96,-461,3933,0.04,0.61,5.96,-0.96,-4.61,39.33,-5.22,-0.12,81.74,3.40,-0.29,-16.98
2,17,140,-110,-499,3813,0.05,0.65,6.22,-1.10,-4.99,38.13,-5.24,-0.10,81.72,3.40,-0.45,-18.26
-5,12,227,-98,-442,3787,0.01,0.66,6.98,-0.98,-4.42,37.87,-5.25,-0.08,81.69,3.56,-0.37,-20.00
-4,-3,270,-42,-386,3978,-0.01,0.57,7.93,-0.42,-3.86,39.78,-5.26,-0.06,81.66,3.55,-0.05,-20.00
-10,7,334,-25,-442,3894,-0.07,0.56,9.17,-0.25,-4.42,38.94,-5.27,-0.05,81.62,3.70,-0.26,-20.00
-7,6,358,26,-375,3908,-0.11,0.54,10.44,0.26,-3.75,39.08,-5.28,-0.06,81.58,3.66,-0.23,-20.00
-17,-4,402,31,-399,3851,-0.20,0.46,11.85,0.31,-3.99,38.51,-5.30,-0.06,81.54,3.90,-0.00,-20.00
1,6,395,43,-386,3898,-0.17,0.45,13.07,0.43,-3.86,38.98,-5.31,-0.07,81.48,3.53,-0.20,-20.00
9,2,391,-34,-320,3838,-0.10,0.42,14.15,-0.34,-3.20,38.38,-5.30,-0.05,81.43,3.34,-0.12,-20.00
-25,6,396,-29,-360,3803,-0.24,0.41,15.15,-0.29,-3.60,38.03,-5.30,-0.03,81.37,4.08,-0.22,-20.00
-30,-17,432,-10,-332,3685,-0.40,0.27,16.27,-0.10,-3.32,36.85,-5.29,-0.01,81.30,4.21,0.28,-20.00
3,22,434,-14,-340,3839,-0.34,0.38,17.29,-0.14,-3.40,38.39,-5.28,0.01,81.23,3.52,-0.56,-20.00
-6,37,436,-40,-183,3842,-0.35,0.56,18.22,-0.40,-1.83,38.42,-5.26,0.03,81.16,3.69,-0.92,-20.00
-10,-5,401,-55,-129,3873,-0.37,0.48,18.85,-0.55,-1.29,38.73,-5.25,0.04,81.09,3.77,-0.06,-20.00
-1,7,293,5,-275,3928,-0.34,0.47,18.75,0.05,-2.75,39.28,-5.23,0.05,81.01,3.57,-0.30,-20.00
9,15,275,43,-320,3901,-0.25,0.52,18.55,0.43,-3.20,39.01,-5.22,0.04,80.94,3.33,-0.47,-20.00
2,20,274,19,-464,3886,-0.22,0.59,18.37,0.19,-4.64,38.86,-5.24,0.05,80.87,3.48,-0.60,-20.00
-10,14,287,-23,-391,3854,-0.25,0.61,18.28,-0.23,-3.91,38.54,-5.26,0.07,80.79,3.74,-0.49,-20.00
0,23,261,20,-476,3691,-0.23,0.69,18.05,0.20,-4.76,36.91,-5.28,0.07,80.72,3.54,-0.70,-19.67
5,33,260,-38,-363,4015,-0.18,0.82,17.83,-0.38,-3.63,40.15,-5.27,0.10,80.65,3.43,-0.96,-19.72
1,17,273,34,-355,4039,-0.15,0.85,17.71,0.34,-3.55,40.39,-5.27,0.09,80.58,3.50,-0.64,-20.00
-4,9,274,-7,-400,3827,-0.16,0.82,17.61,-0.07,-4.00,38.27,-5.28,0.10,80.51,3.61,-0.47,-20.00
-8,5,310,-46,-399,3946,-0.19,0.76,17.74,-0.46,-3.99,39.46,-5.30,0.13,80.44,3.71,-0.39,-20.00
-9,-2,312,-40,-252,3823,-0.23,0.68,17.87,-0.40,-2.52,38.23,-5.28,0.14,80.37,3.73,-0.24,-20.00
-12,-8,299,147,-291,3968,-0.28,0.56,17.91,1.47,-2.91,39.68,-5.27,0.13,80.30,3.80,-0.08,-20.00
-17,-4,293,125,-274,3869,-0.36,0.48,17.90,1.25,-2.74,38.69,-5.26,0.13,80.23,3.92,-0.13,-20.00
-19,-14,229,89,-233,3900,-0.44,0.35,17.51,0.89,-2.33,39.00,-5.25,0.12,80.16,3.97,0.11,-17.72
-5,-5,217,96,-192,3848,-0.42,0.28,17.08,0.96,-1.92,38.48,-5.24,0.12,80.09,3.67,-0.05,-17.14
-1,13,189,40,-398,3807,-0.39,0.33,16.53,0.40,-3.98,38.07,-5.25,0.11,80.02,3.59,-0.43,-15.54
-4,11,196,29,-402,3952,-0.37,0.37,16.07,0.29,-4.02,39.52,-5.27,0.11,79.96,3.66,-0.40,-16.26
-3,2,259,-14,-493,3920,-0.35,0.34,16.04,-0.14,-4.93,39.20,-5.29,0.12,79.90,3.65,-0.21,-20.00
-8,-2,273,25,-484,3946,-0.37,0.30,16.10,0.25,-4.84,39.46,-5.31,0.12,79.83,3.76,-0.12,-20.00
-1,2,326,-17,-392,3976,-0.34,0.28,16.48,-0.17,-3.92,39.76,-5.32,0.13,79.77,3.63,-0.20,-20.00
-9,4,352,42,-411,3814,-0.36,0.27,16.98,0.42,-4.11,38.14,-5.34,0.13,79.70,3.80,-0.24,-20.00
-3,9,413,-15,-395,3727,-0.34,0.30,17.80,-0.15,-3.95,37.27,-5.36,0.14,79.63,3.69,-0.36,-20.00
-3,25,422,-36,-445,3837,-0.32,0.42,18.60,-0.36,-4.45,38.37,-5.38,0.15,79.55,3.70,-0.72,-20.00
-7,4,479,-78,-496,3698,-0.33,0.41,19.66,-0.78,-4.96,36.98,-5.39,0.17,79.48,3.79,-0.30,-20.00
-21,17,490,-9,-343,3895,-0.43,0.47,20.68,-0.09,-3.43,38.95,-5.38,0.18,79.39,4.09,-0.59,-20.00
4,17,504,-23,-288,3895,-0.36,0.53,21.69,-0.23,-2.88,38.95,-5.36,0.19,79.31,3.56,-0.61,-20.00
3,16,503,-40,-351,3908,-0.31,0.57,22.59,-0.40,-3.51,39.08,-5.35,0.22,79.22,3.56,-0.62,-20.00
0,15,483,-18,-293,3934,-0.28,0.61,23.27,-0.18,-2.93,39.34,-5.33,0.23,79.13,3.60,-0.62,-20.00
-11,17,502,23,-389,3969,-0.32,0.65,24.01,0.23,-3.89,39.69,-5.34,0.22,79.03,3.84,-0.67,-20.00
-8,19,533,25,-364,3888,-0.33,0.70,24.86,0.25,-3.64,38.88,-5.34,0.22,78.93,3.78,-0.72,-20.00
-8,36,562,46,-319,3949,-0.35,0.85,25.80,0.46,-3.19,39.49,-5.33,0.22,78.83,3.78,-1.11,-20.00
-14,17,556,69,-158,4046,-0.40,0.87,26.61,0.69,-1.58,40.46,-5.32,0.22,78.72,3.90,-0.73,-20.00
0,23,539,63,-186,3818,-0.36,0.92,27.24,0.63,-1.86,38.18,-5.30,0.23,78.61,3.60,-0.87,-20.00
-1,8,468,-64,-133,3815,-0.33,0.88,27.37,-0.64,-1.33,38.15,-5.29,0.25,78.51,3.60,-0.56,-20.00
4,26,455,45,-192,3776,-0.27,0.95,27.41,0.45,-1.92,37.76,-5.27,0.25,78.40,3.47,-0.95,-20.00
-2,18,301,-40,-137,3898,-0.26,0.96,26.50,-0.40,-1.37,38.98,-5.25,0.27,78.29,3.58,-0.81,-17.27
-9,3,252,-61,-111,3955,-0.29,0.89,25.39,-0.61,-1.11,39.55,-5.23,0.28,78.19,3.72,-0.49,-14.56
-1,7,127,51,-260,3847,-0.26,0.84,23.63,0.51,-2.60,38.47,-5.22,0.29,78.10,3.54,-0.56,-7.07
1,7,108,76,-274,3888,-0.23,0.80,21.92,0.76,-2.74,38.88,-5.21,0.28,78.01,3.48,-0.55,-6.72
4,1,46,65,-292,3894,-0.18,0.72,20.01,0.65,-2.92,38.94,-5.20,0.28,77.93,3.40,-0.40,-3.58
3,2,32,23,-348,3923,-0.15,0.66,18.21,0.23,-3.48,39.23,-5.19,0.27,77.86,3.41,-0.40,-3.63
1,1,24,-16,-354,3903,-0.13,0.60,16.53,-0.16,-3.54,39.03,-5.19,0.26,77.79,3.44,-0.36,-4.02
-1,-3,28,-1,-324,3900,-0.12,0.53,15.05,-0.01,-3.24,39.00,-5.17,0.26,77.73,3.47,-0.25,-5.11
-7,-12,96,9,-344,3941,-0.15,0.40,14.13,0.09,-3.44,39.41,-5.17,0.25,77.68,3.59,-0.03,-10.23
0,-4,80,-41,-386,3878,-0.14,0.34,13.20,-0.41,-3.86,38.78,-5.18,0.27,77.62,3.46,-0.19,-9.66
-4,-3,31,-20,-367,3891,-0.15,0.28,12.07,-0.20,-3.67,38.91,-5.20,0.27,77.58,3.55,-0.20,-6.96
-4,0,28,-16,-356,3914,-0.16,0.26,11.04,-0.16,-3.56,39.14,-5.20,0.26,77.53,3.56,-0.24,-7.33
5,7,27,41,-411,3937,-0.11,0.27,10.10,0.41,-4.11,39.37,-5.21,0.25,77.49,3.37,-0.38,-7.79
6,9,38,53,-430,3922,-0.06,0.30,9.32,0.53,-4.30,39.22,-5.22,0.24,77.46,3.34,-0.43,-8.96
-5,16,104,50,-410,3928,-0.09,0.37,9.02,0.50,-4.10,39.28,-5.24,0.23,77.42,3.58,-0.58,-13.60
0,16,127,67,-403,3865,-0.08,0.43,8.89,0.67,-4.03,38.65,-5.25,0.22,77.38,3.48,-0.59,-15.22
-2,13,195,114,-438,3911,-0.08,0.46,9.19,1.14,-4.38,39.11,-5.25,0.21,77.35,3.53,-0.53,-19.66
-6,19,220,81,-415,3857,-0.11,0.53,9.62,0.81,-4.15,38.57,-5.26,0.20,77.31,3.63,-0.67,-20.00
1,17,260,-1,-366,3941,-0.09,0.58,10.24,-0.01,-3.66,39.41,-5.27,0.19,77.27,3.48,-0.63,-20.00
-6,2,270,19,-348,3919,-0.12,0.54,10.86,0.19,-3.48,39.19,-5.26,0.18,77.23,3.63,-0.31,-20.00
-9,8,307,-27,-380,3845,-0.16,0.53,11.65,-0.27,-3.80,38.45,-5.28,0.19,77.18,3.71,-0.44,-20.00
-4,6,310,-43,-302,3943,-0.17,0.52,12.38,-0.43,-3.02,39.43,-5.26,0.21,77.13,3.60,-0.40,-20.00
-5,-5,305,-26,-293,3970,-0.18,0.43,13.00,-0.26,-2.93,39.70,-5.25,0.22,77.08,3.61,-0.16,-20.00
-6,10,306,-2,-282,3812,-0.20,0.45,13.57,-0.02,-2.82,38.12,-5.23,0.22,77.03,3.63,-0.47,-20.00
-6,4,312,1,-319,3865,-0.22,0.43,14.11,0.01,-3.19,38.65,-5.21,0.22,76.97,3.62,-0.34,-20.00
-12,3,345,62,-297,3928,-0.27,0.41,14.81,0.62,-2.97,39.28,-5.20,0.21,76.91,3.75,-0.31,-20.00
-6,-12,439,218,-344,4026,-0.28,0.29,16.00,2.18,-3.44,40.26,-5.20,0.20,76.85,3.63,0.03,-20.00
-10,1,481,357,-357,3907,-0.31,0.27,17.34,3.57,-3.57,39.07,-5.20,0.19,76.78,3.72,-0.22,-20.00
-15,-4,683,67,-643,3965,-0.37,0.22,19.77,0.67,-6.43,39.65,-5.22,0.19,76.70,3.85,-0.11,-20.00
-20,11,694,54,-668,3861,-0.46,0.26,22.03,0.54,-6.68,38.61,-5.24,0.20,76.61,3.99,-0.43,-20.00
-18,1,806,-6,-222,3858,-0.52,0.24,24.74,-0.06,-2.22,38.58,-5.22,0.21,76.51,3.96,-0.22,-20.00
-30,3,860,34,-238,3880,-0.65,0.24,27.51,0.34,-2.38,38.80,-5.21,0.21,76.40,4.23,-0.27,-20.00
-21,-9,940,-18,-348,3973,-0.72,0.16,30.49,-0.18,-3.48,39.73,-5.19,0.23,76.28,4.05,-0.01,-20.00
-11,-8,951,7,-236,4016,-0.71,0.09,33.25,0.07,-2.36,40.16,-5.18,0.24,76.15,3.83,-0.02,-20.00
-25,-19,958,99,-372,3876,-0.79,-0.03,35.77,0.99,-3.72,38.76,-5.18,0.23,76.01,4.15,0.24,-20.00
-17,30,935,14,-205,3778,-0.82,0.15,37.89,0.14,-2.05,37.78,-5.17,0.24,75.86,3.98,-0.81,-20.00
-2,80,925,-31,-105,3945,-0.75,0.63,39.75,-0.31,-1.05,39.45,-5.15,0.26,75.70,3.65,-1.97,-20.00
-25,37,894,-78,-198,4047,-0.83,0.79,41.22,-0.78,-1.98,40.47,-5.14,0.28,75.53,4.12,-1.16,-20.00
-27,29,811,96,-222,3938,-0.91,0.89,42.05,0.96,-2.22,39.38,-5.13,0.29,75.37,4.18,-1.02,-20.00
-2,38,776,58,-313,3924,-0.83,1.03,42.58,0.58,-3.13,39.24,-5.12,0.29,75.20,3.65,-1.25,-20.00
12,45,683,-139,-242,3828,-0.67,1.20,42.49,-1.39,-2.42,38.28,-5.11,0.33,75.03,3.31,-1.46,-20.00
-27,11,644,12,-414,3952,-0.77,1.15,42.17,0.12,-4.14,39.52,-5.13,0.34,74.86,4.14,-0.76,-20.00
0,20,455,-153,-293,3835,-0.69,1.16,40.73,-1.53,-2.93,38.35,-5.12,0.38,74.70,3.57,-0.97,-19.19
0,31,431,-157,-383,3822,-0.62,1.23,39.28,-1.57,-3.83,38.22,-5.13,0.41,74.54,3.56,-1.24,-18.35
-9,-4,323,22,-413,3924,-0.62,1.08,37.32,0.22,-4.13,39.24,-5.15,0.42,74.39,3.75,-0.49,-12.11
-16,1,259,-138,-552,3985,-0.65,0.98,35.17,-1.38,-5.52,39.85,-5.16,0.44,74.26,3.91,-0.58,-8.96
-7,-10,162,-112,-505,4029,-0.63,0.82,32.64,-1.12,-5.05,40.29,-5.18,0.47,74.13,3.73,-0.33,-3.78
-10,0,154,-50,-363,3910,-0.63,0.74,30.32,-0.50,-3.63,39.10,-5.19,0.50,74.00,3.80,-0.53,-4.53
2,7,186,-52,-316,3885,-0.55,0.71,28.42,-0.52,-3.16,38.85,-5.18,0.52,73.89,3.53,-0.68,-7.74
-7,10,218,-42,-416,3859,-0.54,0.70,26.91,-0.42,-4.16,38.59,-5.19,0.53,73.79,3.72,-0.75,-10.74
-9,16,244,11,-469,3924,-0.54,0.73,25.71,0.11,-4.69,39.24,-5.21,0.54,73.68,3.77,-0.88,-13.17
-4,17,240,-11,-416,3949,-0.51,0.76,24.60,-0.11,-4.16,39.49,-5.23,0.54,73.59,3.67,-0.91,-13.50
5,1,261,-76,-409,3867,-0.43,0.69,23.73,-0.76,-4.09,38.67,-5.25,0.56,73.49,3.48,-0.58,-15.40
-1,-1,252,-64,-489,3874,-0.39,0.61,22.90,-0.64,-4.89,38.74,-5.26,0.58,73.40,3.60,-0.53,-15.24
-6,14,164,-76,-404,3981,-0.39,0.64,21.61,-0.76,-4.04,39.81,-5.28,0.60,73.31,3.71,-0.86,-9.99
-6,-2,134,-14,-382,3873,-0.39,0.56,20.26,-0.14,-3.82,38.73,-5.29,0.60,73.23,3.72,-0.51,-8.70
-9,-3,99,-42,-340,3894,-0.40,0.49,18.84,-0.42,-3.40,38.94,-5.27,0.61,73.16,3.77,-0.47,-7.11
-7,-3,89,1,-353,3896,-0.41,0.42,17.50,0.01,-3.53,38.96,-5.27,0.60,73.09,3.73,-0.45,-7.18
5,12,69,37,-347,3899,-0.34,0.45,16.17,0.37,-3.47,38.99,-5.27,0.59,73.03,3.47,-0.75,-6.56
9,12,70,48,-396,3922,-0.25,0.48,14.98,0.48,-3.96,39.22,-5.28,0.58,72.97,3.37,-0.76,-7.28
-9,12,178,80,-489,3856,-0.28,0.50,14.57,0.80,-4.89,38.56,-5.29,0.57,72.91,3.75,-0.76,-14.83
-14,26,215,72,-539,3934,-0.33,0.61,14.42,0.72,-5.39,39.34,-5.31,0.57,72.85,3.88,-1.07,-17.41
11,-21,358,-71,-504,3915,-0.23,0.42,15.16,-0.71,-5.04,39.15,-5.32,0.58,72.79,3.35,-0.07,-20.00
1,-14,415,-29,-555,3793,-0.20,0.30,16.18,-0.29,-5.55,37.93,-5.34,0.59,72.73,3.56,-0.18,-20.00
-17,39,574,-111,-494,3840,-0.29,0.50,18.06,-1.11,-4.94,38.40,-5.36,0.61,72.66,3.96,-1.33,-20.00
-27,8,607,7,-390,4110,-0.42,0.50,19.96,0.07,-3.90,41.10,-5.36,0.60,72.58,4.20,-0.69,-20.00
-30,-12,657,-24,-298,3770,-0.56,0.38,21.97,-0.24,-2.98,37.70,-5.35,0.60,72.49,4.29,-0.26,-20.00
1,16,649,-38,-288,3832,-0.50,0.44,23.73,-0.38,-2.88,38.32,-5.33,0.61,72.39,3.63,-0.85,-20.00
-5,18,606,19,-202,4030,-0.48,0.50,25.06,0.19,-2.02,40.30,-5.31,0.62,72.29,3.74,-0.91,-20.00
-4,-6,583,0,-224,3964,-0.46,0.42,26.11,0.00,-2.24,39.64,-5.30,0.62,72.19,3.70,-0.40,-20.00
-15,38,507,9,-346,3825,-0.50,0.61,26.59,0.09,-3.46,38.25,-5.29,0.62,72.08,3.94,-1.35,-20.00
-27,68,497,-32,-345,3804,-0.62,0.96,26.96,-0.32,-3.45,38.04,-5.28,0.62,71.98,4.20,-2.05,-20.00
-5,33,423,-95,-289,3956,-0.59,1.07,26.85,-0.95,-2.89,39.56,-5.27,0.64,71.87,3.74,-1.39,-20.00
-8,13,417,-107,-325,3952,-0.58,1.04,26.70,-1.07,-3.25,39.52,-5.26,0.67,71.76,3.79,-0.99,-20.00
-2,9,390,-67,-418,3933,-0.53,0.99,26.41,-0.67,-4.18,39.33,-5.28,0.69,71.66,3.67,-0.91,-20.00
-11,4,383,-82,-322,3805,-0.55,0.92,26.11,-0.82,-3.22,38.05,-5.27,0.72,71.56,3.85,-0.80,-20.00
-11,23,350,-67,-379,3846,-0.56,0.96,25.63,-0.67,-3.79,38.46,-5.28,0.74,71.45,3.86,-1.22,-20.00
-9,27,338,-134,-345,3955,-0.56,1.03,25.13,-1.34,-3.45,39.55,-5.28,0.77,71.35,3.82,-1.34,-19.51
1,22,271,-18,-258,4020,-0.50,1.06,24.27,-0.18,-2.58,40.20,-5.26,0.78,71.26,3.59,-1.25,-15.44
3,15,260,39,-294,3885,-0.43,1.05,23.43,0.39,-2.94,38.85,-5.25,0.78,71.17,3.52,-1.11,-15.15
-2,27,328,-15,-452,3963,-0.40,1.11,23.09,-0.15,-4.52,39.63,-5.27,0.78,71.07,3.63,-1.37,-19.94
-2,26,353,-19,-465,3903,-0.37,1.16,22.93,-0.19,-4.65,39.03,-5.29,0.79,70.98,3.63,-1.37,-20.00
-7,22,383,-4,-460,3901,-0.38,1.17,22.98,-0.04,-4.60,39.01,-5.30,0.80,70.89,3.75,-1.29,-20.00
0,16,386,-3,-393,3935,-0.34,1.15,23.03,-0.03,-3.93,39.35,-5.31,0.79,70.80,3.60,-1.16,-20.00
2,14,407,9,-315,3822,-0.29,1.12,23.21,0.09,-3.15,38.22,-5.30,0.79,70.71,3.54,-1.11,-20.00
-2,15,429,-61,-305,3890,-0.27,1.10,23.51,-0.61,-3.05,38.90,-5.28,0.81,70.62,3.60,-1.14,-20.00
-7,0,479,152,-324,3914,-0.29,0.99,24.08,1.52,-3.24,39.14,-5.28,0.80,70.52,3.71,-0.80,-20.00
-12,2,473,81,-276,3855,-0.33,0.91,24.56,0.81,-2.76,38.55,-5.27,0.80,70.42,3.81,-0.81,-20.00
-17,-2,472,172,-408,3945,-0.40,0.80,24.98,1.72,-4.08,39.45,-5.28,0.79,70.32,3.94,-0.70,-20.00
-4,16,446,93,-338,3853,-0.39,0.82,25.20,0.93,-3.38,38.53,-5.27,0.79,70.22,3.67,-1.07,-20.00
-11,17,417,-57,-311,3851,-0.42,0.84,25.23,-0.57,-3.11,38.51,-5.26,0.80,70.12,3.81,-1.10,-20.00
3,25,425,-65,-339,3945,-0.36,0.91,25.30,-0.65,-3.39,39.45,-5.24,0.82,70.02,3.49,-1.30,-20.00
-14,2,444,18,-548,3908,-0.41,0.83,25.47,0.18,-5.48,39.08,-5.26,0.83,69.92,3.86,-0.81,-20.00
-10,18,424,-67,-377,3821,-0.43,0.86,25.51,-0.67,-3.77,38.21,-5.27,0.85,69.82,3.80,-1.16,-20.00
-13,33,423,-105,-469,3860,-0.46,0.97,25.54,-1.05,-4.69,38.60,-5.29,0.87,69.72,3.88,-1.51,-20.00
-20,4,392,-50,-359,3878,-0.54,0.90,25.38,-0.50,-3.59,38.78,-5.29,0.86,69.62,4.05,-0.90,-20.00
-3,10,335,-33,-240,3795,-0.50,0.87,24.88,-0.33,-2.40,37.95,-5.27,0.87,69.52,3.68,-1.02,-19.17
-1,10,321,-3,-217,3922,-0.46,0.85,24.35,-0.03,-2.17,39.22,-5.26,0.88,69.42,3.61,-1.01,-18.50
-6,-11,294,14,-230,3944,-0.45,0.69,23.71,0.14,-2.30,39.44,-5.24,0.88,69.33,3.70,-0.55,-17.02
-9,-18,292,-7,-252,3860,-0.46,0.51,23.12,-0.07,-2.52,38.60,-5.23,0.88,69.24,3.76,-0.36,-17.20
-8,-12,348,67,-323,3917,-0.46,0.39,22.93,0.67,-3.23,39.17,-5.22,0.87,69.14,3.73,-0.44,-20.00
-5,-3,361,91,-399,3894,-0.45,0.33,22.84,0.91,-3.99,38.94,-5.23,0.87,69.05,3.67,-0.60,-20.00
-14,-3,429,99,-413,3938,-0.49,0.28,23.17,0.99,-4.13,39.38,-5.23,0.86,68.96,3.87,-0.58,-20.00
-28,6,474,-21,-372,3740,-0.61,0.29,23.75,-0.21,-3.72,37.40,-5.25,0.85,68.87,4.20,-0.76,-20.00
-6,20,598,136,-356,3780,-0.59,0.38,25.02,1.36,-3.56,37.80,-5.25,0.85,68.77,3.74,-1.07,-20.00
-11,3,598,142,-380,4095,-0.59,0.36,26.17,1.42,-3.80,40.95,-5.25,0.84,68.66,3.85,-0.71,-20.00
-3,27,651,32,-252,4020,-0.55,0.49,27.52,0.32,-2.52,40.20,-5.23,0.84,68.55,3.67,-1.24,-20.00
3,16,652,62,-351,3916,-0.48,0.54,28.75,0.62,-3.51,39.16,-5.23,0.83,68.44,3.52,-1.02,-20.00
-1,34,672,26,-304,3789,-0.44,0.69,29.97,0.26,-3.04,37.89,-5.22,0.83,68.32,3.59,-1.43,-20.00
0,30,679,41,-356,3895,-0.39,0.81,31.12,0.41,-3.56,38.95,-5.22,0.83,68.20,3.56,-1.38,-20.00
-20,21,646,-44,-251,3863,-0.48,0.85,31.94,-0.44,-2.51,38.63,-5.21,0.84,68.07,3.97,-1.21,-20.00
-14,35,649,-27,-272,3958,-0.51,0.98,32.71,-0.27,-2.72,39.58,-5.19,0.85,67.94,3.85,-1.54,-20.00
9,27,615,-86,-152,3979,-0.41,1.05,33.19,-0.86,-1.52,39.79,-5.17,0.87,67.81,3.34,-1.41,-20.00
-1,21,606,-86,-189,3855,-0.37,1.07,33.57,-0.86,-1.89,38.55,-5.15,0.89,67.67,3.52,-1.31,-20.00
-4,28,570,27,-349,4068,-0.36,1.14,33.69,0.27,-3.49,40.68,-5.15,0.89,67.54,3.58,-1.46,-20.00
-37,10,572,-84,-292,3720,-0.55,1.08,33.81,-0.84,-2.92,37.20,-5.13,0.91,67.40,4.29,-1.10,-20.00
-8,30,572,5,-252,3871,-0.54,1.16,33.92,0.05,-2.52,38.71,-5.12,0.92,67.27,3.69,-1.53,-20.00
15,29,553,-80,-341,3993,-0.40,1.22,33.90,-0.80,-3.41,39.93,-5.10,0.95,67.13,3.17,-1.55,-20.00
-22,10,503,-64,-431,3978,-0.49,1.16,33.58,-0.64,-4.31,39.78,-5.12,0.96,67.00,3.96,-1.16,-20.00
1,16,519,-66,-399,3823,-0.44,1.14,33.38,-0.66,-3.99,38.23,-5.14,0.98,66.87,3.49,-1.28,-20.00
-7,15,501,-55,-533,3863,-0.44,1.12,33.10,-0.55,-5.33,38.63,-5.16,1.00,66.74,3.67,-1.27,-20.00
-23,3,489,-64,-526,3949,-0.53,1.02,32.78,-0.64,-5.26,39.49,-5.18,1.01,66.61,4.03,-1.01,-20.00
-8,8,394,-62,-417,3957,-0.53,0.97,31.90,-0.62,-4.17,39.57,-5.19,1.02,66.48,3.73,-1.10,-18.78
6,12,386,-76,-501,3800,-0.44,0.95,31.07,-0.76,-5.01,38.00,-5.21,1.04,66.36,3.44,-1.19,-18.68
-7,23,376,-106,-500,3856,-0.44,0.99,30.25,-1.06,-5.00,38.56,-5.23,1.06,66.24,3.71,-1.44,-18.45
-13,0,384,-97,-513,3925,-0.47,0.89,29.57,-0.97,-5.13,39.25,-5.25,1.08,66.12,3.86,-0.95,-19.35
-8,2,405,-69,-418,3948,-0.47,0.82,29.08,-0.69,-4.18,39.48,-5.26,1.09,66.01,3.77,-0.98,-20.00
-20,-9,402,-55,-355,3862,-0.55,0.68,28.63,-0.55,-3.55,38.62,-5.26,1.08,65.89,4.03,-0.72,-20.00
-14,-9,382,-15,-352,3940,-0.58,0.56,28.09,-0.15,-3.52,39.40,-5.26,1.08,65.78,3.91,-0.68,-19.99
-12,-3,355,-46,-332,3890,-0.59,0.48,27.45,-0.46,-3.32,38.90,-5.25,1.08,65.67,3.87,-0.78,-18.51
-8,8,288,-38,-415,3867,-0.58,0.48,26.46,-0.38,-4.15,38.67,-5.26,1.08,65.57,3.80,-1.01,-14.51
-9,7,282,-26,-411,3952,-0.58,0.48,25.54,-0.26,-4.11,39.52,-5.28,1.08,65.47,3.82,-0.98,-14.60
-5,-1,273,7,-459,3846,-0.55,0.42,24.65,0.07,-4.59,38.46,-5.29,1.08,65.37,3.75,-0.81,-14.48
-6,-2,281,-26,-437,3898,-0.53,0.37,23.90,-0.26,-4.37,38.98,-5.31,1.08,65.27,3.77,-0.77,-15.43
-12,-4,313,78,-445,3907,-0.55,0.31,23.42,0.78,-4.45,39.07,-5.32,1.07,65.18,3.90,-0.71,-17.85
-8,-10,297,19,-468,4010,-0.55,0.22,22.89,0.19,-4.68,40.10,-5.33,1.07,65.09,3.83,-0.56,-17.05
-3,-7,312,-45,-538,4000,-0.51,0.15,22.50,-0.45,-5.38,40.00,-5.35,1.07,65.00,3.73,-0.61,-18.27
-12,-19,330,-83,-603,3821,-0.53,0.02,22.26,-0.83,-6.03,38.21,-5.37,1.08,64.91,3.93,-0.33,-19.61
-6,-9,410,-15,-488,3890,-0.52,-0.04,22.54,-0.15,-4.88,38.90,-5.38,1.08,64.82,3.82,-0.52,-20.00
-13,-2,458,8,-512,3911,-0.54,-0.04,23.08,0.08,-5.12,39.11,-5.40,1.08,64.73,3.98,-0.66,-20.00
-11,15,582,-33,-441,3931,-0.56,0.05,24.32,-0.33,-4.41,39.31,-5.42,1.08,64.63,3.95,-1.03,-20.00
-35,-2,609,-101,-418,3777,-0.71,0.03,25.60,-1.01,-4.18,37.77,-5.43,1.10,64.53,4.49,-0.69,-20.00
-9,8,608,15,-303,3867,-0.70,0.08,26.75,0.15,-3.03,38.67,-5.42,1.10,64.43,3.95,-0.91,-20.00
-25,7,616,-22,-319,3918,-0.78,0.11,27.83,-0.22,-3.19,39.18,-5.41,1.09,64.31,4.29,-0.90,-20.00
10,21,569,7,-316,4018,-0.64,0.23,28.52,0.07,-3.16,40.18,-5.40,1.09,64.20,3.54,-1.21,-20.00
-11,19,562,-22,-378,3708,-0.64,0.32,29.10,-0.22,-3.78,37.08,-5.41,1.09,64.08,3.97,-1.19,-20.00
-6,18,537,23,-262,3902,-0.62,0.40,29.46,0.23,-2.62,39.02,-5.40,1.09,63.97,3.85,-1.19,-20.00
-3,12,520,-39,-373,4005,-0.57,0.43,29.69,-0.39,-3.73,40.05,-5.39,1.08,63.85,3.78,-1.08,-20.00
-17,9,463,-47,-221,3900,-0.62,0.45,29.54,-0.47,-2.21,39.00,-5.38,1.09,63.73,4.06,-1.03,-20.00
-17,12,445,-99,-297,3872,-0.66,0.47,29.30,-0.99,-2.97,38.72,-5.36,1.11,63.61,4.06,-1.11,-20.00
-16,10,399,7,-336,3934,-0.69,0.49,28.81,0.07,-3.36,39.34,-5.35,1.11,63.50,4.05,-1.07,-20.00
4,24,396,-18,-343,3890,-0.60,0.59,28.34,-0.18,-3.43,38.90,-5.35,1.10,63.39,3.61,-1.38,-20.00
8,28,398,-6,-431,3857,-0.49,0.70,27.94,-0.06,-4.31,38.57,-5.36,1.10,63.28,3.51,-1.49,-20.00
-16,21,401,4,-430,3914,-0.54,0.76,27.59,0.04,-4.30,39.14,-5.37,1.10,63.17,4.02,-1.36,-20.00
-8,15,425,-9,-485,3809,-0.53,0.77,27.42,-0.09,-4.85,38.09,-5.39,1.11,63.06,3.86,-1.25,-20.00
-22,6,452,-14,-513,3902,-0.61,0.73,27.44,-0.14,-5.13,39.02,-5.41,1.11,62.95,4.18,-1.06,-20.00
-11,19,516,-5,-411,3814,-0.62,0.77,27.84,-0.05,-4.11,38.14,-5.42,1.11,62.84,3.97,-1.33,-20.00
-10,15,532,-4,-394,3940,-0.62,0.79,28.30,-0.04,-3.94,39.40,-5.42,1.11,62.73,3.95,-1.25,-20.00
-24,3,584,68,-392,3936,-0.70,0.73,29.03,0.68,-3.92,39.36,-5.42,1.10,62.61,4.26,-0.99,-20.00
-20,9,602,-17,-355,3873,-0.76,0.71,29.80,-0.17,-3.55,38.73,-5.42,1.10,62.49,4.19,-1.10,-20.00
-34,17,616,-138,-332,3739,-0.89,0.74,30.58,-1.38,-3.32,37.39,-5.42,1.13,62.37,4.51,-1.29,-20.00
-3,26,605,-118,-335,3953,-0.82,0.83,31.21,-1.18,-3.35,39.53,-5.40,1.16,62.25,3.85,-1.52,-20.00
-8,42,617,-46,-402,3896,-0.78,1.00,31.86,-0.46,-4.02,38.96,-5.42,1.16,62.12,3.95,-1.89,-20.00
-21,13,605,-45,-370,4043,-0.83,0.98,32.36,-0.45,-3.70,40.43,-5.41,1.16,61.99,4.23,-1.30,-20.00
-10,13,558,-67,-330,3922,-0.81,0.96,32.53,-0.67,-3.30,39.22,-5.40,1.17,61.86,3.99,-1.30,-20.00
-15,4,545,-81,-356,4023,-0.82,0.89,32.60,-0.81,-3.56,40.23,-5.38,1.19,61.73,4.08,-1.11,-20.00
-15,4,534,-71,-460,3923,-0.83,0.82,32.60,-0.71,-4.60,39.23,-5.40,1.20,61.60,4.09,-1.10,-20.00
-11,3,530,-78,-530,3827,-0.82,0.76,32.57,-0.78,-5.30,38.27,-5.42,1.21,61.47,4.02,-1.07,-20.00
-2,24,566,-1,-367,3888,-0.75,0.83,32.77,-0.01,-3.67,38.88,-5.42,1.21,61.34,3.82,-1.51,-20.00
-10,5,562,-14,-368,3978,-0.73,0.78,32.92,-0.14,-3.68,39.78,-5.41,1.21,61.21,3.98,-1.11,-20.00
7,18,530,5,-330,3915,-0.62,0.81,32.86,0.05,-3.30,39.15,-5.41,1.21,61.08,3.59,-1.38,-20.00
-15,6,511,-31,-303,3945,-0.65,0.77,32.69,-0.31,-3.03,39.45,-5.39,1.21,60.95,4.04,-1.13,-20.00
-1,17,458,-89,-287,3840,-0.59,0.79,32.21,-0.89,-2.87,38.40,-5.37,1.23,60.82,3.73,-1.37,-20.00
-6,9,449,-62,-294,3895,-0.57,0.77,31.73,-0.62,-2.94,38.95,-5.35,1.24,60.70,3.81,-1.21,-20.00
-21,5,423,-40,-312,3850,-0.64,0.72,31.14,-0.40,-3.12,38.50,-5.34,1.24,60.57,4.13,-1.12,-20.00
-11,20,420,-54,-313,3938,-0.64,0.77,30.59,-0.54,-3.13,39.38,-5.32,1.25,60.45,3.91,-1.44,-20.00
-5,8,363,-28,-237,3970,-0.61,0.74,29.74,-0.28,-2.37,39.70,-5.31,1.25,60.33,3.77,-1.19,-16.96
-9,26,354,-128,-308,3763,-0.60,0.83,28.93,-1.28,-3.08,37.63,-5.30,1.28,60.22,3.84,-1.60,-16.79
-3,4,296,-41,-324,3887,-0.56,0.77,27.84,-0.41,-3.24,38.87,-5.28,1.28,60.11,3.70,-1.14,-13.46
-4,9,279,-59,-396,3898,-0.53,0.75,26.76,-0.59,-3.96,38.98,-5.30,1.28,60.00,3.72,-1.23,-12.90
-15,13,278,-118,-360,3920,-0.57,0.75,25.78,-1.18,-3.60,39.20,-5.30,1.31,59.90,3.95,-1.34,-13.36
-17,-2,263,-85,-359,3979,-0.61,0.66,24.81,-0.85,-3.59,39.79,-5.28,1.31,59.80,4.00,-1.01,-12.88
1,9,157,-65,-344,3913,-0.55,0.65,23.28,-0.65,-3.44,39.13,-5.27,1.31,59.71,3.61,-1.23,-6.53
-3,7,137,-70,-310,3891,-0.51,0.63,21.79,-0.70,-3.10,38.91,-5.25,1.31,59.62,3.67,-1.18,-6.00
1,7,77,-45,-342,3904,-0.45,0.61,20.08,-0.45,-3.42,39.04,-5.25,1.31,59.54,3.57,-1.17,-2.88
-2,7,62,-45,-351,3924,-0.42,0.59,18.45,-0.45,-3.51,39.24,-5.24,1.30,59.47,3.62,-1.16,-2.77
1,8,62,-85,-467,3911,-0.37,0.58,16.98,-0.85,-4.67,39.11,-5.26,1.31,59.40,3.55,-1.18,-3.58
8,10,82,-40,-506,3947,-0.29,0.58,15.79,-0.40,-5.06,39.47,-5.28,1.31,59.34,3.40,-1.23,-5.60
-3,8,217,-47,-571,3876,-0.28,0.57,15.53,-0.47,-5.71,38.76,-5.30,1.31,59.28,3.63,-1.19,-14.88
8,20,296,-29,-615,3867,-0.20,0.64,15.78,-0.29,-6.15,38.67,-5.31,1.32,59.21,3.40,-1.45,-20.00
-21,18,485,-10,-641,3744,-0.31,0.69,17.16,-0.10,-6.41,37.44,-5.33,1.32,59.15,4.03,-1.42,-20.00
-3,4,506,-57,-566,4016,-0.29,0.64,18.53,-0.57,-5.66,40.16,-5.35,1.33,59.07,3.67,-1.13,-20.00
3,4,570,-81,-559,3995,-0.25,0.60,20.16,-0.81,-5.59,39.95,-5.37,1.34,58.99,3.55,-1.13,-20.00
-16,-23,555,124,-560,4067,-0.32,0.40,21.53,1.24,-5.60,40.67,-5.38,1.33,58.91,3.96,-0.52,-20.00
-23,-6,478,-108,-300,3866,-0.43,0.32,22.29,-1.08,-3.00,38.66,-5.36,1.35,58.82,4.12,-0.85,-20.00
-18,11,465,3,-327,3962,-0.50,0.36,22.90,0.03,-3.27,39.62,-5.35,1.34,58.73,4.03,-1.21,-20.00
8,31,388,-100,-129,3916,-0.40,0.51,22.97,-1.00,-1.29,39.16,-5.33,1.35,58.64,3.46,-1.66,-20.00
-4,15,362,-61,-157,3960,-0.38,0.55,22.89,-0.61,-1.57,39.60,-5.31,1.36,58.54,3.69,-1.35,-20.00
7,25,324,-52,-169,3983,-0.30,0.65,22.57,-0.52,-1.69,39.83,-5.29,1.37,58.45,3.43,-1.59,-18.06
7,18,318,77,-227,3994,-0.23,0.69,22.26,0.77,-2.27,39.94,-5.28,1.36,58.37,3.41,-1.45,-17.82
-11,21,286,-23,-258,3895,-0.27,0.75,21.77,-0.23,-2.58,38.95,-5.27,1.36,58.28,3.77,-1.53,-15.91
8,33,270,-54,-220,3819,-0.20,0.88,21.24,-0.54,-2.20,38.19,-5.25,1.37,58.19,3.35,-1.81,-15.11
8,28,222,1,-315,3869,-0.13,0.96,20.47,0.01,-3.15,38.69,-5.24,1.36,58.11,3.33,-1.73,-12.28
6,25,222,10,-326,3935,-0.08,1.02,19.78,0.10,-3.26,39.35,-5.23,1.36,58.03,3.35,-1.68,-12.65
4,17,258,-28,-342,3944,-0.05,1.02,19.38,-0.28,-3.42,39.44,-5.22,1.35,57.96,3.38,-1.52,-15.31
3,24,272,-38,-388,3886,-0.02,1.06,19.10,-0.38,-3.88,38.86,-5.23,1.35,57.88,3.40,-1.67,-16.40
2,6,332,-2,-407,3921,-0.01,0.99,19.21,-0.02,-4.07,39.21,-5.24,1.34,57.81,3.42,-1.28,-20.00
-3,26,368,-104,-437,3765,-0.03,1.05,19.54,-1.04,-4.37,37.65,-5.25,1.36,57.73,3.54,-1.71,-20.00
2,13,412,-96,-430,3937,-0.01,1.03,20.10,-0.96,-4.30,39.37,-5.27,1.37,57.65,3.44,-1.45,-20.00
-4,12,407,-21,-388,3926,-0.03,1.00,20.57,-0.21,-3.88,39.26,-5.28,1.36,57.57,3.57,-1.41,-20.00
2,21,374,-88,-333,3831,-0.02,1.03,20.79,-0.88,-3.33,38.31,-5.26,1.37,57.48,3.43,-1.61,-20.00
-11,31,376,-85,-375,3904,-0.08,1.11,21.01,-0.85,-3.75,39.04,-5.27,1.37,57.40,3.72,-1.84,-20.00
-10,19,355,-66,-439,3919,-0.14,1.12,21.07,-0.66,-4.39,39.19,-5.29,1.38,57.32,3.73,-1.60,-20.00
-3,14,335,-80,-415,3928,-0.14,1.09,21.01,-0.80,-4.15,39.28,-5.30,1.39,57.24,3.60,-1.50,-19.50
-3,9,305,-36,-464,3871,-0.15,1.04,20.77,-0.36,-4.64,38.71,-5.32,1.39,57.15,3.61,-1.38,-17.59
2,7,322,-28,-514,3851,-0.12,0.98,20.66,-0.28,-5.14,38.51,-5.33,1.39,57.07,3.51,-1.33,-18.80
-5,16,350,-39,-503,3863,-0.14,0.98,20.73,-0.39,-5.03,38.63,-5.35,1.40,56.99,3.67,-1.51,-20.00
-3,9,348,-6,-505,3907,-0.14,0.93,20.78,-0.06,-5.05,39.07,-5.36,1.40,56.91,3.64,-1.36,-20.00
-4,13,421,23,-645,3930,-0.15,0.92,21.27,0.23,-6.45,39.30,-5.38,1.40,56.82,3.67,-1.44,-20.00
-12,-5,446,-21,-623,3864,-0.21,0.80,21.86,-0.21,-6.23,38.64,-5.39,1.41,56.74,3.86,-1.05,-20.00
-9,-1,528,96,-602,3845,-0.24,0.71,22.89,0.96,-6.02,38.45,-5.41,1.41,56.65,3.82,-1.10,-20.00
-14,5,540,61,-532,3907,-0.31,0.67,23.90,0.61,-5.32,39.07,-5.42,1.41,56.55,3.94,-1.21,-20.00
-39,3,612,-5,-486,3906,-0.51,0.62,25.24,-0.05,-4.86,39.06,-5.43,1.41,56.45,4.52,-1.16,-20.00
-4,27,637,10,-520,3906,-0.49,0.72,26.60,0.10,-5.20,39.06,-5.45,1.41,56.35,3.81,-1.68,-20.00
-11,12,697,-74,-618,3832,-0.50,0.72,28.20,-0.74,-6.18,38.32,-5.46,1.42,56.24,3.97,-1.38,-20.00
-16,20,728,-45,-458,4037,-0.55,0.77,29.82,-0.45,-4.58,40.37,-5.48,1.43,56.12,4.09,-1.56,-20.00
-23,-8,813,-16,-552,3942,-0.64,0.65,31.79,-0.16,-5.52,39.42,-5.49,1.43,55.99,4.27,-0.96,-20.00
-26,18,822,39,-700,3741,-0.73,0.69,33.63,0.39,-7.00,37.41,-5.51,1.44,55.86,4.36,-1.51,-20.00
-37,12,867,84,-537,3839,-0.88,0.70,35.55,0.84,-5.37,38.39,-5.52,1.45,55.72,4.64,-1.39,-20.00
-40,17,866,22,-602,3905,-1.04,0.73,37.28,0.22,-6.02,39.05,-5.54,1.46,55.57,4.75,-1.51,-20.00
-23,32,890,-29,-452,3833,-1.08,0.85,38.98,-0.29,-4.52,38.33,-5.55,1.46,55.42,4.43,-1.85,-20.00
-13,26,908,-19,-521,3991,-1.05,0.93,40.62,-0.19,-5.21,39.91,-5.57,1.47,55.25,4.22,-1.75,-20.00
1,22,965,-110,-420,3987,-0.94,0.97,42.45,-1.10,-4.20,39.87,-5.58,1.50,55.09,3.92,-1.70,-20.00
-29,7,981,-76,-387,3907,-1.02,0.91,44.19,-0.76,-3.87,39.07,-5.59,1.50,54.91,4.56,-1.38,-20.00
-18,17,922,-77,-351,3924,-1.03,0.93,45.39,-0.77,-3.51,39.24,-5.57,1.51,54.73,4.32,-1.59,-20.00
-13,37,898,-48,-313,3901,-1.00,1.06,46.33,-0.48,-3.13,39.01,-5.56,1.52,54.55,4.21,-2.04,-20.00
-21,16,823,-68,-272,3922,-1.03,1.05,46.72,-0.68,-2.72,39.22,-5.54,1.54,54.36,4.36,-1.63,-20.00
-7,17,798,-30,-285,3941,-0.97,1.05,46.91,-0.30,-2.85,39.41,-5.52,1.55,54.17,4.05,-1.65,-20.00
-5,21,702,-114,-226,3894,-0.90,1.07,46.50,-1.14,-2.26,38.94,-5.50,1.57,53.99,3.98,-1.76,-20.00
-28,6,673,-95,-230,3918,-0.99,1.00,45.96,-0.95,-2.30,39.18,-5.48,1.59,53.80,4.46,-1.44,-20.00
-24,4,586,-60,-261,3932,-1.03,0.93,44.94,-0.60,-2.61,39.32,-5.47,1.60,53.62,4.38,-1.39,-20.00
3,10,564,-129,-272,3845,-0.91,0.89,43.88,-1.29,-2.72,38.45,-5.45,1.63,53.45,3.78,-1.52,-20.00
-7,9,510,-53,-336,3973,-0.86,0.86,42.61,-0.53,-3.36,39.73,-5.44,1.63,53.28,3.97,-1.49,-18.65
0,4,494,-18,-368,3913,-0.78,0.80,41.36,-0.18,-3.68,39.13,-5.43,1.63,53.12,3.80,-1.38,-18.24
-11,11,495,-9,-350,3877,-0.77,0.79,40.24,-0.09,-3.50,38.77,-5.43,1.63,52.96,4.02,-1.52,-18.91
-10,25,510,-34,-298,3927,-0.75,0.86,39.33,-0.34,-2.98,39.27,-5.41,1.64,52.80,3.98,-1.82,-20.00
14,22,492,-45,-250,3988,-0.59,0.91,38.40,-0.45,-2.50,39.88,-5.40,1.65,52.65,3.44,-1.78,-19.70
-10,1,474,-70,-286,3831,-0.59,0.82,37.45,-0.70,-2.86,38.31,-5.38,1.66,52.50,3.91,-1.34,-18.99
-17,12,431,-4,-295,3914,-0.64,0.81,36.33,-0.04,-2.95,39.14,-5.37,1.66,52.35,4.06,-1.56,-16.68
-25,12,436,-19,-326,3838,-0.73,0.81,35.36,-0.19,-3.26,38.38,-5.36,1.66,52.21,4.24,-1.56,-17.54
-4,18,442,-49,-350,3894,-0.68,0.84,34.52,-0.49,-3.50,38.94,-5.35,1.66,52.07,3.80,-1.69,-18.40
-8,7,448,-55,-425,3936,-0.66,0.79,33.80,-0.55,-4.25,39.36,-5.37,1.66,51.94,3.88,-1.45,-19.19
-16,16,469,-38,-361,3987,-0.69,0.81,33.28,-0.38,-3.61,39.87,-5.36,1.66,51.81,4.05,-1.64,-20.00
-15,9,457,-90,-359,3877,-0.71,0.79,32.74,-0.90,-3.59,38.77,-5.36,1.65,51.68,4.03,-1.49,-20.00
6,12,425,-78,-368,3875,-0.60,0.78,32.06,-0.78,-3.68,38.75,-5.36,1.65,51.55,3.58,-1.55,-18.55
-22,8,408,-140,-345,3832,-0.68,0.75,31.34,-1.40,-3.45,38.32,-5.35,1.68,51.42,4.16,-1.48,-17.78
-2,15,362,-76,-427,3956,-0.62,0.77,30.42,-0.76,-4.27,39.56,-5.36,1.69,51.30,3.75,-1.63,-15.16
-7,9,367,-110,-378,3889,-0.60,0.75,29.61,-1.10,-3.78,38.89,-5.38,1.69,51.19,3.86,-1.50,-15.94
11,9,426,-117,-316,3869,-0.48,0.73,29.25,-1.17,-3.16,38.69,-5.36,1.71,51.07,3.44,-1.51,-20.00
-4,-5,460,-1,-280,4040,-0.45,0.62,29.13,-0.01,-2.80,40.40,-5.35,1.71,50.95,3.73,-1.19,-20.00
-17,5,439,-49,-200,4011,-0.51,0.59,28.90,-0.49,-2.00,40.11,-5.33,1.71,50.84,4.00,-1.39,-20.00
-3,9,391,-90,-184,3860,-0.48,0.59,28.39,-0.90,-1.84,38.60,-5.31,1.72,50.73,3.69,-1.48,-18.18
-7,24,258,-63,-412,3873,-0.47,0.67,27.13,-0.63,-4.12,38.73,-5.32,1.72,50.62,3.78,-1.81,-9.86
-1,20,242,-34,-405,3921,-0.43,0.73,25.89,-0.34,-4.05,39.21,-5.33,1.72,50.52,3.65,-1.74,-9.45
2,22,239,-4,-400,3925,-0.38,0.79,24.76,-0.04,-4.00,39.25,-5.33,1.71,50.42,3.58,-1.79,-9.87
-1,36,212,-9,-315,3894,-0.34,0.93,23.58,-0.09,-3.15,38.94,-5.32,1.71,50.32,3.63,-2.11,-8.69
4,24,134,0,-384,3888,-0.29,0.98,22.04,0.00,-3.84,38.88,-5.32,1.70,50.24,3.51,-1.88,-4.25
2,13,133,46,-452,3890,-0.25,0.97,20.64,0.46,-4.52,38.90,-5.33,1.70,50.15,3.54,-1.65,-4.95
0,22,197,49,-574,3774,-0.22,1.00,19.78,0.49,-5.74,37.74,-5.34,1.70,50.08,3.59,-1.84,-9.76
2,22,215,78,-592,3962,-0.19,1.04,19.11,0.78,-5.92,39.62,-5.36,1.70,50.00,3.54,-1.85,-11.35
9,22,353,-33,-516,3915,-0.11,1.07,19.36,-0.33,-5.16,39.15,-5.37,1.70,49.92,3.39,-1.86,-20.00
-17,9,405,-57,-534,3840,-0.21,1.02,19.89,-0.57,-5.34,38.40,-5.38,1.71,49.85,3.96,-1.59,-20.00
-23,-1,528,-47,-460,3981,-0.33,0.91,21.12,-0.47,-4.60,39.81,-5.40,1.71,49.76,4.12,-1.35,-20.00
-20,-8,545,79,-331,3958,-0.41,0.77,22.34,0.79,-3.31,39.58,-5.39,1.70,49.67,4.08,-1.17,-20.00
0,12,531,339,-314,3802,-0.37,0.76,23.34,3.39,-3.14,38.02,-5.39,1.69,49.58,3.66,-1.57,-20.00
17,24,533,600,-278,4078,-0.23,0.83,24.26,6.00,-2.78,40.78,-5.39,1.69,49.48,3.27,-1.83,-20.00
14,14,687,593,-579,4029,-0.12,0.84,26.02,5.93,-5.79,40.29,-5.39,1.68,49.38,3.30,-1.62,-20.00
-4,12,746,-20,-617,3766,-0.14,0.83,27.97,-0.20,-6.17,37.66,-5.40,1.69,49.27,3.68,-1.59,-20.00
-34,-7,984,-740,-703,4014,-0.33,0.70,31.18,-7.40,-7.03,40.14,-5.41,1.72,49.15,4.35,-1.18,-20.00
-21,16,1022,-443,-458,3711,-0.42,0.73,34.29,-4.43,-4.58,37.11,-5.41,1.75,49.01,4.11,-1.68,-20.00
-35,14,930,-481,-240,3954,-0.60,0.74,36.54,-4.81,-2.40,39.54,-5.40,1.79,48.87,4.44,-1.67,-20.00
-18,22,895,-475,-213,3766,-0.65,0.80,38.34,-4.75,-2.13,37.66,-5.39,1.82,48.71,4.10,-1.87,-20.00
-9,17,732,-147,-258,3867,-0.64,0.82,38.97,-1.47,-2.58,38.67,-5.37,1.85,48.56,3.90,-1.79,-20.00
-15,15,688,44,-146,3945,-0.66,0.83,39.27,0.44,-1.46,39.45,-5.36,1.85,48.40,4.02,-1.75,-20.00
-10,13,524,90,-206,3910,-0.66,0.83,38.54,0.90,-2.06,39.10,-5.34,1.85,48.25,3.91,-1.71,-20.00
-13,18,483,24,-245,3863,-0.67,0.86,37.63,0.24,-2.45,38.63,-5.33,1.86,48.10,3.97,-1.83,-18.83
1,13,428,49,-387,3864,-0.60,0.85,36.48,0.49,-3.87,38.64,-5.33,1.86,47.95,3.66,-1.72,-15.73
-6,20,438,-54,-400,3905,-0.58,0.89,35.51,-0.54,-4.00,39.05,-5.34,1.86,47.81,3.80,-1.87,-16.94
3,25,530,-210,-457,3797,-0.50,0.95,35.19,-2.10,-4.57,37.97,-5.35,1.89,47.67,3.60,-2.01,-20.00
-2,20,569,-203,-457,3905,-0.46,0.98,35.14,-2.03,-4.57,39.05,-5.36,1.91,47.53,3.70,-1.94,-20.00
-6,10,665,35,-537,3898,-0.45,0.94,35.68,0.35,-5.37,38.98,-5.37,1.92,47.39,3.79,-1.73,-20.00
-10,18,675,37,-461,3941,-0.47,0.96,36.23,0.37,-4.61,39.41,-5.37,1.92,47.25,3.88,-1.89,-20.00
-6,20,754,63,-535,4001,-0.46,0.98,37.21,0.63,-5.35,40.01,-5.38,1.92,47.10,3.80,-1.94,-20.00
-23,25,763,-24,-461,3909,-0.55,1.04,38.14,-0.24,-4.61,39.09,-5.39,1.93,46.95,4.18,-2.06,-20.00
-2,28,790,-257,-469,3931,-0.51,1.10,39.15,-2.57,-4.69,39.31,-5.40,1.96,46.79,3.74,-2.16,-20.00
-21,37,824,-59,-479,3950,-0.59,1.22,40.26,-0.59,-4.79,39.50,-5.41,1.97,46.63,4.16,-2.39,-20.00
7,50,850,177,-452,3829,-0.49,1.40,41.42,1.77,-4.52,38.29,-5.41,1.97,46.47,3.56,-2.70,-20.00
-30,36,861,116,-513,3902,-0.62,1.48,42.53,1.16,-5.13,39.02,-5.42,1.98,46.30,4.36,-2.44,-20.00
-19,35,837,-107,-486,3865,-0.67,1.55,43.38,-1.07,-4.86,38.65,-5.43,2.00,46.13,4.16,-2.45,-20.00
-14,26,828,-202,-552,3875,-0.69,1.55,44.09,-2.02,-5.52,38.75,-5.45,2.03,45.96,4.07,-2.29,-20.00
-20,28,809,-178,-477,3796,-0.74,1.57,44.62,-1.78,-4.77,37.96,-5.46,2.06,45.78,4.21,-2.35,-20.00
-2,34,785,-189,-376,4013,-0.68,1.62,44.95,-1.89,-3.76,40.13,-5.45,2.10,45.60,3.83,-2.52,-20.00
-4,5,703,-85,-460,3888,-0.64,1.49,44.74,-0.85,-4.60,38.88,-5.47,2.11,45.42,3.86,-1.90,-20.00
-22,12,677,-84,-499,3733,-0.71,1.41,44.39,-0.84,-4.99,37.33,-5.48,2.13,45.25,4.26,-2.03,-20.00
-8,42,496,-3,-57,3774,-0.69,1.53,42.98,-0.03,-0.57,37.74,-5.46,2.14,45.08,3.95,-2.68,-16.26
25,-10,477,711,-13,3640,-0.47,1.31,41.59,7.11,-0.13,36.40,-5.45,2.15,44.91,3.21,-1.57,-15.73
-7,11,596,-269,-628,3584,-0.46,1.25,41.07,-2.69,-6.28,35.84,-5.46,2.17,44.75,3.87,-2.00,-20.00
-18,-8,610,-348,-628,4181,-0.53,1.07,40.68,-3.48,-6.28,41.81,-5.47,2.21,44.59,4.12,-1.59,-20.00
-7,19,677,-73,-430,4014,-0.52,1.08,40.74,-0.73,-4.30,40.14,-5.47,2.21,44.43,3.90,-2.14,-20.00
-45,16,712,-79,-350,3903,-0.74,1.07,41.01,-0.79,-3.50,39.03,-5.47,2.21,44.26,4.72,-2.08,-20.00
-28,5,740,-183,-489,3893,-0.84,1.00,41.43,-1.83,-4.89,38.93,-5.48,2.24,44.10,4.41,-1.85,-20.00
-28,15,745,-309,-489,3708,-0.92,0.99,41.83,-3.09,-4.89,37.08,-5.49,2.27,43.93,4.44,-2.07,-20.00
-23,4,737,-204,-426,3943,-0.97,0.91,42.14,-2.04,-4.26,39.43,-5.50,2.30,43.76,4.36,-1.85,-20.00
-41,-2,733,1,-247,4133,-1.12,0.81,42.40,0.01,-2.47,41.33,-5.48,2.31,43.60,4.76,-1.70,-20.00
4,29,583,-277,-298,3912,-0.99,0.91,41.71,-2.77,-2.98,39.12,-5.47,2.34,43.43,3.80,-2.38,-20.00
-13,22,553,399,-204,3896,-0.97,0.95,40.92,3.99,-2.04,38.96,-5.46,2.35,43.27,4.13,-2.25,-20.00
-2,21,553,78,-409,3795,-0.88,0.98,40.20,0.78,-4.09,37.95,-5.46,2.35,43.11,3.89,-2.24,-20.00
-2,31,563,-137,-534,3909,-0.81,1.07,39.61,-1.37,-5.34,39.09,-5.48,2.36,42.95,3.88,-2.48,-20.00
-10,22,614,-255,-432,4041,-0.79,1.10,39.40,-2.55,-4.32,40.41,-5.48,2.40,42.79,4.04,-2.33,-20.00
-7,21,650,-185,-434,3850,-0.75,1.12,39.42,-1.85,-4.34,38.50,-5.50,2.43,42.64,3.98,-2.33,-20.00
-15,33,786,-185,-346,3818,-0.77,1.21,40.27,-1.85,-3.46,38.18,-5.48,2.46,42.48,4.13,-2.62,-20.00
-6,33,817,-184,-452,3897,-0.73,1.29,41.23,-1.84,-4.52,38.97,-5.49,2.48,42.31,3.95,-2.66,-20.00
-8,24,804,-276,-537,3918,-0.70,1.31,42.01,-2.76,-5.37,39.18,-5.51,2.51,42.15,3.99,-2.50,-20.00
-9,23,801,-271,-523,3927,-0.69,1.32,42.70,-2.71,-5.23,39.27,-5.52,2.55,41.98,4.01,-2.51,-20.00
-19,32,723,-88,-360,4091,-0.74,1.38,42.84,-0.88,-3.60,40.91,-5.50,2.55,41.81,4.22,-2.71,-20.00
-15,33,695,50,-238,3803,-0.75,1.44,42.79,0.50,-2.38,38.03,-5.49,2.56,41.64,4.13,-2.75,-20.00
3,31,614,-196,-310,3892,-0.66,1.49,42.26,-1.96,-3.10,38.92,-5.47,2.59,41.47,3.73,-2.74,-20.00
-16,24,592,-259,-253,3845,-0.69,1.49,41.64,-2.59,-2.53,38.45,-5.45,2.62,41.30,4.11,-2.62,-20.00
-6,32,607,-204,-374,3846,-0.66,1.53,41.18,-2.04,-3.74,38.46,-5.45,2.66,41.14,3.90,-2.82,-20.00
-2,27,602,-220,-340,3914,-0.60,1.54,40.74,-2.20,-3.40,39.14,-5.43,2.69,40.98,3.79,-2.75,-20.00
-11,12,604,-96,-370,4036,-0.61,1.46,40.35,-0.96,-3.70,40.36,-5.42,2.70,40.82,3.97,-2.42,-20.00
-11,16,613,-50,-307,3850,-0.62,1.41,40.05,-0.50,-3.07,38.50,-5.41,2.70,40.66,3.96,-2.49,-20.00
0,11,583,-75,-355,3643,-0.56,1.34,39.60,-0.75,-3.55,36.43,-5.41,2.70,40.50,3.72,-2.37,-20.00
-11,37,576,-164,-305,3835,-0.57,1.43,39.16,-1.64,-3.05,38.35,-5.39,2.72,40.34,3.93,-2.94,-20.00
-13,0,557,172,-310,3931,-0.59,1.29,38.64,1.72,-3.10,39.31,-5.38,2.72,40.19,3.97,-2.15,-20.00
-6,6,570,250,-304,3895,-0.57,1.20,38.25,2.50,-3.04,38.95,-5.37,2.72,40.04,3.82,-2.24,-20.00
-12,12,495,-197,-531,3859,-0.58,1.15,37.45,-1.97,-5.31,38.59,-5.38,2.74,39.89,3.96,-2.37,-18.52
-13,7,485,-164,-517,4036,-0.60,1.08,36.66,-1.64,-5.17,40.36,-5.40,2.75,39.75,3.99,-2.25,-18.26
-11,13,510,-180,-470,3837,-0.61,1.05,36.10,-1.80,-4.70,38.37,-5.41,2.77,39.60,3.96,-2.38,-20.00
-11,22,532,-102,-448,3935,-0.62,1.08,35.74,-1.02,-4.48,39.35,-5.42,2.77,39.46,3.97,-2.57,-20.00
-18,19,580,-29,-396,4016,-0.67,1.09,35.70,-0.29,-3.96,40.16,-5.42,2.77,39.32,4.12,-2.51,-20.00
-16,16,571,35,-350,3875,-0.70,1.08,35.62,0.35,-3.50,38.75,-5.41,2.77,39.18,4.09,-2.45,-20.00
4,20,503,-2,-248,3887,-0.60,1.09,35.12,-0.02,-2.48,38.87,-5.40,2.78,39.04,3.64,-2.54,-20.00
12,38,509,-24,-300,3862,-0.47,1.21,34.72,-0.24,-3.00,38.62,-5.38,2.78,38.90,3.44,-2.94,-20.00
-1,24,482,-118,-530,3876,-0.43,1.24,34.18,-1.18,-5.30,38.76,-5.40,2.79,38.76,3.70,-2.66,-19.30
-12,11,447,4,-548,3871,-0.46,1.18,33.49,0.04,-5.48,38.71,-5.40,2.79,38.63,3.94,-2.39,-17.30
-5,11,391,66,-615,3877,-0.44,1.13,32.53,0.66,-6.15,38.77,-5.41,2.79,38.50,3.79,-2.38,-14.02
0,9,386,124,-576,3881,-0.40,1.07,31.63,1.24,-5.76,38.81,-5.42,2.80,38.38,3.68,-2.32,-14.17
-4,10,411,-7,-445,3908,-0.38,1.03,30.97,-0.07,-4.45,39.08,-5.42,2.79,38.26,3.76,-2.33,-16.21
7,17,410,-113,-543,3820,-0.30,1.03,30.38,-1.13,-5.43,38.20,-5.43,2.80,38.14,3.53,-2.48,-16.46
-8,19,426,-109,-399,3720,-0.32,1.04,29.94,-1.09,-3.99,37.20,-5.44,2.80,38.02,3.84,-2.52,-17.78
-5,26,435,-113,-434,3903,-0.32,1.09,29.60,-1.13,-4.34,39.03,-5.44,2.80,37.90,3.78,-2.68,-18.56
-29,6,492,-15,-339,3968,-0.46,1.02,29.64,-0.15,-3.39,39.68,-5.44,2.80,37.78,4.30,-2.25,-20.00
-21,14,491,-24,-405,3917,-0.55,1.00,29.67,-0.24,-4.05,39.17,-5.44,2.80,37.66,4.16,-2.41,-20.00
-15,6,501,-67,-423,3866,-0.58,0.94,29.76,-0.67,-4.23,38.66,-5.44,2.80,37.55,4.05,-2.22,-20.00
-14,-10,508,13,-480,3880,-0.61,0.79,29.88,0.13,-4.80,38.80,-5.45,2.79,37.43,4.05,-1.86,-20.00
-17,-4,524,85,-456,3876,-0.65,0.68,30.09,0.85,-4.56,38.76,-5.45,2.79,37.31,4.12,-1.95,-20.00
-11,7,515,92,-364,3835,-0.65,0.66,30.22,0.92,-3.64,38.35,-5.44,2.79,37.19,4.00,-2.16,-20.00
-29,-8,489,-35,-464,3836,-0.77,0.54,30.18,-0.35,-4.64,38.36,-5.45,2.79,37.07,4.40,-1.82,-20.00
-6,-1,461,45,-358,3766,-0.73,0.48,29.98,0.45,-3.58,37.66,-5.45,2.78,36.95,3.92,-1.95,-19.97
-1,9,410,31,-344,3817,-0.66,0.49,29.48,0.31,-3.44,38.17,-5.44,2.78,36.83,3.79,-2.15,-16.77
5,6,408,33,-334,3936,-0.56,0.48,29.02,0.33,-3.34,39.36,-5.44,2.77,36.72,3.64,-2.08,-16.88
-13,11,417,137,-349,3968,-0.59,0.50,28.66,1.37,-3.49,39.68,-5.43,2.77,36.60,4.01,-2.18,-17.67
-9,14,394,127,-324,3870,-0.58,0.53,28.20,1.27,-3.24,38.70,-5.43,2.76,36.49,3.92,-2.25,-16.35
2,11,234,18,-337,3906,-0.51,0.55,26.81,0.18,-3.37,39.06,-5.42,2.75,36.38,3.68,-2.19,-6.28
0,6,226,51,-383,3888,-0.46,0.53,25.51,0.51,-3.83,38.88,-5.42,2.75,36.28,3.70,-2.08,-6.45
-6,7,305,-17,-470,3933,-0.45,0.52,24.82,-0.17,-4.70,39.33,-5.43,2.74,36.18,3.83,-2.09,-12.18
-7,14,324,-51,-482,3866,-0.45,0.55,24.31,-0.51,-4.82,38.66,-5.43,2.74,36.09,3.85,-2.24,-13.73
-4,18,326,-87,-454,3844,-0.43,0.61,23.87,-0.87,-4.54,38.44,-5.44,2.74,35.99,3.79,-2.34,-14.10
-5,9,311,-64,-416,3917,-0.42,0.60,23.38,-0.64,-4.16,39.17,-5.45,2.73,35.90,3.81,-2.15,-13.35
3,21,297,-30,-489,3936,-0.36,0.67,22.85,-0.30,-4.89,39.36,-5.45,2.73,35.81,3.64,-2.41,-12.68
4,27,313,-15,-524,3865,-0.30,0.77,22.48,-0.15,-5.24,38.65,-5.46,2.73,35.72,3.61,-2.56,-13.96
-3,11,334,31,-534,3871,-0.28,0.76,22.27,0.31,-5.34,38.71,-5.47,2.72,35.63,3.75,-2.23,-15.49
-11,6,334,3,-520,3903,-0.32,0.72,22.08,0.03,-5.20,39.03,-5.48,2.72,35.55,3.93,-2.11,-15.58
-6,-2,360,64,-517,3930,-0.33,0.63,22.07,0.64,-5.17,39.30,-5.49,2.71,35.46,3.83,-1.92,-17.34
-6,0,359,74,-464,3911,-0.33,0.57,22.05,0.74,-4.64,39.11,-5.49,2.71,35.37,3.84,-1.94,-17.27
-10,11,356,21,-500,3935,-0.36,0.58,22.02,0.21,-5.00,39.35,-5.50,2.70,35.28,3.93,-2.17,-17.07
-12,15,369,-54,-499,3862,-0.40,0.61,22.06,-0.54,-4.99,38.62,-5.51,2.70,35.20,3.99,-2.25,-17.91
-2,24,452,-167,-531,3895,-0.37,0.70,22.62,-1.67,-5.31,38.95,-5.52,2.71,35.11,3.79,-2.47,-20.00
2,14,484,-154,-485,3955,-0.32,0.71,23.31,-1.54,-4.85,39.55,-5.54,2.72,35.02,3.70,-2.27,-20.00
-10,12,618,-182,-396,3972,-0.35,0.72,24.75,-1.82,-3.96,39.72,-5.55,2.72,34.92,3.96,-2.23,-20.00
1,15,653,-284,-501,3841,-0.31,0.74,26.25,-2.84,-5.01,38.41,-5.56,2.74,34.81,3.73,-2.32,-20.00
-3,19,691,-121,-451,3867,-0.30,0.78,27.84,-1.21,-4.51,38.67,-5.57,2.74,34.70,3.82,-2.41,-20.00
-14,0,683,-17,-426,3980,-0.35,0.70,29.23,-0.17,-4.26,39.80,-5.57,2.74,34.59,4.06,-2.00,-20.00
-13,21,637,-39,-444,3912,-0.40,0.76,30.19,-0.39,-4.44,39.12,-5.57,2.74,34.47,4.05,-2.44,-20.00
-12,38,629,-41,-441,3931,-0.43,0.91,31.01,-0.41,-4.41,39.31,-5.57,2.74,34.35,4.04,-2.83,-20.00
-20,37,598,-64,-478,3975,-0.51,1.05,31.55,-0.64,-4.78,39.75,-5.58,2.74,34.22,4.23,-2.85,-20.00
-19,22,585,-16,-513,3770,-0.57,1.08,31.97,-0.16,-5.13,37.70,-5.59,2.74,34.09,4.23,-2.55,-20.00
-12,-7,557,-13,-396,3904,-0.59,0.93,32.17,-0.13,-3.96,39.04,-5.59,2.74,33.97,4.09,-1.92,-20.00
-14,11,570,33,-456,3794,-0.62,0.90,32.43,0.33,-4.56,37.94,-5.59,2.74,33.84,4.14,-2.28,-20.00
-15,28,622,-78,-467,3753,-0.65,0.98,32.98,-0.78,-4.67,37.53,-5.60,2.74,33.71,4.18,-2.65,-20.00
-14,32,638,-130,-471,4031,-0.67,1.08,33.57,-1.30,-4.71,40.31,-5.61,2.75,33.58,4.17,-2.76,-20.00
-2,7,647,-86,-357,3878,-0.61,1.01,34.16,-0.86,-3.57,38.78,-5.60,2.75,33.44,3.90,-2.23,-20.00
-7,25,646,-204,-540,3588,-0.59,1.07,34.69,-2.04,-5.40,35.88,-5.61,2.77,33.30,4.01,-2.63,-20.00
6,36,659,-24,-393,3796,-0.50,1.18,35.24,-0.24,-3.93,37.96,-5.61,2.77,33.16,3.72,-2.88,-20.00
-25,5,629,54,-274,4022,-0.60,1.09,35.55,0.54,-2.74,40.22,-5.60,2.77,33.02,4.37,-2.23,-20.00
-15,14,581,-59,-443,3960,-0.63,1.07,35.54,-0.59,-4.43,39.60,-5.60,2.77,32.88,4.17,-2.40,-20.00
-29,5,577,-24,-439,3853,-0.75,0.99,35.51,-0.24,-4.39,38.53,-5.60,2.77,32.74,4.49,-2.20,-20.00
-25,8,620,164,-480,4018,-0.82,0.94,35.74,1.64,-4.80,40.18,-5.60,2.77,32.60,4.43,-2.25,-20.00
-11,28,632,142,-504,3885,-0.81,1.02,36.02,1.42,-5.04,38.85,-5.61,2.77,32.45,4.14,-2.68,-20.00
3,28,611,-24,-309,4066,-0.71,1.09,36.14,-0.24,-3.09,40.66,-5.59,2.77,32.31,3.82,-2.70,-20.00
0,15,604,-110,-380,3748,-0.64,1.07,36.21,-1.10,-3.80,37.48,-5.59,2.78,32.17,3.87,-2.43,-20.00
-29,22,604,-128,-355,3842,-0.75,1.10,36.28,-1.28,-3.55,38.42,-5.58,2.78,32.02,4.48,-2.58,-20.00
-9,13,612,-26,-398,4055,-0.73,1.07,36.38,-0.26,-3.98,40.55,-5.58,2.78,31.88,4.06,-2.39,-20.00
-19,13,615,-4,-323,4021,-0.77,1.04,36.50,-0.04,-3.23,40.21,-5.57,2.78,31.73,4.27,-2.38,-20.00
-12,0,562,-38,-432,3684,-0.77,0.94,36.27,-0.38,-4.32,36.84,-5.57,2.78,31.59,4.13,-2.09,-20.00
-4,-9,478,79,-457,3917,-0.72,0.79,35.56,0.79,-4.57,39.17,-5.57,2.78,31.45,3.96,-1.87,-17.16
-12,-1,481,48,-466,4001,-0.72,0.70,34.94,0.48,-4.66,40.01,-5.58,2.78,31.31,4.12,-2.00,-17.69
-6,9,507,-33,-592,3837,-0.68,0.69,34.54,-0.33,-5.92,38.37,-5.59,2.78,31.17,4.00,-2.21,-19.66
-8,26,511,-8,-474,3898,-0.66,0.78,34.20,-0.08,-4.74,38.98,-5.59,2.78,31.04,4.03,-2.58,-20.00
10,27,492,-53,-340,3913,-0.54,0.86,33.78,-0.53,-3.40,39.13,-5.58,2.78,30.90,3.63,-2.62,-19.03
-6,16,468,-41,-341,3932,-0.52,0.87,33.26,-0.41,-3.41,39.32,-5.57,2.78,30.77,3.94,-2.40,-17.67
22,15,404,74,-412,3978,-0.33,0.88,32.40,0.74,-4.12,39.78,-5.57,2.78,30.64,3.32,-2.38,-13.80
-22,6,385,60,-389,3861,-0.43,0.83,31.51,0.60,-3.89,38.61,-5.57,2.78,30.52,4.24,-2.18,-12.99
-5,5,319,-38,-390,3846,-0.42,0.78,30.30,-0.38,-3.90,38.46,-5.56,2.77,30.39,3.89,-2.14,-9.18
-5,8,309,-60,-485,3942,-0.41,0.75,29.16,-0.60,-4.85,39.42,-5.57,2.77,30.28,3.89,-2.20,-9.13
-4,5,296,-8,-483,3716,-0.39,0.70,28.05,-0.08,-4.83,37.16,-5.58,2.77,30.17,3.87,-2.12,-8.85
-7,7,305,-15,-524,3924,-0.40,0.67,27.10,-0.15,-5.24,39.24,-5.58,2.77,30.06,3.94,-2.15,-9.97
-7,15,375,-95,-471,3983,-0.40,0.70,26.68,-0.95,-4.71,39.83,-5.59,2.77,29.96,3.94,-2.32,-14.94
-10,5,394,-36,-564,3952,-0.42,0.66,26.42,-0.36,-5.64,39.52,-5.60,2.77,29.85,4.02,-2.11,-16.36
-21,3,449,-68,-435,3921,-0.51,0.61,26.51,-0.68,-4.35,39.21,-5.61,2.77,29.75,4.27,-2.05,-20.00
-2,24,460,-105,-563,3758,-0.47,0.70,26.67,-1.05,-5.63,37.58,-5.62,2.77,29.64,3.88,-2.51,-20.00
-9,28,481,-18,-467,3868,-0.48,0.80,26.93,-0.18,-4.67,38.68,-5.63,2.77,29.53,4.03,-2.61,-20.00
-15,-1,471,63,-485,4122,-0.52,0.71,27.11,0.63,-4.85,41.22,-5.63,2.76,29.43,4.16,-2.00,-20.00
-16,-15,426,53,-480,4014,-0.57,0.55,27.00,0.53,-4.80,40.14,-5.63,2.76,29.32,4.20,-1.67,-18.12
-7,6,440,3,-556,3927,-0.55,0.53,26.99,0.03,-5.56,39.27,-5.64,2.76,29.21,4.02,-2.09,-19.06
-9,15,460,30,-495,4131,-0.55,0.57,27.09,0.30,-4.95,41.31,-5.64,2.76,29.11,4.06,-2.28,-20.00
-28,-3,471,-10,-491,3816,-0.67,0.49,27.26,-0.10,-4.91,38.16,-5.65,2.75,29.00,4.48,-1.89,-20.00
-7,20,588,-15,-666,3703,-0.64,0.57,28.12,-0.15,-6.66,37.03,-5.66,2.76,28.89,4.06,-2.38,-20.00
2,44,630,-79,-887,3591,-0.57,0.78,29.15,-0.79,-8.87,35.91,-5.68,2.77,28.77,3.86,-2.93,-20.00
-5,61,761,17,-512,3605,-0.54,1.07,30.88,0.17,-5.12,36.05,-5.69,2.77,28.65,4.00,-3.36,-20.00
3,54,765,-108,-609,4080,-0.47,1.29,32.46,-1.08,-6.09,40.80,-5.70,2.78,28.52,3.83,-3.29,-20.00
-25,19,764,-10,-372,4093,-0.57,1.28,33.87,-0.10,-3.72,40.93,-5.69,2.78,28.39,4.42,-2.57,-20.00
-3,21,753,-2,-352,3625,-0.53,1.28,35.08,-0.02,-3.52,36.25,-5.69,2.78,28.25,3.96,-2.61,-20.00
2,34,764,-33,-444,3627,-0.47,1.36,36.23,-0.33,-4.44,36.27,-5.69,2.79,28.10,3.84,-2.90,-20.00
-4,8,770,-23,-372,4069,-0.45,1.27,37.30,-0.23,-3.72,40.69,-5.68,2.79,27.96,3.95,-2.35,-20.00
-16,2,799,-72,-381,3818,-0.50,1.16,38.45,-0.72,-3.81,38.18,-5.68,2.79,27.80,4.21,-2.20,-20.00
-24,43,812,-96,-394,3725,-0.60,1.30,39.56,-0.96,-3.94,37.25,-5.67,2.79,27.65,4.40,-3.07,-20.00
-5,28,831,-172,-344,3991,-0.57,1.35,40.67,-1.72,-3.44,39.91,-5.65,2.81,27.48,3.99,-2.79,-20.00
-30,18,836,-157,-408,3978,-0.69,1.32,41.70,-1.57,-4.08,39.78,-5.65,2.81,27.32,4.53,-2.58,-20.00
-29,8,789,-65,-280,3872,-0.80,1.24,42.34,-0.65,-2.80,38.72,-5.64,2.82,27.15,4.53,-2.36,-20.00
-8,50,762,-157,-375,3646,-0.77,1.42,42.76,-1.57,-3.75,36.46,-5.64,2.83,26.98,4.10,-3.27,-20.00
-1,39,679,-1,-528,3743,-0.70,1.51,42.62,-0.01,-5.28,37.43,-5.65,2.83,26.81,3.94,-3.08,-20.00
-3,34,663,-10,-566,4072,-0.65,1.57,42.41,-0.10,-5.66,40.72,-5.65,2.84,26.64,3.97,-3.00,-20.00
-31,5,660,-16,-504,3845,-0.77,1.44,42.19,-0.16,-5.04,38.45,-5.66,2.85,26.48,4.58,-2.38,-20.00
-4,28,630,6,-486,3956,-0.72,1.47,41.82,0.06,-4.86,39.56,-5.66,2.86,26.31,4.01,-2.86,-20.00
-19,8,576,-85,-389,3925,-0.76,1.37,41.15,-0.85,-3.89,39.25,-5.66,2.86,26.15,4.33,-2.42,-19.87
-25,-5,553,-72,-472,3811,-0.84,1.20,40.41,-0.72,-4.72,38.11,-5.66,2.87,25.99,4.47,-2.12,-18.71
-18,-9,558,-67,-339,3983,-0.86,1.03,39.77,-0.67,-3.39,39.83,-5.65,2.87,25.83,4.33,-1.99,-19.38
-30,-10,577,-33,-488,3839,-0.96,0.87,39.31,-0.33,-4.88,38.39,-5.66,2.87,25.67,4.61,-1.93,-20.00
-15,28,499,-109,-270,3808,-0.96,0.95,38.42,-1.09,-2.70,38.08,-5.64,2.88,25.52,4.29,-2.73,-16.09
-23,32,469,-98,-251,3934,-1.00,1.05,37.44,-0.98,-2.51,39.34,-5.62,2.89,25.37,4.45,-2.84,-14.58
-4,16,317,-130,-372,3703,-0.93,1.04,35.63,-1.30,-3.72,37.03,-5.62,2.89,25.23,4.04,-2.52,-5.28
-2,9,285,-203,-419,3945,-0.85,0.99,33.81,-2.03,-4.19,39.45,-5.63,2.91,25.10,3.99,-2.37,-4.11
-4,8,267,-80,-543,3904,-0.79,0.94,32.06,-0.80,-5.43,39.04,-5.65,2.91,24.97,4.02,-2.34,-3.86
-9,5,303,13,-628,3927,-0.76,0.88,30.70,0.13,-6.28,39.27,-5.66,2.92,24.85,4.12,-2.27,-7.04
20,9,357,-3,-605,3917,-0.56,0.85,29.81,-0.03,-6.05,39.17,-5.67,2.92,24.73,3.49,-2.34,-11.18
10,-5,368,-52,-705,3762,-0.45,0.73,29.07,-0.52,-7.05,37.62,-5.68,2.93,24.61,3.67,-2.03,-12.32
-13,43,420,71,-376,3812,-0.48,0.92,28.73,0.71,-3.76,38.12,-5.67,2.92,24.50,4.14,-3.05,-16.02
5,22,397,-41,-262,4148,-0.40,0.96,28.27,-0.41,-2.62,41.48,-5.66,2.92,24.39,3.74,-2.64,-14.70
-16,-24,357,-16,-503,3997,-0.46,0.72,27.62,-0.16,-5.03,39.97,-5.66,2.92,24.28,4.19,-1.64,-12.34
-29,2,372,43,-538,3569,-0.59,0.66,27.13,0.43,-5.38,35.69,-5.67,2.92,24.17,4.49,-2.15,-13.62
-15,18,415,-3,-558,3602,-0.62,0.70,26.95,-0.03,-5.58,36.02,-5.68,2.92,24.06,4.23,-2.49,-16.62
8,30,426,-30,-542,3963,-0.51,0.82,26.85,-0.30,-5.42,39.63,-5.69,2.92,23.96,3.73,-2.76,-17.40
10,16,440,-65,-448,3867,-0.40,0.83,26.85,-0.65,-4.48,38.67,-5.70,2.92,23.85,3.66,-2.48,-18.33
-22,5,432,-13,-381,3834,-0.49,0.78,26.80,-0.13,-3.81,38.34,-5.69,2.91,23.75,4.34,-2.24,-17.80
-6,26,413,-103,-461,3707,-0.48,0.86,26.64,-1.03,-4.61,37.07,-5.70,2.92,23.64,4.02,-2.69,-16.59
-1,38,418,-169,-490,3993,-0.44,1.01,26.53,-1.69,-4.90,39.93,-5.72,2.92,23.54,3.91,-2.98,-16.98
2,45,411,-144,-401,3953,-0.38,1.18,26.38,-1.44,-4.01,39.53,-5.71,2.92,23.43,3.83,-3.16,-16.57
1,24,409,-135,-378,4005,-0.34,1.21,26.24,-1.35,-3.78,40.05,-5.70,2.92,23.33,3.84,-2.74,-16.50
-8,9,396,-58,-362,3965,-0.35,1.14,26.03,-0.58,-3.62,39.65,-5.70,2.92,23.22,4.02,-2.42,-15.72
-6,11,382,-85,-445,3770,-0.35,1.10,25.76,-0.85,-4.45,37.70,-5.70,2.91,23.12,3.98,-2.45,-14.91
1,21,365,-100,-362,3892,-0.31,1.11,25.41,-1.00,-3.62,38.92,-5.69,2.91,23.02,3.82,-2.65,-13.94
-13,19,363,-98,-441,3877,-0.36,1.12,25.08,-0.98,-4.41,38.77,-5.70,2.91,22.92,4.12,-2.61,-13.97
2,21,369,-43,-382,3946,-0.31,1.13,24.82,-0.43,-3.82,39.46,-5.69,2.91,22.82,3.80,-2.65,-14.50
1,15,364,18,-415,3862,-0.28,1.11,24.56,0.18,-4.15,38.62,-5.69,2.90,22.73,3.81,-2.52,-14.30
-2,15,331,-37,-417,3883,-0.26,1.09,24.13,-0.37,-4.17,38.83,-5.69,2.90,22.63,3.87,-2.52,-12.29
-4,20,322,-37,-456,3880,-0.26,1.11,23.68,-0.37,-4.56,38.80,-5.69,2.89,22.54,3.91,-2.62,-11.92
8,27,316,0,-348,3773,-0.18,1.16,23.24,0.00,-3.48,37.73,-5.69,2.89,22.44,3.64,-2.77,-11.75
-17,10,297,30,-404,4093,-0.27,1.10,22.72,0.30,-4.04,40.93,-5.68,2.89,22.35,4.17,-2.41,-10.73
2,2,242,33,-382,3955,-0.23,1.01,21.93,0.33,-3.82,39.55,-5.68,2.88,22.27,3.77,-2.22,-7.44
-1,9,238,51,-482,3794,-0.21,0.96,21.19,0.51,-4.82,37.94,-5.68,2.88,22.18,3.83,-2.34,-7.57
-9,2,272,-14,-433,3997,-0.25,0.88,20.73,-0.14,-4.33,39.97,-5.68,2.87,22.10,4.00,-2.17,-10.12
-12,2,275,-37,-451,3794,-0.30,0.80,20.33,-0.37,-4.51,37.94,-5.69,2.86,22.02,4.08,-2.15,-10.53
0,23,326,-61,-447,3836,-0.27,0.86,20.29,-0.61,-4.47,38.36,-5.69,2.86,21.94,3.83,-2.59,-14.00
-5,10,371,-2,-461,4007,-0.27,0.84,20.52,-0.02,-4.61,40.07,-5.70,2.85,21.86,3.93,-2.31,-16.91
-17,-3,437,21,-421,3927,-0.35,0.73,21.14,0.21,-4.21,39.27,-5.70,2.85,21.78,4.20,-2.02,-20.00
-3,29,445,25,-437,3750,-0.33,0.84,21.74,0.25,-4.37,37.50,-5.70,2.84,21.69,3.91,-2.69,-20.00
7,26,416,53,-333,3922,-0.25,0.91,22.10,0.53,-3.33,39.22,-5.69,2.83,21.60,3.68,-2.65,-19.04
4,26,400,24,-331,3985,-0.20,0.98,22.33,0.24,-3.31,39.85,-5.68,2.83,21.51,3.72,-2.66,-17.81
11,30,358,-53,-504,3905,-0.12,1.07,22.28,-0.53,-5.04,39.05,-5.69,2.83,21.43,3.56,-2.77,-14.98
4,41,357,-91,-503,3812,-0.08,1.21,22.23,-0.91,-5.03,38.12,-5.70,2.83,21.34,3.70,-3.03,-14.92
6,32,384,-170,-489,3912,-0.04,1.28,22.35,-1.70,-4.89,39.12,-5.71,2.84,21.25,3.66,-2.88,-16.67
0,15,408,-125,-529,3861,-0.03,1.25,22.60,-1.25,-5.29,38.61,-5.73,2.85,21.16,3.79,-2.52,-18.14
-8,8,451,57,-568,3837,-0.08,1.17,23.09,0.57,-5.68,38.37,-5.73,2.85,21.07,3.97,-2.36,-20.00
-11,24,477,7,-563,4041,-0.14,1.20,23.69,0.07,-5.63,40.41,-5.74,2.85,20.98,4.05,-2.69,-20.00
4,21,485,95,-498,4011,-0.10,1.21,24.28,0.95,-4.98,40.11,-5.74,2.84,20.88,3.73,-2.63,-20.00
-11,1,491,64,-442,3868,-0.16,1.09,24.85,0.64,-4.42,38.68,-5.74,2.84,20.78,4.05,-2.19,-20.00
-18,-3,509,72,-494,3774,-0.25,0.97,25.47,0.72,-4.94,37.74,-5.74,2.84,20.68,4.22,-2.07,-20.00
-11,18,523,77,-489,3832,-0.29,0.98,26.11,0.77,-4.89,38.32,-5.75,2.83,20.58,4.10,-2.50,-20.00
-20,10,515,96,-476,3864,-0.39,0.94,26.64,0.96,-4.76,38.64,-5.75,2.83,20.47,4.31,-2.33,-20.00
-6,3,516,30,-530,3943,-0.38,0.87,27.13,0.30,-5.30,39.43,-5.75,2.83,20.37,4.02,-2.16,-20.00
-16,5,535,221,-608,4078,-0.44,0.81,27.68,2.21,-6.08,40.78,-5.76,2.83,20.26,4.25,-2.19,-20.00
-8,-16,535,182,-557,3977,-0.45,0.63,28.17,1.82,-5.57,39.77,-5.76,2.82,20.14,4.09,-1.71,-20.00
-2,10,572,76,-609,3909,-0.41,0.63,28.85,0.76,-6.09,39.09,-5.77,2.82,20.03,3.96,-2.24,-20.00
-12,11,623,14,-560,3848,-0.45,0.63,29.76,0.14,-5.60,38.48,-5.78,2.82,19.91,4.18,-2.26,-20.00
-12,15,680,-111,-482,3795,-0.47,0.66,30.93,-1.11,-4.82,37.95,-5.79,2.83,19.79,4.19,-2.35,-20.00
-29,10,689,-161,-465,3912,-0.60,0.66,32.04,-1.61,-4.65,39.12,-5.80,2.83,19.66,4.58,-2.25,-20.00
-14,12,699,-324,-371,3881,-0.63,0.66,33.10,-3.24,-3.71,38.81,-5.79,2.87,19.53,4.28,-2.32,-20.00
-10,7,697,-200,-326,4011,-0.63,0.64,34.04,-2.00,-3.26,40.11,-5.77,2.88,19.40,4.18,-2.22,-20.00
-26,9,676,-138,-339,3948,-0.72,0.63,34.76,-1.38,-3.39,39.48,-5.75,2.89,19.26,4.52,-2.26,-20.00
-1,34,661,-107,-394,3792,-0.66,0.78,35.32,-1.07,-3.94,37.92,-5.75,2.89,19.12,3.99,-2.81,-20.00
1,29,614,67,-368,3757,-0.59,0.87,35.53,0.67,-3.68,37.57,-5.74,2.89,18.98,3.93,-2.73,-20.00
16,44,587,57,-475,3954,-0.43,1.06,35.56,0.57,-4.75,39.54,-5.74,2.89,18.83,3.58,-3.09,-20.00
-3,44,571,-110,-497,3947,-0.40,1.22,35.49,-1.10,-4.97,39.47,-5.75,2.89,18.69,3.97,-3.14,-20.00
-11,30,591,-13,-420,3877,-0.43,1.28,35.54,-0.13,-4.20,38.77,-5.75,2.89,18.55,4.14,-2.87,-20.00
-18,26,615,-103,-510,3812,-0.50,1.31,35.74,-1.03,-5.10,38.12,-5.76,2.90,18.41,4.30,-2.80,-20.00
1,31,631,-45,-434,3889,-0.44,1.37,36.02,-0.45,-4.34,38.89,-5.76,2.91,18.27,3.90,-2.92,-20.00
3,30,636,-99,-348,3853,-0.38,1.41,36.29,-0.99,-3.48,38.53,-5.75,2.91,18.12,3.83,-2.92,-20.00
-6,10,634,-64,-401,3967,-0.38,1.33,36.53,-0.64,-4.01,39.67,-5.74,2.91,17.98,4.01,-2.49,-20.00
-9,18,591,-22,-371,3880,-0.40,1.31,36.48,-0.22,-3.71,38.80,-5.73,2.91,17.83,4.07,-2.65,-20.00
-11,18,563,-24,-381,3866,-0.42,1.29,36.27,-0.24,-3.81,38.66,-5.73,2.91,17.69,4.12,-2.64,-20.00
4,27,447,-119,-237,3873,-0.36,1.33,35.37,-1.19,-2.37,38.73,-5.70,2.92,17.55,3.78,-2.84,-13.08
-6,20,422,-138,-287,3998,-0.36,1.31,34.41,-1.38,-2.87,39.98,-5.68,2.93,17.41,3.97,-2.70,-11.91
1,17,311,-66,-264,3901,-0.32,1.29,32.86,-0.66,-2.64,39.01,-5.67,2.94,17.28,3.80,-2.64,-5.23
-4,10,239,-27,-362,3854,-0.31,1.22,31.03,-0.27,-3.62,38.54,-5.66,2.94,17.16,3.90,-2.47,-1.36
3,5,143,136,-576,3892,-0.26,1.13,28.80,1.36,-5.76,38.92,-5.66,2.94,17.04,3.75,-2.35,3.91
-1,0,119,187,-564,3892,-0.24,1.01,26.65,1.87,-5.64,38.92,-5.67,2.94,16.94,3.82,-2.21,4.35
6,9,76,96,-560,3881,-0.18,0.97,24.45,0.96,-5.60,38.81,-5.67,2.93,16.84,3.67,-2.38,6.04
7,16,79,94,-542,3916,-0.12,0.97,22.48,0.94,-5.42,39.16,-5.67,2.93,16.75,3.64,-2.52,4.75
7,30,163,164,-761,3911,-0.06,1.06,21.23,1.64,-7.61,39.11,-5.68,2.93,16.67,3.63,-2.83,-1.64
3,29,212,155,-776,3924,-0.04,1.13,20.40,1.55,-7.76,39.24,-5.69,2.93,16.59,3.71,-2.83,-5.41
-6,11,394,123,-660,3929,-0.07,1.08,20.76,1.23,-6.60,39.29,-5.70,2.93,16.51,3.90,-2.45,-17.53
-9,3,429,13,-652,3817,-0.12,0.99,21.30,0.13,-6.52,38.17,-5.71,2.93,16.42,3.99,-2.26,-19.59
-16,-10,531,-42,-518,3816,-0.21,0.83,22.41,-0.42,-5.18,38.16,-5.72,2.93,16.34,4.16,-1.96,-20.00
-2,13,563,-27,-493,3995,-0.20,0.83,23.61,-0.27,-4.93,39.95,-5.72,2.92,16.24,3.87,-2.42,-20.00
-7,11,572,-53,-355,3936,-0.22,0.81,24.73,-0.53,-3.55,39.36,-5.72,2.92,16.14,3.97,-2.37,-20.00
-14,13,569,-110,-434,3903,-0.28,0.81,25.73,-1.10,-4.34,39.03,-5.72,2.92,16.04,4.14,-2.41,-20.00
-1,20,476,-24,-269,3918,-0.26,0.85,26.06,-0.24,-2.69,39.18,-5.70,2.92,15.94,3.86,-2.56,-20.00
-6,15,438,-63,-215,3952,-0.27,0.86,26.13,-0.63,-2.15,39.52,-5.69,2.92,15.83,3.95,-2.46,-17.40
9,35,342,-14,-468,3805,-0.19,0.99,25.60,-0.14,-4.68,38.05,-5.69,2.92,15.73,3.62,-2.90,-11.17
17,41,343,16,-460,4041,-0.07,1.14,25.13,0.16,-4.60,40.41,-5.69,2.91,15.63,3.43,-3.07,-11.49
2,34,385,33,-637,3892,-0.05,1.23,24.97,0.33,-6.37,38.92,-5.70,2.91,15.53,3.73,-2.95,-14.41
-11,15,405,58,-576,3933,-0.11,1.20,24.94,0.58,-5.76,39.33,-5.70,2.91,15.44,4.02,-2.56,-15.77
-6,30,466,-67,-418,3859,-0.14,1.26,25.29,-0.67,-4.18,38.59,-5.70,2.91,15.34,3.92,-2.88,-19.69
-13,6,449,-120,-337,3830,-0.20,1.17,25.50,-1.20,-3.37,38.30,-5.69,2.91,15.23,4.07,-2.36,-18.41
-1,5,343,-177,-262,3840,-0.19,1.09,25.04,-1.77,-2.62,38.40,-5.67,2.92,15.13,3.81,-2.33,-11.47
-4,-5,312,-150,-306,3927,-0.19,0.95,24.44,-1.50,-3.06,39.27,-5.65,2.93,15.04,3.86,-2.09,-9.69
-3,-15,176,-119,-348,3902,-0.19,0.76,23.07,-1.19,-3.48,39.02,-5.64,2.92,14.94,3.83,-1.83,-1.22
-3,-7,154,-126,-431,3884,-0.19,0.64,21.70,-1.26,-4.31,38.84,-5.64,2.92,14.86,3.84,-1.96,-0.49
1,3,144,-66,-470,3970,-0.17,0.60,20.41,-0.66,-4.70,39.70,-5.65,2.91,14.78,3.75,-2.15,-0.52
-3,6,138,-97,-453,3893,-0.17,0.57,19.21,-0.97,-4.53,38.93,-5.66,2.91,14.70,3.84,-2.20,-0.78
1,7,109,-125,-421,3806,-0.14,0.56,17.96,-1.25,-4.21,38.06,-5.66,2.90,14.63,3.76,-2.21,0.49
-1,7,92,-137,-374,3903,-0.14,0.55,16.72,-1.37,-3.74,39.03,-5.66,2.89,14.56,3.79,-2.20,0.96
-1,1,69,-109,-532,3914,-0.13,0.50,15.47,-1.09,-5.32,39.14,-5.67,2.89,14.50,3.80,-2.06,1.83
-3,8,109,-88,-571,3844,-0.13,0.50,14.59,-0.88,-5.71,38.44,-5.68,2.89,14.45,3.85,-2.20,-1.37
-11,-6,163,73,-526,3866,-0.19,0.41,14.12,0.73,-5.26,38.66,-5.69,2.88,14.39,4.03,-1.89,-5.28
-11,-12,154,150,-534,3920,-0.24,0.30,13.65,1.50,-5.34,39.20,-5.69,2.87,14.34,4.05,-1.73,-4.93
5,-2,117,149,-486,3881,-0.18,0.25,13.00,1.49,-4.86,38.81,-5.70,2.86,14.29,3.71,-1.91,-2.78
6,1,113,125,-568,3866,-0.13,0.23,12.39,1.25,-5.68,38.66,-5.70,2.85,14.24,3.68,-1.96,-2.84
-3,3,189,121,-633,3872,-0.13,0.23,12.30,1.21,-6.33,38.72,-5.71,2.84,14.19,3.87,-2.00,-8.04
-7,0,221,126,-671,3844,-0.16,0.21,12.42,1.26,-6.71,38.44,-5.72,2.83,14.14,3.96,-1.92,-10.13
-14,-15,306,128,-550,3928,-0.23,0.09,13.05,1.28,-5.50,39.28,-5.73,2.82,14.09,4.13,-1.58,-15.53
-6,-5,324,18,-506,3889,-0.24,0.05,13.72,0.18,-5.06,38.89,-5.74,2.81,14.03,3.98,-1.77,-16.37
-3,14,349,-102,-267,3970,-0.24,0.13,14.47,-1.02,-2.67,39.70,-5.72,2.80,13.98,3.90,-2.17,-17.63
-5,5,320,-142,-172,3934,-0.25,0.15,14.98,-1.42,-1.72,39.34,-5.70,2.81,13.91,3.93,-2.00,-15.37
6,15,244,-158,-321,3883,-0.18,0.23,14.97,-1.58,-3.21,38.83,-5.68,2.81,13.85,3.68,-2.22,-10.22
-1,7,223,-136,-274,3922,-0.17,0.25,14.83,-1.36,-2.74,39.22,-5.66,2.80,13.79,3.80,-2.06,-8.86
-4,3,130,-115,-314,3866,-0.18,0.24,14.14,-1.15,-3.14,38.66,-5.65,2.80,13.74,3.86,-1.97,-2.94
0,12,104,-111,-299,3911,-0.16,0.29,13.36,-1.11,-2.99,39.11,-5.63,2.79,13.68,3.76,-2.17,-1.60
-3,3,41,-50,-437,3938,-0.16,0.28,12.28,-0.50,-4.37,39.38,-5.64,2.78,13.64,3.83,-1.97,2.06
-2,-1,40,-4,-479,3940,-0.16,0.25,11.29,-0.04,-4.79,39.40,-5.64,2.77,13.59,3.81,-1.87,1.59
-7,-1,67,3,-541,3874,-0.19,0.21,10.57,0.03,-5.41,38.74,-5.65,2.76,13.55,3.92,-1.86,-0.64
-4,-1,77,-16,-557,3845,-0.19,0.19,9.98,-0.16,-5.57,38.45,-5.67,2.75,13.51,3.87,-1.85,-1.64
-5,-4,104,1,-501,3922,-0.20,0.14,9.62,0.01,-5.01,39.22,-5.67,2.74,13.47,3.90,-1.77,-3.67
-3,1,131,-5,-529,3884,-0.20,0.14,9.46,-0.05,-5.29,38.84,-5.68,2.73,13.44,3.87,-1.86,-5.59
-1,8,141,-74,-410,3905,-0.19,0.17,9.37,-0.74,-4.10,39.05,-5.69,2.72,13.40,3.82,-2.00,-6.31
-2,4,141,-85,-406,3958,-0.18,0.18,9.29,-0.85,-4.06,39.58,-5.69,2.70,13.36,3.84,-1.91,-6.35
-1,10,164,-103,-393,3936,-0.17,0.22,9.37,-1.03,-3.93,39.36,-5.69,2.69,13.32,3.82,-2.04,-7.86
5,10,170,-98,-400,3881,-0.12,0.26,9.47,-0.98,-4.00,38.81,-5.69,2.68,13.29,3.69,-2.04,-8.20
-4,6,189,-29,-478,3869,-0.13,0.27,9.67,-0.29,-4.78,38.69,-5.70,2.67,13.25,3.88,-1.95,-9.37
-4,19,197,-17,-462,3840,-0.14,0.36,9.91,-0.17,-4.62,38.40,-5.70,2.65,13.21,3.89,-2.24,-9.77
3,11,111,107,-459,3843,-0.11,0.39,9.59,1.07,-4.59,38.43,-5.71,2.64,13.17,3.74,-2.07,-4.12
3,14,88,133,-495,3904,-0.08,0.44,9.17,1.33,-4.95,39.04,-5.71,2.63,13.14,3.73,-2.14,-2.79
-2,2,27,52,-431,3893,-0.09,0.41,8.42,0.52,-4.31,38.93,-5.71,2.62,13.10,3.84,-1.88,0.93
-3,2,22,36,-459,3889,-0.10,0.38,7.71,0.36,-4.59,38.89,-5.72,2.60,13.07,3.86,-1.86,0.87
8,6,27,23,-446,3885,-0.04,0.38,7.10,0.23,-4.46,38.85,-5.72,2.59,13.04,3.62,-1.93,0.20
4,3,31,2,-485,3927,-0.01,0.36,6.58,0.02,-4.85,39.27,-5.73,2.58,13.02,3.70,-1.86,-0.36
-2,-1,50,18,-453,3888,-0.02,0.32,6.23,0.18,-4.53,38.88,-5.73,2.56,12.99,3.83,-1.76,-1.84
0,0,60,28,-481,3934,-0.02,0.28,5.97,0.28,-4.81,39.34,-5.74,2.55,12.97,3.79,-1.76,-2.66
-3,8,120,10,-501,3916,-0.04,0.30,6.11,0.10,-5.01,39.16,-5.75,2.54,12.95,3.86,-1.92,-6.65
-3,3,130,-8,-450,3893,-0.05,0.29,6.29,-0.08,-4.50,38.93,-5.75,2.53,12.92,3.87,-1.81,-7.22
-11,-7,123,-64,-419,3915,-0.11,0.22,6.41,-0.64,-4.19,39.15,-5.76,2.51,12.90,4.05,-1.57,-6.67
-10,-6,132,-51,-489,3797,-0.16,0.16,6.58,-0.51,-4.89,37.97,-5.77,2.50,12.87,4.05,-1.57,-7.19
8,6,204,-101,-487,3794,-0.10,0.18,7.16,-1.01,-4.87,37.94,-5.78,2.49,12.84,3.68,-1.82,-11.73
-3,3,240,-55,-433,3952,-0.11,0.18,7.91,-0.55,-4.33,39.52,-5.79,2.48,12.81,3.91,-1.75,-13.75
4,21,253,22,-346,4017,-0.07,0.29,8.66,0.22,-3.46,40.17,-5.78,2.47,12.78,3.75,-2.14,-14.20
5,17,232,5,-321,3826,-0.03,0.37,9.21,0.05,-3.21,38.26,-5.77,2.46,12.74,3.72,-2.07,-12.47
-2,-2,124,44,-428,3887,-0.04,0.32,9.05,0.44,-4.28,38.87,-5.77,2.44,12.70,3.86,-1.66,-5.23
-2,-6,109,36,-444,3862,-0.05,0.25,8.81,0.36,-4.44,38.62,-5.78,2.43,12.67,3.87,-1.55,-4.35
-3,-14,90,36,-457,3863,-0.06,0.14,8.48,0.36,-4.57,38.63,-5.78,2.42,12.64,3.89,-1.35,-3.24
-5,-16,92,31,-456,3920,-0.09,0.03,8.19,0.31,-4.56,39.20,-5.79,2.40,12.60,3.94,-1.27,-3.53
-2,-7,89,4,-462,3904,-0.09,-0.02,7.91,0.04,-4.62,39.04,-5.79,2.39,12.57,3.89,-1.43,-3.48
1,-5,87,24,-489,3896,-0.08,-0.05,7.65,0.24,-4.89,38.96,-5.80,2.37,12.54,3.83,-1.45,-3.48
0,1,85,53,-527,3913,-0.07,-0.04,7.41,0.53,-5.27,39.13,-5.81,2.36,12.51,3.85,-1.57,-3.48
0,4,89,69,-530,3873,-0.06,-0.01,7.21,0.69,-5.30,38.73,-5.82,2.35,12.49,3.86,-1.63,-3.86
0,14,135,71,-613,3922,-0.06,0.08,7.31,0.71,-6.13,39.22,-5.83,2.34,12.46,3.86,-1.85,-6.92
-4,10,161,44,-640,3919,-0.07,0.13,7.56,0.44,-6.40,39.19,-5.84,2.33,12.43,3.96,-1.78,-8.53
-15,-1,253,44,-549,3912,-0.16,0.11,8.35,0.44,-5.49,39.12,-5.85,2.32,12.39,4.21,-1.54,-14.32
-13,2,260,75,-530,3827,-0.22,0.11,9.10,0.75,-5.30,38.27,-5.86,2.31,12.36,4.19,-1.59,-14.37
-11,13,251,18,-487,3941,-0.27,0.18,9.72,0.18,-4.87,39.41,-5.87,2.30,12.32,4.17,-1.83,-13.41
-1,-1,247,0,-428,3903,-0.25,0.16,10.26,0.00,-4.28,39.03,-5.87,2.28,12.28,3.96,-1.53,-12.83
9,3,228,110,-575,3847,-0.17,0.16,10.62,1.10,-5.75,38.47,-5.88,2.27,12.24,3.74,-1.60,-11.33
3,14,252,129,-623,3933,-0.13,0.23,11.10,1.29,-6.23,39.33,-5.89,2.26,12.19,3.86,-1.84,-12.68
-2,11,283,86,-471,3934,-0.13,0.27,11.71,0.86,-4.71,39.34,-5.89,2.25,12.15,3.96,-1.78,-14.43
1,7,280,-96,-363,3989,-0.11,0.29,12.25,-0.96,-3.63,39.89,-5.88,2.24,12.10,3.89,-1.70,-13.92
7,7,228,-156,-390,3958,-0.06,0.30,12.42,-1.56,-3.90,39.58,-5.86,2.25,12.05,3.74,-1.71,-10.29
0,13,223,-67,-387,3926,-0.05,0.35,12.53,-0.67,-3.87,39.26,-5.85,2.24,12.00,3.88,-1.84,-9.88
-8,13,143,-137,-405,3915,-0.10,0.40,12.15,-1.37,-4.05,39.15,-5.86,2.23,11.95,4.05,-1.84,-4.67
-1,11,125,-134,-411,3899,-0.09,0.42,11.70,-1.34,-4.11,38.99,-5.86,2.22,11.90,3.92,-1.80,-3.69
-3,2,72,2,-505,3881,-0.10,0.39,10.97,0.02,-5.05,38.81,-5.87,2.21,11.86,3.96,-1.61,-0.50
-6,1,66,66,-580,3906,-0.13,0.36,10.27,0.66,-5.80,39.06,-5.88,2.20,11.82,4.04,-1.57,-0.48
-2,-1,128,50,-558,3975,-0.13,0.32,10.03,0.50,-5.58,39.75,-5.89,2.19,11.78,3.96,-1.51,-4.82
-5,6,141,-34,-537,3783,-0.14,0.32,9.89,-0.34,-5.37,37.83,-5.91,2.18,11.74,4.04,-1.65,-5.77
0,11,151,-89,-370,3802,-0.13,0.36,9.82,-0.89,-3.70,38.02,-5.90,2.17,11.70,3.93,-1.76,-6.48
-3,10,104,-168,-220,3905,-0.14,0.38,9.47,-1.68,-2.20,39.05,-5.88,2.18,11.67,3.98,-1.75,-3.48
-1,9,31,-59,-409,3888,-0.13,0.40,8.71,-0.59,-4.09,38.88,-5.88,2.17,11.63,3.94,-1.72,1.04
-2,9,26,-27,-429,3888,-0.13,0.41,8.00,-0.27,-4.29,38.88,-5.88,2.15,11.60,3.96,-1.72,0.99
1,7,31,27,-476,3892,-0.11,0.42,7.39,0.27,-4.76,38.92,-5.89,2.14,11.57,3.90,-1.67,0.31
3,5,30,12,-493,3925,-0.08,0.40,6.83,0.12,-4.93,39.25,-5.90,2.13,11.54,3.85,-1.62,0.07
-1,4,51,92,-587,3896,-0.08,0.39,6.46,0.92,-5.87,38.96,-5.91,2.12,11.52,3.94,-1.59,-1.56
0,10,64,116,-597,3877,-0.07,0.41,6.21,1.16,-5.97,38.77,-5.92,2.11,11.49,3.93,-1.71,-2.58
3,20,132,29,-518,3930,-0.04,0.49,6.39,0.29,-5.18,39.30,-5.93,2.10,11.47,3.86,-1.93,-7.08
-3,-7,126,-2,-477,3947,-0.06,0.40,6.52,-0.02,-4.77,39.47,-5.94,2.09,11.44,3.99,-1.34,-6.60
-3,-6,141,-28,-406,3854,-0.07,0.32,6.73,-0.28,-4.06,38.54,-5.94,2.07,11.42,4.00,-1.33,-7.49
-3,-9,129,-150,-245,3876,-0.08,0.24,6.84,-1.50,-2.45,38.76,-5.92,2.08,11.39,3.99,-1.25,-6.61
0,-12,41,-47,-486,3866,-0.07,0.14,6.41,-0.47,-4.86,38.66,-5.93,2.07,11.37,3.93,-1.16,-0.89
0,-9,39,-20,-419,3860,-0.07,0.07,6.00,-0.20,-4.19,38.60,-5.93,2.05,11.34,3.93,-1.19,-0.98
1,-2,28,-7,-434,3907,-0.05,0.05,5.58,-0.07,-4.34,39.07,-5.93,2.04,11.32,3.91,-1.32,-0.47
4,1,24,-1,-442,3916,-0.02,0.05,5.16,-0.01,-4.42,39.16,-5.94,2.02,11.30,3.84,-1.37,-0.42
6,14,27,-16,-455,3904,0.02,0.13,4.81,-0.16,-4.55,39.04,-5.94,2.01,11.28,3.80,-1.64,-0.82
5,15,29,-6,-475,3893,0.04,0.21,4.51,-0.06,-4.75,38.93,-5.95,1.99,11.26,3.81,-1.68,-1.13
5,18,29,3,-483,3882,0.07,0.30,4.23,0.03,-4.83,38.82,-5.96,1.98,11.25,3.81,-1.75,-1.28
4,14,30,-10,-463,3895,0.09,0.35,3.99,-0.10,-4.63,38.95,-5.97,1.97,11.23,3.83,-1.68,-1.48
1,6,23,1,-463,3888,0.08,0.36,3.73,0.01,-4.63,38.88,-5.97,1.95,11.22,3.90,-1.51,-1.15
1,6,19,-8,-467,3899,0.08,0.36,3.48,-0.08,-4.67,38.99,-5.98,1.94,11.20,3.90,-1.50,-1.02
-1,7,22,-11,-472,3905,0.07,0.36,3.26,-0.11,-4.72,39.05,-5.99,1.92,11.19,3.95,-1.51,-1.34
-2,8,25,-2,-466,3909,0.05,0.38,3.09,-0.02,-4.66,39.09,-5.99,1.91,11.18,3.98,-1.53,-1.64
-4,0,29,-7,-467,3915,0.02,0.34,2.96,-0.07,-4.67,39.15,-6.00,1.90,11.17,4.04,-1.34,-1.98
-2,-1,30,17,-460,3897,0.01,0.30,2.84,0.17,-4.60,38.97,-6.01,1.88,11.16,4.00,-1.30,-2.11
-1,0,27,1,-474,3906,-0.00,0.27,2.73,0.01,-4.74,39.06,-6.01,1.87,11.15,3.99,-1.31,-1.97
-1,-1,25,7,-469,3904,-0.01,0.24,2.61,0.07,-4.69,39.04,-6.02,1.85,11.14,4.00,-1.27,-1.90
-4,-3,22,-14,-472,3900,-0.03,0.19,2.48,-0.14,-4.72,39.00,-6.03,1.84,11.13,4.07,-1.20,-1.77
-5,0,21,19,-486,3872,-0.06,0.17,2.36,0.19,-4.86,38.72,-6.04,1.82,11.12,4.10,-1.25,-1.77
5,11,26,75,-592,3926,-0.02,0.22,2.28,0.75,-5.92,39.26,-6.05,1.81,11.11,3.90,-1.48,-2.15
3,13,55,81,-602,3889,-0.00,0.28,2.39,0.81,-6.02,38.89,-6.06,1.80,11.10,3.94,-1.53,-4.05
-14,4,123,26,-639,3851,-0.09,0.28,2.90,0.26,-6.39,38.51,-6.08,1.79,11.09,4.32,-1.34,-8.37
3,14,131,36,-545,3870,-0.06,0.34,3.41,0.36,-5.45,38.70,-6.09,1.78,11.08,3.97,-1.55,-8.63
0,16,145,58,-524,3952,-0.05,0.40,3.95,0.58,-5.24,39.52,-6.10,1.77,11.06,4.04,-1.60,-9.27
-1,7,153,64,-544,3885,-0.05,0.40,4.49,0.64,-5.44,38.85,-6.11,1.76,11.04,4.07,-1.41,-9.51
5,1,167,26,-561,3856,-0.02,0.37,5.06,0.26,-5.61,38.56,-6.12,1.75,11.02,3.94,-1.27,-10.13
0,1,190,-24,-582,3873,-0.02,0.34,5.71,-0.24,-5.82,38.73,-6.14,1.74,11.00,4.05,-1.26,-11.32
-2,17,199,-103,-286,3884,-0.03,0.41,6.36,-1.03,-2.86,38.84,-6.12,1.74,10.98,4.09,-1.61,-11.57
-2,9,169,-195,-255,3952,-0.04,0.42,6.75,-1.95,-2.55,39.52,-6.10,1.76,10.95,4.08,-1.46,-9.31
2,14,77,-158,-275,3923,-0.02,0.46,6.55,-1.58,-2.75,39.23,-6.08,1.77,10.92,3.98,-1.58,-3.18
3,13,38,-92,-355,3896,-0.00,0.50,6.12,-0.92,-3.55,38.96,-6.06,1.76,10.90,3.94,-1.56,-0.77
5,13,25,-54,-446,3902,0.03,0.53,5.66,-0.54,-4.46,39.02,-6.07,1.75,10.87,3.90,-1.56,-0.15
5,13,31,-58,-504,3887,0.06,0.55,5.29,-0.58,-5.04,38.87,-6.09,1.74,10.85,3.90,-1.57,-0.76
10,15,39,73,-435,3928,0.11,0.59,5.00,0.73,-4.35,39.28,-6.09,1.73,10.83,3.78,-1.61,-1.47
5,12,28,67,-426,3854,0.13,0.60,4.67,0.67,-4.26,38.54,-6.09,1.72,10.82,3.88,-1.54,-0.90
3,9,16,58,-471,3889,0.14,0.60,4.30,0.58,-4.71,38.89,-6.09,1.70,10.80,3.92,-1.47,-0.29
3,7,16,44,-472,3878,0.14,0.58,3.97,0.44,-4.72,38.78,-6.10,1.69,10.78,3.92,-1.42,-0.48
2,-2,19,-13,-427,3891,0.14,0.51,3.68,-0.13,-4.27,38.91,-6.10,1.68,10.77,3.95,-1.20,-0.84
2,-2,21,-25,-433,3908,0.14,0.45,3.44,-0.25,-4.33,39.08,-6.10,1.66,10.76,3.95,-1.18,-1.10
3,4,32,-20,-453,3909,0.14,0.43,3.30,-0.20,-4.53,39.09,-6.10,1.65,10.74,3.93,-1.28,-1.93
6,5,36,-11,-459,3892,0.16,0.42,3.19,-0.11,-4.59,38.92,-6.11,1.63,10.73,3.87,-1.29,-2.26
3,2,37,0,-458,3898,0.17,0.39,3.09,0.00,-4.58,38.98,-6.12,1.62,10.72,3.93,-1.21,-2.38
2,2,37,0,-474,3894,0.16,0.36,3.01,0.00,-4.74,38.94,-6.12,1.60,10.71,3.96,-1.20,-2.43
-3,0,35,-4,-467,3909,0.13,0.32,2.92,-0.04,-4.67,39.09,-6.13,1.59,10.70,4.07,-1.14,-2.34
-3,0,36,-16,-485,3888,0.10,0.29,2.85,-0.16,-4.85,38.88,-6.14,1.58,10.69,4.09,-1.12,-2.44
-4,0,31,9,-482,3898,0.06,0.26,2.75,0.09,-4.82,38.98,-6.15,1.56,10.68,4.12,-1.10,-2.16
-4,1,34,13,-481,3898,0.03,0.24,2.69,0.13,-4.81,38.98,-6.16,1.55,10.67,4.14,-1.11,-2.40
-5,1,35,-46,-455,3928,-0.00,0.22,2.63,-0.46,-4.55,39.28,-6.16,1.54,10.65,4.17,-1.09,-2.49
-5,-8,38,-24,-468,3910,-0.03,0.15,2.60,-0.24,-4.68,39.10,-6.17,1.52,10.64,4.18,-0.88,-2.71
-3,-1,40,6,-456,3870,-0.05,0.13,2.58,0.06,-4.56,38.70,-6.18,1.51,10.63,4.15,-1.01,-2.86
-1,-1,39,35,-470,3890,-0.05,0.11,2.56,0.35,-4.70,38.90,-6.18,1.49,10.62,4.12,-0.99,-2.80
1,-3,30,6,-473,3900,-0.04,0.08,2.49,0.06,-4.73,39.00,-6.19,1.47,10.62,4.08,-0.93,-2.23
2,-2,28,4,-479,3903,-0.02,0.06,2.41,0.04,-4.79,39.03,-6.20,1.46,10.61,4.06,-0.94,-2.14
2,6,22,10,-459,3892,-0.01,0.09,2.30,0.10,-4.59,38.92,-6.21,1.44,10.60,4.06,-1.10,-1.79
3,11,22,16,-457,3873,0.01,0.15,2.21,0.16,-4.57,38.73,-6.21,1.43,10.59,4.04,-1.21,-1.84
4,8,23,7,-456,3892,0.03,0.18,2.13,0.07,-4.56,38.92,-6.22,1.41,10.58,4.01,-1.14,-1.95
5,9,23,4,-456,3900,0.06,0.22,2.06,0.04,-4.56,39.00,-6.22,1.40,10.57,3.99,-1.16,-1.99
4,6,25,-37,-464,3907,0.08,0.24,2.00,-0.37,-4.64,39.07,-6.23,1.38,10.56,4.01,-1.10,-2.16
6,8,27,-17,-461,3903,0.11,0.26,1.97,-0.17,-4.61,39.03,-6.24,1.37,10.56,3.96,-1.14,-2.31
4,2,17,-32,-407,3911,0.12,0.25,1.87,-0.32,-4.07,39.11,-6.23,1.35,10.55,4.00,-1.00,-1.68
5,5,4,5,-415,3869,0.14,0.25,1.71,0.05,-4.15,38.69,-6.23,1.34,10.54,3.97,-1.05,-0.89
10,10,-12,62,-502,3938,0.19,0.29,1.47,0.62,-5.02,39.38,-6.24,1.32,10.54,3.86,-1.15,0.06
7,8,-11,53,-494,3886,0.21,0.31,1.25,0.53,-4.94,38.86,-6.24,1.31,10.53,3.92,-1.11,-0.13
2,10,-13,2,-435,3910,0.20,0.34,1.05,0.02,-4.35,39.10,-6.24,1.29,10.53,4.02,-1.15,-0.11
3,12,-19,5,-418,3913,0.20,0.38,0.83,0.05,-4.18,39.13,-6.24,1.27,10.53,4.00,-1.19,0.17
2,5,-30,1,-490,3868,0.19,0.37,0.56,0.01,-4.90,38.68,-6.25,1.26,10.52,4.03,-1.03,0.77
1,5,-17,-14,-497,3852,0.18,0.36,0.40,-0.14,-4.97,38.52,-6.26,1.25,10.52,4.06,-1.03,-0.20
0,-1,2,-34,-476,3891,0.16,0.32,0.37,-0.34,-4.76,38.91,-6.28,1.24,10.52,4.10,-0.88,-1.50
1,-1,6,-41,-480,3889,0.15,0.28,0.37,-0.41,-4.80,38.89,-6.29,1.23,10.52,4.09,-0.87,-1.78
1,5,24,-17,-459,3880,0.14,0.29,0.48,-0.17,-4.59,38.80,-6.30,1.21,10.52,4.10,-0.98,-2.93
0,2,16,-4,-446,3872,0.13,0.27,0.53,-0.04,-4.46,38.72,-6.30,1.19,10.52,4.12,-0.90,-2.36
-1,5,4,32,-476,3901,0.11,0.27,0.50,0.32,-4.76,39.01,-6.31,1.18,10.51,4.15,-0.95,-1.57
0,7,3,3,-495,3903,0.10,0.29,0.47,0.03,-4.95,39.03,-6.32,1.17,10.51,4.14,-0.99,-1.52
0,8,19,-4,-472,3893,0.09,0.31,0.54,-0.04,-4.72,38.93,-6.32,1.15,10.51,4.15,-1.01,-2.56
-1,9,20,3,-471,3874,0.07,0.33,0.61,0.03,-4.71,38.74,-6.33,1.14,10.51,4.18,-1.02,-2.59
0,3,18,18,-438,3862,0.07,0.32,0.66,0.18,-4.38,38.62,-6.33,1.12,10.51,4.16,-0.89,-2.43
2,3,14,6,-446,3907,0.07,0.30,0.68,0.06,-4.46,39.07,-6.34,1.10,10.50,4.12,-0.87,-2.15
0,-8,20,-5,-469,3886,0.06,0.22,0.73,-0.05,-4.69,38.86,-6.34,1.09,10.50,4.17,-0.62,-2.52
1,-3,22,-7,-454,3888,0.06,0.18,0.79,-0.07,-4.54,38.88,-6.35,1.07,10.50,4.15,-0.70,-2.62
-5,-2,26,-30,-428,3908,0.03,0.15,0.87,-0.30,-4.28,39.08,-6.35,1.05,10.50,4.28,-0.70,-2.85
2,-7,21,-4,-452,3886,0.04,0.10,0.91,-0.04,-4.52,38.86,-6.35,1.04,10.49,4.14,-0.57,-2.49
-2,1,13,7,-435,3883,0.02,0.09,0.90,0.07,-4.35,38.83,-6.35,1.02,10.49,4.23,-0.72,-1.95
-3,5,7,-2,-416,3917,0.00,0.11,0.85,-0.02,-4.16,39.17,-6.35,1.00,10.49,4.25,-0.79,-1.57
-3,13,-38,53,-423,3903,-0.02,0.18,0.54,0.53,-4.23,39.03,-6.35,0.99,10.48,4.25,-0.96,1.30
-6,9,-45,21,-420,3940,-0.05,0.22,0.21,0.21,-4.20,39.40,-6.34,0.97,10.48,4.32,-0.88,1.59
-4,0,-40,-4,-490,3861,-0.07,0.20,-0.06,-0.04,-4.90,38.61,-6.36,0.96,10.48,4.30,-0.69,1.11
-5,-3,-36,16,-511,3873,-0.10,0.16,-0.27,0.16,-5.11,38.73,-6.37,0.94,10.48,4.33,-0.61,0.72
-1,-4,-12,-27,-498,3894,-0.09,0.12,-0.32,-0.27,-4.98,38.94,-6.38,0.94,10.49,4.26,-0.57,-0.94
-2,-5,-10,-14,-471,3913,-0.09,0.08,-0.35,-0.14,-4.71,39.13,-6.39,0.92,10.49,4.29,-0.53,-1.09
3,-1,-38,26,-462,3880,-0.07,0.06,-0.54,0.26,-4.62,38.80,-6.40,0.90,10.49,4.18,-0.59,0.70
1,-5,-41,6,-513,3895,-0.05,0.03,-0.74,0.06,-5.13,38.95,-6.41,0.89,10.49,4.23,-0.49,0.79
-3,-7,-29,9,-483,3892,-0.07,-0.02,-0.84,0.09,-4.83,38.92,-6.42,0.87,10.50,4.32,-0.43,-0.08
-1,-8,-31,9,-462,3888,-0.07,-0.07,-0.95,0.09,-4.62,38.88,-6.43,0.86,10.50,4.28,-0.38,-0.01
-7,-7,-45,58,-449,3928,-0.10,-0.10,-1.13,0.58,-4.49,39.28,-6.43,0.84,10.50,4.42,-0.38,0.84
-11,-13,-49,57,-454,3932,-0.16,-0.17,-1.31,0.57,-4.54,39.32,-6.43,0.82,10.51,4.51,-0.23,1.01
0,-6,-45,-41,-491,3885,-0.14,-0.19,-1.46,-0.41,-4.91,38.85,-6.45,0.81,10.52,4.30,-0.36,0.66
-1,-4,-30,-45,-488,3933,-0.14,-0.20,-1.49,-0.45,-4.88,39.33,-6.47,0.81,10.52,4.33,-0.40,-0.38
-3,1,4,-41,-447,3904,-0.14,-0.17,-1.32,-0.41,-4.47,39.04,-6.48,0.79,10.53,4.37,-0.49,-2.59
2,1,4,-65,-443,3891,-0.11,-0.15,-1.16,-0.65,-4.43,38.91,-6.48,0.80,10.53,4.27,-0.51,-2.50
0,-4,33,0,-465,3858,-0.10,-0.16,-0.85,0.00,-4.65,38.58,-6.49,0.79,10.53,4.31,-0.39,-4.29
-2,-8,37,7,-482,3880,-0.10,-0.19,-0.54,0.07,-4.82,38.80,-6.50,0.77,10.54,4.36,-0.29,-4.39
-5,-9,26,33,-450,3911,-0.12,-0.23,-0.32,0.33,-4.50,39.11,-6.50,0.75,10.54,4.43,-0.25,-3.52
-10,-10,17,50,-440,3927,-0.17,-0.26,-0.19,0.50,-4.40,39.27,-6.50,0.73,10.54,4.54,-0.21,-2.84
-8,-6,-43,9,-432,3938,-0.20,-0.27,-0.43,0.09,-4.32,39.38,-6.50,0.71,10.54,4.51,-0.27,1.09
-5,-8,-52,16,-428,3850,-0.21,-0.30,-0.71,0.16,-4.28,38.50,-6.49,0.69,10.54,4.45,-0.21,1.55
-1,13,-45,-5,-459,3918,-0.20,-0.19,-0.91,-0.05,-4.59,39.18,-6.50,0.67,10.55,4.36,-0.66,0.96
-8,4,-44,17,-453,3956,-0.23,-0.14,-1.09,0.17,-4.53,39.56,-6.50,0.65,10.55,4.52,-0.47,0.79
15,3,-89,-77,-545,3985,-0.11,-0.11,-1.52,-0.77,-5.45,39.85,-6.52,0.66,10.56,4.03,-0.47,3.60
4,-2,-60,-96,-581,3813,-0.08,-0.11,-1.73,-0.96,-5.81,38.13,-6.54,0.66,10.56,4.25,-0.37,1.51
5,12,5,19,-446,3919,-0.04,-0.03,-1.53,0.19,-4.46,39.19,-6.54,0.64,10.57,4.22,-0.66,-2.78
3,13,-4,32,-422,3877,-0.02,0.05,-1.40,0.32,-4.22,38.77,-6.53,0.63,10.58,4.25,-0.69,-2.10
18,31,-41,29,-440,3947,0.09,0.24,-1.51,0.29,-4.40,39.47,-6.53,0.61,10.58,3.92,-1.10,0.34
0,13,-44,40,-437,3983,0.08,0.29,-1.63,0.40,-4.37,39.83,-6.52,0.59,10.59,4.28,-0.73,0.48
2,5,-81,63,-485,3846,0.09,0.29,-1.96,0.63,-4.85,38.46,-6.53,0.58,10.60,4.25,-0.56,2.80
5,3,-91,48,-490,3843,0.11,0.28,-2.32,0.48,-4.90,38.43,-6.54,0.56,10.61,4.18,-0.51,3.28
2,1,-96,70,-391,3863,0.11,0.26,-2.67,0.70,-3.91,38.63,-6.53,0.54,10.62,4.24,-0.45,3.41
4,13,-114,79,-374,3898,0.12,0.31,-3.10,0.79,-3.74,38.98,-6.52,0.53,10.63,4.19,-0.70,4.39
-11,-13,-118,-6,-493,3935,0.05,0.20,-3.51,-0.06,-4.93,39.35,-6.54,0.52,10.64,4.52,-0.13,4.43
4,8,-112,-86,-465,3758,0.06,0.23,-3.84,-0.86,-4.65,37.58,-6.55,0.53,10.66,4.22,-0.58,3.84
11,9,-121,104,-454,3894,0.13,0.26,-4.20,1.04,-4.54,38.94,-6.55,0.51,10.68,4.06,-0.59,4.24
10,20,-142,-9,-388,3866,0.17,0.36,-4.64,-0.09,-3.88,38.66,-6.53,0.50,10.69,4.06,-0.84,5.41
11,8,-140,-13,-430,3859,0.22,0.37,-5.03,-0.13,-4.30,38.59,-6.52,0.49,10.71,4.02,-0.58,5.06
13,11,-139,-54,-468,3796,0.28,0.40,-5.38,-0.54,-4.68,37.96,-6.53,0.49,10.74,3.97,-0.66,4.79
-2,0,-112,116,-446,3868,0.24,0.36,-5.52,1.16,-4.46,38.68,-6.53,0.48,10.76,4.29,-0.41,2.88
21,6,-127,-31,-499,3750,0.34,0.36,-5.75,-0.31,-4.99,37.50,-6.55,0.47,10.78,3.80,-0.53,3.77
-4,4,-64,-8,-465,3867,0.29,0.35,-5.56,-0.08,-4.65,38.67,-6.56,0.46,10.80,4.33,-0.48,-0.40
-4,7,-63,45,-399,3970,0.23,0.36,-5.39,0.45,-3.99,39.70,-6.55,0.44,10.82,4.34,-0.53,-0.38
1,-1,-171,112,-305,3959,0.22,0.32,-5.89,1.12,-3.05,39.59,-6.54,0.43,10.85,4.23,-0.35,6.66
0,-5,-220,118,-289,3865,0.19,0.25,-6.65,1.18,-2.89,38.65,-6.52,0.41,10.87,4.25,-0.24,9.55
11,-15,-276,-124,-326,3742,0.24,0.14,-7.67,-1.24,-3.26,37.42,-6.51,0.42,10.90,4.01,-0.01,12.77
4,-15,-273,-374,-363,3918,0.24,0.03,-8.56,-3.74,-3.63,39.18,-6.50,0.44,10.94,4.14,0.01,12.06
-7,-33,-280,-112,-349,3882,0.17,-0.17,-9.42,-1.12,-3.49,38.82,-6.49,0.45,10.98,4.38,0.42,12.05
3,-34,-285,21,-388,3959,0.18,-0.36,-10.21,0.21,-3.88,39.59,-6.47,0.43,11.02,4.16,0.51,11.93
5,-3,-327,254,-460,4015,0.19,-0.34,-11.19,2.54,-4.60,40.15,-6.47,0.40,11.06,4.12,-0.11,14.23
36,-10,-340,183,-535,4018,0.39,-0.37,-12.14,1.83,-5.35,40.18,-6.48,0.38,11.11,3.44,0.05,14.57
13,-1,-382,287,-506,3878,0.43,-0.34,-13.26,2.87,-5.06,38.78,-6.48,0.35,11.16,3.90,-0.12,16.78
21,12,-397,235,-447,3806,0.51,-0.23,-14.35,2.35,-4.47,38.06,-6.48,0.33,11.22,3.71,-0.40,17.17
12,4,-422,70,-399,3876,0.54,-0.19,-15.49,0.70,-3.99,38.76,-6.47,0.30,11.28,3.88,-0.23,18.22
16,0,-421,58,-397,3915,0.58,-0.17,-16.51,0.58,-3.97,39.15,-6.46,0.28,11.35,3.78,-0.14,17.57
5,-16,-477,115,-496,3953,0.55,-0.25,-17.77,1.15,-4.96,39.53,-6.47,0.25,11.42,4.01,0.23,20.00
16,-13,-475,-37,-547,3808,0.60,-0.30,-18.89,-0.37,-5.47,38.08,-6.48,0.25,11.49,3.79,0.18,19.87
2,-7,-445,-49,-502,3819,0.55,-0.31,-19.72,-0.49,-5.02,38.19,-6.50,0.24,11.57,4.10,0.07,17.36
6,-7,-438,-61,-534,4005,0.53,-0.33,-20.42,-0.61,-5.34,40.05,-6.51,0.24,11.65,4.03,0.07,16.48
9,3,-448,-77,-436,3832,0.53,-0.28,-21.11,-0.77,-4.36,38.32,-6.51,0.25,11.73,3.97,-0.15,16.76
13,4,-456,-49,-478,4030,0.56,-0.22,-21.78,-0.49,-4.78,40.30,-6.52,0.26,11.82,3.88,-0.19,16.91
0,0,-435,-55,-500,3995,0.50,-0.20,-22.25,-0.55,-5.00,39.95,-6.53,0.26,11.91,4.17,-0.11,15.21
20,-7,-440,-81,-426,3780,0.57,-0.22,-22.71,-0.81,-4.26,37.80,-6.52,0.26,12.00,3.74,0.03,15.28
15,4,-468,57,-464,3805,0.61,-0.18,-23.30,0.57,-4.64,38.05,-6.53,0.23,12.09,3.84,-0.19,16.83
8,-2,-469,46,-536,3960,0.60,-0.17,-23.83,0.46,-5.36,39.60,-6.54,0.21,12.19,3.99,-0.05,16.59
13,3,-512,-13,-423,4035,0.62,-0.14,-24.57,-0.13,-4.23,40.35,-6.52,0.20,12.28,3.87,-0.16,19.07
2,-8,-521,35,-385,3834,0.57,-0.17,-25.29,0.35,-3.85,38.34,-6.51,0.18,12.38,4.10,0.09,19.26
13,-9,-529,108,-544,3877,0.59,-0.21,-25.99,1.08,-5.44,38.77,-6.51,0.15,12.49,3.87,0.14,19.40
11,0,-555,15,-562,3835,0.60,-0.19,-26.77,0.15,-5.62,38.35,-6.53,0.13,12.59,3.92,-0.04,20.00
24,-17,-668,-27,-403,3814,0.68,-0.27,-28.17,-0.27,-4.03,38.14,-6.51,0.13,12.71,3.62,0.34,20.00
6,-20,-680,-107,-437,3970,0.65,-0.37,-29.50,-1.07,-4.37,39.70,-6.51,0.13,12.82,3.99,0.42,20.00
15,-24,-660,-244,-394,3906,0.68,-0.48,-30.58,-2.44,-3.94,39.06,-6.50,0.13,12.94,3.80,0.53,20.00
21,-5,-636,-336,-407,3735,0.74,-0.46,-31.40,-3.36,-4.07,37.35,-6.50,0.13,13.07,3.66,0.14,20.00
26,-11,-519,-261,-358,3862,0.82,-0.48,-31.43,-2.61,-3.58,38.62,-6.49,0.14,13.19,3.53,0.27,15.56
-3,-22,-502,-224,-426,3960,0.72,-0.57,-31.35,-2.24,-4.26,39.60,-6.48,0.14,13.32,4.14,0.51,14.44
4,-7,-528,-154,-443,3875,0.67,-0.55,-31.43,-1.54,-4.43,38.75,-6.48,0.14,13.44,4.01,0.20,16.13
17,-5,-553,-64,-430,4015,0.71,-0.53,-31.66,-0.64,-4.30,40.15,-6.47,0.14,13.57,3.73,0.15,17.68
26,9,-681,263,-492,3951,0.80,-0.42,-32.65,2.63,-4.92,39.51,-6.47,0.11,13.70,3.52,-0.14,20.00
28,-2,-736,231,-475,3987,0.89,-0.39,-33.87,2.31,-4.75,39.87,-6.47,0.07,13.83,3.46,0.10,20.00
36,-2,-908,302,-529,3904,1.02,-0.36,-36.03,3.02,-5.29,39.04,-6.47,0.03,13.97,3.26,0.12,20.00
16,-17,-944,201,-498,3905,1.02,-0.43,-38.18,2.01,-4.98,39.05,-6.47,-0.00,14.13,3.67,0.46,20.00
10,-45,-980,-116,-393,3891,0.98,-0.66,-40.34,-1.16,-3.93,38.91,-6.46,-0.01,14.29,3.79,1.10,20.00
23,-52,-962,-196,-463,3790,1.02,-0.91,-42.18,-1.96,-4.63,37.90,-6.46,-0.01,14.45,3.52,1.31,20.00
25,-54,-859,-133,-579,3804,1.07,-1.15,-43.20,-1.33,-5.79,38.04,-6.47,-0.02,14.62,3.47,1.43,20.00
18,-22,-833,-67,-446,4015,1.07,-1.17,-43.96,-0.67,-4.46,40.15,-6.46,-0.03,14.80,3.61,0.79,20.00
3,-49,-666,-65,-571,3897,0.98,-1.35,-43.63,-0.65,-5.71,38.97,-6.47,-0.04,14.97,3.94,1.39,18.42
31,-19,-626,-19,-524,3995,1.07,-1.33,-43.08,-0.19,-5.24,39.95,-6.49,-0.06,15.14,3.36,0.79,15.98
9,46,-610,-45,-563,3599,1.02,-0.92,-42.49,-0.45,-5.63,35.99,-6.50,-0.08,15.31,3.83,-0.63,15.20
6,35,-578,-38,-636,4121,0.96,-0.61,-41.77,-0.38,-6.36,41.21,-6.51,-0.10,15.48,3.92,-0.48,13.42
-7,-40,-455,199,-690,3933,0.82,-0.80,-40.37,1.99,-6.90,39.33,-6.52,-0.13,15.64,4.23,1.12,5.84
11,-7,-409,145,-641,3820,0.80,-0.76,-38.83,1.45,-6.41,38.20,-6.54,-0.16,15.79,3.87,0.46,3.57
-3,5,-293,-1,-496,3967,0.70,-0.65,-36.73,-0.01,-4.96,39.67,-6.55,-0.18,15.94,4.19,0.19,-3.14
-1,-12,-286,36,-467,3943,0.63,-0.66,-34.80,0.36,-4.67,39.43,-6.56,-0.21,16.07,4.18,0.56,-2.56
13,-22,-332,-13,-435,3782,0.64,-0.73,-33.35,-0.13,-4.35,37.82,-6.55,-0.21,16.21,3.89,0.78,1.36
13,-1,-350,-67,-439,3696,0.66,-0.66,-32.15,-0.67,-4.39,36.96,-6.55,-0.21,16.33,3.88,0.34,3.23
-3,-11,-351,104,-484,3795,0.57,-0.66,-31.07,1.04,-4.84,37.95,-6.56,-0.24,16.46,4.23,0.56,3.89
7,-10,-385,68,-352,3929,0.56,-0.66,-30.32,0.68,-3.52,39.29,-6.54,-0.27,16.58,4.02,0.56,6.60
24,-24,-468,42,-320,3848,0.65,-0.74,-30.14,0.42,-3.20,38.48,-6.52,-0.29,16.70,3.64,0.88,12.30
21,-22,-501,-48,-436,3938,0.71,-0.80,-30.18,-0.48,-4.36,39.38,-6.51,-0.29,16.82,3.68,0.85,14.50
-2,9,-637,301,-250,3801,0.63,-0.66,-31.05,3.01,-2.50,38.01,-6.50,-0.32,16.94,4.16,0.21,20.00
13,26,-664,248,-279,4001,0.65,-0.44,-31.99,2.48,-2.79,40.01,-6.48,-0.35,17.07,3.84,-0.18,20.00
-9,-15,-771,120,-193,4064,0.53,-0.49,-33.50,1.20,-1.93,40.64,-6.46,-0.37,17.20,4.31,0.68,20.00
-6,-6,-787,300,-253,3717,0.44,-0.47,-34.95,3.00,-2.53,37.17,-6.45,-0.41,17.34,4.26,0.52,20.00
36,-26,-968,82,-228,3897,0.61,-0.59,-37.36,0.82,-2.28,38.97,-6.43,-0.43,17.49,3.35,0.97,20.00
15,-33,-1002,102,-338,3988,0.64,-0.73,-39.74,1.02,-3.38,39.88,-6.41,-0.46,17.64,3.75,1.17,20.00
45,-41,-1110,-69,-292,3829,0.85,-0.91,-42.53,-0.69,-2.92,38.29,-6.39,-0.47,17.81,3.07,1.39,20.00
57,-41,-1156,-166,-372,3745,1.12,-1.07,-45.33,-1.66,-3.72,37.45,-6.38,-0.48,17.99,2.75,1.44,20.00
-18,49,-1133,-10,-459,3917,0.89,-0.66,-47.71,-0.10,-4.59,39.17,-6.38,-0.49,18.18,4.34,-0.50,20.00
-6,24,-1075,58,-367,4315,0.77,-0.45,-49.50,0.58,-3.67,43.15,-6.36,-0.51,18.38,4.11,-0.03,20.00
53,-64,-979,-218,-409,3665,1.01,-0.79,-50.52,-2.18,-4.09,36.65,-6.36,-0.52,18.58,2.84,1.86,20.00
29,-53,-963,-115,-467,3798,1.09,-1.04,-51.34,-1.15,-4.67,37.98,-6.35,-0.53,18.78,3.31,1.71,20.00
9,15,-841,-138,-315,3868,1.04,-0.84,-51.34,-1.38,-3.15,38.68,-6.34,-0.54,18.99,3.72,0.28,20.00
6,21,-808,-187,-404,4081,0.97,-0.63,-51.13,-1.87,-4.04,40.81,-6.33,-0.55,19.19,3.79,0.11,20.00
44,-75,-712,-83,-518,3920,1.14,-1.02,-50.36,-0.83,-5.18,39.20,-6.33,-0.56,19.39,2.97,2.17,17.09
58,-80,-686,-111,-468,3868,1.38,-1.41,-49.51,-1.11,-4.68,38.68,-6.33,-0.57,19.59,2.62,2.39,15.78
1,38,-609,-164,-481,3702,1.25,-1.04,-48.27,-1.64,-4.81,37.02,-6.33,-0.58,19.78,3.82,-0.11,11.22
-1,72,-609,-139,-568,4018,1.12,-0.49,-47.16,-1.39,-5.68,40.18,-6.33,-0.58,19.96,3.90,-0.94,11.82
35,-49,-588,-98,-453,3939,1.22,-0.74,-46.03,-0.98,-4.53,39.39,-6.33,-0.59,20.15,3.13,1.59,11.00
32,-78,-585,-126,-572,4033,1.29,-1.14,-45.00,-1.26,-5.72,40.33,-6.33,-0.60,20.33,3.18,2.29,11.35
59,11,-612,-283,-471,3537,1.52,-0.96,-44.23,-2.83,-4.71,35.37,-6.33,-0.60,20.50,2.56,0.44,13.59
18,11,-628,-250,-578,3939,1.48,-0.80,-43.64,-2.50,-5.78,39.39,-6.33,-0.61,20.67,3.41,0.40,14.98
13,-9,-455,-19,-665,4116,1.41,-0.77,-42.05,-0.19,-6.65,41.16,-6.34,-0.63,20.84,3.53,0.81,4.12
10,-57,-396,-142,-572,4245,1.33,-1.05,-40.26,-1.42,-5.72,42.45,-6.34,-0.63,21.00,3.62,1.86,1.10
15,-18,-312,-6,-545,3647,1.29,-1.05,-38.14,-0.06,-5.45,36.47,-6.35,-0.65,21.15,3.53,1.08,-3.43
1,23,-308,-86,-451,3718,1.17,-0.81,-36.20,-0.86,-4.51,37.18,-6.35,-0.65,21.29,3.85,0.18,-2.63
0,45,-343,-245,-366,4082,1.05,-0.45,-34.67,-2.45,-3.66,40.82,-6.34,-0.65,21.43,3.90,-0.36,0.58
11,-9,-378,-62,-402,4191,1.01,-0.46,-33.51,-0.62,-4.02,41.91,-6.32,-0.65,21.57,3.67,0.74,3.58
34,-4,-392,-86,-444,3693,1.12,-0.44,-32.55,-0.86,-4.44,36.93,-6.32,-0.65,21.69,3.18,0.63,5.05
24,5,-392,-68,-539,3930,1.15,-0.36,-31.69,-0.68,-5.39,39.30,-6.33,-0.65,21.82,3.37,0.43,5.51
-6,39,-399,-28,-463,3918,1.00,-0.09,-30.95,-0.28,-4.63,39.18,-6.33,-0.65,21.94,4.03,-0.34,6.38
-7,20,-408,-48,-534,3945,0.86,0.04,-30.35,-0.48,-5.34,39.45,-6.34,-0.65,22.06,4.09,0.01,7.32
13,-58,-505,-169,-341,3879,0.85,-0.32,-30.39,-1.69,-3.41,38.79,-6.33,-0.64,22.18,3.68,1.69,13.85
26,-53,-534,-194,-347,3889,0.93,-0.61,-30.61,-1.94,-3.47,38.89,-6.32,-0.64,22.31,3.39,1.67,15.67
29,-54,-565,-56,-475,3960,1.01,-0.88,-31.00,-0.56,-4.75,39.60,-6.32,-0.64,22.43,3.30,1.76,17.54
13,-72,-570,-44,-504,3977,0.99,-1.23,-31.37,-0.44,-5.04,39.77,-6.32,-0.65,22.55,3.64,2.23,17.65
7,-26,-611,-147,-395,3800,0.93,-1.26,-31.96,-1.47,-3.95,38.00,-6.31,-0.65,22.68,3.77,1.30,20.00
7,39,-626,20,-434,3867,0.88,-0.90,-32.59,0.20,-4.34,38.67,-6.31,-0.65,22.81,3.78,-0.12,20.00
12,5,-659,-90,-418,3994,0.87,-0.78,-33.35,-0.90,-4.18,39.94,-6.31,-0.65,22.94,3.68,0.54,20.00
20,-18,-651,-123,-386,3984,0.90,-0.81,-33.98,-1.23,-3.86,39.84,-6.29,-0.65,23.08,3.50,1.01,20.00
27,-15,-704,-154,-256,3834,0.98,-0.82,-34.88,-1.54,-2.56,38.34,-6.28,-0.65,23.21,3.33,0.96,20.00
33,0,-730,-234,-197,3802,1.08,-0.74,-35.84,-2.34,-1.97,38.02,-6.26,-0.66,23.36,3.17,0.64,20.00
20,26,-860,-316,-213,3848,1.09,-0.51,-37.51,-3.16,-2.13,38.48,-6.24,-0.66,23.51,3.42,0.04,20.00
3,35,-921,-271,-282,3905,1.00,-0.24,-39.37,-2.71,-2.82,39.05,-6.23,-0.66,23.66,3.78,-0.21,20.00
19,-60,-1281,-1168,-398,3933,1.02,-0.58,-43.25,-11.68,-3.98,39.33,-6.23,-0.66,23.83,3.44,1.82,20.00
27,-76,-1359,-488,-130,3942,1.08,-0.99,-47.22,-4.88,-1.30,39.42,-6.21,-0.67,24.02,3.25,2.26,20.00
19,64,-1390,1095,-87,3837,1.09,-0.50,-50.97,10.95,-0.87,38.37,-6.20,-0.71,24.22,3.41,-0.69,20.00
65,73,-1371,357,-370,4249,1.38,-0.00,-54.24,3.57,-3.70,42.49,-6.18,-0.75,24.44,2.38,-0.98,20.00
28,-8,-1293,-83,-394,3678,1.41,-0.05,-56.70,-0.83,-3.94,36.78,-6.17,-0.76,24.66,3.12,0.68,20.00
40,28,-1272,23,-401,3832,1.51,0.12,-58.79,0.23,-4.01,38.32,-6.16,-0.77,24.90,2.84,-0.10,20.00
47,3,-1247,-90,-445,3804,1.65,0.13,-60.52,-0.90,-4.45,38.04,-6.15,-0.78,25.14,2.66,0.42,20.00
39,-16,-1235,-82,-405,4126,1.72,0.02,-62.00,-0.82,-4.05,41.26,-6.14,-0.79,25.39,2.79,0.84,20.00
37,-4,-1211,9,-399,3944,1.77,-0.01,-63.19,0.09,-3.99,39.44,-6.12,-0.80,25.64,2.80,0.61,20.00
39,-23,-1234,42,-497,3908,1.84,-0.15,-64.40,0.42,-4.97,39.08,-6.12,-0.82,25.89,2.75,1.05,20.00
38,-13,-1304,9,-434,3783,1.88,-0.21,-65.91,0.09,-4.34,37.83,-6.12,-0.84,26.16,2.75,0.87,20.00
54,-21,-1308,-77,-392,4091,2.02,-0.32,-67.30,-0.77,-3.92,40.91,-6.10,-0.85,26.42,2.38,1.07,20.00
22,-14,-1322,-18,-498,3895,1.96,-0.37,-68.63,-0.18,-4.98,38.95,-6.11,-0.87,26.70,3.05,0.96,20.00
7,-20,-1355,-53,-416,3944,1.80,-0.46,-70.04,-0.53,-4.16,39.44,-6.09,-0.88,26.97,3.39,1.11,20.00
22,-14,-1404,-105,-437,3961,1.76,-0.50,-71.60,-1.05,-4.37,39.61,-6.08,-0.89,27.26,3.09,1.01,20.00
27,-10,-1422,-54,-345,3928,1.75,-0.51,-73.11,-0.54,-3.45,39.28,-6.06,-0.91,27.55,2.98,0.94,20.00
44,0,-1421,-3,-352,3869,1.84,-0.46,-74.47,-0.03,-3.52,38.69,-6.04,-0.93,27.85,2.59,0.74,20.00
8,-14,-1421,-46,-393,4037,1.70,-0.50,-75.69,-0.46,-3.93,40.37,-6.02,-0.95,28.15,3.35,1.04,20.00
26,-4,-1402,-4,-455,4001,1.69,-0.47,-76.67,-0.04,-4.55,40.01,-6.02,-0.96,28.45,2.98,0.85,20.00
3,-19,-1406,-36,-414,3893,1.54,-0.54,-77.58,-0.36,-4.14,38.93,-6.01,-0.98,28.76,3.48,1.18,20.00
7,-16,-1458,-69,-555,3973,1.43,-0.58,-78.72,-0.69,-5.55,39.73,-6.01,-1.00,29.07,3.43,1.15,20.00
66,-38,-1491,-114,-407,3898,1.69,-0.76,-79.94,-1.14,-4.07,38.98,-6.00,-1.02,29.39,2.15,1.65,20.00
25,-87,-1687,-1180,-706,3985,1.67,-1.21,-82.24,-11.80,-7.06,39.85,-5.99,-1.04,29.72,2.99,2.79,20.00
34,-85,-1689,564,-428,3809,1.71,-1.61,-84.32,5.64,-4.28,38.09,-5.97,-1.10,30.05,2.78,2.89,20.00
45,-26,-1693,250,-520,3771,1.82,-1.61,-86.21,2.50,-5.20,37.71,-5.97,-1.16,30.39,2.53,1.73,20.00
48,-29,-1647,-1,-449,3952,1.93,-1.62,-87.64,-0.01,-4.49,39.52,-5.96,-1.19,30.74,2.43,1.81,20.00
41,-48,-1439,78,-685,3917,1.99,-1.75,-87.65,0.78,-6.85,39.17,-5.97,-1.23,31.09,2.56,2.26,20.00
14,-24,-1372,83,-707,3675,1.87,-1.72,-87.26,0.83,-7.07,36.75,-5.97,-1.27,31.44,3.14,1.80,20.00
-3,-30,-1074,227,-721,3733,1.67,-1.74,-85.08,2.27,-7.21,37.33,-5.97,-1.32,31.77,3.55,1.96,20.00
-6,9,-998,132,-837,3776,1.46,-1.51,-82.66,1.32,-8.37,37.76,-5.98,-1.36,32.10,3.67,1.13,16.44
32,1,-723,33,-720,3808,1.51,-1.35,-78.81,0.33,-7.20,38.08,-5.98,-1.40,32.41,2.88,1.27,-0.08
43,5,-662,-11,-810,3986,1.62,-1.18,-74.96,-0.11,-8.10,39.86,-5.98,-1.43,32.71,2.63,1.16,-2.10
13,-2,-401,26,-813,3922,1.54,-1.08,-69.91,0.26,-8.13,39.22,-5.99,-1.46,32.99,3.27,1.30,-17.00
10,9,-295,68,-773,3897,1.45,-0.92,-64.72,0.68,-7.73,38.97,-6.00,-1.49,33.25,3.36,1.05,-20.00
0,-1,-121,11,-633,3868,1.30,-0.83,-58.99,0.11,-6.33,38.68,-6.00,-1.51,33.48,3.61,1.24,-20.00
-5,-6,-92,-12,-545,3862,1.14,-0.78,-53.65,-0.12,-5.45,38.62,-6.00,-1.52,33.69,3.75,1.34,-20.00
1,-13,-61,-25,-397,3926,1.03,-0.78,-48.66,-0.25,-3.97,39.26,-5.99,-1.53,33.89,3.65,1.49,-20.00
-1,-5,-61,-29,-381,3913,0.92,-0.74,-44.16,-0.29,-3.81,39.13,-5.98,-1.53,34.06,3.72,1.31,-20.00
12,12,-86,5,-341,3930,0.90,-0.59,-40.27,0.05,-3.41,39.30,-5.96,-1.54,34.22,3.44,0.93,-20.00
5,8,-99,-6,-376,3980,0.84,-0.48,-36.85,-0.06,-3.76,39.80,-5.95,-1.54,34.37,3.59,0.98,-19.12
14,6,-139,-48,-404,3874,0.85,-0.40,-34.01,-0.48,-4.04,38.74,-5.94,-1.53,34.50,3.41,1.00,-14.84
16,18,-138,-62,-468,3825,0.86,-0.25,-31.45,-0.62,-4.68,38.25,-5.94,-1.53,34.63,3.36,0.71,-13.49
3,-2,-96,-46,-466,3872,0.79,-0.24,-28.89,-0.46,-4.66,38.72,-5.94,-1.53,34.74,3.65,1.11,-14.92
3,-1,-77,-29,-425,3899,0.73,-0.22,-26.47,-0.29,-4.25,38.99,-5.94,-1.52,34.85,3.66,1.08,-14.86
3,2,-76,40,-321,3909,0.68,-0.18,-24.29,0.40,-3.21,39.09,-5.92,-1.52,34.94,3.66,1.01,-13.72
7,6,-91,54,-295,3927,0.65,-0.13,-22.42,0.54,-2.95,39.27,-5.90,-1.52,35.03,3.57,0.92,-11.66
7,7,-180,-3,-297,3930,0.63,-0.07,-21.27,-0.03,-2.97,39.30,-5.88,-1.52,35.12,3.57,0.88,-5.00
12,1,-208,-5,-258,3919,0.64,-0.06,-20.41,-0.05,-2.58,39.19,-5.86,-1.52,35.20,3.45,1.00,-2.64
8,-12,-292,-149,-272,3924,0.62,-0.13,-20.15,-1.49,-2.72,39.24,-5.85,-1.51,35.28,3.53,1.27,3.19
7,-12,-316,-118,-289,3839,0.60,-0.19,-20.07,-1.18,-2.89,38.39,-5.84,-1.50,35.36,3.55,1.29,4.85
14,-3,-421,-64,-349,3726,0.63,-0.19,-20.63,-0.64,-3.49,37.26,-5.83,-1.49,35.44,3.39,1.10,11.64
10,9,-441,-189,-333,3893,0.63,-0.11,-21.25,-1.89,-3.33,38.93,-5.82,-1.48,35.53,3.47,0.83,12.63
-2,-36,-473,-122,-330,3941,0.55,-0.32,-22.01,-1.22,-3.30,39.41,-5.81,-1.48,35.62,3.72,1.79,14.36
12,-19,-516,-154,-263,3855,0.57,-0.41,-22.96,-1.54,-2.63,38.55,-5.80,-1.47,35.71,3.43,1.47,16.73
32,5,-564,-96,-298,3873,0.71,-0.33,-24.10,-0.96,-2.98,38.73,-5.78,-1.47,35.80,2.97,0.96,19.33
21,16,-571,-133,-329,3879,0.77,-0.20,-25.18,-1.33,-3.29,38.79,-5.77,-1.46,35.90,3.17,0.69,19.19
23,4,-675,32,-149,3881,0.83,-0.16,-26.78,0.32,-1.49,38.81,-5.75,-1.47,36.01,3.10,0.93,20.00
17,-8,-710,-54,-155,3827,0.85,-0.19,-28.43,-0.54,-1.55,38.27,-5.73,-1.47,36.12,3.20,1.18,20.00
2,1,-804,-126,-489,4032,0.78,-0.17,-30.49,-1.26,-4.89,40.32,-5.73,-1.46,36.24,3.53,0.99,20.00
3,-34,-814,54,-463,4094,0.72,-0.36,-32.41,0.54,-4.63,40.94,-5.74,-1.46,36.37,3.53,1.76,20.00
42,-4,-852,-116,-455,3834,0.90,-0.35,-34.36,-1.16,-4.55,38.34,-5.73,-1.46,36.51,2.68,1.14,20.00
22,2,-848,-108,-354,3834,0.95,-0.30,-36.10,-1.08,-3.54,38.34,-5.72,-1.46,36.65,3.07,1.00,20.00
30,-7,-818,-96,-364,3950,1.03,-0.31,-37.48,-0.96,-3.64,39.50,-5.71,-1.46,36.80,2.88,1.19,20.00
21,-18,-820,3,-513,3895,1.06,-0.39,-38.73,0.03,-5.13,38.95,-5.72,-1.46,36.96,3.06,1.44,20.00
28,-15,-826,-116,-500,3715,1.12,-0.44,-39.90,-1.16,-5.00,37.15,-5.72,-1.47,37.12,2.90,1.39,20.00
23,-1,-831,-42,-506,4004,1.15,-0.40,-40.98,-0.42,-5.06,40.04,-5.72,-1.47,37.28,2.99,1.10,20.00
10,-28,-762,99,-571,3977,1.10,-0.54,-41.53,0.99,-5.71,39.77,-5.73,-1.49,37.44,3.28,1.70,20.00
16,-5,-735,106,-603,3775,1.09,-0.51,-41.86,1.06,-6.03,37.75,-5.74,-1.51,37.61,3.17,1.24,20.00
29,-8,-630,-117,-621,3860,1.15,-0.51,-41.52,-1.17,-6.21,38.60,-5.75,-1.51,37.77,2.89,1.30,13.74
18,-4,-606,-61,-617,3867,1.15,-0.48,-41.06,-0.61,-6.17,38.67,-5.75,-1.52,37.94,3.12,1.22,12.34
3,-6,-559,9,-703,3800,1.05,-0.47,-40.37,0.09,-7.03,38.00,-5.76,-1.53,38.10,3.45,1.26,9.52
4,8,-562,-26,-661,3922,0.97,-0.38,-39.76,-0.26,-6.61,39.22,-5.77,-1.54,38.25,3.46,0.96,10.04
15,-6,-549,128,-416,4005,0.97,-0.37,-39.13,1.28,-4.16,40.05,-5.77,-1.58,38.41,3.24,1.26,9.49
27,-1,-522,103,-332,3874,1.03,-0.34,-38.40,1.03,-3.32,38.74,-5.74,-1.59,38.56,2.96,1.16,8.05
15,12,-455,-101,-343,3891,1.02,-0.24,-37.34,-1.01,-3.43,38.91,-5.73,-1.59,38.71,3.20,0.87,4.08
18,5,-431,-46,-322,3933,1.03,-0.18,-36.23,-0.46,-3.22,39.33,-5.71,-1.59,38.86,3.13,1.00,3.05
8,-2,-345,-29,-359,3865,0.98,-0.18,-34.71,-0.29,-3.59,38.65,-5.70,-1.58,38.99,3.34,1.13,-1.94
3,2,-330,-173,-366,3921,0.90,-0.15,-33.26,-1.73,-3.66,39.21,-5.69,-1.58,39.13,3.45,1.04,-2.16
5,-15,-328,-111,-518,3924,0.84,-0.22,-31.93,-1.11,-5.18,39.24,-5.70,-1.58,39.25,3.43,1.41,-1.57
9,-18,-333,-64,-496,3892,0.81,-0.31,-30.77,-0.64,-4.96,38.92,-5.70,-1.57,39.38,3.36,1.49,-0.60
5,-8,-277,-185,-517,3910,0.76,-0.33,-29.38,-1.85,-5.17,39.10,-5.70,-1.57,39.49,3.45,1.29,-3.64
4,-3,-251,-130,-488,3897,0.71,-0.31,-27.97,-1.30,-4.88,38.97,-5.70,-1.57,39.60,3.49,1.18,-4.62
9,16,-230,27,-336,3905,0.69,-0.18,-26.58,0.27,-3.36,39.05,-5.69,-1.56,39.71,3.38,0.76,-5.28
3,8,-252,108,-264,3903,0.64,-0.12,-25.46,1.08,-2.64,39.03,-5.66,-1.57,39.81,3.50,0.91,-3.18
19,-12,-403,-52,-142,3890,0.69,-0.18,-25.37,-0.52,-1.42,38.90,-5.64,-1.57,39.91,3.15,1.33,7.09
20,-7,-451,-103,-85,3722,0.74,-0.20,-25.59,-1.03,-0.85,37.22,-5.62,-1.57,40.01,3.10,1.24,10.21
13,-13,-622,-73,-231,3897,0.75,-0.26,-26.82,-0.73,-2.31,38.97,-5.60,-1.57,40.12,3.23,1.37,20.00
9,-34,-659,-10,-210,4135,0.73,-0.44,-28.16,-0.10,-2.10,41.35,-5.58,-1.57,40.23,3.30,1.85,20.00
8,-29,-744,-8,-311,4038,0.71,-0.58,-29.88,-0.08,-3.11,40.38,-5.57,-1.57,40.35,3.32,1.79,20.00
21,-8,-765,46,-337,3794,0.76,-0.57,-31.56,0.46,-3.37,37.94,-5.55,-1.57,40.48,3.03,1.35,20.00
16,-3,-859,-125,-370,3811,0.78,-0.53,-33.64,-1.25,-3.70,38.11,-5.54,-1.57,40.61,3.12,1.24,20.00
7,-2,-885,-133,-453,3832,0.75,-0.49,-35.68,-1.33,-4.53,38.32,-5.54,-1.57,40.75,3.31,1.21,20.00
10,3,-977,-64,-393,3900,0.73,-0.42,-38.07,-0.64,-3.93,39.00,-5.54,-1.57,40.91,3.25,1.09,20.00
23,4,-1022,-143,-421,3902,0.80,-0.35,-40.50,-1.43,-4.21,39.02,-5.53,-1.56,41.07,2.97,1.05,20.00
16,-4,-1062,-45,-254,3897,0.82,-0.34,-42.93,-0.45,-2.54,38.97,-5.51,-1.57,41.24,3.09,1.21,20.00
10,-11,-1056,-72,-309,3876,0.80,-0.38,-45.07,-0.72,-3.09,38.76,-5.50,-1.57,41.42,3.21,1.36,20.00
11,-8,-970,-114,-224,3911,0.79,-0.39,-46.48,-1.14,-2.24,39.11,-5.48,-1.57,41.60,3.18,1.31,20.00
25,-12,-941,-15,-211,3992,0.86,-0.42,-47.58,-0.15,-2.11,39.92,-5.46,-1.58,41.79,2.86,1.40,20.00
15,-10,-858,-67,-377,3924,0.86,-0.44,-48.05,-0.67,-3.77,39.24,-5.45,-1.58,41.98,3.05,1.37,20.00
13,-15,-835,-37,-291,3777,0.86,-0.49,-48.34,-0.37,-2.91,37.77,-5.43,-1.59,42.18,3.09,1.49,20.00
33,-2,-817,-100,-381,3769,0.97,-0.45,-48.49,-1.00,-3.81,37.69,-5.42,-1.59,42.37,2.64,1.21,20.00
25,-14,-824,-55,-399,3858,1.03,-0.49,-48.67,-0.55,-3.99,38.58,-5.42,-1.59,42.56,2.79,1.47,20.00
21,-23,-839,14,-440,3998,1.05,-0.58,-48.92,0.14,-4.40,39.98,-5.42,-1.60,42.76,2.86,1.68,20.00
12,-21,-847,39,-424,3755,1.02,-0.65,-49.19,0.39,-4.24,37.55,-5.42,-1.61,42.95,3.06,1.67,20.00
25,-28,-853,-107,-471,3696,1.07,-0.76,-49.48,-1.07,-4.71,36.96,-5.42,-1.61,43.15,2.78,1.84,20.00
24,-9,-854,-121,-532,3981,1.11,-0.74,-49.74,-1.21,-5.32,39.81,-5.42,-1.62,43.35,2.79,1.45,20.00
-3,-32,-860,7,-506,3945,0.98,-0.86,-50.01,0.07,-5.06,39.45,-5.43,-1.63,43.54,3.37,1.96,20.00
31,-29,-854,-47,-580,3985,1.07,-0.95,-50.22,-0.47,-5.80,39.85,-5.43,-1.64,43.74,2.66,1.93,20.00
40,-18,-795,169,-433,3928,1.21,-0.96,-50.05,1.69,-4.33,39.28,-5.43,-1.68,43.94,2.44,1.74,19.21
23,-17,-766,174,-562,3696,1.23,-0.97,-49.71,1.74,-5.62,36.96,-5.44,-1.70,44.14,2.79,1.74,17.40
6,-29,-676,4,-563,3911,1.14,-1.05,-48.87,0.04,-5.63,39.11,-5.44,-1.72,44.33,3.16,2.01,11.75
-5,-19,-654,34,-601,3768,1.00,-1.06,-47.97,0.34,-6.01,37.68,-5.45,-1.73,44.52,3.43,1.82,10.73
10,-10,-631,-65,-569,3816,0.96,-1.02,-47.02,-0.65,-5.69,38.16,-5.46,-1.74,44.71,3.14,1.63,9.68
11,-5,-623,-90,-567,3904,0.93,-0.95,-46.12,-0.90,-5.67,39.04,-5.46,-1.75,44.89,3.13,1.52,9.61
20,-12,-631,-16,-509,3750,0.96,-0.92,-45.36,-0.16,-5.09,37.50,-5.46,-1.76,45.07,2.94,1.66,10.56
15,11,-615,-83,-478,3859,0.95,-0.76,-44.57,-0.83,-4.78,38.59,-5.46,-1.76,45.25,3.04,1.15,9.89
4,-10,-559,-19,-509,3899,0.88,-0.75,-43.53,-0.19,-5.09,38.99,-5.47,-1.77,45.42,3.29,1.58,6.65
9,-22,-550,-45,-455,3968,0.85,-0.81,-42.53,-0.45,-4.55,39.68,-5.47,-1.77,45.59,3.19,1.84,6.58
24,1,-482,-160,-391,4014,0.91,-0.72,-41.22,-1.60,-3.91,40.14,-5.46,-1.77,45.76,2.87,1.35,2.68
5,-10,-458,-102,-424,3949,0.85,-0.71,-39.89,-1.02,-4.24,39.49,-5.45,-1.77,45.91,3.27,1.57,1.77
5,6,-419,11,-424,3961,0.80,-0.60,-38.45,0.11,-4.24,39.61,-5.45,-1.77,46.07,3.28,1.21,-0.09
13,2,-393,11,-433,3911,0.80,-0.53,-37.01,0.11,-4.33,39.11,-5.45,-1.77,46.21,3.12,1.27,-1.06
7,5,-321,36,-532,3851,0.76,-0.45,-35.26,0.36,-5.32,38.51,-5.46,-1.78,46.35,3.26,1.20,-4.98
14,-2,-311,-43,-467,3897,0.77,-0.41,-33.63,-0.43,-4.67,38.97,-5.46,-1.78,46.49,3.11,1.33,-4.77
3,-1,-253,-39,-346,3863,0.71,-0.38,-31.81,-0.39,-3.46,38.63,-5.45,-1.77,46.61,3.35,1.29,-7.70
-1,-4,-256,43,-374,3958,0.63,-0.37,-30.19,0.43,-3.74,39.58,-5.45,-1.77,46.73,3.44,1.35,-6.60
12,7,-264,-36,-251,3926,0.64,-0.29,-28.79,-0.36,-2.51,39.26,-5.43,-1.77,46.85,3.16,1.10,-5.29
5,-3,-241,-54,-315,3980,0.61,-0.28,-27.38,-0.54,-3.15,39.80,-5.42,-1.76,46.96,3.31,1.30,-6.07
12,7,-206,13,-390,3884,0.62,-0.21,-25.90,0.13,-3.90,38.84,-5.42,-1.75,47.06,3.16,1.07,-7.63
12,3,-191,-91,-406,3940,0.63,-0.17,-24.47,-0.91,-4.06,39.40,-5.41,-1.75,47.16,3.16,1.14,-7.86
-8,8,-110,-15,-421,3881,0.52,-0.10,-22.70,-0.15,-4.21,38.81,-5.42,-1.74,47.25,3.59,1.01,-12.37
-6,6,-114,-14,-349,3917,0.43,-0.05,-21.12,-0.14,-3.49,39.17,-5.41,-1.73,47.33,3.57,1.03,-11.22
10,8,-188,-43,-385,3864,0.45,-0.00,-20.16,-0.43,-3.85,38.64,-5.41,-1.72,47.41,3.24,0.97,-5.68
11,15,-179,-187,-415,3934,0.47,0.09,-19.23,-1.87,-4.15,39.34,-5.40,-1.71,47.49,3.21,0.80,-5.78
7,8,-213,37,-289,3948,0.47,0.13,-18.61,0.37,-2.89,39.48,-5.39,-1.70,47.56,3.29,0.92,-3.14
4,7,-230,16,-268,3927,0.44,0.16,-18.15,0.16,-2.68,39.27,-5.37,-1.69,47.64,3.34,0.93,-1.74
5,6,-331,-55,-291,3894,0.43,0.18,-18.35,-0.55,-2.91,38.94,-5.36,-1.68,47.71,3.32,0.94,4.98
16,14,-354,-104,-260,3944,0.49,0.25,-18.68,-1.04,-2.60,39.44,-5.35,-1.67,47.79,3.07,0.75,6.34
-12,-5,-442,26,-269,3841,0.36,0.19,-19.51,0.26,-2.69,38.41,-5.33,-1.67,47.86,3.66,1.15,11.83
13,-11,-463,42,-204,3979,0.41,0.11,-20.38,0.42,-2.04,39.79,-5.31,-1.67,47.95,3.13,1.29,12.75
12,-10,-527,42,-310,3923,0.44,0.03,-21.56,0.42,-3.10,39.23,-5.29,-1.66,48.03,3.13,1.29,16.42
12,-13,-537,40,-328,3946,0.47,-0.05,-22.68,0.40,-3.28,39.46,-5.28,-1.65,48.12,3.11,1.37,16.45
10,-11,-593,-98,-404,3742,0.48,-0.11,-24.03,-0.98,-4.04,37.42,-5.28,-1.64,48.22,3.15,1.34,19.48
26,-14,-651,-23,-386,4153,0.59,-0.18,-25.60,-0.23,-3.86,41.53,-5.28,-1.63,48.32,2.79,1.41,20.00
15,-22,-706,-167,-467,3991,0.63,-0.30,-27.34,-1.67,-4.67,39.91,-5.28,-1.63,48.43,3.01,1.60,20.00
20,-7,-729,-186,-411,3752,0.68,-0.31,-29.05,-1.86,-4.11,37.52,-5.27,-1.62,48.54,2.89,1.30,20.00
13,-3,-767,-158,-456,3698,0.70,-0.30,-30.83,-1.58,-4.56,36.98,-5.28,-1.62,48.67,3.03,1.21,20.00
23,9,-794,-166,-513,3970,0.77,-0.22,-32.59,-1.66,-5.13,39.70,-5.28,-1.61,48.80,2.81,0.94,20.00
16,6,-878,-178,-403,3873,0.79,-0.16,-34.69,-1.78,-4.03,38.73,-5.27,-1.61,48.93,2.94,0.98,20.00
34,4,-896,-163,-362,3987,0.92,-0.12,-36.68,-1.63,-3.62,39.87,-5.26,-1.61,49.08,2.53,1.01,20.00
10,9,-958,-145,-411,3838,0.89,-0.05,-38.86,-1.45,-4.11,38.38,-5.26,-1.60,49.23,3.03,0.89,20.00
10,-9,-967,-134,-313,3864,0.86,-0.10,-40.87,-1.34,-3.13,38.64,-5.25,-1.60,49.40,3.03,1.27,20.00
6,-1,-993,-41,-371,3789,0.81,-0.10,-42.84,-0.41,-3.71,37.89,-5.24,-1.60,49.57,3.12,1.10,20.00
40,11,-995,-72,-437,3947,0.97,-0.02,-44.63,-0.72,-4.37,39.47,-5.24,-1.60,49.75,2.38,0.84,20.00
18,-7,-980,-145,-401,3935,0.98,-0.06,-46.14,-1.45,-4.01,39.35,-5.24,-1.60,49.93,2.82,1.21,20.00
23,-10,-971,-146,-410,3862,1.03,-0.12,-47.45,-1.46,-4.10,38.62,-5.23,-1.60,50.12,2.71,1.29,20.00
11,-4,-965,-102,-447,3820,0.99,-0.13,-48.59,-1.02,-4.47,38.20,-5.23,-1.60,50.31,2.96,1.17,20.00
16,-16,-960,-118,-377,3959,0.99,-0.21,-49.59,-1.18,-3.77,39.59,-5.22,-1.60,50.51,2.85,1.44,20.00
20,-6,-858,121,-435,3966,1.01,-0.23,-49.86,1.21,-4.35,39.66,-5.23,-1.62,50.71,2.77,1.25,20.00
24,-12,-836,145,-407,3839,1.06,-0.28,-49.98,1.45,-4.07,38.39,-5.24,-1.65,50.91,2.68,1.41,20.00
17,-2,-734,-26,-238,3740,1.06,-0.26,-49.46,-0.26,-2.38,37.40,-5.21,-1.65,51.10,2.81,1.20,14.33
-12,-17,-692,-22,-313,3899,0.88,-0.34,-48.73,-0.22,-3.13,38.99,-5.20,-1.65,51.30,3.44,1.53,11.86
-1,-11,-596,-44,-290,3941,0.78,-0.37,-47.49,-0.44,-2.90,39.41,-5.18,-1.66,51.49,3.23,1.42,6.02
13,-12,-549,28,-386,3948,0.78,-0.41,-46.09,0.28,-3.86,39.48,-5.18,-1.66,51.67,2.94,1.45,3.60
-11,-8,-464,-5,-338,3778,0.64,-0.42,-44.32,-0.05,-3.38,37.78,-5.17,-1.66,51.85,3.46,1.37,-1.19
24,11,-448,-29,-349,3942,0.72,-0.31,-42.62,-0.29,-3.49,39.42,-5.16,-1.66,52.02,2.72,0.95,-1.35
10,-3,-355,-10,-396,3881,0.71,-0.30,-40.52,-0.10,-3.96,38.81,-5.16,-1.65,52.18,3.01,1.23,-6.50
11,-8,-326,-58,-441,3995,0.71,-0.32,-38.46,-0.58,-4.41,39.95,-5.16,-1.65,52.33,2.99,1.34,-7.33
2,-2,-239,-126,-419,3978,0.65,-0.30,-36.07,-1.26,-4.19,39.78,-5.16,-1.65,52.47,3.19,1.21,-11.91
-1,-3,-216,-70,-367,3938,0.58,-0.28,-33.78,-0.70,-3.67,39.38,-5.16,-1.64,52.61,3.27,1.22,-12.21
2,2,-154,-50,-346,3914,0.53,-0.24,-31.34,-0.50,-3.46,39.14,-5.15,-1.64,52.73,3.21,1.11,-15.06
5,4,-148,-57,-256,3888,0.51,-0.20,-29.11,-0.57,-2.56,38.88,-5.13,-1.63,52.85,3.15,1.05,-14.23
2,11,-153,-87,-258,3849,0.47,-0.11,-27.13,-0.87,-2.58,38.49,-5.12,-1.63,52.96,3.21,0.88,-12.80
6,12,-177,-73,-213,3933,0.46,-0.02,-25.50,-0.73,-2.13,39.33,-5.11,-1.62,53.06,3.12,0.83,-10.27
8,0,-279,-59,-220,3899,0.46,-0.02,-24.65,-0.59,-2.20,38.99,-5.09,-1.61,53.16,3.07,1.07,-2.90
14,2,-324,-95,-206,3957,0.50,-0.01,-24.16,-0.95,-2.06,39.57,-5.08,-1.61,53.26,2.93,1.02,0.41
5,-18,-416,-81,-197,3808,0.48,-0.12,-24.28,-0.81,-1.97,38.08,-5.06,-1.60,53.35,3.11,1.46,6.57
8,-1,-439,-47,-149,3785,0.48,-0.11,-24.53,-0.47,-1.49,37.85,-5.04,-1.60,53.45,3.03,1.11,7.97
10,-8,-492,-11,-251,3981,0.50,-0.15,-25.08,-0.11,-2.51,39.81,-5.02,-1.60,53.55,2.98,1.26,11.24
8,-17,-500,-59,-208,3977,0.49,-0.24,-25.62,-0.59,-2.08,39.77,-5.01,-1.59,53.65,3.01,1.46,11.46
2,-15,-549,76,-183,3867,0.46,-0.31,-26.41,0.76,-1.83,38.67,-4.99,-1.60,53.76,3.13,1.44,14.33
2,13,-567,-32,-218,3717,0.42,-0.20,-27.23,-0.32,-2.18,37.17,-4.97,-1.59,53.87,3.12,0.84,15.07
-1,-5,-625,-85,-150,3731,0.38,-0.21,-28.32,-0.85,-1.50,37.31,-4.95,-1.59,53.98,3.19,1.21,18.38
6,-22,-657,-159,-113,3953,0.37,-0.32,-29.49,-1.59,-1.13,39.53,-4.94,-1.59,54.10,3.03,1.58,19.87
8,-9,-669,-59,-245,3790,0.39,-0.34,-30.62,-0.59,-2.45,37.90,-4.92,-1.58,54.22,2.98,1.32,20.00
9,-11,-679,-85,-247,3882,0.40,-0.38,-31.70,-0.85,-2.47,38.82,-4.91,-1.58,54.35,2.95,1.37,20.00
27,-19,-712,-98,-446,4000,0.53,-0.45,-32.88,-0.98,-4.46,40.00,-4.91,-1.58,54.48,2.55,1.55,20.00
21,-13,-725,-44,-492,3755,0.60,-0.49,-34.01,-0.44,-4.92,37.55,-4.92,-1.58,54.61,2.66,1.44,20.00
5,-30,-732,-44,-464,3836,0.57,-0.62,-35.08,-0.44,-4.64,38.36,-4.93,-1.58,54.75,2.99,1.82,20.00
1,-26,-723,-29,-478,3926,0.52,-0.72,-35.98,-0.29,-4.78,39.26,-4.93,-1.58,54.90,3.09,1.77,20.00
9,-19,-680,142,-351,3971,0.52,-0.76,-36.53,1.42,-3.51,39.71,-4.93,-1.61,55.04,2.93,1.66,17.34
22,-12,-651,183,-377,3976,0.61,-0.76,-36.85,1.83,-3.77,39.76,-4.93,-1.65,55.19,2.64,1.54,15.17
27,-9,-585,90,-345,3874,0.71,-0.74,-36.73,0.90,-3.45,38.74,-4.93,-1.65,55.33,2.51,1.47,10.74
4,5,-559,-193,-347,3876,0.66,-0.63,-36.47,-1.93,-3.47,38.76,-4.93,-1.64,55.48,2.99,1.16,9.10
8,-10,-546,-129,-486,3805,0.65,-0.63,-36.15,-1.29,-4.86,38.05,-4.93,-1.64,55.62,2.92,1.46,8.38
11,3,-550,-44,-425,4005,0.65,-0.55,-35.89,-0.44,-4.25,40.05,-4.93,-1.64,55.76,2.86,1.17,8.77
23,14,-542,-98,-422,3789,0.72,-0.41,-35.61,-0.98,-4.22,37.89,-4.93,-1.64,55.91,2.59,0.91,8.37
11,10,-537,-41,-506,3995,0.72,-0.31,-35.32,-0.41,-5.06,39.95,-4.94,-1.64,56.05,2.84,0.96,8.17
-7,-10,-502,-19,-332,3996,0.60,-0.34,-34.85,-0.19,-3.32,39.96,-4.93,-1.63,56.19,3.23,1.37,6.04
21,-7,-493,-24,-455,3975,0.67,-0.35,-34.38,-0.24,-4.55,39.75,-4.94,-1.63,56.32,2.65,1.31,5.68
14,-8,-447,-119,-288,3945,0.69,-0.36,-33.66,-1.19,-2.88,39.45,-4.93,-1.63,56.46,2.78,1.34,2.94
9,-13,-436,-111,-351,3904,0.68,-0.40,-32.96,-1.11,-3.51,39.04,-4.92,-1.62,56.59,2.88,1.45,2.57
16,7,-437,-195,-329,3858,0.71,-0.32,-32.33,-1.95,-3.29,38.58,-4.91,-1.62,56.72,2.73,1.01,2.97
22,-5,-428,-105,-391,3912,0.77,-0.32,-31.71,-1.05,-3.91,39.12,-4.91,-1.61,56.84,2.58,1.25,2.69
12,-5,-441,-54,-492,4072,0.77,-0.32,-31.22,-0.54,-4.92,40.72,-4.92,-1.61,56.97,2.79,1.25,3.82
6,-13,-444,-60,-507,3851,0.73,-0.37,-30.81,-0.60,-5.07,38.51,-4.92,-1.61,57.09,2.93,1.43,4.24
3,-14,-442,-71,-286,3987,0.67,-0.41,-30.43,-0.71,-2.86,39.87,-4.91,-1.60,57.21,3.00,1.46,4.30
2,3,-448,-26,-368,3794,0.62,-0.35,-30.12,-0.26,-3.68,37.94,-4.91,-1.60,57.33,3.03,1.09,4.87
4,-17,-476,-193,-234,3833,0.58,-0.42,-30.01,-1.93,-2.34,38.33,-4.90,-1.59,57.45,3.00,1.51,6.81
20,-9,-478,-90,-468,3953,0.64,-0.44,-29.92,-0.90,-4.68,39.53,-4.90,-1.59,57.57,2.66,1.35,6.97
8,-13,-480,-26,-215,3917,0.63,-0.47,-29.86,-0.26,-2.15,39.17,-4.89,-1.59,57.69,2.89,1.44,7.13
2,-13,-484,0,-335,3932,0.58,-0.50,-29.83,0.00,-3.35,39.32,-4.88,-1.58,57.81,3.02,1.44,7.40
8,-4,-496,16,-209,3825,0.57,-0.48,-29.87,0.16,-2.09,38.25,-4.86,-1.58,57.93,2.89,1.25,8.17
17,22,-519,13,-297,3909,0.62,-0.30,-30.05,0.13,-2.97,39.09,-4.85,-1.57,58.05,2.69,0.67,9.61
24,11,-585,-165,-246,3891,0.70,-0.20,-30.61,-1.65,-2.46,38.91,-4.84,-1.57,58.17,2.51,0.87,13.75
19,-15,-592,-136,-296,4158,0.75,-0.27,-31.16,-1.36,-2.96,41.58,-4.83,-1.56,58.29,2.60,1.41,13.90
18,-2,-669,-144,-372,4001,0.78,-0.26,-32.13,-1.44,-3.72,40.01,-4.82,-1.56,58.42,2.60,1.14,18.55
-4,-11,-691,-140,-353,3887,0.68,-0.30,-33.13,-1.40,-3.53,38.87,-4.82,-1.55,58.55,3.08,1.33,19.46
33,11,-759,-25,-257,3775,0.81,-0.20,-34.45,-0.25,-2.57,37.75,-4.80,-1.55,58.69,2.28,0.85,20.00
35,15,-779,-44,-357,3909,0.94,-0.09,-35.75,-0.44,-3.57,39.09,-4.80,-1.54,58.83,2.20,0.74,20.00
5,-27,-783,101,-357,4017,0.88,-0.24,-36.95,1.01,-3.57,40.17,-4.81,-1.55,58.98,2.83,1.64,20.00
25,-16,-767,3,-408,3923,0.94,-0.32,-37.94,0.03,-4.08,39.23,-4.81,-1.55,59.13,2.41,1.43,20.00
27,-10,-759,14,-388,4049,1.02,-0.35,-38.77,0.14,-3.88,40.49,-4.81,-1.54,59.28,2.35,1.32,20.00
16,-1,-749,-46,-425,3861,1.01,-0.32,-39.46,-0.46,-4.25,38.61,-4.81,-1.54,59.44,2.58,1.13,19.71
21,3,-745,26,-471,3914,1.04,-0.27,-40.06,0.26,-4.71,39.14,-4.82,-1.55,59.60,2.47,1.03,19.07
40,10,-746,31,-467,3916,1.18,-0.18,-40.61,0.31,-4.67,39.16,-4.83,-1.55,59.76,2.05,0.87,18.81
5,-24,-724,49,-558,3969,1.09,-0.31,-40.96,0.49,-5.58,39.69,-4.84,-1.56,59.92,2.79,1.60,17.10
-2,-28,-697,5,-614,3831,0.97,-0.45,-41.12,0.05,-6.14,38.31,-4.85,-1.57,60.09,2.97,1.73,15.16
20,0,-512,-20,-989,3818,0.99,-0.40,-40.13,-0.20,-9.89,38.18,-4.86,-1.59,60.25,2.53,1.16,3.15
17,-5,-436,37,-996,3889,1.00,-0.39,-38.78,0.37,-9.96,38.89,-4.87,-1.60,60.40,2.59,1.26,-1.27
1,-2,-148,44,-828,3910,0.91,-0.37,-35.80,0.44,-8.28,39.10,-4.88,-1.61,60.54,2.95,1.20,-19.14
-4,-6,-82,7,-747,3883,0.79,-0.37,-32.72,0.07,-7.47,38.83,-4.89,-1.62,60.67,3.09,1.29,-20.00
2,1,-59,87,-313,3908,0.72,-0.32,-29.81,0.87,-3.13,39.08,-4.87,-1.62,60.79,2.98,1.13,-20.00
5,6,-72,-15,-369,3874,0.68,-0.25,-27.27,-0.15,-3.69,38.74,-4.87,-1.61,60.90,2.93,1.01,-19.56
1,6,-46,-25,-335,3886,0.62,-0.19,-24.82,-0.25,-3.35,38.86,-4.86,-1.60,61.00,3.02,0.99,-19.96
4,8,-55,-13,-332,3929,0.58,-0.12,-22.67,-0.13,-3.32,39.29,-4.86,-1.59,61.09,2.97,0.92,-18.16
4,6,-27,-100,-412,3903,0.55,-0.08,-20.57,-1.00,-4.12,39.03,-4.86,-1.58,61.17,2.98,0.94,-18.89
2,7,-8,-76,-396,3907,0.51,-0.03,-18.56,-0.76,-3.96,39.07,-4.86,-1.57,61.24,3.03,0.90,-19.06
-1,3,12,-56,-366,3907,0.45,-0.00,-16.63,-0.56,-3.66,39.07,-4.86,-1.56,61.31,3.11,0.97,-19.34
-1,-4,14,19,-344,3891,0.40,-0.03,-14.89,0.19,-3.44,38.91,-4.86,-1.54,61.37,3.12,1.11,-18.51
0,-8,7,-35,-354,3907,0.36,-0.07,-13.35,-0.35,-3.54,39.07,-4.86,-1.53,61.42,3.11,1.19,-17.18
-1,-6,8,-34,-350,3906,0.32,-0.10,-11.97,-0.34,-3.50,39.06,-4.86,-1.52,61.47,3.14,1.15,-16.48
-9,-2,-19,26,-512,3905,0.23,-0.11,-10.89,0.26,-5.12,39.05,-4.88,-1.51,61.51,3.34,1.07,-14.05
-4,-8,-122,-66,-460,3906,0.18,-0.14,-10.54,-0.66,-4.60,39.06,-4.89,-1.50,61.56,3.26,1.19,-6.88
9,-8,-235,-1,-423,3857,0.22,-0.18,-10.92,-0.01,-4.23,38.57,-4.90,-1.49,61.60,2.99,1.20,0.56
5,-3,-241,-62,-375,3892,0.23,-0.18,-11.30,-0.62,-3.75,38.92,-4.90,-1.48,61.64,3.07,1.09,0.75
4,-7,-283,-1,-307,3963,0.23,-0.20,-11.90,-0.01,-3.07,39.63,-4.89,-1.47,61.69,3.08,1.17,3.25
14,-10,-276,-59,-285,3942,0.29,-0.24,-12.39,-0.59,-2.85,39.42,-4.88,-1.46,61.74,2.86,1.23,2.49
1,-11,-238,-3,-330,3876,0.27,-0.29,-12.60,-0.03,-3.30,38.76,-4.88,-1.44,61.79,3.13,1.25,-0.21
11,4,-222,-30,-345,3964,0.31,-0.23,-12.70,-0.30,-3.45,39.64,-4.88,-1.43,61.84,2.91,0.93,-1.35
6,-3,-270,-56,-376,3950,0.31,-0.23,-13.07,-0.56,-3.76,39.50,-4.88,-1.42,61.89,3.01,1.06,1.68
10,6,-285,-63,-274,3873,0.34,-0.17,-13.51,-0.63,-2.74,38.73,-4.87,-1.41,61.95,2.92,0.85,2.45
9,4,-328,-32,-361,3929,0.36,-0.13,-14.16,-0.32,-3.61,39.29,-4.87,-1.39,62.00,2.93,0.87,4.99
15,19,-368,-66,-442,3917,0.42,0.00,-14.99,-0.66,-4.42,39.17,-4.88,-1.38,62.06,2.80,0.53,7.22
7,0,-388,-90,-312,3903,0.42,0.00,-15.85,-0.90,-3.12,39.03,-4.87,-1.37,62.13,2.96,0.90,8.08
19,0,-393,-61,-371,3841,0.49,0.00,-16.67,-0.61,-3.71,38.41,-4.88,-1.36,62.19,2.70,0.90,7.96
16,-2,-443,-33,-308,3835,0.54,-0.01,-17.70,-0.33,-3.08,38.35,-4.87,-1.35,62.26,2.74,0.93,10.75
9,-1,-452,-30,-290,3949,0.54,-0.02,-18.69,-0.30,-2.90,39.49,-4.86,-1.33,62.34,2.88,0.91,10.80
12,-6,-451,-37,-250,3939,0.56,-0.05,-19.57,-0.37,-2.50,39.39,-4.84,-1.33,62.42,2.80,1.01,10.22
7,-6,-457,-28,-290,3837,0.55,-0.08,-20.40,-0.28,-2.90,38.37,-4.83,-1.32,62.50,2.90,1.01,10.15
14,-5,-466,-56,-353,3780,0.58,-0.11,-21.20,-0.56,-3.53,37.80,-4.83,-1.31,62.58,2.75,0.99,10.30
8,-1,-472,-43,-370,3922,0.57,-0.10,-21.96,-0.43,-3.70,39.22,-4.84,-1.30,62.67,2.87,0.90,10.27
9,-7,-435,-34,-381,4020,0.57,-0.13,-22.42,-0.34,-3.81,40.20,-4.84,-1.29,62.76,2.85,1.03,7.49
2,-5,-416,0,-307,3863,0.52,-0.15,-22.72,0.00,-3.07,38.63,-4.83,-1.28,62.85,3.00,0.99,6.02
6,1,-371,-14,-300,3875,0.51,-0.13,-22.71,-0.14,-3.00,38.75,-4.82,-1.27,62.94,2.92,0.85,2.96
10,1,-385,-8,-312,3943,0.52,-0.11,-22.78,-0.08,-3.12,39.43,-4.81,-1.26,63.03,2.83,0.84,3.86
5,-5,-388,-55,-229,3870,0.50,-0.13,-22.87,-0.55,-2.29,38.70,-4.80,-1.25,63.12,2.93,0.96,4.00
10,2,-379,1,-342,3949,0.51,-0.10,-22.90,0.01,-3.42,39.49,-4.80,-1.24,63.21,2.82,0.81,3.36
4,2,-356,55,-260,3947,0.48,-0.08,-22.78,0.55,-2.60,39.47,-4.78,-1.24,63.30,2.94,0.80,1.85
11,-4,-370,60,-288,3913,0.50,-0.10,-22.76,0.60,-2.88,39.13,-4.76,-1.24,63.40,2.78,0.93,2.80
15,-6,-406,-104,-233,3949,0.54,-0.12,-22.96,-1.04,-2.33,39.49,-4.74,-1.23,63.49,2.68,0.97,5.11
20,-2,-411,-111,-290,3936,0.61,-0.12,-23.17,-1.11,-2.90,39.36,-4.74,-1.22,63.58,2.55,0.88,5.32
7,1,-397,-99,-286,3919,0.59,-0.11,-23.28,-0.99,-2.86,39.19,-4.73,-1.21,63.67,2.82,0.81,4.30
14,-9,-385,-108,-307,3890,0.62,-0.15,-23.30,-1.08,-3.07,38.90,-4.72,-1.20,63.77,2.66,1.02,3.46
-1,-16,-395,-27,-292,3930,0.55,-0.23,-23.38,-0.27,-2.92,39.30,-4.71,-1.19,63.86,2.98,1.18,4.08
-1,-1,-388,35,-303,3764,0.49,-0.22,-23.41,0.35,-3.03,37.64,-4.71,-1.18,63.95,2.99,0.86,3.57
18,8,-399,6,-299,3844,0.55,-0.15,-23.50,0.06,-2.99,38.44,-4.70,-1.17,64.05,2.58,0.65,4.25
6,0,-412,35,-187,3901,0.53,-0.13,-23.66,0.35,-1.87,39.01,-4.68,-1.18,64.14,2.82,0.81,5.03
20,-24,-461,53,-226,3918,0.60,-0.26,-24.11,0.53,-2.26,39.18,-4.65,-1.18,64.24,2.50,1.34,8.08
-11,-3,-486,25,-218,3713,0.47,-0.26,-24.66,0.25,-2.18,37.13,-4.63,-1.18,64.34,3.15,0.91,9.45
28,-3,-584,-104,-124,3854,0.60,-0.25,-25.76,-1.04,-1.24,38.54,-4.62,-1.18,64.44,2.32,0.90,15.46
0,-21,-587,-126,-304,4049,0.54,-0.35,-26.76,-1.26,-3.04,40.49,-4.61,-1.17,64.54,2.90,1.29,15.09
-10,-17,-653,36,-294,3961,0.42,-0.42,-28.07,0.36,-2.94,39.61,-4.60,-1.16,64.66,3.12,1.23,18.81
27,1,-680,21,-183,3925,0.54,-0.37,-29.41,0.21,-1.83,39.25,-4.58,-1.17,64.77,2.32,0.85,19.87
20,-9,-701,50,-275,3966,0.61,-0.39,-30.75,0.50,-2.75,39.66,-4.56,-1.17,64.90,2.43,1.06,20.00
10,-25,-715,1,-211,3883,0.61,-0.50,-32.03,0.01,-2.11,38.83,-4.54,-1.17,65.03,2.62,1.42,20.00
3,-15,-782,-64,-224,3864,0.57,-0.54,-33.60,-0.64,-2.24,38.64,-4.52,-1.16,65.16,2.77,1.22,20.00
7,-5,-800,-41,-187,3889,0.55,-0.52,-35.12,-0.41,-1.87,38.89,-4.51,-1.16,65.30,2.68,1.01,20.00
11,-2,-889,-41,-200,3846,0.57,-0.48,-37.03,-0.41,-2.00,38.46,-4.49,-1.16,65.45,2.58,0.94,20.00
39,-8,-908,6,-202,4124,0.75,-0.48,-38.87,0.06,-2.02,41.24,-4.47,-1.17,65.60,1.95,1.06,20.00
18,2,-945,64,-216,4078,0.78,-0.42,-40.74,0.64,-2.16,40.78,-4.44,-1.18,65.76,2.35,0.85,20.00
9,-3,-934,74,-267,3855,0.76,-0.40,-42.37,0.74,-2.67,38.55,-4.42,-1.19,65.93,2.53,0.96,20.00
