gyroADC_X,gyroADC_Y,gyroADC_Z,accADC_X,accADC_Y,accADC_Z,GyroX,GyroY,GyroZ,AccX,AccY,AccZ,roll_IMU,pitch_IMU,yaw_IMU,roll_PID,pitch_PID,yaw_PID
-2,1,-1,-35,-413,3875,-0.00,-0.00,0.04,-0.35,-4.13,38.75,-5.93,0.70,0.43,0.49,-0.27,0.12
-1,-1,-3,-39,-406,3916,-0.01,-0.01,0.02,-0.39,-4.06,39.16,-5.93,0.68,0.43,0.21,0.21,0.27
-2,-1,-2,-72,-355,3961,-0.02,-0.02,0.00,-0.72,-3.55,39.61,-5.91,0.69,0.43,0.43,0.20,0.17
3,1,1,-74,-398,3939,-0.00,-0.01,0.01,-0.74,-3.98,39.39,-5.90,0.71,0.43,-0.77,-0.28,-0.08
-1,-1,1,-44,-428,3957,-0.01,-0.01,0.01,-0.44,-4.28,39.57,-5.92,0.70,0.43,0.23,0.20,-0.07
-1,2,1,-75,-430,3921,-0.01,0.00,0.02,-0.75,-4.30,39.21,-5.93,0.72,0.43,0.21,-0.51,-0.07
-2,-1,-1,-49,-437,3894,-0.02,-0.01,0.01,-0.49,-4.37,38.94,-5.95,0.72,0.43,0.42,0.23,0.10
-2,-2,0,-70,-425,3924,-0.03,-0.02,0.01,-0.70,-4.25,39.24,-5.96,0.73,0.43,0.38,0.44,0.01
1,0,-1,-42,-401,3938,-0.02,-0.02,0.00,-0.42,-4.01,39.38,-5.95,0.72,0.43,-0.34,-0.06,0.09
-1,-1,0,-21,-373,3897,-0.03,-0.02,0.00,-0.21,-3.73,38.97,-5.94,0.71,0.43,0.15,0.18,0.00
2,-2,2,-34,-353,3911,-0.01,-0.03,0.01,-0.34,-3.53,39.11,-5.92,0.70,0.43,-0.56,0.39,-0.16
3,0,1,-59,-376,3925,0.01,-0.03,0.02,-0.59,-3.76,39.25,-5.90,0.71,0.43,-0.74,-0.10,-0.07
2,0,3,-58,-389,3926,0.02,-0.02,0.04,-0.58,-3.89,39.26,-5.88,0.72,0.43,-0.44,-0.09,-0.22
3,1,1,-45,-386,3913,0.03,-0.02,0.04,-0.45,-3.86,39.13,-5.87,0.71,0.43,-0.63,-0.31,-0.05
1,1,0,-61,-423,3928,0.04,-0.01,0.03,-0.61,-4.23,39.28,-5.88,0.72,0.43,-0.11,-0.29,0.03
-1,1,2,-70,-440,3922,0.03,-0.00,0.04,-0.70,-4.40,39.22,-5.90,0.73,0.43,0.36,-0.26,-0.13
-4,0,1,-71,-447,3929,0.00,-0.00,0.04,-0.71,-4.47,39.29,-5.91,0.74,0.43,1.02,-0.00,-0.04
-5,0,0,-73,-428,3924,-0.03,-0.00,0.04,-0.73,-4.28,39.24,-5.93,0.75,0.43,1.16,-0.00,0.04
-6,0,1,-66,-412,3925,-0.06,-0.00,0.04,-0.66,-4.12,39.25,-5.93,0.77,0.43,1.29,-0.00,-0.04
-7,0,0,-68,-416,3926,-0.10,-0.00,0.04,-0.68,-4.16,39.26,-5.94,0.79,0.43,1.40,-0.00,0.04
-8,1,-1,-68,-392,3928,-0.14,0.01,0.03,-0.68,-3.92,39.28,-5.93,0.80,0.43,1.51,-0.23,0.11
-7,1,-1,-53,-392,3921,-0.17,0.01,0.02,-0.53,-3.92,39.21,-5.91,0.80,0.43,1.15,-0.21,0.10
-6,2,-1,-30,-389,3915,-0.19,0.02,0.01,-0.30,-3.89,39.15,-5.90,0.78,0.43,0.82,-0.43,0.10
-6,2,0,-33,-389,3912,-0.21,0.03,0.01,-0.33,-3.89,39.12,-5.89,0.77,0.43,0.75,-0.39,0.01
-3,1,-1,-23,-401,3925,-0.20,0.03,0.00,-0.23,-4.01,39.25,-5.89,0.75,0.43,-0.00,-0.12,0.09
-2,1,-1,-29,-412,3916,-0.19,0.04,-0.00,-0.29,-4.12,39.16,-5.90,0.73,0.43,-0.23,-0.11,0.08
-1,-1,-1,-41,-403,3919,-0.18,0.03,-0.01,-0.41,-4.03,39.19,-5.89,0.71,0.43,-0.43,0.36,0.08
-1,-1,-2,-42,-398,3929,-0.17,0.02,-0.02,-0.42,-3.98,39.29,-5.88,0.70,0.43,-0.38,0.32,0.15
2,-1,-2,-59,-380,3927,-0.14,0.01,-0.03,-0.59,-3.80,39.27,-5.87,0.71,0.43,-1.04,0.29,0.14
2,-1,-1,-60,-386,3918,-0.11,0.00,-0.03,-0.60,-3.86,39.18,-5.85,0.72,0.43,-0.94,0.27,0.05
2,0,-1,-59,-376,3931,-0.09,0.00,-0.04,-0.59,-3.76,39.31,-5.83,0.72,0.43,-0.85,0.01,0.05
3,0,1,-61,-380,3933,-0.06,0.00,-0.03,-0.61,-3.80,39.33,-5.82,0.73,0.43,-1.00,0.01,-0.11
1,1,0,-45,-407,3940,-0.05,0.01,-0.02,-0.45,-4.07,39.40,-5.83,0.72,0.43,-0.45,-0.22,-0.02
1,0,0,-48,-406,3933,-0.04,0.01,-0.02,-0.48,-4.06,39.33,-5.85,0.71,0.43,-0.40,0.03,-0.02
0,0,0,-46,-414,3922,-0.04,0.01,-0.02,-0.46,-4.14,39.22,-5.87,0.71,0.43,-0.13,0.03,-0.02
0,0,-1,-51,-419,3923,-0.03,0.01,-0.02,-0.51,-4.19,39.23,-5.88,0.71,0.43,-0.12,0.02,0.06
0,-1,-1,-63,-399,3921,-0.03,-0.00,-0.03,-0.63,-3.99,39.21,-5.88,0.73,0.43,-0.11,0.25,0.06
-1,-1,-1,-68,-396,3911,-0.03,-0.01,-0.03,-0.68,-3.96,39.11,-5.87,0.75,0.43,0.13,0.23,0.06
0,0,0,-52,-382,3910,-0.03,-0.01,-0.03,-0.52,-3.82,39.10,-5.85,0.75,0.43,-0.11,-0.02,-0.03
1,0,0,-53,-385,3920,-0.02,-0.01,-0.02,-0.53,-3.85,39.20,-5.84,0.75,0.43,-0.33,-0.02,-0.02
0,0,0,-50,-405,3920,-0.02,-0.00,-0.02,-0.50,-4.05,39.20,-5.85,0.74,0.43,-0.07,-0.02,-0.02
1,0,0,-47,-408,3907,-0.01,-0.00,-0.02,-0.47,-4.08,39.07,-5.87,0.73,0.43,-0.29,-0.02,-0.02
2,0,-1,-45,-416,3919,0.00,-0.00,-0.02,-0.45,-4.16,39.19,-5.89,0.73,0.43,-0.50,-0.01,0.06
1,0,-1,-51,-421,3911,0.01,-0.00,-0.03,-0.51,-4.21,39.11,-5.90,0.73,0.43,-0.22,-0.01,0.06
0,0,-1,-53,-412,3924,0.01,-0.00,-0.03,-0.53,-4.12,39.24,-5.92,0.74,0.43,0.03,-0.01,0.06
1,-1,-1,-51,-399,3916,0.01,-0.01,-0.03,-0.51,-3.99,39.16,-5.90,0.74,0.43,-0.20,0.22,0.05
0,0,-1,-61,-394,3919,0.01,-0.01,-0.04,-0.61,-3.94,39.19,-5.89,0.75,0.43,0.05,-0.03,0.05
0,0,-1,-61,-391,3924,0.01,-0.01,-0.04,-0.61,-3.91,39.24,-5.87,0.76,0.43,0.04,-0.03,0.05
0,0,1,-57,-394,3917,0.01,-0.01,-0.03,-0.57,-3.94,39.17,-5.86,0.77,0.43,0.04,-0.02,-0.11
0,0,0,-57,-398,3911,0.01,-0.01,-0.03,-0.57,-3.98,39.11,-5.85,0.78,0.43,0.03,-0.02,-0.02
0,0,0,-50,-401,3908,0.01,-0.01,-0.02,-0.50,-4.01,39.08,-5.85,0.76,0.43,0.03,-0.02,-0.02
0,1,0,-51,-402,3909,0.01,0.00,-0.02,-0.51,-4.02,39.09,-5.86,0.75,0.43,0.03,-0.25,-0.02
0,0,-1,-47,-409,3913,0.01,0.00,-0.03,-0.47,-4.09,39.13,-5.88,0.74,0.43,0.02,0.00,0.06
1,0,0,-44,-406,3913,0.01,0.00,-0.02,-0.44,-4.06,39.13,-5.89,0.72,0.43,-0.21,0.00,-0.02
0,0,0,-65,-410,3913,0.01,0.00,-0.02,-0.65,-4.10,39.13,-5.89,0.74,0.43,0.04,0.00,-0.02
1,0,0,-57,-405,3917,0.02,0.00,-0.02,-0.57,-4.05,39.17,-5.90,0.76,0.43,-0.20,0.00,-0.02
-1,0,0,-57,-401,3911,0.01,0.00,-0.02,-0.57,-4.01,39.11,-5.89,0.78,0.43,0.28,0.00,-0.02
1,0,0,-55,-405,3923,0.01,0.00,-0.01,-0.55,-4.05,39.23,-5.89,0.79,0.43,-0.20,0.00,-0.01
0,0,0,-56,-408,3925,0.01,0.00,-0.01,-0.56,-4.08,39.25,-5.91,0.80,0.43,0.05,0.00,-0.01
0,-1,0,-53,-411,3918,0.01,-0.01,-0.01,-0.53,-4.11,39.18,-5.93,0.79,0.44,0.04,0.23,-0.01
0,0,0,-51,-400,3923,0.01,-0.00,-0.01,-0.51,-4.00,39.23,-5.91,0.79,0.44,0.04,-0.02,-0.01
0,-1,0,-47,-399,3929,0.01,-0.01,-0.01,-0.47,-3.99,39.29,-5.90,0.77,0.43,0.03,0.21,-0.01
0,0,0,-56,-399,3919,0.01,-0.01,-0.01,-0.56,-3.99,39.19,-5.88,0.78,0.43,0.03,-0.04,-0.01
-1,-1,0,-57,-400,3919,0.00,-0.01,-0.01,-0.57,-4.00,39.19,-5.87,0.79,0.43,0.26,0.20,-0.01
0,-1,0,-57,-408,3922,0.00,-0.02,-0.01,-0.57,-4.08,39.22,-5.88,0.80,0.43,0.00,0.18,-0.01
0,-1,0,-55,-407,3911,0.00,-0.02,-0.01,-0.55,-4.07,39.11,-5.90,0.80,0.44,0.00,0.17,-0.01
-1,0,0,-52,-411,3924,-0.01,-0.02,-0.01,-0.52,-4.11,39.24,-5.92,0.79,0.44,0.23,-0.08,-0.01
0,0,0,-56,-404,3908,-0.00,-0.02,-0.01,-0.56,-4.04,39.08,-5.91,0.81,0.44,-0.02,-0.07,-0.00
0,0,-1,-52,-407,3921,-0.00,-0.02,-0.01,-0.52,-4.07,39.21,-5.91,0.79,0.44,-0.02,-0.06,0.07
0,0,0,-49,-406,3920,-0.00,-0.02,-0.01,-0.49,-4.06,39.20,-5.91,0.77,0.44,-0.01,-0.06,-0.01
0,0,0,-47,-399,3917,-0.00,-0.01,-0.01,-0.47,-3.99,39.17,-5.90,0.76,0.44,-0.01,-0.05,-0.01
0,-1,0,-51,-402,3921,-0.00,-0.02,-0.01,-0.51,-4.02,39.21,-5.88,0.75,0.44,-0.01,0.18,-0.01
0,0,0,-57,-398,3914,-0.00,-0.02,-0.01,-0.57,-3.98,39.14,-5.87,0.77,0.43,-0.01,-0.06,-0.01
0,-1,0,-61,-404,3918,-0.00,-0.02,-0.01,-0.61,-4.04,39.18,-5.87,0.78,0.43,-0.01,0.17,-0.01
0,0,0,-52,-406,3916,-0.00,-0.02,-0.01,-0.52,-4.06,39.16,-5.89,0.77,0.44,-0.01,-0.07,-0.01
0,0,0,-51,-411,3913,-0.00,-0.02,-0.01,-0.51,-4.11,39.13,-5.91,0.77,0.44,-0.01,-0.06,-0.00
0,0,-1,-50,-407,3915,-0.00,-0.02,-0.01,-0.50,-4.07,39.15,-5.92,0.75,0.44,-0.01,-0.06,0.07
-1,0,0,-51,-407,3916,-0.01,-0.01,-0.01,-0.51,-4.07,39.16,-5.93,0.74,0.44,0.22,-0.05,-0.01
1,0,-1,-50,-399,3913,-0.00,-0.01,-0.01,-0.50,-3.99,39.13,-5.91,0.74,0.44,-0.26,-0.05,0.07
1,0,0,-50,-403,3910,0.01,-0.01,-0.01,-0.50,-4.03,39.10,-5.90,0.73,0.44,-0.23,-0.04,-0.01
0,0,0,-43,-396,3926,0.00,-0.01,-0.01,-0.43,-3.96,39.26,-5.88,0.72,0.44,0.02,-0.04,-0.01
1,0,0,-55,-398,3923,0.01,-0.01,-0.01,-0.55,-3.98,39.23,-5.87,0.73,0.44,-0.22,-0.03,-0.01
0,0,1,-51,-405,3925,0.01,-0.01,-0.00,-0.51,-4.05,39.25,-5.89,0.74,0.44,0.04,-0.03,-0.09
0,1,1,-53,-406,3930,0.01,-0.00,0.00,-0.53,-4.06,39.30,-5.89,0.76,0.44,0.03,-0.26,-0.08
0,0,0,-56,-402,3925,0.01,-0.00,0.00,-0.56,-4.02,39.25,-5.88,0.77,0.44,0.03,-0.00,0.00
0,0,0,-58,-408,3922,0.01,-0.00,0.00,-0.58,-4.08,39.22,-5.89,0.78,0.44,0.03,-0.00,0.00
0,0,0,-51,-403,3914,0.01,-0.00,0.00,-0.51,-4.03,39.14,-5.89,0.77,0.44,0.02,-0.00,0.00
0,0,-1,-51,-406,3915,0.01,-0.00,-0.00,-0.51,-4.06,39.15,-5.90,0.76,0.44,0.02,-0.00,0.08
1,0,0,-51,-400,3917,0.01,-0.00,-0.00,-0.51,-4.00,39.17,-5.88,0.75,0.44,-0.21,-0.00,-0.00
0,1,0,-46,-400,3911,0.01,0.01,-0.00,-0.46,-4.00,39.11,-5.88,0.74,0.44,0.04,-0.23,-0.00
1,0,0,-53,-400,3918,0.02,0.00,-0.00,-0.53,-4.00,39.18,-5.86,0.75,0.44,-0.20,0.02,-0.00
1,0,0,-49,-400,3910,0.02,0.00,-0.00,-0.49,-4.00,39.10,-5.85,0.73,0.44,-0.18,0.02,-0.00
0,0,0,-56,-401,3919,0.02,0.00,-0.00,-0.56,-4.01,39.19,-5.85,0.75,0.44,0.07,0.01,-0.00
0,-1,0,-55,-399,3911,0.02,-0.00,-0.00,-0.55,-3.99,39.11,-5.84,0.77,0.43,0.06,0.24,-0.00
0,0,0,-50,-406,3919,0.01,-0.00,-0.00,-0.50,-4.06,39.19,-5.86,0.76,0.44,0.05,-0.01,-0.00
0,0,0,-54,-406,3919,0.01,-0.00,-0.00,-0.54,-4.06,39.19,-5.87,0.77,0.44,0.05,-0.01,-0.00
1,0,0,-58,-414,3914,0.02,-0.00,-0.00,-0.58,-4.14,39.14,-5.89,0.77,0.44,-0.19,-0.01,-0.00
1,0,0,-55,-409,3922,0.02,-0.00,-0.00,-0.55,-4.09,39.22,-5.91,0.78,0.44,-0.17,-0.01,-0.00
0,0,0,-54,-395,3918,0.02,-0.00,-0.00,-0.54,-3.95,39.18,-5.89,0.78,0.44,0.07,-0.01,-0.00
0,0,0,-52,-400,3914,0.02,-0.00,-0.00,-0.52,-4.00,39.14,-5.87,0.77,0.44,0.07,-0.01,-0.00
0,0,0,-47,-412,3922,0.02,-0.00,-0.00,-0.47,-4.12,39.22,-5.89,0.76,0.44,0.06,-0.00,-0.00
0,0,0,-50,-406,3917,0.01,-0.00,-0.00,-0.50,-4.06,39.17,-5.90,0.75,0.44,0.05,-0.00,-0.00
1,0,0,-55,-410,3917,0.02,-0.00,-0.00,-0.55,-4.10,39.17,-5.91,0.76,0.44,-0.18,-0.00,-0.00
1,-1,0,-49,-404,3922,0.02,-0.01,-0.00,-0.49,-4.04,39.22,-5.90,0.74,0.44,-0.17,0.23,-0.00
1,1,-1,-58,-410,3907,0.03,-0.00,-0.01,-0.58,-4.10,39.07,-5.92,0.76,0.44,-0.15,-0.25,0.08
1,1,0,-56,-400,3908,0.03,0.01,-0.01,-0.56,-4.00,39.08,-5.90,0.77,0.44,-0.14,-0.23,-0.01
0,-1,-1,-51,-399,3912,0.03,-0.00,-0.01,-0.51,-3.99,39.12,-5.88,0.76,0.44,0.10,0.25,0.07
-1,-1,0,-48,-398,3914,0.02,-0.01,-0.01,-0.48,-3.98,39.14,-5.87,0.75,0.44,0.32,0.23,-0.01
0,0,-1,-60,-404,3925,0.02,-0.01,-0.02,-0.60,-4.04,39.25,-5.87,0.77,0.44,0.06,-0.02,0.07
0,0,-1,-59,-402,3925,0.02,-0.01,-0.02,-0.59,-4.02,39.25,-5.87,0.79,0.44,0.06,-0.02,0.07
0,0,-1,-57,-398,3928,0.01,-0.00,-0.02,-0.57,-3.98,39.28,-5.85,0.80,0.44,0.05,-0.02,0.06
0,0,-1,-56,-394,3922,0.01,-0.00,-0.03,-0.56,-3.94,39.22,-5.83,0.80,0.44,0.05,-0.02,0.06
1,0,0,-53,-400,3932,0.02,-0.00,-0.03,-0.53,-4.00,39.32,-5.82,0.78,0.44,-0.19,-0.02,-0.02
0,0,0,-52,-396,3930,0.02,-0.00,-0.02,-0.52,-3.96,39.30,-5.80,0.78,0.44,0.06,-0.01,-0.02
-1,0,-1,-52,-405,3909,0.01,-0.00,-0.03,-0.52,-4.05,39.09,-5.82,0.77,0.44,0.28,-0.01,0.06
-1,-1,-1,-49,-404,3918,0.00,-0.01,-0.03,-0.49,-4.04,39.18,-5.84,0.76,0.44,0.26,0.22,0.06
-1,0,0,-55,-400,3932,-0.01,-0.01,-0.03,-0.55,-4.00,39.32,-5.82,0.78,0.44,0.23,-0.03,-0.03
0,0,0,-58,-399,3926,-0.00,-0.01,-0.02,-0.58,-3.99,39.26,-5.82,0.79,0.44,-0.02,-0.03,-0.02
0,0,-1,-59,-413,3912,-0.00,-0.01,-0.03,-0.59,-4.13,39.12,-5.84,0.80,0.44,-0.02,-0.02,0.06
-1,0,-1,-57,-397,3908,-0.01,-0.01,-0.03,-0.57,-3.97,39.08,-5.82,0.81,0.44,0.22,-0.02,0.06
0,0,0,-50,-394,3918,-0.01,-0.01,-0.03,-0.50,-3.94,39.18,-5.81,0.80,0.44,-0.03,-0.02,-0.03
1,0,0,-47,-407,3912,-0.00,-0.00,-0.03,-0.47,-4.07,39.12,-5.82,0.79,0.44,-0.26,-0.02,-0.02
0,-1,0,-59,-410,3915,-0.00,-0.01,-0.02,-0.59,-4.10,39.15,-5.84,0.79,0.44,-0.01,0.21,-0.02
0,0,0,-52,-401,3916,-0.00,-0.01,-0.02,-0.52,-4.01,39.16,-5.84,0.78,0.44,-0.01,-0.04,-0.02
1,0,0,-43,-396,3920,0.00,-0.01,-0.02,-0.43,-3.96,39.20,-5.84,0.76,0.44,-0.24,-0.03,-0.02
0,0,0,-52,-402,3916,0.00,-0.01,-0.02,-0.52,-4.02,39.16,-5.85,0.76,0.44,0.02,-0.03,-0.02
0,1,0,-50,-401,3914,0.00,-0.00,-0.01,-0.50,-4.01,39.14,-5.85,0.74,0.44,0.01,-0.26,-0.01
0,-1,0,-42,-391,3911,0.00,-0.01,-0.01,-0.42,-3.91,39.11,-5.84,0.73,0.44,0.01,0.23,-0.01
1,-1,0,-57,-402,3932,0.01,-0.01,-0.01,-0.57,-4.02,39.32,-5.84,0.75,0.44,-0.22,0.21,-0.01
1,0,0,-60,-404,3933,0.01,-0.01,-0.01,-0.60,-4.04,39.33,-5.84,0.76,0.44,-0.20,-0.04,-0.01
0,0,0,-51,-408,3924,0.01,-0.01,-0.01,-0.51,-4.08,39.24,-5.86,0.76,0.44,0.05,-0.04,-0.01
1,0,0,-57,-408,3920,0.02,-0.01,-0.01,-0.57,-4.08,39.20,-5.87,0.77,0.44,-0.19,-0.03,-0.01
1,0,0,-55,-402,3920,0.02,-0.01,-0.01,-0.55,-4.02,39.20,-5.86,0.79,0.44,-0.17,-0.03,-0.01
-1,0,-1,-51,-405,3922,0.01,-0.01,-0.01,-0.51,-4.05,39.22,-5.87,0.77,0.44,0.31,-0.03,0.07
0,0,-1,-57,-398,3927,0.01,-0.01,-0.02,-0.57,-3.98,39.27,-5.86,0.78,0.44,0.05,-0.02,0.07
0,-1,-1,-54,-405,3925,0.01,-0.01,-0.02,-0.54,-4.05,39.25,-5.88,0.78,0.44,0.04,0.21,0.06
-1,-1,0,-49,-409,3910,0.00,-0.02,-0.02,-0.49,-4.09,39.10,-5.89,0.77,0.44,0.27,0.19,-0.02
0,0,-1,-43,-408,3920,0.00,-0.02,-0.02,-0.43,-4.08,39.20,-5.90,0.75,0.44,0.01,-0.06,0.06
1,-1,0,-55,-407,3923,0.01,-0.02,-0.02,-0.55,-4.07,39.23,-5.91,0.77,0.44,-0.22,0.18,-0.02
1,-1,0,-52,-401,3921,0.01,-0.02,-0.02,-0.52,-4.01,39.21,-5.89,0.77,0.44,-0.20,0.16,-0.02
1,0,0,-51,-410,3918,0.02,-0.02,-0.02,-0.51,-4.10,39.18,-5.91,0.76,0.44,-0.18,-0.08,-0.02
0,0,1,-48,-409,3918,0.02,-0.02,-0.01,-0.48,-4.09,39.18,-5.92,0.75,0.44,0.06,-0.07,-0.09
-1,0,0,-54,-401,3921,0.01,-0.02,-0.01,-0.54,-4.01,39.21,-5.90,0.75,0.44,0.29,-0.07,-0.01
0,0,0,-51,-396,3925,0.01,-0.02,-0.01,-0.51,-3.96,39.25,-5.88,0.75,0.44,0.03,-0.06,-0.01
-1,-1,0,-57,-400,3915,0.00,-0.02,-0.01,-0.57,-4.00,39.15,-5.87,0.77,0.44,0.26,0.18,-0.01
-1,0,-1,-53,-401,3921,-0.00,-0.02,-0.01,-0.53,-4.01,39.21,-5.86,0.77,0.44,0.24,-0.07,0.07
-1,0,-1,-56,-403,3912,-0.01,-0.02,-0.02,-0.56,-4.03,39.12,-5.86,0.79,0.44,0.22,-0.06,0.07
0,0,0,-56,-397,3916,-0.01,-0.01,-0.02,-0.56,-3.97,39.16,-5.85,0.79,0.44,-0.04,-0.06,-0.01
1,0,1,-53,-395,3904,-0.00,-0.01,-0.01,-0.53,-3.95,39.04,-5.83,0.79,0.44,-0.26,-0.05,-0.09
1,0,0,-52,-402,3903,0.00,-0.01,-0.01,-0.52,-4.02,39.03,-5.85,0.78,0.44,-0.24,-0.04,-0.01
1,0,-1,-51,-402,3916,0.01,-0.01,-0.01,-0.51,-4.02,39.16,-5.85,0.76,0.44,-0.22,-0.04,0.07
1,0,0,-55,-404,3912,0.01,-0.01,-0.01,-0.55,-4.04,39.12,-5.87,0.77,0.44,-0.20,-0.04,-0.01
1,-1,0,-53,-399,3918,0.02,-0.01,-0.01,-0.53,-3.99,39.18,-5.85,0.77,0.44,-0.18,0.20,-0.01
1,0,0,-58,-402,3928,0.02,-0.01,-0.01,-0.58,-4.02,39.28,-5.85,0.79,0.44,-0.17,-0.05,-0.01
0,0,0,-54,-402,3925,0.02,-0.01,-0.01,-0.54,-4.02,39.25,-5.85,0.77,0.44,0.08,-0.05,-0.01
1,-1,0,-54,-403,3924,0.03,-0.02,-0.01,-0.54,-4.03,39.24,-5.86,0.78,0.44,-0.16,0.19,-0.01
0,0,-1,-55,-398,3921,0.02,-0.02,-0.01,-0.55,-3.98,39.21,-5.85,0.79,0.44,0.09,-0.06,0.07
-1,-1,-1,-54,-401,3929,0.01,-0.02,-0.02,-0.54,-4.01,39.29,-5.83,0.78,0.44,0.31,0.18,0.07
1,0,0,-54,-400,3921,0.02,-0.02,-0.02,-0.54,-4.00,39.21,-5.81,0.79,0.44,-0.18,-0.07,-0.01
0,-1,0,-54,-404,3925,0.02,-0.02,-0.01,-0.54,-4.04,39.25,-5.83,0.79,0.44,0.06,0.17,-0.01
0,-1,0,-53,-401,3905,0.02,-0.03,-0.01,-0.53,-4.01,39.05,-5.85,0.78,0.44,0.06,0.16,-0.01
0,-1,0,-46,-405,3917,0.01,-0.03,-0.01,-0.46,-4.05,39.17,-5.85,0.76,0.44,0.05,0.14,-0.01
0,0,-1,-53,-404,3916,0.01,-0.03,-0.02,-0.53,-4.04,39.16,-5.87,0.77,0.44,0.05,-0.10,0.07
1,1,0,-52,-405,3915,0.02,-0.02,-0.01,-0.52,-4.05,39.15,-5.89,0.76,0.44,-0.19,-0.32,-0.01
0,0,-1,-53,-399,3924,0.02,-0.02,-0.02,-0.53,-3.99,39.24,-5.87,0.76,0.44,0.06,-0.06,0.07
0,0,-1,-47,-400,3929,0.01,-0.01,-0.02,-0.47,-4.00,39.29,-5.86,0.75,0.44,0.05,-0.05,0.06
0,0,-1,-42,-405,3919,0.01,-0.01,-0.03,-0.42,-4.05,39.19,-5.87,0.73,0.44,0.05,-0.05,0.06
0,0,-1,-48,-406,3917,0.01,-0.01,-0.03,-0.48,-4.06,39.17,-5.88,0.72,0.44,0.04,-0.04,0.06
0,0,0,-58,-405,3922,0.01,-0.01,-0.03,-0.58,-4.05,39.22,-5.88,0.74,0.44,0.04,-0.04,-0.03
-1,0,0,-55,-403,3927,0.00,-0.01,-0.02,-0.55,-4.03,39.27,-5.88,0.76,0.44,0.27,-0.04,-0.02
0,0,0,-55,-403,3915,0.00,-0.01,-0.02,-0.55,-4.03,39.15,-5.88,0.77,0.44,0.01,-0.03,-0.02
0,0,0,-57,-408,3921,0.00,-0.01,-0.02,-0.57,-4.08,39.21,-5.89,0.79,0.44,0.01,-0.03,-0.02
0,0,0,-54,-405,3928,0.00,-0.01,-0.02,-0.54,-4.05,39.28,-5.88,0.78,0.44,0.01,-0.03,-0.02
0,0,0,-55,-403,3924,0.00,-0.01,-0.02,-0.55,-4.03,39.24,-5.87,0.79,0.44,0.01,-0.02,-0.02
0,-1,0,-55,-399,3912,0.00,-0.01,-0.01,-0.55,-3.99,39.12,-5.85,0.80,0.44,0.01,0.21,-0.01
0,0,0,-54,-404,3919,0.00,-0.01,-0.01,-0.54,-4.04,39.19,-5.87,0.79,0.44,0.01,-0.04,-0.01
-1,0,0,-55,-398,3923,-0.00,-0.01,-0.01,-0.55,-3.98,39.23,-5.85,0.79,0.44,0.24,-0.04,-0.01
-1,0,0,-55,-401,3925,-0.01,-0.01,-0.01,-0.55,-4.01,39.25,-5.83,0.80,0.44,0.22,-0.03,-0.01
-2,0,0,-47,-399,3930,-0.02,-0.01,-0.01,-0.47,-3.99,39.30,-5.83,0.78,0.44,0.43,-0.03,-0.01
-1,0,0,-50,-408,3931,-0.03,-0.01,-0.01,-0.50,-4.08,39.31,-5.84,0.77,0.44,0.16,-0.03,-0.01
-3,-3,-2,-46,-414,3918,-0.04,-0.02,-0.02,-0.46,-4.14,39.18,-5.86,0.76,0.44,0.61,0.67,0.15
-3,-3,-2,-59,-408,3915,-0.06,-0.04,-0.03,-0.59,-4.08,39.15,-5.87,0.78,0.44,0.55,0.61,0.14
-2,-2,-2,-59,-404,3915,-0.06,-0.05,-0.04,-0.59,-4.04,39.15,-5.88,0.79,0.44,0.27,0.33,0.13
-3,-3,-2,-50,-409,3915,-0.07,-0.06,-0.05,-0.50,-4.09,39.15,-5.89,0.78,0.44,0.48,0.53,0.12
-4,-4,-3,-47,-409,3920,-0.09,-0.08,-0.06,-0.47,-4.09,39.20,-5.90,0.77,0.44,0.67,0.71,0.20
-2,-3,-4,-67,-398,3918,-0.09,-0.09,-0.08,-0.67,-3.98,39.18,-5.89,0.78,0.44,0.15,0.42,0.26
-15,-10,-47,-86,-332,3891,-0.18,-0.14,-0.36,-0.86,-3.32,38.91,-5.88,0.79,0.44,3.15,2.01,3.65
-2,-3,-36,-181,-207,3937,-0.17,-0.15,-0.54,-1.81,-2.07,39.37,-5.86,0.80,0.44,-0.14,0.21,2.54
5,-3,-5,-124,-326,3933,-0.12,-0.15,-0.52,-1.24,-3.26,39.33,-5.85,0.81,0.45,-1.74,0.20,-0.06
2,2,-13,-54,-482,3945,-0.10,-0.12,-0.55,-0.54,-4.82,39.45,-5.87,0.81,0.45,-0.88,-0.97,0.59
-3,-2,-7,-52,-434,3922,-0.11,-0.12,-0.53,-0.52,-4.34,39.22,-5.89,0.81,0.45,0.36,0.05,0.09
-3,-2,-4,-19,-366,3896,-0.11,-0.12,-0.50,-0.19,-3.66,38.96,-5.88,0.79,0.45,0.33,0.05,-0.14
10,6,-35,18,-494,4070,-0.04,-0.07,-0.67,0.18,-4.94,40.70,-5.89,0.78,0.46,-2.70,-1.80,2.34
4,-5,-36,57,-486,3938,-0.01,-0.10,-0.82,0.57,-4.86,39.38,-5.90,0.76,0.46,-1.07,0.91,2.28
6,5,-122,157,-689,3935,0.02,-0.06,-1.48,1.57,-6.89,39.35,-5.91,0.75,0.46,-1.43,-1.48,8.94
4,2,-183,157,-589,3929,0.05,-0.04,-2.45,1.57,-5.89,39.29,-5.93,0.74,0.47,-0.84,-0.65,13.20
5,0,-256,130,-538,3937,0.07,-0.04,-3.77,1.30,-5.38,39.37,-5.94,0.72,0.49,-1.00,-0.13,18.15
-2,1,-265,121,-519,4006,0.05,-0.03,-5.01,1.21,-5.19,40.06,-5.95,0.70,0.51,0.71,-0.35,17.75
6,-1,-267,49,-446,4033,0.08,-0.03,-6.14,0.49,-4.46,40.33,-5.95,0.68,0.53,-1.21,0.15,16.86
5,5,-268,47,-426,3853,0.11,0.00,-7.16,0.47,-4.26,38.53,-5.95,0.66,0.56,-0.87,-1.25,15.99
-2,0,-294,62,-480,3917,0.08,0.00,-8.23,0.62,-4.80,39.17,-5.96,0.64,0.60,0.82,0.02,17.18
-6,-1,-302,45,-422,3840,0.04,-0.00,-9.25,0.45,-4.22,38.40,-5.97,0.62,0.63,1.67,0.24,16.90
-9,-5,-320,-17,-421,3877,-0.02,-0.03,-10.28,-0.17,-4.21,38.77,-5.98,0.60,0.67,2.21,1.15,17.46
16,-6,-326,-38,-364,3826,0.08,-0.07,-11.24,-0.38,-3.64,38.26,-5.96,0.59,0.72,-3.77,1.28,17.07
-1,-6,-334,-201,-348,3864,0.07,-0.10,-12.15,-2.01,-3.48,38.64,-5.96,0.61,0.77,0.50,1.16,16.89
-1,-1,-316,-249,-281,3994,0.05,-0.09,-12.87,-2.49,-2.81,39.94,-5.95,0.62,0.82,0.45,-0.09,14.69
7,3,-262,-270,-249,3964,0.09,-0.07,-13.18,-2.70,-2.49,39.64,-5.94,0.63,0.87,-1.44,-1.01,9.83
-3,-5,-241,-278,-245,3910,0.06,-0.09,-13.33,-2.78,-2.45,39.10,-5.93,0.63,0.92,1.00,0.94,7.90
5,-2,-159,-250,-238,3935,0.09,-0.09,-12.97,-2.50,-2.38,39.35,-5.91,0.64,0.97,-0.94,0.16,1.30
0,-6,-136,-241,-252,3907,0.08,-0.12,-12.50,-2.41,-2.52,39.07,-5.90,0.65,1.02,0.29,1.07,-0.21
0,-2,-74,-160,-318,3915,0.07,-0.12,-11.70,-1.60,-3.18,39.15,-5.89,0.66,1.07,0.27,0.06,-4.72
2,-3,-62,-144,-327,3904,0.08,-0.13,-10.91,-1.44,-3.27,39.04,-5.88,0.67,1.11,-0.22,0.29,-4.99
2,1,-16,-70,-329,3915,0.08,-0.11,-9.92,-0.70,-3.29,39.15,-5.86,0.67,1.15,-0.21,-0.66,-7.95
1,1,-10,-57,-370,3919,0.08,-0.09,-8.99,-0.57,-3.70,39.19,-5.85,0.67,1.19,0.04,-0.60,-7.59
-1,3,-1,-55,-394,3919,0.06,-0.06,-8.09,-0.55,-3.94,39.19,-5.84,0.68,1.22,0.50,-1.00,-7.51
1,3,0,-47,-406,3912,0.06,-0.04,-7.28,-0.47,-4.06,39.12,-5.85,0.68,1.25,-0.01,-0.91,-6.84
0,1,1,-51,-398,3908,0.06,-0.03,-6.55,-0.51,-3.98,39.08,-5.84,0.69,1.28,0.22,-0.36,-6.23
0,1,1,-56,-394,3914,0.05,-0.02,-5.89,-0.56,-3.94,39.14,-5.83,0.71,1.30,0.20,-0.33,-5.61
0,0,1,-51,-405,3919,0.05,-0.02,-5.29,-0.51,-4.05,39.19,-5.85,0.71,1.32,0.18,-0.07,-5.05
1,0,1,-54,-405,3914,0.05,-0.02,-4.76,-0.54,-4.05,39.14,-5.86,0.72,1.34,-0.07,-0.06,-4.55
0,0,1,-58,-400,3921,0.04,-0.01,-4.28,-0.58,-4.00,39.21,-5.86,0.74,1.36,0.16,-0.05,-4.10
0,-1,0,-52,-397,3925,0.04,-0.02,-3.85,-0.52,-3.97,39.25,-5.84,0.74,1.37,0.15,0.18,-3.61
-1,0,-1,-55,-404,3922,0.03,-0.02,-3.47,-0.55,-4.04,39.22,-5.85,0.76,1.38,0.36,-0.06,-3.17
0,0,0,-54,-410,3923,0.03,-0.02,-3.12,-0.54,-4.10,39.23,-5.87,0.76,1.40,0.10,-0.06,-2.93
0,0,-1,-55,-406,3921,0.02,-0.01,-2.82,-0.55,-4.06,39.21,-5.88,0.77,1.41,0.09,-0.05,-2.56
1,0,0,-56,-400,3925,0.03,-0.01,-2.53,-0.56,-4.00,39.25,-5.87,0.78,1.42,-0.15,-0.05,-2.38
0,0,0,-62,-404,3912,0.02,-0.01,-2.28,-0.62,-4.04,39.12,-5.87,0.80,1.43,0.09,-0.04,-2.14
0,0,0,-59,-402,3915,0.02,-0.01,-2.05,-0.59,-4.02,39.15,-5.87,0.81,1.44,0.08,-0.04,-1.93
0,0,-1,-61,-404,3912,0.02,-0.01,-1.85,-0.61,-4.04,39.12,-5.87,0.83,1.44,0.07,-0.03,-1.66
1,0,0,-61,-405,3915,0.02,-0.01,-1.67,-0.61,-4.05,39.15,-5.88,0.84,1.45,-0.16,-0.03,-1.57
0,0,-1,-58,-408,3913,0.02,-0.01,-1.51,-0.58,-4.08,39.13,-5.90,0.84,1.46,0.08,-0.03,-1.33
0,0,0,-52,-404,3918,0.02,-0.01,-1.36,-0.52,-4.04,39.18,-5.90,0.83,1.46,0.07,-0.03,-1.27
1,0,0,-52,-407,3917,0.02,-0.01,-1.22,-0.52,-4.07,39.17,-5.91,0.81,1.47,-0.17,-0.02,-1.15
1,0,0,-58,-409,3909,0.03,-0.01,-1.10,-0.58,-4.09,39.09,-5.92,0.82,1.47,-0.15,-0.02,-1.03
-1,1,0,-52,-404,3919,0.02,0.00,-0.99,-0.52,-4.04,39.19,-5.91,0.80,1.48,0.32,-0.25,-0.93
0,0,0,-60,-394,3918,0.02,0.00,-0.89,-0.60,-3.94,39.18,-5.90,0.81,1.48,0.06,0.00,-0.84
1,0,0,-54,-398,3915,0.02,0.00,-0.80,-0.54,-3.98,39.15,-5.88,0.80,1.48,-0.17,0.00,-0.75
0,0,0,-48,-393,3914,0.02,0.00,-0.72,-0.48,-3.93,39.14,-5.86,0.79,1.48,0.07,0.00,-0.68
1,1,0,-51,-404,3924,0.02,0.01,-0.65,-0.51,-4.04,39.24,-5.87,0.77,1.49,-0.17,-0.23,-0.61
0,1,0,-51,-404,3919,0.02,0.01,-0.58,-0.51,-4.04,39.19,-5.88,0.76,1.49,0.08,-0.21,-0.55
1,0,0,-52,-401,3927,0.02,0.01,-0.53,-0.52,-4.01,39.27,-5.86,0.76,1.49,-0.16,0.04,-0.49
0,-1,0,-51,-401,3925,0.02,0.00,-0.47,-0.51,-4.01,39.25,-5.84,0.75,1.49,0.08,0.27,-0.44
0,-1,-1,-53,-393,3922,0.02,-0.00,-0.43,-0.53,-3.93,39.22,-5.83,0.75,1.49,0.08,0.24,-0.32
1,0,0,-58,-393,3910,0.02,-0.00,-0.39,-0.58,-3.93,39.10,-5.81,0.76,1.50,-0.16,-0.01,-0.37
1,0,0,-50,-407,3921,0.03,-0.00,-0.35,-0.50,-4.07,39.21,-5.83,0.76,1.50,-0.15,-0.01,-0.33
0,1,0,-56,-401,3923,0.03,0.00,-0.31,-0.56,-4.01,39.23,-5.83,0.78,1.50,0.09,-0.24,-0.30
0,0,0,-42,-398,3922,0.02,0.00,-0.28,-0.42,-3.98,39.22,-5.83,0.76,1.50,0.09,0.01,-0.27
1,0,0,-46,-408,3925,0.03,0.00,-0.26,-0.46,-4.08,39.25,-5.84,0.75,1.50,-0.15,0.01,-0.24
1,0,1,-61,-406,3925,0.03,0.00,-0.22,-0.61,-4.06,39.25,-5.85,0.76,1.50,-0.14,0.01,-0.29
0,-1,0,-50,-400,3921,0.03,-0.00,-0.20,-0.50,-4.00,39.21,-5.84,0.75,1.50,0.10,0.24,-0.19
2,-1,-1,-55,-402,3926,0.04,-0.01,-0.19,-0.55,-4.02,39.26,-5.84,0.77,1.50,-0.37,0.22,-0.09
1,0,-1,-47,-405,3918,0.04,-0.01,-0.17,-0.47,-4.05,39.18,-5.85,0.75,1.50,-0.11,-0.03,-0.08
1,-1,-1,-49,-400,3921,0.04,-0.01,-0.16,-0.49,-4.00,39.21,-5.84,0.74,1.50,-0.10,0.20,-0.07
2,0,-1,-63,-401,3923,0.05,-0.01,-0.15,-0.63,-4.01,39.23,-5.84,0.75,1.51,-0.32,-0.05,-0.06
2,0,-1,-61,-401,3928,0.06,-0.01,-0.14,-0.61,-4.01,39.28,-5.84,0.77,1.51,-0.30,-0.04,-0.05
0,0,-1,-59,-395,3923,0.05,-0.01,-0.14,-0.59,-3.95,39.23,-5.83,0.78,1.51,0.19,-0.04,-0.04
0,-1,-1,-60,-398,3923,0.05,-0.01,-0.13,-0.60,-3.98,39.23,-5.82,0.80,1.51,0.17,0.20,-0.04
0,1,0,-64,-398,3926,0.04,-0.01,-0.12,-0.64,-3.98,39.26,-5.81,0.82,1.51,0.16,-0.28,-0.11
0,1,-1,-59,-396,3923,0.04,-0.00,-0.11,-0.59,-3.96,39.23,-5.80,0.83,1.51,0.14,-0.26,-0.02
-1,0,-1,-61,-392,3920,0.03,-0.00,-0.10,-0.61,-3.92,39.20,-5.78,0.84,1.51,0.36,-0.00,-0.01
1,-1,0,-51,-405,3922,0.03,-0.01,-0.09,-0.51,-4.05,39.22,-5.80,0.83,1.51,-0.14,0.23,-0.09
1,0,0,-44,-403,3914,0.03,-0.01,-0.08,-0.44,-4.03,39.14,-5.80,0.81,1.51,-0.13,-0.02,-0.08
1,-1,-1,-48,-412,3914,0.04,-0.01,-0.08,-0.48,-4.12,39.14,-5.82,0.80,1.51,-0.12,0.21,0.01
2,-1,-1,-50,-411,3919,0.04,-0.02,-0.08,-0.50,-4.11,39.19,-5.84,0.79,1.51,-0.34,0.19,0.01
3,-1,0,-54,-408,3919,0.06,-0.02,-0.07,-0.54,-4.08,39.19,-5.86,0.79,1.51,-0.54,0.18,-0.07
1,-1,-1,-57,-403,3919,0.06,-0.02,-0.07,-0.57,-4.03,39.19,-5.86,0.81,1.51,-0.03,0.16,0.02
2,-2,0,-65,-394,3912,0.07,-0.03,-0.06,-0.65,-3.94,39.12,-5.85,0.82,1.51,-0.26,0.38,-0.06
3,0,0,-68,-394,3926,0.08,-0.03,-0.06,-0.68,-3.94,39.26,-5.84,0.84,1.51,-0.47,-0.12,-0.05
1,0,0,-52,-394,3921,0.08,-0.03,-0.05,-0.52,-3.94,39.21,-5.83,0.83,1.51,0.03,-0.11,-0.05
1,-1,0,-60,-394,3920,0.07,-0.03,-0.05,-0.60,-3.94,39.20,-5.81,0.83,1.51,0.02,0.14,-0.04
1,0,0,-54,-404,3921,0.07,-0.03,-0.04,-0.54,-4.04,39.21,-5.82,0.82,1.51,0.02,-0.11,-0.04
1,0,0,-49,-408,3916,0.07,-0.03,-0.04,-0.49,-4.08,39.16,-5.84,0.81,1.51,0.02,-0.10,-0.04
1,-1,0,-52,-409,3919,0.07,-0.03,-0.03,-0.52,-4.09,39.19,-5.85,0.80,1.51,0.01,0.15,-0.03
1,0,0,-56,-406,3920,0.07,-0.03,-0.03,-0.56,-4.06,39.20,-5.87,0.81,1.51,0.01,-0.10,-0.03
1,0,0,-52,-391,3923,0.07,-0.02,-0.03,-0.52,-3.91,39.23,-5.85,0.80,1.51,0.00,-0.09,-0.03
2,0,-1,-56,-399,3929,0.07,-0.02,-0.03,-0.56,-3.99,39.29,-5.83,0.81,1.51,-0.23,-0.08,0.06
0,0,-1,-59,-397,3918,0.07,-0.02,-0.03,-0.59,-3.97,39.18,-5.82,0.82,1.51,0.25,-0.07,0.05
0,0,-1,-62,-396,3912,0.06,-0.02,-0.04,-0.62,-3.96,39.12,-5.81,0.84,1.51,0.23,-0.06,0.05
0,0,0,-56,-410,3920,0.05,-0.02,-0.03,-0.56,-4.10,39.20,-5.83,0.83,1.51,0.20,-0.06,-0.03
0,-1,0,-55,-409,3918,0.05,-0.02,-0.03,-0.55,-4.09,39.18,-5.85,0.83,1.51,0.18,0.18,-0.03
1,0,0,-59,-396,3906,0.05,-0.02,-0.03,-0.59,-3.96,39.06,-5.83,0.84,1.51,-0.07,-0.07,-0.03
1,0,0,-60,-408,3919,0.05,-0.02,-0.02,-0.60,-4.08,39.19,-5.85,0.84,1.51,-0.06,-0.06,-0.02
0,0,-1,-50,-407,3931,0.05,-0.01,-0.03,-0.50,-4.07,39.31,-5.86,0.83,1.51,0.17,-0.05,0.06
-1,0,-1,-58,-395,3914,0.04,-0.01,-0.03,-0.58,-3.95,39.14,-5.84,0.83,1.51,0.39,-0.05,0.06
1,0,0,-63,-402,3916,0.04,-0.01,-0.03,-0.63,-4.02,39.16,-5.84,0.85,1.51,-0.11,-0.04,-0.03
1,0,0,-56,-404,3914,0.04,-0.01,-0.03,-0.56,-4.04,39.14,-5.86,0.84,1.51,-0.10,-0.04,-0.02
1,0,0,-51,-398,3904,0.04,-0.01,-0.02,-0.51,-3.98,39.04,-5.85,0.82,1.51,-0.10,-0.04,-0.02
1,0,0,-52,-400,3917,0.04,-0.01,-0.02,-0.52,-4.00,39.17,-5.85,0.80,1.51,-0.09,-0.03,-0.02
0,0,0,-57,-413,3915,0.04,-0.01,-0.02,-0.57,-4.13,39.15,-5.86,0.81,1.51,0.15,-0.03,-0.02
0,0,0,-52,-405,3914,0.04,-0.01,-0.02,-0.52,-4.05,39.14,-5.88,0.79,1.51,0.13,-0.03,-0.02
0,0,0,-65,-405,3928,0.03,-0.01,-0.01,-0.65,-4.05,39.28,-5.88,0.81,1.51,0.12,-0.02,-0.01
1,0,-1,-64,-402,3920,0.03,-0.01,-0.02,-0.64,-4.02,39.20,-5.87,0.83,1.51,-0.12,-0.02,0.07
0,0,-1,-58,-404,3918,0.03,-0.01,-0.02,-0.58,-4.04,39.18,-5.89,0.84,1.51,0.12,-0.02,0.06
0,0,-1,-59,-400,3925,0.03,-0.00,-0.03,-0.59,-4.00,39.25,-5.87,0.85,1.51,0.11,-0.02,0.06
0,1,-1,-58,-404,3931,0.03,0.00,-0.03,-0.58,-4.04,39.31,-5.87,0.83,1.51,0.10,-0.25,0.06
0,0,-1,-54,-396,3920,0.02,0.00,-0.03,-0.54,-3.96,39.20,-5.85,0.82,1.51,0.09,0.01,0.05
0,0,-1,-54,-399,3917,0.02,0.00,-0.04,-0.54,-3.99,39.17,-5.84,0.81,1.51,0.08,0.01,0.05
1,0,0,-57,-399,3922,0.02,0.00,-0.03,-0.57,-3.99,39.22,-5.82,0.82,1.51,-0.16,0.01,-0.03
0,0,0,-65,-404,3923,0.02,0.00,-0.03,-0.65,-4.04,39.23,-5.83,0.83,1.51,0.08,0.00,-0.03
0,0,0,-61,-400,3927,0.02,0.00,-0.03,-0.61,-4.00,39.27,-5.83,0.85,1.51,0.08,0.00,-0.02
1,0,0,-54,-396,3910,0.02,0.00,-0.02,-0.54,-3.96,39.10,-5.82,0.84,1.51,-0.16,0.00,-0.02
1,0,0,-51,-403,3915,0.03,0.00,-0.02,-0.51,-4.03,39.15,-5.83,0.82,1.51,-0.15,0.00,-0.02
1,0,0,-55,-401,3916,0.03,0.00,-0.02,-0.55,-4.01,39.16,-5.84,0.81,1.51,-0.14,0.00,-0.02
1,0,0,-49,-397,3913,0.03,0.00,-0.02,-0.49,-3.97,39.13,-5.83,0.79,1.51,-0.13,0.00,-0.02
0,0,0,-55,-402,3915,0.03,0.00,-0.02,-0.55,-4.02,39.15,-5.85,0.80,1.51,0.12,0.00,-0.01
0,0,0,-53,-400,3915,0.03,0.00,-0.01,-0.53,-4.00,39.15,-5.84,0.78,1.51,0.10,0.00,-0.01
1,0,0,-55,-401,3915,0.03,0.00,-0.01,-0.55,-4.01,39.15,-5.85,0.80,1.51,-0.14,0.00,-0.01
0,-1,0,-57,-400,3916,0.03,-0.01,-0.01,-0.57,-4.00,39.16,-5.84,0.81,1.51,0.10,0.23,-0.01
0,0,0,-58,-402,3923,0.03,-0.01,-0.01,-0.58,-4.02,39.23,-5.85,0.83,1.51,0.09,-0.02,-0.01
0,-1,-1,-58,-402,3913,0.02,-0.01,-0.02,-0.58,-4.02,39.13,-5.86,0.84,1.51,0.09,0.21,0.07
0,0,0,-59,-409,3924,0.02,-0.01,-0.01,-0.59,-4.09,39.24,-5.88,0.84,1.52,0.08,-0.04,-0.01
-1,0,0,-51,-412,3918,0.01,-0.01,-0.01,-0.51,-4.12,39.18,-5.89,0.83,1.52,0.30,-0.03,-0.01
1,0,0,-56,-403,3928,0.02,-0.01,-0.01,-0.56,-4.03,39.28,-5.88,0.82,1.52,-0.19,-0.03,-0.01
1,0,0,-55,-399,3925,0.02,-0.01,-0.01,-0.55,-3.99,39.25,-5.86,0.82,1.52,-0.17,-0.03,-0.01
0,0,-1,-42,-391,3913,0.02,-0.01,-0.02,-0.42,-3.91,39.13,-5.85,0.80,1.52,0.07,-0.02,0.07
0,0,0,-50,-395,3915,0.02,-0.01,-0.01,-0.50,-3.95,39.15,-5.83,0.79,1.51,0.07,-0.02,-0.01
0,0,0,-52,-401,3918,0.02,-0.01,-0.01,-0.52,-4.01,39.18,-5.84,0.77,1.52,0.06,-0.02,-0.01
0,-1,0,-54,-397,3919,0.01,-0.01,-0.01,-0.54,-3.97,39.19,-5.82,0.78,1.51,0.05,0.21,-0.01
2,0,-1,-58,-399,3924,0.02,-0.01,-0.02,-0.58,-3.99,39.24,-5.82,0.79,1.51,-0.41,-0.04,0.07
1,1,-1,-54,-401,3917,0.03,-0.00,-0.02,-0.54,-4.01,39.17,-5.83,0.79,1.52,-0.15,-0.26,0.07
0,0,0,-45,-399,3921,0.03,-0.00,-0.02,-0.45,-3.99,39.21,-5.83,0.77,1.52,0.10,-0.01,-0.02
1,0,1,-55,-401,3923,0.03,-0.00,-0.01,-0.55,-4.01,39.23,-5.83,0.79,1.52,-0.14,-0.01,-0.09
2,0,0,-54,-409,3918,0.04,-0.00,-0.01,-0.54,-4.09,39.18,-5.85,0.79,1.52,-0.36,-0.01,-0.01
0,0,-1,-45,-409,3914,0.03,-0.00,-0.01,-0.45,-4.09,39.14,-5.86,0.77,1.52,0.13,-0.01,0.07
0,0,0,-52,-414,3921,0.03,-0.00,-0.01,-0.52,-4.14,39.21,-5.88,0.77,1.52,0.12,-0.01,-0.01
0,0,0,-58,-411,3915,0.03,-0.00,-0.01,-0.58,-4.11,39.15,-5.90,0.78,1.52,0.11,-0.01,-0.01
0,-1,-1,-56,-402,3923,0.03,-0.01,-0.02,-0.56,-4.02,39.23,-5.88,0.79,1.52,0.10,0.23,0.07
0,-1,-1,-61,-395,3919,0.02,-0.01,-0.02,-0.61,-3.95,39.19,-5.87,0.80,1.52,0.09,0.21,0.06
0,0,0,-51,-400,3921,0.02,-0.01,-0.02,-0.51,-4.00,39.21,-5.86,0.79,1.52,0.08,-0.04,-0.02
1,0,0,-50,-401,3918,0.02,-0.01,-0.02,-0.50,-4.01,39.18,-5.85,0.77,1.52,-0.16,-0.04,-0.02
0,-1,0,-46,-409,3919,0.02,-0.02,-0.02,-0.46,-4.09,39.19,-5.87,0.76,1.52,0.08,0.20,-0.01
1,-1,0,-53,-409,3925,0.03,-0.02,-0.01,-0.53,-4.09,39.25,-5.88,0.76,1.52,-0.16,0.18,-0.01
1,0,0,-58,-403,3922,0.03,-0.02,-0.01,-0.58,-4.03,39.22,-5.88,0.78,1.52,-0.14,-0.07,-0.01
1,-1,0,-58,-407,3918,0.03,-0.02,-0.01,-0.58,-4.07,39.18,-5.89,0.79,1.52,-0.13,0.17,-0.01
0,-1,-1,-57,-403,3913,0.03,-0.03,-0.02,-0.57,-4.03,39.13,-5.89,0.81,1.52,0.11,0.16,0.07
0,-1,0,-55,-404,3915,0.03,-0.03,-0.01,-0.55,-4.04,39.15,-5.90,0.79,1.52,0.10,0.14,-0.01
0,-1,0,-50,-397,3916,0.02,-0.03,-0.01,-0.50,-3.97,39.16,-5.88,0.78,1.52,0.09,0.13,-0.01
1,0,0,-53,-398,3913,0.03,-0.03,-0.01,-0.53,-3.98,39.13,-5.86,0.78,1.52,-0.15,-0.11,-0.01
2,0,0,-53,-410,3921,0.04,-0.03,-0.01,-0.53,-4.10,39.21,-5.88,0.78,1.52,-0.37,-0.10,-0.01
0,0,0,-50,-414,3926,0.03,-0.02,-0.01,-0.50,-4.14,39.26,-5.90,0.77,1.52,0.13,-0.09,-0.01
0,0,0,-48,-403,3915,0.03,-0.02,-0.01,-0.48,-4.03,39.15,-5.89,0.75,1.52,0.11,-0.08,-0.01
1,0,-1,-53,-407,3920,0.03,-0.02,-0.01,-0.53,-4.07,39.20,-5.91,0.76,1.52,-0.13,-0.07,0.07
1,0,0,-56,-396,3918,0.04,-0.02,-0.01,-0.56,-3.96,39.18,-5.89,0.77,1.52,-0.12,-0.07,-0.01
1,0,0,-61,-400,3920,0.04,-0.02,-0.01,-0.61,-4.00,39.20,-5.88,0.78,1.52,-0.11,-0.06,-0.01
-1,0,0,-58,-391,3923,0.03,-0.01,-0.01,-0.58,-3.91,39.23,-5.86,0.79,1.52,0.36,-0.05,-0.01
0,0,0,-66,-404,3924,0.03,-0.01,-0.01,-0.66,-4.04,39.24,-5.87,0.81,1.52,0.10,-0.05,-0.01
0,0,1,-59,-410,3937,0.02,-0.01,-0.00,-0.59,-4.10,39.37,-5.88,0.82,1.52,0.09,-0.04,-0.09
1,-1,0,-60,-408,3939,0.03,-0.02,-0.00,-0.60,-4.08,39.39,-5.89,0.83,1.52,-0.15,0.19,-0.00
0,0,0,-62,-413,3914,0.02,-0.01,-0.00,-0.62,-4.13,39.14,-5.91,0.84,1.52,0.09,-0.06,-0.00
0,0,0,-59,-412,3911,0.02,-0.01,-0.00,-0.59,-4.12,39.11,-5.93,0.84,1.52,0.08,-0.05,-0.00
0,-1,0,-62,-404,3914,0.02,-0.02,-0.00,-0.62,-4.04,39.14,-5.92,0.86,1.52,0.07,0.19,-0.00
0,0,0,-61,-405,3913,0.02,-0.02,-0.00,-0.61,-4.05,39.13,-5.91,0.88,1.52,0.07,-0.06,-0.00
1,0,0,-49,-406,3924,0.02,-0.01,-0.00,-0.49,-4.06,39.24,-5.91,0.86,1.52,-0.17,-0.06,-0.00
0,-1,0,-46,-406,3923,0.02,-0.02,-0.00,-0.46,-4.06,39.23,-5.91,0.84,1.52,0.07,0.18,-0.00
0,-1,0,-45,-397,3920,0.02,-0.02,-0.00,-0.45,-3.97,39.20,-5.90,0.83,1.52,0.07,0.17,-0.00
1,0,0,-53,-397,3919,0.02,-0.02,-0.00,-0.53,-3.97,39.19,-5.88,0.82,1.52,-0.17,-0.08,-0.00
0,0,0,-60,-400,3913,0.02,-0.02,-0.00,-0.60,-4.00,39.13,-5.87,0.83,1.52,0.07,-0.07,-0.00
1,0,0,-65,-400,3918,0.02,-0.02,-0.00,-0.65,-4.00,39.18,-5.87,0.85,1.52,-0.16,-0.06,-0.00
1,0,1,-66,-405,3918,0.03,-0.02,0.01,-0.66,-4.05,39.18,-5.87,0.87,1.52,-0.15,-0.06,-0.08
0,0,0,-65,-403,3916,0.02,-0.01,0.00,-0.65,-4.03,39.16,-5.87,0.88,1.52,0.09,-0.05,0.00
1,0,0,-60,-391,3917,0.03,-0.01,0.00,-0.60,-3.91,39.17,-5.85,0.88,1.52,-0.15,-0.05,0.00
1,0,0,-61,-395,3915,0.03,-0.01,0.00,-0.61,-3.95,39.15,-5.84,0.88,1.52,-0.13,-0.04,0.00
1,0,0,-59,-407,3933,0.03,-0.01,0.00,-0.59,-4.07,39.33,-5.85,0.88,1.52,-0.12,-0.04,0.00
0,-1,0,-52,-403,3917,0.03,-0.02,0.00,-0.52,-4.03,39.17,-5.86,0.86,1.52,0.12,0.20,0.00
0,-1,0,-52,-405,3924,0.03,-0.02,0.00,-0.52,-4.05,39.24,-5.86,0.84,1.52,0.11,0.18,0.00
0,-1,0,-53,-403,3923,0.03,-0.02,0.00,-0.53,-4.03,39.23,-5.86,0.82,1.52,0.10,0.16,0.00
1,0,-1,-51,-400,3923,0.03,-0.02,-0.00,-0.51,-4.00,39.23,-5.85,0.81,1.52,-0.15,-0.08,0.08
0,0,-1,-44,-401,3924,0.03,-0.02,-0.01,-0.44,-4.01,39.24,-5.85,0.79,1.52,0.10,-0.07,0.08
0,0,-1,-52,-396,3925,0.02,-0.02,-0.01,-0.52,-3.96,39.25,-5.83,0.78,1.52,0.09,-0.07,0.07
0,0,-1,-56,-396,3920,0.02,-0.02,-0.02,-0.56,-3.96,39.20,-5.82,0.79,1.52,0.08,-0.06,0.07
0,0,-1,-53,-405,3916,0.02,-0.01,-0.02,-0.53,-4.05,39.16,-5.84,0.79,1.52,0.07,-0.05,0.06
0,0,-1,-53,-401,3911,0.02,-0.01,-0.03,-0.53,-4.01,39.11,-5.85,0.78,1.52,0.06,-0.05,0.06
1,-1,0,-63,-408,3914,0.02,-0.02,-0.02,-0.63,-4.08,39.14,-5.86,0.79,1.52,-0.17,0.19,-0.02
1,-1,0,-57,-405,3919,0.03,-0.02,-0.02,-0.57,-4.05,39.19,-5.87,0.80,1.52,-0.16,0.17,-0.02
0,0,0,-53,-396,3921,0.02,-0.02,-0.02,-0.53,-3.96,39.21,-5.86,0.80,1.52,0.09,-0.07,-0.02
0,-1,0,-53,-398,3920,0.02,-0.02,-0.02,-0.53,-3.98,39.20,-5.84,0.79,1.52,0.08,0.16,-0.02
0,0,0,-55,-401,3916,0.02,-0.02,-0.02,-0.55,-4.01,39.16,-5.85,0.80,1.52,0.07,-0.08,-0.02
0,0,0,-52,-395,3918,0.02,-0.02,-0.01,-0.52,-3.95,39.18,-5.83,0.80,1.52,0.06,-0.07,-0.01
1,0,0,-60,-398,3925,0.02,-0.02,-0.01,-0.60,-3.98,39.25,-5.82,0.81,1.52,-0.17,-0.07,-0.01
1,0,-1,-62,-400,3922,0.03,-0.02,-0.02,-0.62,-4.00,39.22,-5.82,0.83,1.52,-0.16,-0.06,0.07
1,0,0,-55,-399,3921,0.03,-0.01,-0.02,-0.55,-3.99,39.21,-5.82,0.81,1.52,-0.15,-0.05,-0.02
0,0,0,-52,-403,3924,0.03,-0.01,-0.01,-0.52,-4.03,39.24,-5.83,0.80,1.52,0.10,-0.05,-0.01
0,0,0,-55,-397,3916,0.02,-0.01,-0.01,-0.55,-3.97,39.16,-5.81,0.80,1.52,0.09,-0.04,-0.01
0,0,0,-62,-393,3913,0.02,-0.01,-0.01,-0.62,-3.93,39.13,-5.80,0.81,1.52,0.08,-0.04,-0.01
0,0,-1,-65,-399,3927,0.02,-0.01,-0.02,-0.65,-3.99,39.27,-5.80,0.83,1.52,0.07,-0.03,0.07
0,0,0,-55,-401,3924,0.02,-0.01,-0.01,-0.55,-4.01,39.24,-5.81,0.82,1.52,0.06,-0.03,-0.01
0,0,0,-57,-393,3911,0.02,-0.01,-0.01,-0.57,-3.93,39.11,-5.79,0.82,1.52,0.06,-0.03,-0.01
0,-1,1,-57,-404,3912,0.01,-0.01,-0.01,-0.57,-4.04,39.12,-5.81,0.82,1.52,0.05,0.21,-0.09
1,0,-1,-47,-406,3911,0.02,-0.01,-0.01,-0.47,-4.06,39.11,-5.82,0.81,1.52,-0.18,-0.04,0.07
1,0,-1,-45,-404,3913,0.02,-0.01,-0.02,-0.45,-4.04,39.13,-5.83,0.79,1.52,-0.17,-0.04,0.07
1,0,0,-64,-406,3916,0.03,-0.01,-0.01,-0.64,-4.06,39.16,-5.84,0.81,1.52,-0.15,-0.04,-0.01
1,0,0,-65,-404,3917,0.03,-0.01,-0.01,-0.65,-4.04,39.17,-5.85,0.83,1.52,-0.14,-0.03,-0.01
0,-1,1,-57,-394,3922,0.03,-0.01,-0.01,-0.57,-3.94,39.22,-5.83,0.83,1.52,0.10,0.20,-0.09
0,-1,1,-63,-391,3915,0.02,-0.02,0.00,-0.63,-3.91,39.15,-5.81,0.84,1.52,0.09,0.18,-0.08
0,-1,0,-59,-396,3924,0.02,-0.02,0.00,-0.59,-3.96,39.24,-5.80,0.84,1.52,0.08,0.17,0.00
0,-1,-1,-55,-394,3922,0.02,-0.03,-0.01,-0.55,-3.94,39.22,-5.78,0.83,1.52,0.07,0.15,0.08
1,0,0,-52,-396,3917,0.02,-0.02,-0.00,-0.52,-3.96,39.17,-5.78,0.81,1.52,-0.16,-0.09,-0.00
0,0,1,-56,-404,3921,0.02,-0.02,0.00,-0.56,-4.04,39.21,-5.80,0.81,1.52,0.08,-0.08,-0.08
0,-1,1,-54,-399,3926,0.02,-0.03,0.01,-0.54,-3.99,39.26,-5.80,0.80,1.52,0.07,0.16,-0.08
0,-1,0,-54,-400,3921,0.02,-0.03,0.01,-0.54,-4.00,39.21,-5.82,0.79,1.52,0.07,0.15,0.01
0,0,0,-49,-398,3909,0.02,-0.03,0.01,-0.49,-3.98,39.09,-5.82,0.77,1.52,0.06,-0.10,0.01
0,0,0,-53,-402,3907,0.01,-0.02,0.01,-0.53,-4.02,39.07,-5.83,0.77,1.52,0.05,-0.09,0.01
0,0,0,-51,-395,3921,0.01,-0.02,0.00,-0.51,-3.95,39.21,-5.82,0.76,1.52,0.05,-0.08,0.00
1,0,0,-53,-396,3917,0.02,-0.02,0.00,-0.53,-3.96,39.17,-5.80,0.77,1.52,-0.19,-0.07,0.00
0,0,-1,-55,-399,3929,0.02,-0.02,-0.00,-0.55,-3.99,39.29,-5.80,0.79,1.52,0.06,-0.06,0.08
0,0,-1,-54,-404,3928,0.01,-0.02,-0.01,-0.54,-4.04,39.28,-5.82,0.78,1.52,0.05,-0.06,0.08
0,0,-1,-61,-400,3929,0.01,-0.01,-0.01,-0.61,-4.00,39.29,-5.82,0.80,1.52,0.05,-0.05,0.07
0,1,0,-55,-396,3927,0.01,-0.01,-0.01,-0.55,-3.96,39.27,-5.80,0.80,1.52,0.04,-0.28,-0.01
0,0,0,-46,-395,3912,0.01,-0.01,-0.01,-0.46,-3.95,39.12,-5.79,0.78,1.52,0.04,-0.02,-0.01
0,-1,0,-53,-390,3910,0.01,-0.01,-0.01,-0.53,-3.90,39.10,-5.78,0.78,1.52,0.03,0.21,-0.01
0,0,-1,-53,-402,3919,0.01,-0.01,-0.01,-0.53,-4.02,39.19,-5.79,0.78,1.52,0.03,-0.04,0.07
0,0,-1,-51,-403,3913,0.01,-0.01,-0.02,-0.51,-4.03,39.13,-5.81,0.77,1.52,0.03,-0.03,0.07
0,-1,0,-54,-400,3914,0.01,-0.01,-0.02,-0.54,-4.00,39.14,-5.83,0.78,1.52,0.03,0.20,-0.02
0,-1,-1,-54,-404,3913,0.01,-0.02,-0.02,-0.54,-4.04,39.13,-5.84,0.78,1.52,0.02,0.18,0.06
1,-1,0,-55,-407,3919,0.01,-0.02,-0.02,-0.55,-4.07,39.19,-5.86,0.79,1.52,-0.21,0.17,-0.02
1,0,0,-60,-396,3912,0.02,-0.02,-0.02,-0.60,-3.96,39.12,-5.85,0.80,1.52,-0.19,-0.08,-0.02
0,0,0,-58,-407,3917,0.01,-0.02,-0.02,-0.58,-4.07,39.17,-5.87,0.81,1.52,0.06,-0.07,-0.01
-1,-1,0,-52,-405,3917,0.01,-0.02,-0.01,-0.52,-4.05,39.17,-5.88,0.79,1.52,0.28,0.17,-0.01
0,-1,0,-52,-396,3915,0.01,-0.03,-0.01,-0.52,-3.96,39.15,-5.86,0.79,1.52,0.02,0.15,-0.01
1,0,0,-58,-402,3918,0.01,-0.02,-0.01,-0.58,-4.02,39.18,-5.86,0.80,1.52,-0.21,-0.09,-0.01
0,0,0,-61,-396,3919,0.01,-0.02,-0.01,-0.61,-3.96,39.19,-5.85,0.82,1.52,0.04,-0.08,-0.01
0,-1,0,-61,-403,3920,0.01,-0.03,-0.01,-0.61,-4.03,39.20,-5.85,0.83,1.52,0.04,0.16,-0.01
0,-1,0,-47,-400,3912,0.01,-0.03,-0.01,-0.47,-4.00,39.12,-5.85,0.82,1.52,0.03,0.14,-0.01
0,-1,0,-53,-403,3923,0.01,-0.03,-0.01,-0.53,-4.03,39.23,-5.86,0.80,1.52,0.03,0.13,-0.01
0,0,1,-48,-407,3916,0.01,-0.03,-0.00,-0.48,-4.07,39.16,-5.87,0.78,1.52,0.03,-0.11,-0.09
0,0,0,-54,-402,3915,0.01,-0.03,-0.00,-0.54,-4.02,39.15,-5.85,0.79,1.52,0.02,-0.10,-0.00
1,-1,0,-59,-395,3918,0.01,-0.03,-0.00,-0.59,-3.95,39.18,-5.84,0.80,1.52,-0.21,0.14,-0.00
0,-1,0,-52,-399,3911,0.01,-0.03,-0.00,-0.52,-3.99,39.11,-5.83,0.78,1.52,0.04,0.13,-0.00
0,-1,-1,-40,-408,3911,0.01,-0.04,-0.01,-0.40,-4.08,39.11,-5.84,0.77,1.52,0.04,0.12,0.08
1,0,-1,-44,-410,3916,0.01,-0.03,-0.01,-0.44,-4.10,39.16,-5.85,0.76,1.52,-0.20,-0.12,0.07
0,0,-1,-58,-403,3914,0.01,-0.03,-0.02,-0.58,-4.03,39.14,-5.86,0.77,1.52,0.05,-0.11,0.07
0,0,-1,-58,-402,3918,0.01,-0.03,-0.02,-0.58,-4.02,39.18,-5.86,0.79,1.52,0.04,-0.10,0.06
0,1,-1,-59,-400,3920,0.01,-0.02,-0.03,-0.59,-4.00,39.20,-5.85,0.81,1.52,0.04,-0.32,0.06
0,1,0,-53,-400,3926,0.01,-0.01,-0.02,-0.53,-4.00,39.26,-5.84,0.79,1.52,0.04,-0.29,-0.02
0,-1,1,-45,-402,3919,0.01,-0.01,-0.01,-0.45,-4.02,39.19,-5.84,0.78,1.52,0.03,0.20,-0.10
0,0,0,-51,-395,3923,0.01,-0.01,-0.01,-0.51,-3.95,39.23,-5.82,0.77,1.52,0.03,-0.05,-0.01
0,-1,0,-57,-397,3916,0.01,-0.02,-0.01,-0.57,-3.97,39.16,-5.81,0.79,1.52,0.03,0.19,-0.01
0,0,0,-54,-408,3913,0.01,-0.02,-0.01,-0.54,-4.08,39.13,-5.83,0.79,1.52,0.02,-0.06,-0.01
1,0,1,-54,-401,3923,0.01,-0.01,-0.00,-0.54,-4.01,39.23,-5.85,0.78,1.52,-0.21,-0.05,-0.09
1,0,0,-53,-410,3924,0.02,-0.01,-0.00,-0.53,-4.10,39.24,-5.87,0.78,1.52,-0.19,-0.05,-0.00
0,0,0,-52,-394,3931,0.02,-0.01,-0.00,-0.52,-3.94,39.31,-5.85,0.78,1.52,0.06,-0.04,-0.00
0,0,0,-52,-397,3943,0.01,-0.01,-0.00,-0.52,-3.97,39.43,-5.83,0.77,1.52,0.05,-0.04,-0.00
0,0,0,-51,-405,3939,0.01,-0.01,-0.00,-0.51,-4.05,39.39,-5.85,0.76,1.52,0.05,-0.04,-0.00
0,0,0,-62,-399,3912,0.01,-0.01,-0.00,-0.62,-3.99,39.12,-5.84,0.78,1.52,0.04,-0.03,-0.00
1,1,1,-62,-399,3924,0.02,-0.00,0.00,-0.62,-3.99,39.24,-5.84,0.80,1.52,-0.19,-0.26,-0.08
0,1,-1,-58,-404,3926,0.01,0.00,-0.00,-0.58,-4.04,39.26,-5.85,0.81,1.52,0.05,-0.24,0.08
1,1,0,-50,-408,3929,0.02,0.01,-0.00,-0.50,-4.08,39.29,-5.86,0.80,1.52,-0.18,-0.22,-0.00
1,0,-1,-50,-409,3917,0.02,0.01,-0.01,-0.50,-4.09,39.17,-5.88,0.79,1.52,-0.17,0.03,0.08
1,-1,-1,-55,-407,3912,0.03,0.00,-0.01,-0.55,-4.07,39.12,-5.89,0.79,1.52,-0.15,0.26,0.07
0,-1,-1,-57,-397,3913,0.02,-0.00,-0.02,-0.57,-3.97,39.13,-5.88,0.80,1.52,0.09,0.24,0.07
1,-1,0,-46,-403,3922,0.03,-0.01,-0.02,-0.46,-4.03,39.22,-5.88,0.78,1.52,-0.15,0.22,-0.02
1,-1,0,-46,-403,3925,0.03,-0.01,-0.01,-0.46,-4.03,39.25,-5.87,0.76,1.52,-0.14,0.20,-0.01
1,0,-1,-52,-398,3918,0.03,-0.01,-0.02,-0.52,-3.98,39.18,-5.86,0.76,1.52,-0.13,-0.05,0.07
1,0,0,-59,-396,3917,0.04,-0.01,-0.02,-0.59,-3.96,39.17,-5.84,0.77,1.52,-0.12,-0.05,-0.02
0,-1,1,-52,-408,3926,0.03,-0.02,-0.01,-0.52,-4.08,39.26,-5.86,0.77,1.52,0.13,0.19,-0.09
2,0,1,-51,-400,3937,0.04,-0.02,-0.00,-0.51,-4.00,39.37,-5.84,0.76,1.52,-0.35,-0.06,-0.09
1,0,-1,-47,-398,3910,0.04,-0.01,-0.01,-0.47,-3.98,39.10,-5.84,0.74,1.52,-0.09,-0.05,0.08
1,-1,-1,-51,-399,3915,0.05,-0.02,-0.01,-0.51,-3.99,39.15,-5.82,0.74,1.52,-0.08,0.18,0.07
1,0,-1,-58,-409,3921,0.05,-0.02,-0.02,-0.58,-4.09,39.21,-5.83,0.75,1.52,-0.08,-0.06,0.07
0,0,-1,-46,-399,3921,0.04,-0.01,-0.02,-0.46,-3.99,39.21,-5.83,0.74,1.52,0.16,-0.06,0.06
1,0,0,-46,-396,3914,0.04,-0.01,-0.02,-0.46,-3.96,39.14,-5.82,0.72,1.52,-0.09,-0.05,-0.02
2,1,0,-60,-406,3915,0.05,-0.01,-0.02,-0.60,-4.06,39.15,-5.83,0.74,1.52,-0.31,-0.28,-0.02
0,1,0,-53,-418,3929,0.05,0.00,-0.02,-0.53,-4.18,39.29,-5.84,0.74,1.52,0.18,-0.25,-0.02
0,-1,0,-46,-397,3907,0.04,-0.01,-0.01,-0.46,-3.97,39.07,-5.83,0.72,1.52,0.16,0.23,-0.01
1,-1,-1,-59,-399,3929,0.04,-0.01,-0.02,-0.59,-3.99,39.29,-5.83,0.74,1.52,-0.09,0.21,0.07
0,0,0,-46,-402,3925,0.04,-0.01,-0.02,-0.46,-4.02,39.25,-5.83,0.72,1.52,0.15,-0.04,-0.02
-1,0,0,-46,-386,3927,0.03,-0.01,-0.02,-0.46,-3.86,39.27,-5.82,0.72,1.52,0.37,-0.03,-0.01
1,0,0,-55,-397,3928,0.03,-0.01,-0.01,-0.55,-3.97,39.28,-5.81,0.73,1.52,-0.13,-0.03,-0.01
0,1,-1,-55,-408,3933,0.03,-0.00,-0.02,-0.55,-4.08,39.33,-5.82,0.74,1.52,0.11,-0.26,0.07
-1,0,-1,-41,-396,3915,0.02,-0.00,-0.02,-0.41,-3.96,39.15,-5.82,0.73,1.52,0.33,-0.00,0.06
0,0,-1,-54,-395,3920,0.02,-0.00,-0.03,-0.54,-3.95,39.20,-5.80,0.74,1.52,0.07,-0.00,0.06
1,0,0,-59,-405,3917,0.02,-0.00,-0.02,-0.59,-4.05,39.17,-5.82,0.75,1.52,-0.17,-0.00,-0.02
0,0,0,-52,-405,3911,0.02,-0.00,-0.02,-0.52,-4.05,39.11,-5.83,0.75,1.52,0.08,-0.00,-0.02
-1,-1,-1,-43,-402,3908,0.01,-0.01,-0.03,-0.43,-4.02,39.08,-5.84,0.74,1.52,0.30,0.23,0.06
0,0,0,-54,-396,3909,0.01,-0.01,-0.02,-0.54,-3.96,39.09,-5.83,0.75,1.52,0.04,-0.02,-0.02
-1,0,-1,-49,-409,3909,0.00,-0.01,-0.03,-0.49,-4.09,39.09,-5.84,0.74,1.52,0.27,-0.02,0.06
-1,0,0,-57,-405,3908,-0.00,-0.00,-0.02,-0.57,-4.05,39.08,-5.86,0.76,1.52,0.24,-0.02,-0.02
0,-1,0,-63,-402,3922,-0.00,-0.01,-0.02,-0.63,-4.02,39.22,-5.85,0.78,1.52,-0.01,0.21,-0.02
1,0,0,-57,-404,3921,0.00,-0.01,-0.02,-0.57,-4.04,39.21,-5.86,0.79,1.52,-0.24,-0.04,-0.02
1,0,0,-48,-406,3927,0.01,-0.01,-0.02,-0.48,-4.06,39.27,-5.87,0.78,1.52,-0.22,-0.03,-0.02
-1,0,0,-47,-399,3928,0.00,-0.01,-0.02,-0.47,-3.99,39.28,-5.86,0.76,1.52,0.26,-0.03,-0.01
1,0,0,-55,-399,3928,0.01,-0.01,-0.01,-0.55,-3.99,39.28,-5.84,0.77,1.52,-0.22,-0.03,-0.01
0,0,0,-54,-404,3925,0.01,-0.01,-0.01,-0.54,-4.04,39.25,-5.86,0.78,1.52,0.03,-0.02,-0.01
-1,0,0,-50,-406,3919,0.00,-0.01,-0.01,-0.50,-4.06,39.19,-5.87,0.76,1.52,0.26,-0.02,-0.01
-1,0,-1,-53,-405,3914,-0.01,-0.01,-0.02,-0.53,-4.05,39.14,-5.89,0.77,1.52,0.23,-0.02,0.07
1,0,-1,-54,-408,3917,0.00,-0.00,-0.02,-0.54,-4.08,39.17,-5.91,0.77,1.52,-0.25,-0.02,0.07
0,-1,0,-51,-405,3927,0.00,-0.01,-0.02,-0.51,-4.05,39.27,-5.90,0.76,1.52,0.00,0.22,-0.02
0,0,0,-54,-396,3926,0.00,-0.01,-0.02,-0.54,-3.96,39.26,-5.88,0.76,1.52,0.00,-0.03,-0.02
0,0,-1,-58,-402,3915,0.00,-0.01,-0.02,-0.58,-4.02,39.15,-5.88,0.78,1.52,0.00,-0.03,0.06
1,0,-1,-59,-401,3926,0.01,-0.01,-0.03,-0.59,-4.01,39.26,-5.87,0.80,1.52,-0.23,-0.03,0.06
0,0,-1,-46,-396,3924,0.01,-0.01,-0.03,-0.46,-3.96,39.24,-5.86,0.78,1.52,0.02,-0.03,0.06
0,-1,0,-47,-397,3916,0.01,-0.01,-0.03,-0.47,-3.97,39.16,-5.85,0.77,1.52,0.02,0.21,-0.02
0,0,-1,-52,-391,3922,0.01,-0.01,-0.03,-0.52,-3.91,39.22,-5.83,0.76,1.52,0.02,-0.04,0.06
1,0,0,-56,-392,3918,0.01,-0.01,-0.03,-0.56,-3.92,39.18,-5.81,0.77,1.52,-0.21,-0.04,-0.02
1,0,0,-49,-395,3920,0.02,-0.01,-0.02,-0.49,-3.95,39.20,-5.80,0.76,1.52,-0.20,-0.03,-0.02
1,0,0,-57,-400,3920,0.02,-0.01,-0.02,-0.57,-4.00,39.20,-5.81,0.78,1.52,-0.18,-0.03,-0.02
0,-1,0,-50,-401,3921,0.02,-0.01,-0.02,-0.50,-4.01,39.21,-5.82,0.76,1.52,0.07,0.20,-0.02
0,-1,0,-47,-405,3925,0.02,-0.02,-0.02,-0.47,-4.05,39.25,-5.83,0.75,1.52,0.06,0.19,-0.02
0,1,0,-52,-401,3915,0.01,-0.01,-0.02,-0.52,-4.01,39.15,-5.84,0.76,1.52,0.06,-0.29,-0.01
1,1,0,-55,-404,3918,0.02,-0.00,-0.01,-0.55,-4.04,39.18,-5.86,0.77,1.52,-0.18,-0.27,-0.01
-1,0,0,-53,-408,3922,0.01,-0.00,-0.01,-0.53,-4.08,39.22,-5.88,0.77,1.52,0.30,-0.01,-0.01
0,0,0,-53,-404,3922,0.01,-0.00,-0.01,-0.53,-4.04,39.22,-5.89,0.77,1.52,0.04,-0.01,-0.01
1,0,-1,-66,-400,3921,0.02,-0.00,-0.02,-0.66,-4.00,39.21,-5.89,0.79,1.52,-0.20,-0.01,0.07
0,0,-1,-59,-400,3919,0.01,-0.00,-0.02,-0.59,-4.00,39.19,-5.87,0.80,1.52,0.05,-0.01,0.07
0,0,0,-60,-398,3926,0.01,-0.00,-0.02,-0.60,-3.98,39.26,-5.86,0.82,1.52,0.05,-0.01,-0.02
2,0,0,-61,-403,3918,0.02,-0.00,-0.02,-0.61,-4.03,39.18,-5.86,0.83,1.52,-0.42,-0.01,-0.02
0,0,0,-50,-403,3927,0.02,-0.00,-0.02,-0.50,-4.03,39.27,-5.86,0.81,1.52,0.08,-0.01,-0.01
0,-1,0,-55,-400,3926,0.02,-0.01,-0.01,-0.55,-4.00,39.26,-5.85,0.81,1.52,0.07,0.23,-0.01
1,0,0,-57,-398,3918,0.02,-0.01,-0.01,-0.57,-3.98,39.18,-5.83,0.82,1.52,-0.17,-0.03,-0.01
1,0,0,-58,-397,3928,0.03,-0.01,-0.01,-0.58,-3.97,39.28,-5.81,0.82,1.52,-0.15,-0.02,-0.01
0,0,0,-53,-398,3925,0.02,-0.01,-0.01,-0.53,-3.98,39.25,-5.80,0.81,1.52,0.09,-0.02,-0.01
0,0,1,-57,-405,3923,0.02,-0.00,-0.00,-0.57,-4.05,39.23,-5.82,0.81,1.52,0.08,-0.02,-0.09
1,0,-1,-53,-402,3918,0.03,-0.00,-0.01,-0.53,-4.02,39.18,-5.83,0.80,1.52,-0.16,-0.02,0.08
0,0,0,-51,-393,3911,0.02,-0.00,-0.01,-0.51,-3.93,39.11,-5.82,0.79,1.52,0.09,-0.01,-0.01
1,0,0,-61,-404,3913,0.03,-0.00,-0.01,-0.61,-4.04,39.13,-5.83,0.80,1.52,-0.15,-0.01,-0.01
1,0,0,-63,-403,3925,0.03,-0.00,-0.01,-0.63,-4.03,39.25,-5.83,0.82,1.52,-0.14,-0.01,-0.01
0,0,0,-50,-400,3913,0.03,-0.00,-0.01,-0.50,-4.00,39.13,-5.83,0.80,1.52,0.10,-0.01,-0.01
0,0,0,-53,-398,3916,0.02,-0.00,-0.01,-0.53,-3.98,39.16,-5.82,0.79,1.52,0.09,-0.01,-0.00
0,0,0,-50,-402,3909,0.02,-0.00,-0.00,-0.50,-4.02,39.09,-5.83,0.78,1.52,0.08,-0.01,-0.00
1,0,0,-53,-396,3919,0.03,-0.00,-0.00,-0.53,-3.96,39.19,-5.81,0.77,1.52,-0.16,-0.01,-0.00
2,0,0,-47,-397,3917,0.04,-0.00,-0.00,-0.47,-3.97,39.17,-5.81,0.76,1.52,-0.37,-0.01,-0.00
1,0,0,-49,-400,3911,0.04,-0.00,-0.00,-0.49,-4.00,39.11,-5.82,0.74,1.52,-0.11,-0.01,-0.00
1,1,0,-51,-394,3908,0.04,0.00,-0.00,-0.51,-3.94,39.08,-5.80,0.74,1.52,-0.10,-0.24,-0.00
0,0,0,-52,-402,3904,0.04,0.00,-0.00,-0.52,-4.02,39.04,-5.82,0.75,1.52,0.14,0.02,-0.00
0,-1,0,-56,-403,3908,0.03,-0.00,-0.00,-0.56,-4.03,39.08,-5.83,0.76,1.52,0.12,0.25,-0.00
0,0,0,-56,-397,3922,0.03,-0.00,-0.00,-0.56,-3.97,39.22,-5.82,0.77,1.52,0.11,-0.01,-0.00
0,0,1,-52,-402,3917,0.03,-0.00,0.00,-0.52,-4.02,39.17,-5.84,0.77,1.52,0.10,-0.01,-0.08
0,0,1,-59,-399,3910,0.02,-0.00,0.01,-0.59,-3.99,39.10,-5.83,0.78,1.52,0.09,-0.01,-0.08
1,0,0,-55,-409,3917,0.03,-0.00,0.01,-0.55,-4.09,39.17,-5.85,0.79,1.52,-0.15,-0.01,0.01
0,0,0,-54,-416,3910,0.02,-0.00,0.01,-0.54,-4.16,39.10,-5.87,0.79,1.52,0.09,-0.01,0.01
0,0,0,-50,-401,3926,0.02,-0.00,0.01,-0.50,-4.01,39.26,-5.86,0.77,1.52,0.08,-0.00,0.01
0,1,-1,-57,-405,3921,0.02,0.00,0.00,-0.57,-4.05,39.21,-5.87,0.79,1.52,0.08,-0.24,0.09
0,0,0,-57,-408,3927,0.02,0.00,0.00,-0.57,-4.08,39.27,-5.89,0.80,1.52,0.07,0.02,0.00
0,0,0,-52,-405,3923,0.02,0.00,0.00,-0.52,-4.05,39.23,-5.89,0.78,1.52,0.06,0.02,0.00
0,0,1,-61,-398,3923,0.01,0.00,0.01,-0.61,-3.98,39.23,-5.88,0.79,1.52,0.06,0.01,-0.08
0,0,1,-57,-401,3914,0.01,0.00,0.01,-0.57,-4.01,39.14,-5.87,0.81,1.52,0.05,0.01,-0.07
1,0,0,-63,-393,3924,0.02,0.00,0.01,-0.63,-3.93,39.24,-5.85,0.82,1.52,-0.19,0.01,0.01
1,-1,1,-61,-401,3915,0.02,-0.00,0.02,-0.61,-4.01,39.15,-5.85,0.84,1.52,-0.17,0.24,-0.07
0,0,0,-46,-401,3906,0.02,-0.00,0.01,-0.46,-4.01,39.06,-5.85,0.82,1.52,0.08,-0.01,0.01
0,0,0,-45,-399,3905,0.02,-0.00,0.01,-0.45,-3.99,39.05,-5.85,0.80,1.52,0.07,-0.01,0.01
1,-1,0,-57,-399,3913,0.02,-0.01,0.01,-0.57,-3.99,39.13,-5.84,0.81,1.52,-0.17,0.22,0.01
1,-1,-1,-60,-394,3917,0.03,-0.01,0.00,-0.60,-3.94,39.17,-5.82,0.82,1.52,-0.16,0.20,0.09
0,-1,0,-57,-398,3922,0.02,-0.02,0.00,-0.57,-3.98,39.22,-5.80,0.83,1.52,0.09,0.18,0.00
0,0,0,-56,-404,3920,0.02,-0.02,0.00,-0.56,-4.04,39.20,-5.82,0.82,1.52,0.08,-0.06,0.00
1,0,0,-58,-400,3917,0.03,-0.02,0.00,-0.58,-4.00,39.17,-5.83,0.84,1.52,-0.16,-0.06,0.00
0,1,0,-61,-404,3914,0.02,-0.01,0.00,-0.61,-4.04,39.14,-5.84,0.85,1.52,0.09,-0.28,0.00
1,0,0,-51,-404,3916,0.03,-0.01,0.00,-0.51,-4.04,39.16,-5.85,0.83,1.52,-0.15,-0.03,0.00
1,0,-1,-47,-398,3912,0.03,-0.01,-0.00,-0.47,-3.98,39.12,-5.85,0.82,1.52,-0.14,-0.02,0.08
1,0,0,-59,-400,3932,0.03,-0.01,-0.00,-0.59,-4.00,39.32,-5.83,0.83,1.52,-0.13,-0.02,-0.00
0,0,0,-58,-397,3923,0.03,-0.00,-0.00,-0.58,-3.97,39.23,-5.82,0.83,1.52,0.11,-0.02,-0.00
0,0,-1,-56,-401,3921,0.03,-0.00,-0.01,-0.56,-4.01,39.21,-5.83,0.82,1.52,0.10,-0.02,0.08
0,0,-1,-57,-398,3919,0.02,-0.00,-0.01,-0.57,-3.98,39.19,-5.81,0.83,1.52,0.09,-0.01,0.07
0,0,-1,-56,-401,3931,0.02,-0.00,-0.02,-0.56,-4.01,39.31,-5.82,0.81,1.52,0.08,-0.01,0.07
0,0,-1,-54,-400,3928,0.02,-0.00,-0.02,-0.54,-4.00,39.28,-5.82,0.80,1.52,0.07,-0.01,0.06
0,-1,0,-60,-396,3915,0.02,-0.01,-0.02,-0.60,-3.96,39.15,-5.81,0.81,1.52,0.07,0.22,-0.02
1,-1,0,-54,-395,3909,0.02,-0.01,-0.02,-0.54,-3.95,39.09,-5.79,0.80,1.52,-0.17,0.20,-0.02
1,0,0,-57,-404,3916,0.03,-0.01,-0.02,-0.57,-4.04,39.16,-5.81,0.81,1.52,-0.16,-0.05,-0.02
0,0,-1,-57,-399,3911,0.02,-0.01,-0.02,-0.57,-3.99,39.11,-5.82,0.82,1.52,0.09,-0.04,0.06
0,0,0,-57,-394,3914,0.02,-0.01,-0.02,-0.57,-3.94,39.14,-5.80,0.82,1.52,0.08,-0.04,-0.02
1,0,0,-56,-394,3918,0.02,-0.01,-0.02,-0.56,-3.94,39.18,-5.78,0.82,1.52,-0.16,-0.04,-0.02
1,-1,-1,-67,-398,3927,0.03,-0.01,-0.02,-0.67,-3.98,39.27,-5.78,0.84,1.52,-0.15,0.20,0.06
1,0,0,-62,-403,3923,0.03,-0.01,-0.02,-0.62,-4.03,39.23,-5.80,0.85,1.52,-0.13,-0.05,-0.02
0,-1,0,-45,-401,3917,0.03,-0.02,-0.02,-0.45,-4.01,39.17,-5.80,0.83,1.52,0.11,0.19,-0.02
0,0,1,-53,-402,3919,0.03,-0.02,-0.01,-0.53,-4.02,39.19,-5.81,0.82,1.52,0.10,-0.06,-0.09
0,0,0,-57,-402,3915,0.02,-0.01,-0.01,-0.57,-4.02,39.15,-5.83,0.82,1.52,0.09,-0.05,-0.01
1,1,0,-61,-402,3919,0.03,-0.01,-0.01,-0.61,-4.02,39.19,-5.84,0.84,1.52,-0.15,-0.28,-0.01
0,-1,1,-59,-404,3913,0.02,-0.01,-0.00,-0.59,-4.04,39.13,-5.86,0.85,1.52,0.09,0.21,-0.09
-1,0,1,-61,-403,3913,0.02,-0.01,0.01,-0.61,-4.03,39.13,-5.86,0.86,1.52,0.31,-0.04,-0.08
0,0,-1,-49,-400,3919,0.01,-0.01,-0.00,-0.49,-4.00,39.19,-5.86,0.84,1.52,0.05,-0.04,0.08
1,0,-1,-51,-400,3922,0.02,-0.01,-0.01,-0.51,-4.00,39.22,-5.85,0.83,1.52,-0.18,-0.03,0.08
0,0,-1,-53,-397,3918,0.02,-0.01,-0.01,-0.53,-3.97,39.18,-5.84,0.82,1.52,0.06,-0.03,0.07
0,0,-1,-49,-393,3913,0.02,-0.01,-0.02,-0.49,-3.93,39.13,-5.83,0.80,1.52,0.06,-0.03,0.07
1,0,0,-58,-400,3904,0.02,-0.01,-0.02,-0.58,-4.00,39.04,-5.84,0.82,1.52,-0.18,-0.02,-0.01
0,0,0,-55,-406,3922,0.02,-0.01,-0.01,-0.55,-4.06,39.22,-5.85,0.81,1.52,0.07,-0.02,-0.01
1,-2,0,-48,-397,3926,0.02,-0.02,-0.01,-0.48,-3.97,39.26,-5.84,0.80,1.52,-0.17,0.44,-0.01
0,0,1,-55,-408,3920,0.02,-0.02,-0.01,-0.55,-4.08,39.20,-5.86,0.80,1.52,0.08,-0.06,-0.09
-1,0,0,-49,-392,3919,0.01,-0.01,-0.00,-0.49,-3.92,39.19,-5.84,0.79,1.52,0.30,-0.05,-0.00
0,0,0,-57,-389,3918,0.01,-0.01,-0.00,-0.57,-3.89,39.18,-5.83,0.79,1.52,0.04,-0.05,-0.00
1,0,1,-62,-406,3922,0.02,-0.01,0.00,-0.62,-4.06,39.22,-5.84,0.81,1.52,-0.20,-0.04,-0.08
0,0,0,-51,-407,3918,0.01,-0.01,0.00,-0.51,-4.07,39.18,-5.85,0.80,1.52,0.05,-0.04,0.00
0,-1,0,-55,-387,3903,0.01,-0.02,0.00,-0.55,-3.87,39.03,-5.83,0.80,1.52,0.05,0.20,0.00
1,0,0,-66,-396,3912,0.02,-0.01,0.00,-0.66,-3.96,39.12,-5.83,0.82,1.52,-0.19,-0.05,0.00
0,0,0,-63,-412,3920,0.02,-0.01,0.00,-0.63,-4.12,39.20,-5.84,0.82,1.52,0.06,-0.05,0.00
-1,0,0,-48,-407,3914,0.01,-0.01,0.00,-0.48,-4.07,39.14,-5.86,0.81,1.52,0.28,-0.04,0.00
1,-1,-1,-47,-400,3926,0.01,-0.02,-0.00,-0.47,-4.00,39.26,-5.85,0.79,1.52,-0.20,0.19,0.08
1,-1,-1,-58,-404,3935,0.02,-0.02,-0.01,-0.58,-4.04,39.35,-5.85,0.81,1.52,-0.19,0.18,0.07
0,0,0,-54,-402,3922,0.02,-0.02,-0.01,-0.54,-4.02,39.22,-5.85,0.79,1.52,0.06,-0.07,-0.01
1,0,0,-57,-400,3923,0.02,-0.02,-0.01,-0.57,-4.00,39.23,-5.84,0.81,1.52,-0.18,-0.06,-0.01
1,0,0,-60,-394,3924,0.02,-0.02,-0.01,-0.60,-3.94,39.24,-5.83,0.81,1.52,-0.16,-0.06,-0.01
1,0,0,-57,-405,3905,0.03,-0.01,-0.01,-0.57,-4.05,39.05,-5.84,0.82,1.52,-0.15,-0.05,-0.01
0,0,0,-58,-403,3923,0.03,-0.01,-0.01,-0.58,-4.03,39.23,-5.86,0.83,1.52,0.10,-0.05,-0.01
0,0,-1,-58,-396,3929,0.02,-0.01,-0.01,-0.58,-3.96,39.29,-5.84,0.83,1.52,0.09,-0.04,0.07
0,0,0,-54,-406,3913,0.02,-0.01,-0.01,-0.54,-4.06,39.13,-5.85,0.82,1.52,0.08,-0.04,-0.01
0,0,1,-45,-414,3918,0.02,-0.01,-0.00,-0.45,-4.14,39.18,-5.87,0.81,1.53,0.07,-0.03,-0.09
0,0,0,-48,-402,3920,0.02,-0.01,-0.00,-0.48,-4.02,39.20,-5.86,0.79,1.53,0.06,-0.03,-0.00
1,0,0,-51,-395,3926,0.02,-0.01,-0.00,-0.51,-3.95,39.26,-5.85,0.79,1.52,-0.17,-0.03,-0.00
0,0,0,-52,-406,3919,0.02,-0.01,-0.00,-0.52,-4.06,39.19,-5.86,0.78,1.53,0.07,-0.02,-0.00
0,0,0,-58,-409,3924,0.02,-0.01,-0.00,-0.58,-4.09,39.24,-5.88,0.79,1.53,0.06,-0.02,-0.00
0,0,0,-61,-399,3917,0.02,-0.01,-0.00,-0.61,-3.99,39.17,-5.87,0.80,1.53,0.06,-0.02,-0.00
0,0,0,-54,-402,3909,0.01,-0.00,-0.00,-0.54,-4.02,39.09,-5.87,0.79,1.53,0.05,-0.02,-0.00
1,-1,0,-60,-399,3911,0.02,-0.01,-0.00,-0.60,-3.99,39.11,-5.86,0.80,1.53,-0.18,0.22,-0.00
0,-1,0,-60,-412,3913,0.02,-0.02,-0.00,-0.60,-4.12,39.13,-5.88,0.81,1.53,0.06,0.20,-0.00
1,0,0,-49,-409,3922,0.02,-0.01,-0.00,-0.49,-4.09,39.22,-5.89,0.80,1.53,-0.17,-0.05,-0.00
1,0,0,-45,-402,3921,0.03,-0.01,-0.00,-0.45,-4.02,39.21,-5.89,0.78,1.53,-0.16,-0.05,-0.00
2,0,0,-52,-392,3914,0.03,-0.01,-0.00,-0.52,-3.92,39.14,-5.87,0.78,1.53,-0.38,-0.04,-0.00
1,1,0,-55,-400,3922,0.04,-0.00,-0.00,-0.55,-4.00,39.22,-5.85,0.78,1.52,-0.11,-0.27,-0.00
0,-1,-1,-55,-395,3916,0.03,-0.01,-0.01,-0.55,-3.95,39.16,-5.83,0.79,1.52,0.13,0.22,0.08
0,0,-1,-55,-402,3919,0.03,-0.01,-0.01,-0.55,-4.02,39.19,-5.85,0.80,1.52,0.11,-0.03,0.07
0,0,-1,-56,-407,3923,0.03,-0.01,-0.02,-0.56,-4.07,39.23,-5.87,0.80,1.53,0.10,-0.03,0.07
0,0,-1,-60,-397,3917,0.02,-0.01,-0.02,-0.60,-3.97,39.17,-5.85,0.81,1.53,0.09,-0.03,0.06
0,0,0,-54,-395,3917,0.02,-0.01,-0.02,-0.54,-3.95,39.17,-5.84,0.81,1.53,0.08,-0.02,-0.02
0,0,0,-51,-399,3912,0.02,-0.01,-0.02,-0.51,-3.99,39.12,-5.83,0.79,1.53,0.08,-0.02,-0.02
0,0,1,-50,-391,3915,0.02,-0.01,-0.01,-0.50,-3.91,39.15,-5.82,0.78,1.52,0.07,-0.02,-0.09
-1,0,0,-58,-387,3920,0.01,-0.00,-0.01,-0.58,-3.87,39.20,-5.80,0.79,1.52,0.29,-0.02,-0.01
1,-1,-1,-57,-397,3921,0.02,-0.01,-0.01,-0.57,-3.97,39.21,-5.79,0.80,1.52,-0.20,0.22,0.07
0,0,-1,-54,-404,3922,0.01,-0.01,-0.02,-0.54,-4.04,39.22,-5.81,0.80,1.52,0.05,-0.03,0.07
1,0,-1,-53,-395,3919,0.02,-0.01,-0.02,-0.53,-3.95,39.19,-5.79,0.79,1.52,-0.19,-0.03,0.06
1,0,-1,-55,-400,3910,0.02,-0.01,-0.03,-0.55,-4.00,39.10,-5.81,0.80,1.53,-0.17,-0.03,0.06
1,0,-1,-63,-403,3908,0.03,-0.01,-0.03,-0.63,-4.03,39.08,-5.82,0.81,1.53,-0.15,-0.03,0.06
1,-1,-1,-60,-405,3914,0.03,-0.01,-0.03,-0.60,-4.05,39.14,-5.84,0.82,1.53,-0.14,0.21,0.05
1,0,0,-56,-401,3916,0.03,-0.01,-0.03,-0.56,-4.01,39.16,-5.85,0.81,1.53,-0.13,-0.04,-0.03
1,0,0,-57,-403,3919,0.04,-0.01,-0.03,-0.57,-4.03,39.19,-5.87,0.82,1.53,-0.12,-0.04,-0.03
1,0,0,-53,-404,3918,0.04,-0.01,-0.02,-0.53,-4.04,39.18,-5.87,0.81,1.53,-0.11,-0.03,-0.02
0,0,0,-53,-408,3920,0.03,-0.01,-0.02,-0.53,-4.08,39.20,-5.89,0.80,1.53,0.13,-0.03,-0.02
1,-1,0,-63,-405,3920,0.04,-0.01,-0.02,-0.63,-4.05,39.20,-5.89,0.82,1.53,-0.11,0.20,-0.02
0,-1,0,-57,-402,3921,0.03,-0.02,-0.02,-0.57,-4.02,39.21,-5.87,0.82,1.53,0.13,0.19,-0.02
0,-1,0,-56,-408,3923,0.03,-0.02,-0.02,-0.56,-4.08,39.23,-5.89,0.82,1.53,0.11,0.17,-0.01
1,-1,-1,-48,-402,3923,0.03,-0.03,-0.02,-0.48,-4.02,39.23,-5.88,0.80,1.53,-0.13,0.16,0.07
1,0,0,-54,-403,3923,0.04,-0.02,-0.02,-0.54,-4.03,39.23,-5.87,0.79,1.53,-0.12,-0.09,-0.02
1,0,0,-53,-405,3913,0.04,-0.02,-0.02,-0.53,-4.05,39.13,-5.89,0.78,1.53,-0.11,-0.08,-0.02
1,-1,-1,-60,-410,3921,0.04,-0.03,-0.02,-0.60,-4.10,39.21,-5.90,0.80,1.53,-0.10,0.16,0.07
1,-1,0,-59,-408,3921,0.04,-0.03,-0.02,-0.59,-4.08,39.21,-5.91,0.81,1.53,-0.09,0.15,-0.02
1,-1,0,-56,-404,3911,0.04,-0.03,-0.02,-0.56,-4.04,39.11,-5.89,0.82,1.53,-0.09,0.13,-0.02
1,-1,0,-58,-406,3911,0.05,-0.03,-0.02,-0.58,-4.06,39.11,-5.91,0.83,1.53,-0.08,0.12,-0.01
1,0,0,-49,-400,3914,0.05,-0.03,-0.01,-0.49,-4.00,39.14,-5.90,0.81,1.53,-0.07,-0.12,-0.01
1,0,0,-47,-407,3907,0.05,-0.03,-0.01,-0.47,-4.07,39.07,-5.90,0.80,1.53,-0.07,-0.11,-0.01
1,0,0,-48,-405,3925,0.05,-0.03,-0.01,-0.48,-4.05,39.25,-5.90,0.78,1.53,-0.06,-0.10,-0.01
1,0,1,-54,-402,3920,0.05,-0.02,-0.00,-0.54,-4.02,39.20,-5.88,0.78,1.53,-0.06,-0.09,-0.09
1,0,1,-54,-397,3925,0.05,-0.02,0.00,-0.54,-3.97,39.25,-5.86,0.78,1.53,-0.06,-0.08,-0.08
0,0,0,-57,-393,3923,0.05,-0.02,0.00,-0.57,-3.93,39.23,-5.85,0.79,1.53,0.18,-0.07,0.00
0,-1,0,-52,-399,3920,0.04,-0.02,0.00,-0.52,-3.99,39.20,-5.83,0.77,1.53,0.16,0.17,0.00
0,0,0,-49,-407,3917,0.04,-0.02,0.00,-0.49,-4.07,39.17,-5.85,0.76,1.53,0.14,-0.08,0.00
0,0,0,-51,-401,3918,0.03,-0.02,0.00,-0.51,-4.01,39.18,-5.84,0.75,1.53,0.13,-0.07,0.00
0,0,0,-55,-399,3916,0.03,-0.02,0.00,-0.55,-3.99,39.16,-5.84,0.76,1.53,0.12,-0.06,0.00
1,0,0,-61,-406,3921,0.03,-0.01,0.00,-0.61,-4.06,39.21,-5.85,0.78,1.53,-0.13,-0.06,0.00
1,0,0,-54,-396,3911,0.04,-0.01,0.00,-0.54,-3.96,39.11,-5.83,0.78,1.53,-0.12,-0.05,0.00
1,-1,0,-45,-398,3919,0.04,-0.02,0.00,-0.45,-3.98,39.19,-5.82,0.76,1.53,-0.11,0.19,0.00
0,0,1,-49,-405,3920,0.04,-0.02,0.01,-0.49,-4.05,39.20,-5.84,0.75,1.53,0.13,-0.06,-0.08
0,0,0,-60,-397,3920,0.03,-0.01,0.01,-0.60,-3.97,39.20,-5.83,0.77,1.53,0.12,-0.06,0.01
0,0,-1,-59,-401,3922,0.03,-0.01,-0.00,-0.59,-4.01,39.22,-5.83,0.79,1.53,0.11,-0.05,0.08
0,0,-1,-57,-405,3922,0.03,-0.01,-0.01,-0.57,-4.05,39.22,-5.85,0.80,1.53,0.10,-0.05,0.08
1,0,0,-54,-403,3918,0.03,-0.01,-0.01,-0.54,-4.03,39.18,-5.86,0.79,1.53,-0.14,-0.04,-0.01
0,0,0,-52,-401,3929,0.03,-0.01,-0.01,-0.52,-4.01,39.29,-5.85,0.78,1.53,0.10,-0.04,-0.00
0,0,0,-54,-404,3914,0.02,-0.01,-0.00,-0.54,-4.04,39.14,-5.87,0.78,1.53,0.09,-0.03,-0.00
0,0,0,-51,-402,3923,0.02,-0.01,-0.00,-0.51,-4.02,39.23,-5.86,0.76,1.53,0.08,-0.03,-0.00
0,-1,0,-53,-399,3912,0.02,-0.01,-0.00,-0.53,-3.99,39.12,-5.84,0.77,1.53,0.07,0.20,-0.00
0,-1,1,-61,-405,3918,0.02,-0.02,0.00,-0.61,-4.05,39.18,-5.85,0.78,1.53,0.06,0.19,-0.08
1,0,0,-57,-404,3922,0.02,-0.02,0.00,-0.57,-4.04,39.22,-5.86,0.80,1.53,-0.17,-0.06,0.00
1,0,0,-59,-405,3921,0.03,-0.01,0.00,-0.59,-4.05,39.21,-5.87,0.81,1.53,-0.16,-0.05,0.00
1,0,0,-58,-405,3910,0.03,-0.01,0.00,-0.58,-4.05,39.10,-5.89,0.83,1.53,-0.14,-0.05,0.00
0,0,-1,-51,-394,3912,0.03,-0.01,-0.00,-0.51,-3.94,39.12,-5.87,0.82,1.53,0.10,-0.04,0.08
1,0,0,-48,-396,3914,0.03,-0.01,-0.00,-0.48,-3.96,39.14,-5.86,0.80,1.53,-0.14,-0.04,-0.00
1,-1,0,-45,-404,3915,0.03,-0.02,-0.00,-0.45,-4.04,39.15,-5.86,0.78,1.53,-0.13,0.20,-0.00
1,0,0,-44,-399,3911,0.04,-0.01,-0.00,-0.44,-3.99,39.11,-5.86,0.77,1.53,-0.12,-0.05,-0.00
0,-1,0,-60,-404,3924,0.03,-0.02,-0.00,-0.60,-4.04,39.24,-5.86,0.78,1.53,0.12,0.18,-0.00
0,0,0,-58,-401,3924,0.03,-0.02,-0.00,-0.58,-4.01,39.24,-5.85,0.80,1.53,0.11,-0.06,-0.00
1,-1,0,-58,-396,3921,0.03,-0.02,-0.00,-0.58,-3.96,39.21,-5.84,0.81,1.53,-0.13,0.17,-0.00
0,0,0,-56,-396,3913,0.03,-0.02,-0.00,-0.56,-3.96,39.13,-5.82,0.81,1.53,0.11,-0.07,-0.00
1,0,0,-51,-399,3916,0.03,-0.02,-0.00,-0.51,-3.99,39.16,-5.82,0.79,1.53,-0.13,-0.06,-0.00
0,0,0,-56,-402,3920,0.03,-0.02,-0.00,-0.56,-4.02,39.20,-5.83,0.80,1.53,0.11,-0.06,-0.00
0,0,0,-55,-402,3914,0.03,-0.01,-0.00,-0.55,-4.02,39.14,-5.85,0.80,1.53,0.10,-0.05,-0.00
0,0,0,-61,-402,3916,0.02,-0.01,-0.00,-0.61,-4.02,39.16,-5.85,0.82,1.53,0.09,-0.05,-0.00
0,0,0,-57,-404,3909,0.02,-0.01,-0.00,-0.57,-4.04,39.09,-5.87,0.82,1.53,0.08,-0.04,-0.00
1,0,0,-57,-397,3912,0.03,-0.01,-0.00,-0.57,-3.97,39.12,-5.85,0.83,1.53,-0.16,-0.04,-0.00
1,-1,-1,-49,-390,3902,0.03,-0.02,-0.01,-0.49,-3.90,39.02,-5.84,0.81,1.53,-0.15,0.20,0.08
3,-1,2,-52,-399,3909,0.04,-0.02,0.01,-0.52,-3.99,39.09,-5.83,0.80,1.53,-0.60,0.18,-0.16
4,0,4,-38,-389,3872,0.06,-0.02,0.03,-0.38,-3.89,38.72,-5.83,0.78,1.53,-0.78,-0.07,-0.31
7,2,4,-43,-379,3906,0.10,-0.00,0.05,-0.43,-3.79,39.06,-5.81,0.77,1.53,-1.40,-0.52,-0.29
3,2,-7,-76,-445,3928,0.11,0.01,0.00,-0.76,-4.45,39.28,-5.83,0.78,1.53,-0.35,-0.48,0.60
2,-7,-9,-81,-417,3930,0.11,-0.03,-0.05,-0.81,-4.17,39.30,-5.84,0.79,1.53,-0.09,1.65,0.71
-4,1,-12,-89,-375,3959,0.07,-0.03,-0.12,-0.89,-3.75,39.59,-5.82,0.81,1.53,1.30,-0.35,0.90
-9,2,-12,-18,-408,3856,0.01,-0.01,-0.18,-0.18,-4.08,38.56,-5.83,0.79,1.53,2.33,-0.55,0.85
-3,-3,-2,-31,-382,3899,-0.01,-0.03,-0.18,-0.31,-3.82,38.99,-5.82,0.78,1.53,0.73,0.66,0.00
1,-2,-3,-83,-379,3936,-0.00,-0.04,-0.18,-0.83,-3.79,39.36,-5.81,0.79,1.53,-0.26,0.37,0.09
1,0,-2,-76,-409,3928,0.01,-0.03,-0.17,-0.76,-4.09,39.28,-5.82,0.81,1.53,-0.23,-0.13,0.01
-1,-3,-3,-40,-400,3918,-0.00,-0.05,-0.17,-0.40,-4.00,39.18,-5.82,0.79,1.53,0.25,0.58,0.09
2,1,-7,-116,-443,3916,0.01,-0.04,-0.20,-1.16,-4.43,39.16,-5.83,0.80,1.53,-0.47,-0.40,0.41
1,3,-22,-190,-485,3924,0.02,-0.02,-0.31,-1.90,-4.85,39.24,-5.84,0.82,1.53,-0.19,-0.82,1.57
0,11,64,-131,-708,3881,0.01,0.05,0.11,-1.31,-7.08,38.81,-5.86,0.82,1.53,0.06,-2.60,-5.32
-8,-2,126,56,-246,3971,-0.04,0.04,0.87,0.56,-2.46,39.71,-5.84,0.81,1.53,1.90,0.64,-9.86
6,0,24,-54,-337,3905,0.00,0.03,0.93,-0.54,-3.37,39.05,-5.82,0.81,1.52,-1.51,0.12,-1.16
0,1,31,-77,-355,3915,0.00,0.03,1.02,-0.77,-3.55,39.15,-5.81,0.82,1.52,0.02,-0.12,-1.67
0,7,47,4,-362,3891,0.00,0.07,1.21,0.04,-3.62,38.91,-5.80,0.81,1.52,0.01,-1.50,-2.85
0,0,45,32,-357,3959,0.00,0.07,1.36,0.32,-3.57,39.59,-5.79,0.79,1.51,0.01,0.25,-2.53
-1,0,27,50,-326,3917,-0.00,0.06,1.39,0.50,-3.26,39.17,-5.78,0.78,1.50,0.24,0.23,-0.98
-1,-1,11,41,-332,3932,-0.01,0.05,1.32,0.41,-3.32,39.32,-5.77,0.76,1.50,0.22,0.43,0.31
1,-2,2,0,-370,3915,-0.00,0.03,1.20,0.00,-3.70,39.15,-5.76,0.75,1.49,-0.26,0.63,0.96
0,-2,1,-51,-398,3927,-0.00,0.02,1.08,-0.51,-3.98,39.27,-5.78,0.74,1.49,-0.01,0.57,0.93
0,1,1,-62,-394,3914,-0.00,0.02,0.98,-0.62,-3.94,39.14,-5.77,0.76,1.49,-0.01,-0.18,0.84
1,0,-1,-51,-392,3920,0.00,0.02,0.88,-0.51,-3.92,39.20,-5.76,0.76,1.48,-0.24,0.07,0.91
0,-1,-2,-56,-414,3921,0.00,0.01,0.78,-0.56,-4.14,39.21,-5.77,0.76,1.48,0.02,0.29,0.90
0,-1,-2,-60,-419,3912,0.00,0.00,0.69,-0.60,-4.19,39.12,-5.79,0.77,1.48,0.01,0.27,0.82
6,-15,-2,-157,-394,3826,0.04,-0.09,0.61,-1.57,-3.94,38.26,-5.79,0.78,1.47,-1.37,3.48,0.74
1,-12,5,-221,-404,3881,0.04,-0.15,0.58,-2.21,-4.04,38.81,-5.79,0.80,1.47,-0.10,2.47,0.12
2,-9,8,-323,-448,3925,0.05,-0.19,0.57,-3.23,-4.48,39.25,-5.80,0.82,1.47,-0.32,1.56,-0.14
3,-14,4,-228,-462,3896,0.06,-0.26,0.54,-2.28,-4.62,38.96,-5.80,0.84,1.47,-0.52,2.58,0.16
-3,-9,-24,-212,-433,3925,0.04,-0.29,0.34,-2.12,-4.33,39.25,-5.81,0.85,1.47,0.91,1.20,2.35
-3,-9,-35,-170,-420,3940,0.02,-0.31,0.09,-1.70,-4.20,39.40,-5.81,0.87,1.47,0.82,1.11,3.05
5,-7,-47,-188,-397,3885,0.05,-0.33,-0.21,-1.88,-3.97,38.85,-5.81,0.89,1.47,-1.10,0.55,3.79
-4,-3,-52,-216,-426,3874,0.02,-0.31,-0.50,-2.16,-4.26,38.74,-5.81,0.90,1.47,1.08,-0.41,3.93
3,5,-110,-218,-477,3866,0.03,-0.25,-1.12,-2.18,-4.77,38.66,-5.82,0.92,1.47,-0.64,-2.21,8.26
3,5,-135,-229,-556,3817,0.05,-0.19,-1.84,-2.29,-5.56,38.17,-5.83,0.93,1.48,-0.58,-2.00,9.71
-17,0,-221,-160,-636,3943,-0.06,-0.17,-3.00,-1.60,-6.36,39.43,-5.85,0.93,1.49,4.09,-0.66,15.91
9,0,-251,-147,-639,3989,0.00,-0.16,-4.23,-1.47,-6.39,39.89,-5.87,0.94,1.51,-2.29,-0.59,17.29
29,0,-380,-55,-689,3913,0.18,-0.14,-6.13,-0.55,-6.89,39.13,-5.89,0.93,1.53,-6.70,-0.53,26.44
30,6,-459,105,-607,3927,0.34,-0.09,-8.31,1.05,-6.07,39.27,-5.90,0.92,1.57,-6.33,-1.87,31.08
4,18,-623,11,-435,3782,0.33,0.03,-11.28,0.11,-4.35,37.82,-5.91,0.90,1.61,0.24,-4.47,42.19
-5,3,-675,-3,-385,3937,0.27,0.04,-14.27,-0.03,-3.85,39.37,-5.90,0.88,1.67,2.28,-0.60,43.79
15,9,-831,-113,-453,3866,0.33,0.09,-17.91,-1.13,-4.53,38.66,-5.91,0.88,1.74,-2.56,-1.93,53.59
24,-2,-849,-108,-470,4016,0.45,0.07,-21.30,-1.08,-4.70,40.16,-5.93,0.89,1.83,-4.42,0.78,51.93
28,-9,-1014,-69,-455,3935,0.57,0.01,-25.36,-0.69,-4.55,39.35,-5.95,0.88,1.93,-4.96,2.33,62.10
12,-1,-1082,-115,-452,3787,0.59,0.00,-29.42,-1.15,-4.52,37.87,-5.96,0.88,2.04,-0.83,0.27,64.05
22,-8,-1345,-207,-412,3844,0.66,-0.05,-34.68,-2.07,-4.12,38.44,-5.96,0.88,2.18,-3.09,1.86,81.39
36,-5,-1421,-173,-421,3956,0.82,-0.07,-39.88,-1.73,-4.21,39.56,-5.96,0.88,2.34,-6.07,1.00,82.94
24,52,-1642,-187,-399,3851,0.88,0.25,-45.91,-1.87,-3.99,38.51,-5.96,0.88,2.52,-2.78,-12.27,96.01
13,53,-1710,-121,-432,4019,0.87,0.55,-51.75,-1.21,-4.32,40.19,-5.96,0.88,2.73,-0.02,-11.40,96.29
7,10,-1762,-117,-418,4016,0.83,0.56,-57.32,-1.17,-4.18,40.16,-5.96,0.88,2.96,1.34,-0.45,95.46
19,-24,-1761,-52,-369,4038,0.86,0.35,-62.33,-0.52,-3.69,40.38,-5.94,0.85,3.21,-1.58,7.44,90.67
33,-25,-1709,-178,-298,3867,0.98,0.17,-66.53,-1.78,-2.98,38.67,-5.93,0.84,3.47,-4.71,6.98,82.33
18,-21,-1675,-187,-279,3889,0.99,0.02,-70.09,-1.87,-2.79,38.89,-5.92,0.82,3.75,-0.85,5.42,76.10
21,-16,-1564,-239,-181,3956,1.02,-0.08,-72.62,-2.39,-1.81,39.56,-5.91,0.80,4.04,-1.50,3.77,64.32
30,-8,-1536,-192,-118,3976,1.10,-0.12,-74.73,-1.92,-1.18,39.76,-5.89,0.78,4.34,-3.48,1.59,59.97
15,-17,-1472,-187,-232,4006,1.08,-0.21,-76.24,-1.87,-2.32,40.06,-5.87,0.76,4.64,0.26,3.53,53.13
20,-18,-1462,-122,-208,3823,1.09,-0.30,-77.53,-1.22,-2.08,38.23,-5.86,0.73,4.95,-0.96,3.45,51.07
17,-11,-1441,-138,-270,3824,1.09,-0.34,-78.57,-1.38,-2.70,38.24,-5.84,0.71,5.26,-0.22,1.53,48.32
21,-2,-1436,-165,-341,3937,1.11,-0.32,-79.47,-1.65,-3.41,39.37,-5.83,0.69,5.58,-1.16,-0.68,47.05
9,-15,-1419,-53,-437,3925,1.05,-0.38,-80.18,-0.53,-4.37,39.25,-5.85,0.66,5.89,1.68,2.40,44.94
34,-21,-1408,-36,-452,3976,1.15,-0.47,-80.75,-0.36,-4.52,39.76,-5.87,0.62,6.22,-4.29,3.58,43.47
27,-17,-1343,-23,-516,3872,1.20,-0.52,-80.87,-0.23,-5.16,38.72,-5.88,0.58,6.54,-2.33,2.35,37.86
6,-23,-1318,-55,-540,3945,1.12,-0.61,-80.82,-0.55,-5.40,39.45,-5.90,0.55,6.86,2.69,3.54,35.78
20,-13,-1218,-23,-492,3986,1.13,-0.63,-80.17,-0.23,-4.92,39.86,-5.92,0.51,7.18,-0.83,0.93,27.92
26,-25,-1180,-36,-433,3955,1.18,-0.72,-79.35,-0.36,-4.33,39.55,-5.93,0.48,7.49,-2.18,3.65,25.47
14,-28,-1051,34,-412,3905,1.14,-0.82,-77.83,0.34,-4.12,39.05,-5.93,0.42,7.80,0.75,4.04,15.97
23,-10,-1019,-7,-412,3846,1.17,-0.80,-76.26,-0.07,-4.12,38.46,-5.94,0.37,8.11,-1.44,-0.46,14.73
0,-17,-916,62,-378,4005,1.05,-0.82,-74.22,0.62,-3.78,40.05,-5.93,0.32,8.40,3.96,1.23,7.92
7,-19,-890,6,-420,3864,0.99,-0.85,-72.23,0.06,-4.20,38.64,-5.94,0.27,8.69,1.95,1.61,7.59
6,-8,-845,67,-476,3851,0.93,-0.82,-70.16,0.67,-4.76,38.51,-5.95,0.23,8.97,1.97,-1.05,5.72
9,-10,-834,59,-513,3936,0.89,-0.80,-68.23,0.59,-5.13,39.36,-5.96,0.18,9.24,1.06,-0.46,6.60
9,-6,-782,-48,-490,3848,0.86,-0.75,-66.18,-0.48,-4.90,38.48,-5.97,0.16,9.50,0.94,-1.32,4.12
20,-12,-761,-26,-455,3940,0.89,-0.75,-64.20,-0.26,-4.55,39.40,-5.99,0.14,9.76,-1.72,0.22,4.19
11,-37,-701,2,-453,3901,0.87,-0.90,-62.06,0.02,-4.53,39.01,-6.00,0.10,10.00,0.48,6.01,1.12
13,-35,-689,-12,-411,3932,0.86,-1.03,-60.06,-0.12,-4.11,39.32,-5.99,0.09,10.24,-0.06,5.03,1.99
9,-87,-641,29,-334,3716,0.83,-1.45,-57.96,0.29,-3.34,37.16,-5.97,0.05,10.47,0.84,16.64,-0.11
11,-46,-619,46,-339,3748,0.81,-1.59,-55.94,0.46,-3.39,37.48,-5.96,0.01,10.69,0.27,5.71,-0.08
21,-6,-535,24,-268,3977,0.86,-1.47,-53.61,0.24,-2.68,39.77,-5.93,-0.02,10.91,-2.09,-4.00,-5.01
14,-16,-544,8,-231,3828,0.86,-1.42,-51.57,0.08,-2.31,38.28,-5.91,-0.05,11.11,-0.32,-1.27,-2.33
4,-5,-594,-19,-272,3780,0.80,-1.31,-50.03,-0.19,-2.72,37.80,-5.89,-0.07,11.31,1.99,-3.65,3.35
11,-5,-609,40,-282,3970,0.79,-1.21,-48.74,0.40,-2.82,39.70,-5.87,-0.10,11.50,0.17,-3.27,5.83
29,7,-644,41,-393,3943,0.88,-1.04,-47.80,0.41,-3.93,39.43,-5.86,-0.14,11.69,-4.04,-5.71,9.68
16,-4,-646,44,-424,4004,0.89,-0.96,-46.96,0.44,-4.24,40.04,-5.86,-0.18,11.88,-0.70,-2.61,10.64
15,-9,-633,-45,-358,3948,0.90,-0.92,-46.12,-0.45,-3.58,39.48,-5.85,-0.19,12.06,-0.44,-1.18,10.32
8,-2,-629,-93,-362,3866,0.86,-0.84,-45.35,-0.93,-3.62,38.66,-5.84,-0.20,12.24,1.19,-2.66,10.71
-3,-7,-612,-12,-391,3842,0.75,-0.80,-44.55,-0.12,-3.91,38.42,-5.83,-0.20,12.42,3.59,-1.23,10.02
12,-1,-616,10,-375,3964,0.75,-0.73,-43.85,0.10,-3.75,39.64,-5.81,-0.22,12.59,-0.23,-2.48,11.02
0,-14,-629,-18,-407,3882,0.67,-0.74,-43.30,-0.18,-4.07,38.82,-5.81,-0.22,12.76,2.54,0.77,12.63
21,-7,-631,25,-417,3932,0.74,-0.71,-42.82,0.25,-4.17,39.32,-5.82,-0.25,12.93,-2.57,-0.89,13.26
-3,-14,-620,-53,-466,3900,0.64,-0.72,-42.32,-0.53,-4.66,39.00,-5.83,-0.26,13.10,3.19,0.84,12.79
-3,-14,-623,-56,-428,3932,0.56,-0.74,-41.89,-0.56,-4.28,39.32,-5.84,-0.26,13.27,2.87,0.79,13.45
13,-15,-621,94,-453,3906,0.58,-0.75,-41.49,0.94,-4.53,39.06,-5.84,-0.29,13.43,-1.10,0.97,13.66
16,-4,-632,16,-428,3875,0.62,-0.70,-41.19,0.16,-4.28,38.75,-5.86,-0.31,13.60,-1.72,-1.63,14.87
16,-1,-651,14,-420,3929,0.66,-0.64,-41.05,0.14,-4.20,39.29,-5.87,-0.32,13.76,-1.59,-2.15,16.62
15,-1,-661,14,-415,3928,0.68,-0.58,-40.97,0.14,-4.15,39.28,-5.88,-0.33,13.92,-1.24,-1.93,17.53
21,-4,-690,68,-361,3947,0.74,-0.55,-41.09,0.68,-3.61,39.47,-5.87,-0.36,14.09,-2.54,-1.04,19.88
26,-7,-696,66,-347,3889,0.83,-0.54,-41.22,0.66,-3.47,38.89,-5.85,-0.39,14.25,-3.49,-0.24,20.26
14,-16,-657,50,-300,3989,0.83,-0.58,-41.11,0.50,-3.00,39.89,-5.83,-0.42,14.41,-0.43,1.89,17.07
14,-16,-659,-40,-279,3723,0.83,-0.62,-41.02,-0.40,-2.79,37.23,-5.81,-0.43,14.58,-0.42,1.74,17.32
9,-13,-653,36,-335,3878,0.80,-0.64,-40.90,0.36,-3.35,38.78,-5.78,-0.45,14.74,0.74,0.91,16.92
9,-24,-665,47,-317,3995,0.78,-0.72,-40.87,0.47,-3.17,39.95,-5.76,-0.47,14.90,0.65,3.39,17.97
13,-18,-747,-88,-358,3905,0.78,-0.76,-41.34,-0.88,-3.58,39.05,-5.75,-0.47,15.07,-0.36,1.72,24.48
16,-13,-777,-96,-347,3849,0.80,-0.76,-41.94,-0.96,-3.47,38.49,-5.74,-0.47,15.23,-1.05,0.44,26.45
-8,-6,-857,-102,-359,3906,0.67,-0.72,-42.98,-1.02,-3.59,39.06,-5.73,-0.48,15.40,4.56,-1.19,32.26
16,-14,-877,-36,-301,3940,0.70,-0.73,-44.03,-0.36,-3.01,39.40,-5.71,-0.49,15.58,-1.42,0.79,32.96
19,-13,-940,-26,-325,3935,0.75,-0.74,-45.36,-0.26,-3.25,39.35,-5.70,-0.49,15.76,-2.01,0.52,37.05
35,-14,-942,-20,-285,3932,0.89,-0.75,-46.57,-0.20,-2.85,39.32,-5.67,-0.51,15.94,-5.56,0.73,36.09
18,-22,-927,-27,-320,3941,0.91,-0.81,-47.57,-0.27,-3.20,39.41,-5.65,-0.52,16.13,-1.16,2.54,33.88
30,-11,-931,-36,-260,3998,1.00,-0.80,-48.49,-0.36,-2.60,39.98,-5.63,-0.53,16.33,-3.86,-0.20,33.35
27,-16,-951,-66,-288,3966,1.06,-0.81,-49.44,-0.66,-2.88,39.66,-5.61,-0.54,16.52,-2.85,1.00,34.15
15,-8,-946,-45,-274,3824,1.05,-0.78,-50.27,-0.45,-2.74,38.24,-5.59,-0.55,16.72,0.14,-0.91,32.95
-3,-16,-937,-74,-303,3850,0.93,-0.80,-50.96,-0.74,-3.03,38.50,-5.58,-0.56,16.93,4.25,1.05,31.54
6,-15,-931,-96,-304,3942,0.87,-0.81,-51.54,-0.96,-3.04,39.42,-5.56,-0.57,17.13,1.75,0.75,30.49
22,-9,-914,53,-341,4046,0.92,-0.79,-51.96,0.53,-3.41,40.46,-5.54,-0.59,17.34,-2.14,-0.67,28.65
10,-7,-923,-19,-445,3777,0.89,-0.75,-52.40,-0.19,-4.45,37.77,-5.55,-0.61,17.55,0.80,-1.05,29.00
15,8,-940,-104,-292,3995,0.89,-0.63,-52.89,-1.04,-2.92,39.95,-5.53,-0.61,17.76,-0.46,-4.39,29.98
14,-13,-928,-2,-393,3917,0.89,-0.64,-53.26,-0.02,-3.93,39.17,-5.53,-0.62,17.97,-0.22,0.88,28.62
11,-6,-932,-68,-351,3940,0.86,-0.62,-53.62,-0.68,-3.51,39.40,-5.52,-0.63,18.18,0.46,-0.79,28.62
5,-9,-901,-81,-410,3889,0.81,-0.61,-53.75,-0.81,-4.10,38.89,-5.52,-0.63,18.40,1.77,-0.01,25.86
15,-10,-878,-104,-393,3949,0.82,-0.61,-53.74,-1.04,-3.93,39.49,-5.52,-0.64,18.61,-0.73,0.25,23.93
17,-18,-877,-127,-345,3891,0.84,-0.66,-53.71,-1.27,-3.45,38.91,-5.51,-0.64,18.82,-1.15,2.10,23.87
16,-4,-855,-121,-402,3896,0.85,-0.62,-53.56,-1.21,-4.02,38.96,-5.50,-0.65,19.04,-0.85,-1.31,22.15
11,-2,-853,-57,-437,3897,0.84,-0.57,-53.40,-0.57,-4.37,38.97,-5.51,-0.65,19.25,0.35,-1.63,22.13
17,-7,-848,-136,-424,3976,0.86,-0.55,-53.24,-1.36,-4.24,39.76,-5.51,-0.66,19.46,-1.10,-0.30,21.86
7,-15,-838,-157,-444,3898,0.81,-0.59,-53.02,-1.57,-4.44,38.98,-5.51,-0.66,19.67,1.28,1.59,21.21
20,-15,-813,68,-462,3852,0.85,-0.62,-52.68,0.68,-4.62,38.52,-5.52,-0.69,19.88,-1.87,1.47,19.42
7,-6,-813,-68,-479,3818,0.81,-0.60,-52.37,-0.68,-4.79,38.18,-5.53,-0.70,20.09,1.28,-0.72,19.71
8,-11,-737,-27,-398,3946,0.78,-0.60,-51.63,-0.27,-3.98,39.46,-5.52,-0.70,20.29,0.90,0.52,13.96
27,-21,-687,-98,-367,3916,0.87,-0.67,-50.66,-0.98,-3.67,39.16,-5.52,-0.71,20.49,-3.60,2.81,10.64
22,-3,-675,-99,-301,3893,0.91,-0.62,-49.71,-0.99,-3.01,38.93,-5.50,-0.71,20.69,-2.15,-1.58,10.52
20,-19,-674,-123,-217,4001,0.94,-0.68,-48.85,-1.23,-2.17,40.01,-5.48,-0.72,20.89,-1.53,2.28,11.24
12,-5,-720,-120,-341,3961,0.92,-0.64,-48.36,-1.20,-3.41,39.61,-5.47,-0.72,21.08,0.43,-1.14,15.60
9,-20,-737,-87,-333,3908,0.89,-0.70,-48.02,-0.87,-3.33,39.08,-5.46,-0.73,21.27,1.05,2.46,17.36
16,-14,-793,-40,-328,3865,0.89,-0.71,-48.05,-0.40,-3.28,38.65,-5.45,-0.73,21.46,-0.70,0.87,22.07
-10,6,-811,-87,-400,3815,0.74,-0.60,-48.19,-0.87,-4.00,38.15,-5.45,-0.74,21.65,5.34,-3.80,23.46
12,-10,-869,-116,-485,3927,0.74,-0.61,-48.68,-1.16,-4.85,39.27,-5.45,-0.74,21.85,-0.25,0.26,27.92
19,0,-878,-115,-538,3931,0.78,-0.54,-49.16,-1.15,-5.38,39.31,-5.46,-0.75,22.04,-1.87,-2.05,28.23
15,-15,-849,-39,-490,3966,0.80,-0.58,-49.43,-0.39,-4.90,39.66,-5.47,-0.76,22.24,-0.81,1.62,25.52
16,-2,-826,23,-476,3930,0.82,-0.54,-49.52,0.23,-4.76,39.30,-5.48,-0.77,22.43,-1.00,-1.51,23.48
15,-16,-763,43,-354,4028,0.83,-0.58,-49.22,0.43,-3.54,40.28,-5.46,-0.79,22.63,-0.70,1.88,18.43
12,-15,-744,27,-366,3883,0.82,-0.61,-48.84,0.27,-3.66,38.83,-5.45,-0.79,22.83,0.02,1.50,17.18
5,-18,-710,4,-391,3880,0.76,-0.66,-48.29,0.04,-3.91,38.80,-5.45,-0.80,23.02,1.61,2.08,14.82
5,-16,-703,-15,-366,3932,0.72,-0.69,-47.75,-0.15,-3.66,39.32,-5.44,-0.80,23.21,1.44,1.46,14.73
2,-20,-680,-25,-370,3909,0.66,-0.75,-47.12,-0.25,-3.70,39.09,-5.43,-0.80,23.39,1.97,2.27,13.37
2,-8,-680,-83,-389,3927,0.61,-0.72,-46.56,-0.83,-3.89,39.27,-5.43,-0.80,23.58,1.77,-0.68,13.90
24,1,-729,-81,-365,3972,0.69,-0.64,-46.35,-0.81,-3.65,39.72,-5.42,-0.81,23.76,-3.50,-2.67,18.25
9,-7,-747,-95,-407,3942,0.68,-0.62,-46.27,-0.95,-4.07,39.42,-5.42,-0.81,23.95,0.26,-0.56,19.85
8,4,-792,-169,-410,3886,0.66,-0.53,-46.47,-1.69,-4.10,38.86,-5.42,-0.81,24.13,0.45,-3.03,23.47
15,-4,-804,-146,-386,3856,0.68,-0.51,-46.73,-1.46,-3.86,38.56,-5.42,-0.81,24.32,-1.24,-0.89,24.24
-2,-7,-828,-163,-403,3858,0.60,-0.50,-47.11,-1.63,-4.03,38.58,-5.41,-0.81,24.51,2.78,-0.09,25.92
22,-7,-842,-121,-360,3970,0.68,-0.49,-47.53,-1.21,-3.60,39.70,-5.41,-0.81,24.70,-3.04,-0.07,26.71
23,-2,-915,-129,-263,3918,0.75,-0.45,-48.36,-1.29,-2.63,39.18,-5.39,-0.82,24.89,-3.02,-1.20,32.11
17,-19,-937,-157,-311,3936,0.78,-0.52,-49.24,-1.57,-3.11,39.36,-5.38,-0.82,25.08,-1.39,2.86,33.15
-1,-17,-994,-57,-334,3872,0.69,-0.58,-50.38,-0.57,-3.34,38.72,-5.37,-0.82,25.28,2.87,2.15,36.91
9,-16,-1005,-21,-316,3887,0.68,-0.62,-51.47,-0.21,-3.16,38.87,-5.36,-0.83,25.49,0.27,1.75,36.82
25,-17,-1017,-15,-345,3895,0.76,-0.66,-52.53,-0.15,-3.45,38.95,-5.34,-0.84,25.70,-3.47,1.84,36.84
-3,-30,-1009,-39,-341,3909,0.67,-0.77,-53.43,-0.39,-3.41,39.09,-5.33,-0.84,25.91,3.29,4.71,35.32
11,-18,-953,45,-396,4004,0.67,-0.81,-53.90,0.45,-3.96,40.04,-5.34,-0.85,26.13,-0.27,1.53,30.13
13,2,-922,30,-406,3815,0.68,-0.71,-54.14,0.30,-4.06,38.15,-5.35,-0.87,26.34,-0.73,-3.20,27.29
26,3,-800,100,-293,3886,0.77,-0.62,-53.60,1.00,-2.93,38.86,-5.33,-0.90,26.55,-3.70,-3.11,17.45
9,-12,-774,140,-286,3996,0.75,-0.64,-52.96,1.40,-2.86,39.96,-5.31,-0.93,26.76,0.54,0.66,15.85
13,-4,-681,42,-288,3974,0.75,-0.60,-51.82,0.42,-2.88,39.74,-5.29,-0.95,26.97,-0.46,-1.23,9.04
5,-5,-663,128,-242,3886,0.71,-0.57,-50.68,1.28,-2.42,38.86,-5.27,-0.98,27.17,1.40,-0.86,8.58
13,-6,-638,73,-146,3946,0.72,-0.55,-49.51,0.73,-1.46,39.46,-5.24,-1.00,27.37,-0.60,-0.53,7.57
21,-12,-632,14,-117,3876,0.77,-0.57,-48.41,0.14,-1.17,38.76,-5.22,-1.02,27.56,-2.42,0.92,8.09
10,-22,-640,113,-104,3839,0.76,-0.64,-47.47,1.13,-1.04,38.39,-5.19,-1.04,27.75,0.31,3.17,9.65
10,-19,-663,44,-15,3840,0.74,-0.69,-46.77,0.44,-0.15,38.40,-5.17,-1.06,27.94,0.26,2.21,12.26
12,-33,-757,-93,-47,3962,0.74,-0.83,-46.71,-0.93,-0.47,39.62,-5.15,-1.07,28.13,-0.26,5.27,20.28
-4,-21,-845,-154,-92,3868,0.64,-0.87,-47.19,-1.54,-0.92,38.68,-5.13,-1.08,28.31,3.44,2.05,27.28
21,-24,-1012,-51,-195,3882,0.71,-0.93,-48.65,-0.51,-1.95,38.82,-5.10,-1.09,28.51,-2.67,2.59,40.06
9,-4,-1052,-103,-267,3869,0.69,-0.86,-50.20,-1.03,-2.67,38.69,-5.09,-1.09,28.71,0.32,-2.23,41.99
26,-15,-1126,-19,-183,3981,0.78,-0.87,-52.05,-0.19,-1.83,39.81,-5.07,-1.11,28.91,-3.67,0.54,46.53
18,-15,-1136,-55,-236,3915,0.81,-0.87,-53.77,-0.55,-2.36,39.15,-5.05,-1.11,29.13,-1.51,0.53,45.76
24,-49,-1161,-8,-341,4115,0.88,-1.08,-55.48,-0.08,-3.41,41.15,-5.04,-1.12,29.35,-2.79,8.37,46.27
21,-23,-1168,-14,-399,3765,0.92,-1.12,-57.06,-0.14,-3.99,37.65,-5.04,-1.13,29.58,-1.88,1.64,45.39
11,-24,-1130,85,-324,3849,0.89,-1.15,-58.24,0.85,-3.24,38.49,-5.02,-1.16,29.81,0.57,1.77,41.05
26,-9,-1116,96,-388,3873,0.96,-1.09,-59.23,0.96,-3.88,38.73,-5.02,-1.20,30.04,-2.98,-1.82,38.94
30,-5,-1045,-44,-204,3804,1.05,-1.01,-59.68,-0.44,-2.04,38.04,-5.00,-1.21,30.28,-3.67,-2.54,32.50
3,-21,-1048,-4,-329,3880,0.96,-1.04,-60.10,-0.04,-3.29,38.80,-4.99,-1.21,30.52,2.86,1.42,32.36
12,-12,-1056,-2,-385,3922,0.94,-1.01,-60.53,-0.02,-3.85,39.22,-4.99,-1.22,30.76,0.49,-0.75,32.63
32,-14,-1050,70,-377,3936,1.04,-0.99,-60.89,0.70,-3.77,39.36,-5.00,-1.24,31.00,-4.21,-0.18,31.79
-1,-30,-1012,4,-377,3907,0.93,-1.08,-60.97,0.04,-3.77,39.07,-5.00,-1.25,31.25,3.76,3.57,28.49
-12,-38,-990,33,-232,3965,0.76,-1.20,-60.91,0.33,-2.32,39.65,-4.97,-1.27,31.49,5.93,5.14,26.68
5,-29,-871,118,-331,3901,0.72,-1.26,-60.13,1.18,-3.31,39.01,-4.96,-1.31,31.73,1.44,2.63,17.33
12,-29,-841,82,-286,3950,0.72,-1.31,-59.25,0.82,-2.86,39.50,-4.93,-1.33,31.96,-0.34,2.44,15.62
-22,-63,-821,24,-356,3765,0.51,-1.56,-58.33,0.24,-3.56,37.65,-4.93,-1.34,32.20,7.53,10.13,14.79
10,-16,-807,63,-415,3985,0.52,-1.50,-57.42,0.63,-4.15,39.85,-4.94,-1.36,32.42,-0.57,-1.60,14.46
12,-25,-693,-91,-466,4037,0.54,-1.51,-55.91,-0.91,-4.66,40.37,-4.94,-1.37,32.65,-1.00,0.68,6.22
10,-22,-621,-74,-445,3814,0.55,-1.49,-54.11,-0.74,-4.45,38.14,-4.95,-1.38,32.86,-0.47,-0.02,1.81
8,-13,-524,57,-442,3987,0.54,-1.42,-51.89,0.57,-4.42,39.87,-4.96,-1.40,33.07,0.02,-2.04,-4.33
6,-18,-495,111,-458,3965,0.53,-1.39,-49.72,1.11,-4.58,39.65,-4.97,-1.42,33.26,0.46,-0.65,-4.75
7,7,-389,-66,-430,3887,0.52,-1.21,-47.12,-0.66,-4.30,38.87,-4.97,-1.43,33.45,0.17,-6.32,-11.29
9,5,-375,-49,-421,3986,0.52,-1.05,-44.70,-0.49,-4.21,39.86,-4.97,-1.43,33.63,-0.33,-5.24,-10.20
8,0,-363,-35,-418,3984,0.52,-0.95,-42.44,-0.35,-4.18,39.84,-4.97,-1.43,33.80,-0.09,-3.58,-9.09
4,6,-376,-75,-340,3879,0.49,-0.82,-40.49,-0.75,-3.40,38.79,-4.97,-1.43,33.96,0.83,-4.61,-6.16
-14,-26,-445,-70,-182,3819,0.36,-0.89,-39.16,-0.70,-1.82,38.19,-4.95,-1.44,34.11,4.90,3.24,0.94
-12,-17,-480,-50,-123,3936,0.25,-0.91,-38.17,-0.50,-1.23,39.36,-4.93,-1.44,34.27,3.98,0.90,4.83
-8,-27,-521,-132,-116,3930,0.17,-0.98,-37.53,-1.32,-1.16,39.30,-4.91,-1.45,34.42,2.68,3.16,8.90
-3,-27,-513,-45,-177,3919,0.14,-1.05,-36.91,-0.45,-1.77,39.19,-4.89,-1.45,34.56,1.28,2.91,8.81
7,-8,-499,-65,-279,3955,0.17,-0.99,-36.26,-0.65,-2.79,39.55,-4.88,-1.45,34.71,-1.15,-1.71,8.23
13,-16,-501,-83,-319,3967,0.23,-0.99,-35.69,-0.83,-3.19,39.67,-4.88,-1.45,34.85,-2.44,0.33,8.94
0,-32,-541,-72,-355,3971,0.21,-1.09,-35.42,-0.72,-3.55,39.71,-4.88,-1.45,34.99,0.78,4.04,12.58
-34,-51,-561,-340,-238,3696,-0.02,-1.29,-35.30,-3.40,-2.38,36.96,-4.87,-1.45,35.13,8.56,8.10,14.39
-12,-42,-611,161,-374,3792,-0.09,-1.42,-35.50,1.61,-3.74,37.92,-4.88,-1.48,35.27,2.70,5.34,18.44
4,-26,-627,83,-354,3894,-0.06,-1.43,-35.77,0.83,-3.54,38.94,-4.89,-1.48,35.41,-1.24,1.21,19.53
-32,-45,-639,-97,-315,3950,-0.25,-1.57,-36.09,-0.97,-3.15,39.50,-4.88,-1.48,35.56,7.20,5.54,20.25
-15,-47,-645,-26,-345,4035,-0.32,-1.70,-36.42,-0.26,-3.45,40.35,-4.88,-1.48,35.70,2.63,5.56,20.45
-5,-40,-597,-46,-427,3922,-0.31,-1.77,-36.42,-0.46,-4.27,39.22,-4.89,-1.49,35.85,0.09,3.50,16.39
-2,-26,-585,4,-437,3965,-0.29,-1.75,-36.35,0.04,-4.37,39.65,-4.90,-1.49,35.99,-0.60,0.01,15.44
-28,-33,-453,-133,-319,4054,-0.44,-1.78,-35.47,-1.33,-3.19,40.54,-4.89,-1.50,36.13,5.47,1.69,5.07
-24,-48,-421,-122,-488,3998,-0.54,-1.89,-34.49,-1.22,-4.88,39.98,-4.90,-1.50,36.27,4.07,5.07,3.28
-24,-51,-390,-163,-210,3662,-0.63,-2.01,-33.42,-1.63,-2.10,36.62,-4.89,-1.50,36.40,3.72,5.37,1.66
1,-20,-416,-53,-272,4047,-0.56,-1.93,-32.62,-0.53,-2.72,40.47,-4.89,-1.50,36.53,-2.37,-2.20,4.62
-1,-34,-480,211,-390,4093,-0.51,-1.95,-32.29,2.11,-3.90,40.93,-4.89,-1.54,36.66,-1.67,1.30,10.35
-13,-29,-463,107,-563,3820,-0.54,-1.93,-31.88,1.07,-5.63,38.20,-4.91,-1.56,36.78,1.27,0.10,9.29
-16,-15,-313,-246,-673,3815,-0.58,-1.83,-30.60,-2.46,-6.73,38.15,-4.92,-1.56,36.90,1.87,-3.08,-2.21
-56,-32,-284,-458,-566,3729,-0.87,-1.84,-29.27,-4.58,-5.66,37.29,-4.93,-1.56,37.02,10.97,1.20,-3.42
-20,-30,-257,33,-739,3928,-0.90,-1.84,-27.91,0.33,-7.39,39.28,-4.95,-1.58,37.13,1.68,0.69,-4.44
-9,-23,-183,-110,-640,3974,-0.87,-1.80,-26.24,-1.10,-6.40,39.74,-4.96,-1.58,37.23,-0.98,-0.92,-9.13
-15,-7,-79,-181,-575,4035,-0.87,-1.66,-24.10,-1.81,-5.75,40.35,-4.97,-1.58,37.33,0.53,-4.47,-15.93
-8,-5,-53,-98,-618,3895,-0.83,-1.52,-22.01,-0.98,-6.18,38.95,-4.99,-1.59,37.42,-1.11,-4.47,-16.18
0,11,94,5,-450,3838,-0.75,-1.30,-19.24,0.05,-4.50,38.38,-5.00,-1.59,37.49,-2.83,-7.71,-26.02
2,8,138,32,-406,3956,-0.66,-1.13,-16.47,0.32,-4.06,39.56,-5.01,-1.58,37.56,-3.01,-6.27,-27.16
-1,-6,250,126,-117,3959,-0.60,-1.05,-13.30,1.26,-1.17,39.59,-5.00,-1.59,37.61,-2.02,-2.43,-33.67
-6,-8,251,145,-104,3953,-0.58,-0.99,-10.44,1.45,-1.04,39.53,-4.98,-1.60,37.65,-0.66,-1.71,-31.07
-5,9,168,194,-172,3847,-0.55,-0.84,-8.37,1.94,-1.72,38.47,-4.97,-1.62,37.69,-0.81,-5.45,-22.09
4,19,140,160,-155,3984,-0.47,-0.64,-6.68,1.60,-1.55,39.84,-4.95,-1.63,37.71,-2.79,-7.24,-18.13
4,8,30,51,-301,3905,-0.40,-0.53,-5.83,0.51,-3.01,39.05,-4.94,-1.61,37.74,-2.52,-4.02,-8.01
4,12,32,76,-249,3936,-0.34,-0.40,-5.05,0.76,-2.49,39.36,-4.92,-1.61,37.76,-2.28,-4.56,-7.45
-3,3,65,58,-198,3913,-0.32,-0.34,-4.15,0.58,-1.98,39.13,-4.91,-1.61,37.77,-0.45,-2.05,-9.40
1,-1,94,130,-187,3907,-0.28,-0.31,-3.16,1.30,-1.87,39.07,-4.89,-1.61,37.79,-1.32,-0.93,-10.93
-8,-17,425,217,-677,3865,-0.30,-0.39,-0.25,2.17,-6.77,38.65,-4.91,-1.62,37.79,0.89,2.87,-36.24
-7,-9,436,-204,-176,3845,-0.32,-0.40,2.43,-2.04,-1.76,38.45,-4.90,-1.60,37.78,0.59,0.77,-34.65
16,10,223,83,-353,3872,-0.19,-0.30,3.55,0.83,-3.53,38.72,-4.92,-1.59,37.76,-4.77,-3.68,-15.56
15,18,239,122,-483,3902,-0.08,-0.16,4.65,1.22,-4.83,39.02,-4.93,-1.59,37.74,-4.10,-5.18,-15.88
-9,9,413,-139,-330,3898,-0.12,-0.09,6.71,-1.39,-3.30,38.98,-4.94,-1.57,37.72,1.82,-2.63,-28.69
-27,24,440,-387,-255,3649,-0.28,0.06,8.72,-3.87,-2.55,36.49,-4.94,-1.55,37.68,5.82,-5.86,-29.09
3,4,207,61,-453,3888,-0.23,0.08,9.11,0.61,-4.53,38.88,-4.95,-1.54,37.64,-1.63,-0.70,-8.98
-2,11,180,-1,-120,3921,-0.22,0.14,9.30,-0.01,-1.20,39.21,-4.94,-1.53,37.61,-0.32,-2.26,-6.52
-2,10,255,-37,-304,3879,-0.21,0.19,9.92,-0.37,-3.04,38.79,-4.94,-1.50,37.57,-0.28,-1.83,-12.29
-2,8,266,2,-304,3879,-0.20,0.22,10.55,0.02,-3.04,38.79,-4.93,-1.48,37.53,-0.25,-1.21,-12.63
-2,-4,259,3,-303,3884,-0.19,0.17,11.08,0.03,-3.03,38.84,-4.93,-1.46,37.48,-0.22,1.67,-11.54
-19,-14,279,140,-449,3919,-0.29,0.07,11.67,1.40,-4.49,39.19,-4.95,-1.46,37.44,3.74,3.82,-12.68
-4,11,411,96,-631,3916,-0.28,0.13,13.01,0.96,-6.31,39.16,-4.97,-1.46,37.38,-0.06,-2.31,-22.60
-22,17,451,-184,-573,3825,-0.39,0.22,14.46,-1.84,-5.73,38.25,-4.99,-1.44,37.33,4.12,-3.49,-24.63
-9,21,485,61,-454,3852,-0.41,0.33,15.97,0.61,-4.54,38.52,-5.01,-1.43,37.26,0.76,-4.11,-26.09
-12,5,487,209,-467,4071,-0.44,0.32,17.35,2.09,-4.67,40.71,-5.02,-1.43,37.19,1.40,-0.05,-24.97
5,-39,425,172,-186,4298,-0.36,0.05,18.21,1.72,-1.86,42.98,-5.01,-1.43,37.12,-2.64,10.12,-18.91
13,60,563,165,-662,3752,-0.25,0.41,19.82,1.65,-6.62,37.52,-5.03,-1.43,37.04,-4.24,-13.69,-29.09
-1,29,856,144,-766,3794,-0.23,0.55,23.06,1.44,-7.66,37.94,-5.05,-1.42,36.95,-0.61,-5.30,-50.87
-20,38,957,114,-580,3728,-0.33,0.73,26.59,1.14,-5.80,37.28,-5.07,-1.41,36.84,3.84,-6.92,-56.11
33,81,1220,136,-616,3996,-0.09,1.15,31.37,1.36,-6.16,39.96,-5.09,-1.39,36.72,-8.74,-16.26,-73.90
4,42,1279,3,-537,3949,-0.06,1.29,36.04,0.03,-5.37,39.49,-5.11,-1.37,36.57,-1.25,-5.82,-74.52
71,77,1348,147,-538,3910,0.38,1.63,40.66,1.47,-5.38,39.10,-5.13,-1.35,36.41,-16.62,-13.43,-76.03
23,73,1389,187,-546,3958,0.48,1.91,45.06,1.87,-5.46,39.58,-5.15,-1.34,36.23,-4.04,-11.35,-75.37
3,34,1416,15,-552,3679,0.45,1.93,49.20,0.15,-5.52,36.79,-5.17,-1.30,36.04,0.94,-1.38,-73.78
-61,86,1403,-290,-242,3079,0.03,2.26,52.83,-2.90,-2.42,30.79,-5.18,-1.26,35.83,15.63,-13.34,-69.26
62,49,1473,115,-485,3776,0.41,2.33,56.54,1.15,-4.85,37.76,-5.20,-1.23,35.60,-14.22,-3.67,-71.71
63,94,1521,20,-264,4196,0.75,2.67,60.16,0.20,-2.64,41.96,-5.18,-1.19,35.36,-13.18,-13.82,-72.38
30,97,1661,-106,-424,3936,0.86,3.00,64.28,-1.06,-4.24,39.36,-5.19,-1.14,35.11,-4.39,-13.36,-80.37
42,89,1659,-173,-404,4067,1.03,3.24,67.97,-1.73,-4.04,40.67,-5.19,-1.08,34.84,-6.80,-10.41,-76.74
-132,82,1567,-302,-243,3507,0.12,3.42,70.73,-3.02,-2.43,35.07,-5.20,-1.02,34.56,34.01,-7.97,-66.35
40,46,1515,-158,-82,4676,0.35,3.36,72.90,-1.58,-0.82,46.76,-5.18,-0.97,34.27,-8.83,0.95,-59.91
-8,35,1470,-45,-501,3842,0.27,3.23,74.58,-0.45,-5.01,38.42,-5.20,-0.92,33.97,3.05,3.28,-54.52
-11,78,1465,-48,-309,3685,0.18,3.39,76.06,-0.48,-3.09,36.85,-5.20,-0.86,33.67,3.46,-7.07,-52.71
-13,11,1434,-178,-232,3862,0.08,3.11,77.20,-1.78,-2.32,38.62,-5.20,-0.81,33.37,3.60,8.94,-49.01
-34,26,1417,-202,-175,3838,-0.14,2.96,78.12,-2.02,-1.75,38.38,-5.19,-0.75,33.06,8.13,4.55,-46.70
-36,33,1258,-132,-256,3760,-0.34,2.87,77.98,-1.32,-2.56,37.60,-5.19,-0.70,32.75,7.86,2.41,-33.36
-20,23,1148,-57,-180,4008,-0.43,2.72,77.19,-0.57,-1.80,40.08,-5.18,-0.65,32.44,3.46,4.40,-24.79
-15,19,926,84,-99,3974,-0.48,2.56,75.12,0.84,-0.99,39.74,-5.17,-0.61,32.14,2.01,4.83,-7.93
-13,16,874,126,-70,3922,-0.51,2.41,72.94,1.26,-0.70,39.22,-5.15,-0.58,31.85,1.38,4.99,-5.57
-12,1,709,-15,-5,3996,-0.53,2.17,69.97,-0.15,-0.05,39.96,-5.14,-0.55,31.57,1.04,7.92,5.62
-7,0,673,-209,-44,3845,-0.52,1.95,67.08,-2.09,-0.44,38.45,-5.13,-0.50,31.31,-0.19,7.36,5.96
-4,14,658,-197,-122,3882,-0.49,1.84,64.38,-1.97,-1.22,38.82,-5.12,-0.46,31.05,-0.84,3.39,4.70
-9,17,666,-24,-239,3893,-0.50,1.76,62.01,-0.24,-2.39,38.93,-5.11,-0.42,30.81,0.41,2.32,1.79
-6,22,667,210,-541,3831,-0.49,1.72,59.87,2.10,-5.41,38.31,-5.13,-0.41,30.57,-0.31,0.89,-0.29
-7,-5,663,34,-536,3795,-0.48,1.52,57.93,0.34,-5.36,37.95,-5.15,-0.38,30.34,-0.03,6.99,-1.78
-12,19,729,33,-432,3856,-0.51,1.48,56.59,0.33,-4.32,38.56,-5.17,-0.36,30.11,1.15,0.76,-8.63
-7,7,771,171,-564,3967,-0.50,1.38,55.63,1.71,-5.64,39.67,-5.19,-0.34,29.89,-0.10,3.41,-13.09
-18,8,836,207,-475,3911,-0.56,1.29,55.17,2.07,-4.75,39.11,-5.20,-0.33,29.67,2.47,2.82,-19.03
-17,13,858,192,-487,3890,-0.61,1.24,54.88,1.92,-4.87,38.90,-5.22,-0.32,29.45,2.04,1.36,-21.16
-10,10,893,16,-414,3851,-0.61,1.18,54.84,0.16,-4.14,38.51,-5.24,-0.29,29.24,0.26,1.89,-24.17
-22,9,904,-23,-390,3905,-0.68,1.11,54.87,-0.23,-3.90,39.05,-5.25,-0.26,29.02,3.03,1.91,-25.07
-19,15,945,-106,-197,3887,-0.73,1.09,55.15,-1.06,-1.97,38.87,-5.24,-0.22,28.80,2.09,0.31,-28.28
-2,18,955,-124,-194,3961,-0.67,1.09,55.46,-1.24,-1.94,39.61,-5.23,-0.18,28.58,-2.00,-0.46,-28.84
-5,21,957,-140,-192,3958,-0.63,1.11,55.75,-1.40,-1.92,39.58,-5.22,-0.15,28.36,-1.11,-1.15,-28.73
-20,5,945,-102,-187,3959,-0.69,1.03,55.94,-1.02,-1.87,39.59,-5.21,-0.11,28.13,2.49,2.62,-27.54
-7,12,871,-36,-263,3877,-0.66,1.00,55.66,-0.36,-2.63,38.77,-5.20,-0.08,27.91,-0.72,0.72,-21.53
-18,3,819,-14,-309,3927,-0.71,0.92,55.09,-0.14,-3.09,39.27,-5.18,-0.05,27.69,1.91,2.70,-17.66
-21,4,705,-26,-426,3885,-0.76,0.85,53.88,-0.26,-4.26,38.85,-5.20,-0.02,27.48,2.46,2.19,-9.14
-8,2,675,53,-442,3974,-0.74,0.78,52.61,0.53,-4.42,39.74,-5.22,-0.01,27.27,-0.74,2.43,-7.79
-15,0,653,15,-402,3945,-0.75,0.70,51.33,0.15,-4.02,39.45,-5.24,0.01,27.07,0.97,2.64,-7.13
-2,-3,671,50,-352,3861,-0.69,0.61,50.29,0.50,-3.52,38.61,-5.24,0.01,26.87,-2.10,3.07,-9.63
-8,1,779,88,-423,3897,-0.67,0.56,50.02,0.88,-4.23,38.97,-5.26,0.02,26.67,-0.49,1.85,-19.04
-22,0,815,87,-471,3931,-0.74,0.50,49.99,0.87,-4.71,39.31,-5.27,0.03,26.47,2.81,1.89,-22.12
-10,8,943,-148,-499,3923,-0.73,0.50,50.74,-1.48,-4.99,39.23,-5.29,0.06,26.27,-0.19,-0.15,-32.25
-30,3,988,-140,-456,3947,-0.84,0.47,51.69,-1.40,-4.56,39.47,-5.30,0.10,26.06,4.48,1.00,-35.17
-32,23,1166,-420,-343,3947,-0.95,0.56,53.64,-4.20,-3.43,39.47,-5.31,0.14,25.85,4.57,-3.73,-48.43
-12,23,1245,-516,-381,3847,-0.93,0.65,55.87,-5.16,-3.81,38.47,-5.31,0.18,25.62,-0.44,-3.41,-53.03
-7,20,1361,-561,-407,3793,-0.88,0.70,58.58,-5.61,-4.07,37.93,-5.31,0.22,25.39,-1.52,-2.43,-60.31
-28,9,1394,-509,-445,3994,-0.96,0.69,61.23,-5.09,-4.45,39.94,-5.32,0.26,25.15,3.50,0.30,-60.62
-17,8,1492,-219,-444,4053,-0.97,0.67,64.21,-2.19,-4.44,40.53,-5.33,0.31,24.89,0.68,0.48,-66.12
-23,8,1512,-123,-494,3890,-1.01,0.65,67.01,-1.23,-4.94,38.90,-5.34,0.35,24.63,2.04,0.42,-65.19
-31,9,1558,-97,-431,3780,-1.10,0.64,69.81,-0.97,-4.31,37.80,-5.36,0.39,24.35,3.74,0.12,-66.45
-26,34,1571,-160,-408,3915,-1.15,0.78,72.41,-1.60,-4.08,39.15,-5.37,0.44,24.06,2.29,-5.69,-65.11
-10,43,1585,-69,-335,3922,-1.09,0.97,74.84,-0.69,-3.35,39.22,-5.36,0.48,23.76,-1.58,-7.29,-64.02
-15,33,1578,-47,-328,4065,-1.08,1.07,76.98,-0.47,-3.28,40.65,-5.34,0.52,23.46,-0.24,-4.35,-61.41
-22,30,1507,-113,-333,3887,-1.10,1.15,78.48,-1.13,-3.33,38.87,-5.34,0.57,23.14,1.44,-3.30,-54.00
-17,30,1460,-110,-306,3925,-1.10,1.22,79.53,-1.10,-3.06,39.25,-5.33,0.62,22.83,0.19,-3.04,-49.02
-24,14,1337,-116,-321,3905,-1.13,1.18,79.74,-1.16,-3.21,39.05,-5.32,0.67,22.51,1.83,0.89,-38.41
-26,7,1295,-101,-303,3936,-1.18,1.10,79.66,-1.01,-3.03,39.36,-5.30,0.71,22.19,2.17,2.38,-34.92
-33,5,1145,-120,-349,3862,-1.26,1.02,78.68,-1.20,-3.49,38.62,-5.30,0.76,21.88,3.64,2.59,-23.13
-18,16,1101,-116,-264,3883,-1.25,1.02,77.53,-1.16,-2.64,38.83,-5.29,0.81,21.57,-0.11,-0.23,-20.49
-11,10,945,-200,-258,3878,-1.19,0.98,75.54,-2.00,-2.58,38.78,-5.28,0.85,21.27,-1.68,1.14,-9.14
-12,-5,910,-161,-255,3973,-1.14,0.85,73.54,-1.61,-2.55,39.73,-5.27,0.90,20.98,-1.25,4.47,-8.05
-21,-5,840,-115,-195,3987,-1.16,0.73,71.31,-1.15,-1.95,39.87,-5.25,0.93,20.69,0.98,4.04,-4.22
-10,2,817,-124,-219,3994,-1.10,0.67,69.16,-1.24,-2.19,39.94,-5.23,0.97,20.42,-1.61,2.03,-4.28
-6,17,742,-39,-288,3914,-1.03,0.71,66.77,-0.39,-2.88,39.14,-5.21,0.99,20.15,-2.35,-1.65,-0.17
-2,34,718,-109,-347,3932,-0.94,0.85,64.47,-1.09,-3.47,39.32,-5.21,1.03,19.90,-3.02,-5.45,-0.30
-13,23,702,-5,-437,3986,-0.92,0.90,62.31,-0.05,-4.37,39.86,-5.22,1.05,19.65,-0.17,-2.45,-0.97
-7,15,698,10,-444,4004,-0.87,0.90,60.34,0.10,-4.44,40.04,-5.23,1.06,19.41,-1.51,-0.41,-2.49
-13,9,697,47,-475,3988,-0.87,0.87,58.55,0.47,-4.75,39.88,-5.24,1.07,19.18,0.05,0.98,-4.08
-8,17,695,86,-496,3802,-0.83,0.88,56.94,0.86,-4.96,38.02,-5.25,1.08,18.95,-1.08,-0.99,-5.42
-6,13,693,56,-610,3929,-0.78,0.88,55.47,0.56,-6.10,39.29,-5.27,1.09,18.73,-1.42,-0.01,-6.63
-5,17,694,47,-547,3897,-0.73,0.89,54.16,0.47,-5.47,38.97,-5.28,1.11,18.51,-1.49,-0.96,-7.95
-11,12,742,10,-529,3917,-0.73,0.88,53.27,0.10,-5.29,39.17,-5.30,1.12,18.30,0.06,0.25,-12.85
-14,11,765,25,-492,3883,-0.74,0.86,52.61,0.25,-4.92,38.83,-5.31,1.13,18.09,0.77,0.43,-15.42
-17,12,839,-46,-343,3838,-0.77,0.84,52.46,-0.46,-3.43,38.38,-5.30,1.14,17.88,1.42,0.13,-21.82
-15,6,855,-121,-291,3923,-0.78,0.80,52.43,-1.21,-2.91,39.23,-5.29,1.17,17.67,0.86,1.47,-23.21
-20,9,812,-97,-82,3914,-0.83,0.77,52.14,-0.97,-0.82,39.14,-5.27,1.20,17.47,1.96,0.62,-19.84
-14,-1,777,-114,-112,3960,-0.83,0.69,51.67,-1.14,-1.12,39.60,-5.25,1.22,17.26,0.43,2.84,-17.32
-8,14,602,-59,-33,3926,-0.80,0.70,50.17,-0.59,-0.33,39.26,-5.23,1.24,17.06,-0.97,-0.91,-3.89
-8,4,530,-12,7,3926,-0.77,0.66,48.39,-0.12,0.07,39.26,-5.21,1.26,16.87,-0.85,1.46,0.53
-11,125,279,-22,-47,3750,-0.76,1.35,45.25,-0.22,-0.47,37.50,-5.19,1.27,16.69,-0.05,-26.67,18.85
4,166,211,-39,-111,3891,-0.66,2.23,42.01,-0.39,-1.11,38.91,-5.17,1.30,16.52,-3.49,-33.78,21.57
-3,25,45,0,-381,3929,-0.61,2.16,38.09,0.00,-3.81,39.29,-5.18,1.30,16.37,-1.53,1.79,31.95
-4,32,34,-100,-353,3950,-0.57,2.14,34.49,-1.00,-3.53,39.50,-5.17,1.34,16.23,-1.14,-0.07,29.50
8,49,29,-147,-360,3993,-0.47,2.23,31.21,-1.47,-3.60,39.93,-5.17,1.38,16.11,-3.79,-4.07,26.85
169,169,68,-400,-237,3920,0.61,3.03,28.51,-4.00,-2.37,39.20,-5.15,1.42,16.00,-40.65,-31.53,21.00
28,24,125,-141,-340,3772,0.72,2.88,26.42,-1.41,-3.40,37.72,-5.15,1.45,15.89,-4.40,4.74,14.21
12,1,123,-52,-355,3877,0.72,2.60,24.53,-0.52,-3.55,38.77,-5.15,1.46,15.80,-0.33,9.52,12.61
-73,-78,163,-90,-186,3897,0.20,1.86,23.07,-0.90,-1.86,38.97,-5.12,1.47,15.70,19.32,26.83,7.85
-96,-99,187,-78,-199,3882,-0.40,1.07,21.90,-0.78,-1.99,38.82,-5.11,1.48,15.62,22.89,29.19,4.72
-33,-39,246,29,-206,3955,-0.56,0.72,21.21,0.29,-2.06,39.55,-5.09,1.48,15.53,6.27,12.64,-0.92
-12,-27,246,69,-211,4007,-0.58,0.49,20.59,0.69,-2.11,40.07,-5.08,1.47,15.45,0.87,8.70,-1.51
-3,-1,196,-7,-393,3907,-0.54,0.43,19.73,-0.07,-3.93,39.07,-5.09,1.47,15.37,-1.27,1.88,1.92
-2,-4,178,-34,-435,3948,-0.50,0.37,18.84,-0.34,-4.35,39.48,-5.10,1.46,15.30,-1.37,2.39,2.61
-6,-6,154,-23,-515,3936,-0.48,0.29,17.90,-0.23,-5.15,39.36,-5.12,1.46,15.23,-0.30,2.63,3.76
-1,-5,133,-52,-560,3933,-0.44,0.23,16.92,-0.52,-5.60,39.33,-5.14,1.46,15.16,-1.41,2.15,4.62
-4,-1,91,-9,-520,3929,-0.42,0.20,15.78,-0.09,-5.20,39.29,-5.15,1.46,15.10,-0.58,1.02,7.11
-5,-5,75,19,-516,3929,-0.41,0.15,14.66,0.19,-5.16,39.29,-5.17,1.46,15.04,-0.28,1.84,7.41
-2,-31,14,20,-420,3912,-0.38,-0.05,13.28,0.20,-4.20,39.12,-5.18,1.45,14.99,-0.93,7.68,11.28
0,-34,9,-30,-400,3908,-0.34,-0.25,12.01,-0.30,-4.00,39.08,-5.19,1.43,14.94,-1.30,7.68,10.51
-2,5,52,-42,-385,3905,-0.32,-0.20,11.12,-0.42,-3.85,39.05,-5.20,1.42,14.89,-0.70,-2.02,6.04
3,14,39,-4,-387,3917,-0.27,-0.09,10.25,-0.04,-3.87,39.17,-5.20,1.41,14.85,-1.78,-3.91,6.32
-1,-11,77,57,-264,3859,-0.25,-0.15,9.69,0.57,-2.64,38.59,-5.19,1.39,14.81,-0.69,2.23,2.58
1,-6,121,63,-207,3933,-0.22,-0.17,9.46,0.63,-2.07,39.33,-5.18,1.38,14.78,-1.08,0.88,-1.37
-7,-1,310,76,-502,3951,-0.24,-0.16,10.41,0.76,-5.02,39.51,-5.19,1.37,14.74,0.88,-0.35,-16.49
-4,2,402,41,-540,3905,-0.24,-0.13,11.82,0.41,-5.40,39.05,-5.21,1.36,14.69,0.11,-1.01,-22.96
-12,5,621,-20,-577,3897,-0.29,-0.09,14.43,-0.20,-5.77,38.97,-5.22,1.36,14.63,1.96,-1.61,-39.07
-23,0,699,-82,-588,3869,-0.40,-0.08,17.25,-0.82,-5.88,38.69,-5.24,1.37,14.56,4.34,-0.30,-43.03
-14,7,971,-59,-531,3994,-0.45,-0.03,21.45,-0.59,-5.31,39.94,-5.26,1.37,14.48,1.88,-1.89,-62.13
-6,1,1035,-90,-497,3814,-0.44,-0.02,25.61,-0.90,-4.97,38.14,-5.28,1.38,14.38,-0.13,-0.33,-63.64
1,-12,1164,-124,-392,3839,-0.39,-0.09,30.15,-1.24,-3.92,38.39,-5.29,1.40,14.26,-1.72,2.70,-70.31
-55,-12,1185,-126,-489,3964,-0.68,-0.16,34.37,-1.26,-4.89,39.64,-5.31,1.42,14.12,11.40,2.46,-68.13
-17,-44,1173,-165,-319,3683,-0.72,-0.41,38.08,-1.65,-3.19,36.83,-5.30,1.45,13.97,1.61,9.64,-63.62
-11,1,1168,-186,-305,3920,-0.72,-0.36,41.40,-1.86,-3.05,39.20,-5.29,1.48,13.80,0.10,-1.62,-60.08
-15,20,1079,-138,-341,4003,-0.74,-0.20,43.84,-1.38,-3.41,40.03,-5.28,1.51,13.63,1.04,-5.85,-50.25
-16,14,1027,-109,-281,3853,-0.76,-0.10,45.72,-1.09,-2.81,38.53,-5.26,1.53,13.45,1.21,-3.93,-44.08
-6,28,947,-145,-367,3952,-0.72,0.08,46.93,-1.45,-3.67,39.52,-5.26,1.56,13.26,-1.19,-6.80,-36.17
-5,17,933,-111,-361,3915,-0.68,0.18,47.93,-1.11,-3.61,39.15,-5.26,1.60,13.07,-1.28,-3.65,-34.05
-18,12,898,-87,-433,3938,-0.72,0.23,48.61,-0.87,-4.33,39.38,-5.27,1.61,12.87,1.86,-2.17,-30.44
-7,22,894,-46,-400,3890,-0.69,0.34,49.20,-0.46,-4.00,38.90,-5.28,1.62,12.68,-0.82,-4.29,-29.54
-26,14,894,-91,-400,3927,-0.78,0.40,49.74,-0.91,-4.00,39.27,-5.29,1.63,12.48,3.67,-2.07,-29.04
-13,5,902,-20,-324,3998,-0.78,0.39,50.27,-0.20,-3.24,39.98,-5.28,1.63,12.28,0.36,0.18,-29.23
-11,18,892,-77,-309,3927,-0.77,0.46,50.68,-0.77,-3.09,39.27,-5.26,1.64,12.08,-0.11,-2.85,-27.99
-4,24,884,-52,-297,3882,-0.72,0.56,51.00,-0.52,-2.97,38.82,-5.25,1.65,11.88,-1.69,-4.00,-27.01
-9,9,835,-69,-312,3876,-0.70,0.56,51.00,-0.69,-3.12,38.76,-5.23,1.66,11.67,-0.35,-0.19,-22.86
-6,5,792,-89,-264,3968,-0.67,0.53,50.73,-0.89,-2.64,39.68,-5.21,1.67,11.47,-0.99,0.73,-19.47
-19,1,712,-43,-428,3941,-0.72,0.48,50.00,-0.43,-4.28,39.41,-5.22,1.68,11.27,2.13,1.57,-13.38
-14,-5,686,-24,-364,3928,-0.73,0.41,49.18,-0.24,-3.64,39.28,-5.22,1.68,11.07,0.81,2.80,-11.94
-13,3,595,-8,-453,3855,-0.74,0.38,47.89,-0.08,-4.53,38.55,-5.23,1.69,10.88,0.53,0.68,-5.44
-7,-2,569,-31,-359,3924,-0.71,0.33,46.58,-0.31,-3.59,39.24,-5.23,1.69,10.70,-0.88,1.76,-4.48
-10,1,493,-35,-368,3967,-0.70,0.31,44.93,-0.35,-3.68,39.67,-5.22,1.69,10.52,-0.08,0.90,0.41
-12,7,478,-52,-340,3879,-0.70,0.32,43.35,-0.52,-3.40,38.79,-5.22,1.69,10.35,0.41,-0.58,0.20
-6,0,466,-66,-348,4038,-0.67,0.29,41.86,-0.66,-3.48,40.38,-5.21,1.68,10.18,-0.99,1.08,-0.18
-4,8,461,-73,-325,3862,-0.62,0.31,40.48,-0.73,-3.25,38.62,-5.20,1.68,10.02,-1.33,-0.88,-1.05
-4,10,464,-124,-324,3871,-0.59,0.34,39.27,-1.24,-3.24,38.71,-5.18,1.71,9.86,-1.19,-1.27,-2.45
-23,3,458,-72,-286,4028,-0.67,0.32,38.13,-0.72,-2.86,40.28,-5.16,1.71,9.71,3.33,0.45,-3.00
1,3,426,-52,-345,3912,-0.59,0.31,36.92,-0.52,-3.45,39.12,-5.16,1.71,9.56,-2.50,0.40,-1.43
-15,7,420,-96,-404,3883,-0.63,0.32,35.79,-0.96,-4.04,38.83,-5.17,1.72,9.42,1.45,-0.58,-1.98
-4,9,410,-53,-477,3956,-0.59,0.34,34.71,-0.53,-4.77,39.56,-5.19,1.72,9.28,-1.20,-1.00,-2.15
0,0,415,-39,-477,3929,-0.53,0.31,33.77,-0.39,-4.77,39.29,-5.20,1.72,9.15,-2.00,1.16,-3.45
-5,2,478,34,-512,4027,-0.51,0.29,33.31,0.34,-5.12,40.27,-5.21,1.72,9.02,-0.64,0.58,-9.22
-16,0,494,-48,-418,3903,-0.55,0.26,32.99,-0.48,-4.18,39.03,-5.22,1.72,8.89,1.98,0.98,-10.88
-13,5,577,-54,-440,3961,-0.58,0.27,33.21,-0.54,-4.40,39.61,-5.23,1.72,8.75,1.13,-0.27,-17.70
-3,11,608,-25,-420,3925,-0.54,0.31,33.60,-0.25,-4.20,39.25,-5.24,1.72,8.62,-1.27,-1.64,-19.96
-24,5,697,-71,-382,3943,-0.63,0.31,34.49,-0.71,-3.82,39.43,-5.25,1.72,8.48,3.72,-0.12,-26.67
-15,12,736,-50,-361,3909,-0.66,0.35,35.53,-0.50,-3.61,39.09,-5.24,1.72,8.34,1.33,-1.74,-28.99
-18,8,815,-37,-439,3920,-0.70,0.36,36.95,-0.37,-4.39,39.20,-5.26,1.72,8.19,1.93,-0.67,-34.36
-5,21,824,-47,-462,3851,-0.66,0.45,38.28,-0.47,-4.62,38.51,-5.27,1.72,8.04,-1.23,-3.63,-33.87
-33,11,854,-26,-498,3945,-0.80,0.48,39.66,-0.26,-4.98,39.45,-5.28,1.73,7.89,5.38,-1.00,-35.11
-6,3,850,-26,-444,4014,-0.76,0.45,40.88,-0.26,-4.44,40.14,-5.29,1.73,7.72,-1.32,0.92,-33.63
-11,10,857,-121,-471,3824,-0.75,0.46,42.02,-1.21,-4.71,38.24,-5.31,1.75,7.56,-0.02,-0.80,-33.15
-11,11,870,-79,-519,3911,-0.74,0.48,43.13,-0.79,-5.19,39.11,-5.32,1.76,7.39,0.01,-0.97,-33.22
-34,2,937,-26,-523,3924,-0.87,0.45,44.53,-0.26,-5.23,39.24,-5.34,1.77,7.21,5.35,1.18,-37.58
-11,8,955,-49,-501,3906,-0.85,0.45,45.90,-0.49,-5.01,39.06,-5.35,1.78,7.03,-0.42,-0.33,-37.81
-18,5,1013,-80,-522,3944,-0.88,0.44,47.49,-0.80,-5.22,39.44,-5.37,1.80,6.84,1.27,0.37,-41.23
-24,11,1036,-97,-452,3942,-0.94,0.46,49.06,-0.97,-4.52,39.42,-5.38,1.81,6.64,2.58,-1.06,-41.71
-16,13,1047,-131,-410,3961,-0.94,0.49,50.54,-1.31,-4.10,39.61,-5.40,1.83,6.44,0.53,-1.45,-41.25
-17,9,1040,-106,-416,3837,-0.95,0.50,51.83,-1.06,-4.16,38.37,-5.41,1.85,6.24,0.74,-0.41,-39.45
-23,0,970,-105,-358,3862,-0.99,0.45,52.57,-1.05,-3.58,38.62,-5.40,1.85,6.03,2.10,1.69,-32.83
-20,-10,945,-143,-384,3975,-1.02,0.34,53.07,-1.43,-3.84,39.75,-5.41,1.89,5.82,1.25,3.83,-30.23
-16,20,844,-62,-343,3943,-1.01,0.43,52.91,-0.62,-3.43,39.43,-5.40,1.90,5.61,0.25,-3.46,-21.82
-14,20,809,-34,-376,3922,-1.00,0.51,52.56,-0.34,-3.76,39.22,-5.40,1.90,5.40,-0.20,-3.16,-19.19
1,23,695,-125,-271,3873,-0.89,0.60,51.54,-1.25,-2.71,38.73,-5.37,1.92,5.19,-3.61,-3.59,-10.49
-15,29,674,-92,-269,3943,-0.89,0.72,50.50,-0.92,-2.69,39.43,-5.35,1.94,4.99,0.45,-4.67,-9.69
-3,33,624,-57,-255,3993,-0.82,0.85,49.26,-0.57,-2.55,39.93,-5.34,1.95,4.79,-2.34,-5.20,-6.62
-12,36,630,-76,-332,3824,-0.81,0.98,48.17,-0.76,-3.32,38.24,-5.32,1.95,4.60,-0.01,-5.46,-8.15
-8,58,610,-101,-263,4036,-0.78,1.24,47.08,-1.01,-2.63,40.36,-5.30,1.97,4.41,-0.91,-10.08,-7.48
-15,40,590,-122,-302,3864,-0.79,1.36,45.97,-1.22,-3.02,38.64,-5.28,1.99,4.23,0.82,-5.06,-6.83
-4,16,506,-68,-309,3936,-0.74,1.32,44.46,-0.68,-3.09,39.36,-5.27,2.00,4.05,-1.77,0.90,-1.13
-2,8,492,-6,-295,3922,-0.68,1.24,43.01,-0.06,-2.95,39.22,-5.26,2.00,3.88,-2.04,2.62,-1.30
-11,11,454,49,-374,3924,-0.68,1.18,41.48,0.49,-3.74,39.24,-5.25,2.00,3.72,0.25,1.65,0.48
-4,11,437,-25,-407,3912,-0.63,1.13,40.00,-0.25,-4.07,39.12,-5.26,2.00,3.56,-1.37,1.45,0.53
-1,8,402,-18,-366,3928,-0.58,1.06,38.45,-0.18,-3.66,39.28,-5.26,2.00,3.40,-1.92,1.98,2.04
-2,8,396,-28,-387,3912,-0.53,1.01,37.02,-0.28,-3.87,39.12,-5.26,2.00,3.26,-1.49,1.76,1.21
-6,5,398,-27,-348,3877,-0.51,0.94,35.75,-0.27,-3.48,38.77,-5.25,2.00,3.12,-0.41,2.26,-0.16
1,12,408,-39,-339,3942,-0.46,0.92,34.66,-0.39,-3.39,39.42,-5.25,2.00,2.98,-1.98,0.40,-2.02
-9,14,436,-104,-341,3920,-0.47,0.91,33.85,-1.04,-3.41,39.20,-5.23,2.00,2.84,0.53,-0.13,-5.15
-2,1,442,-66,-294,3963,-0.43,0.83,33.17,-0.66,-2.94,39.63,-5.22,2.00,2.71,-1.12,2.85,-6.31
-6,11,471,-101,-376,3906,-0.43,0.81,32.72,-1.01,-3.76,39.06,-5.22,2.00,2.58,-0.08,0.25,-9.18
-5,5,469,-109,-433,3899,-0.41,0.76,32.31,-1.09,-4.33,38.99,-5.24,2.01,2.45,-0.29,1.59,-9.40
-8,0,436,-35,-484,4026,-0.42,0.68,31.74,-0.35,-4.84,40.26,-5.25,2.01,2.33,0.45,2.57,-7.14
6,8,414,-44,-402,3880,-0.34,0.66,31.09,-0.44,-4.02,38.80,-5.25,2.01,2.20,-2.81,0.47,-5.88
-7,6,357,-64,-511,3948,-0.35,0.63,30.16,-0.64,-5.11,39.48,-5.27,2.01,2.08,0.46,0.86,-1.93
-5,2,352,-50,-451,3889,-0.35,0.58,29.29,-0.50,-4.51,38.89,-5.28,2.02,1.97,-0.03,1.69,-2.32
-8,2,385,-111,-468,3886,-0.36,0.54,28.71,-1.11,-4.68,38.86,-5.29,2.02,1.85,0.68,1.51,-5.66
-6,6,409,-123,-430,3915,-0.36,0.52,28.33,-1.23,-4.30,39.15,-5.31,2.03,1.74,0.17,0.43,-8.05
-2,7,476,-90,-413,3951,-0.34,0.51,28.40,-0.90,-4.13,39.51,-5.32,2.03,1.63,-0.76,0.14,-13.66
-5,7,507,-125,-405,3846,-0.33,0.50,28.66,-1.25,-4.05,38.46,-5.33,2.04,1.52,0.01,0.11,-16.05
0,16,537,-118,-412,3851,-0.30,0.55,29.07,-1.18,-4.12,38.51,-5.35,2.05,1.40,-1.13,-2.00,-18.21
-23,4,544,-53,-462,3954,-0.41,0.52,29.48,-0.53,-4.62,39.54,-5.36,2.05,1.28,4.30,0.94,-18.41
-3,10,555,-46,-452,3904,-0.39,0.53,29.92,-0.46,-4.52,39.04,-5.37,2.05,1.17,-0.70,-0.55,-18.93
5,14,558,-98,-482,3880,-0.32,0.56,30.33,-0.98,-4.82,38.80,-5.38,2.05,1.05,-2.47,-1.45,-18.80
-8,1,604,-56,-488,3917,-0.34,0.51,30.98,-0.56,-4.88,39.17,-5.39,2.06,0.92,0.77,1.67,-22.09
-21,4,619,-54,-514,3955,-0.43,0.48,31.66,-0.54,-5.14,39.55,-5.41,2.06,0.80,3.72,0.81,-22.72
-6,14,647,-22,-493,3990,-0.42,0.52,32.44,-0.22,-4.93,39.90,-5.42,2.06,0.67,-0.07,-1.60,-24.36
-22,17,669,-97,-582,3760,-0.52,0.57,33.28,-0.97,-5.82,37.60,-5.43,2.07,0.54,3.65,-2.16,-25.44
-12,14,695,413,-421,3924,-0.54,0.60,34.19,4.13,-4.21,39.24,-5.43,2.07,0.40,1.03,-1.30,-26.78
0,9,704,675,-341,4011,-0.48,0.60,35.06,6.75,-3.41,40.11,-5.43,2.07,0.26,-1.82,-0.04,-26.72
-8,8,735,199,-488,3891,-0.48,0.58,36.04,1.99,-4.88,38.91,-5.43,2.07,0.12,0.21,0.17,-28.43
-17,3,739,-150,-586,3895,-0.54,0.54,36.94,-1.50,-5.86,38.95,-5.44,2.08,-0.03,2.29,1.29,-27.92
-16,5,741,-359,-542,3897,-0.58,0.52,37.77,-3.59,-5.42,38.97,-5.45,2.11,-0.18,1.87,0.69,-27.32
-11,1,731,-172,-497,4058,-0.59,0.47,38.45,-1.72,-4.97,40.58,-5.47,2.13,-0.33,0.57,1.53,-25.83
-18,5,713,-79,-568,3872,-0.64,0.46,38.96,-0.79,-5.68,38.72,-5.48,2.14,-0.48,2.16,0.45,-23.83
-4,20,726,-93,-559,3919,-0.60,0.53,39.49,-0.93,-5.59,39.19,-5.50,2.16,-0.64,-1.25,-3.07,-24.43
-19,24,785,-108,-563,3883,-0.66,0.63,40.33,-1.08,-5.63,38.83,-5.51,2.17,-0.80,2.35,-3.74,-28.64
-16,16,832,-123,-552,3949,-0.69,0.66,41.37,-1.23,-5.52,39.49,-5.52,2.19,-0.96,1.47,-1.57,-31.65
-16,11,865,-24,-494,3992,-0.72,0.66,42.51,-0.24,-4.94,39.92,-5.53,2.19,-1.13,1.36,-0.30,-33.37
-5,-11,861,55,-415,3971,-0.68,0.53,43.51,0.55,-4.15,39.71,-5.53,2.19,-1.31,-1.28,4.79,-32.09
-30,-20,886,-31,-464,3922,-0.79,0.35,44.56,-0.31,-4.64,39.22,-5.54,2.20,-1.48,4.64,6.42,-33.22
-9,9,893,-42,-368,3826,-0.77,0.37,45.56,-0.42,-3.68,38.26,-5.53,2.20,-1.66,-0.61,-0.88,-32.89
-8,18,921,-286,-386,3914,-0.74,0.45,46.62,-2.86,-3.86,39.14,-5.53,2.23,-1.85,-0.75,-2.89,-34.26
-23,22,922,-310,-360,3940,-0.81,0.54,47.58,-3.10,-3.60,39.40,-5.52,2.27,-2.04,2.81,-3.57,-33.44
-3,29,933,-274,-281,3878,-0.74,0.66,48.51,-2.74,-2.81,38.78,-5.51,2.31,-2.23,-2.04,-4.89,-33.50
-4,23,935,-280,-270,3987,-0.69,0.73,49.37,-2.80,-2.70,39.87,-5.49,2.34,-2.43,-1.60,-3.08,-32.87
-19,19,940,-185,-306,3959,-0.74,0.78,50.16,-1.85,-3.06,39.59,-5.47,2.37,-2.63,2.04,-1.91,-32.54
-10,32,941,-205,-291,3903,-0.73,0.89,50.89,-2.05,-2.91,39.03,-5.45,2.40,-2.83,-0.20,-4.77,-31.95
-4,20,918,-98,-157,3982,-0.68,0.93,51.40,-0.98,-1.57,39.82,-5.42,2.42,-3.04,-1.54,-1.59,-29.52
-3,10,907,-150,-180,3919,-0.63,0.89,51.79,-1.50,-1.80,39.19,-5.40,2.44,-3.25,-1.61,0.83,-28.22
-17,13,864,-102,-237,3895,-0.67,0.88,51.88,-1.02,-2.37,38.95,-5.37,2.46,-3.45,1.80,0.03,-24.49
-5,13,839,-42,-194,3957,-0.63,0.88,51.81,-0.42,-1.94,39.57,-5.35,2.47,-3.66,-1.12,-0.01,-22.44
-9,23,789,3,-296,3851,-0.63,0.93,51.44,0.03,-2.96,38.51,-5.34,2.47,-3.86,-0.07,-2.35,-18.55
-15,16,781,33,-334,3979,-0.65,0.93,51.06,0.33,-3.34,39.79,-5.33,2.48,-4.07,1.35,-0.55,-18.23
-7,6,726,-90,-340,3977,-0.63,0.88,50.39,-0.90,-3.40,39.77,-5.32,2.48,-4.27,-0.60,1.78,-14.20
-11,0,700,-145,-394,3876,-0.64,0.79,49.62,-1.45,-3.94,38.76,-5.33,2.50,-4.47,0.40,2.97,-12.72
-13,-94,667,-242,-444,4014,-0.65,0.14,48.72,-2.42,-4.44,40.14,-5.34,2.53,-4.66,0.85,24.41,-10.76
-9,-17,685,-258,-429,3709,-0.64,0.02,48.03,-2.58,-4.29,37.09,-5.34,2.56,-4.85,-0.13,4.39,-12.94
-6,-14,711,-22,-452,3990,-0.61,-0.07,47.56,-0.22,-4.52,39.90,-5.34,2.56,-5.04,-0.79,3.30,-15.58
-5,-8,717,-44,-418,4000,-0.58,-0.11,47.18,-0.44,-4.18,40.00,-5.34,2.56,-5.23,-0.92,1.62,-16.45
-9,5,755,104,-501,3964,-0.58,-0.07,47.07,1.04,-5.01,39.64,-5.34,2.56,-5.42,0.11,-1.53,-19.77
-8,13,764,73,-428,3891,-0.57,0.02,47.02,0.73,-4.28,38.91,-5.34,2.56,-5.60,-0.11,-3.24,-20.58
-27,9,760,18,-591,3852,-0.68,0.07,46.96,0.18,-5.91,38.52,-5.35,2.57,-5.79,4.31,-2.02,-20.30
-4,9,762,96,-510,3931,-0.63,0.12,46.91,0.96,-5.10,39.31,-5.35,2.57,-5.98,-1.37,-1.84,-20.52
-24,12,779,31,-614,3898,-0.72,0.18,46.97,0.31,-6.14,38.98,-5.36,2.57,-6.16,3.40,-2.37,-21.90
-9,10,778,119,-514,3854,-0.70,0.22,47.02,1.19,-5.14,38.54,-5.37,2.58,-6.35,-0.35,-1.70,-21.77
-6,10,778,163,-534,3935,-0.67,0.26,47.06,1.63,-5.34,39.35,-5.37,2.58,-6.54,-0.99,-1.56,-21.73
-15,7,775,201,-540,3861,-0.69,0.28,47.08,2.01,-5.40,38.61,-5.37,2.58,-6.72,1.21,-0.73,-21.45
-11,6,784,118,-478,3968,-0.69,0.29,47.16,1.18,-4.78,39.68,-5.37,2.58,-6.91,0.20,-0.44,-22.15
-17,-10,797,58,-466,3950,-0.72,0.20,47.30,0.58,-4.66,39.50,-5.37,2.58,-7.10,1.59,3.28,-23.11
-16,4,849,-171,-453,3856,-0.75,0.20,47.75,-1.71,-4.53,38.56,-5.38,2.60,-7.29,1.24,-0.26,-27.10
-24,13,873,-77,-456,3890,-0.82,0.26,48.30,-0.77,-4.56,38.90,-5.39,2.61,-7.48,3.01,-2.32,-28.61
-4,14,918,6,-323,3926,-0.76,0.32,49.07,0.06,-3.23,39.26,-5.38,2.61,-7.68,-1.86,-2.35,-31.70
-8,21,905,-45,-415,3872,-0.74,0.42,49.69,-0.45,-4.15,38.72,-5.38,2.61,-7.87,-0.74,-3.77,-30.02
-20,8,848,-82,-373,3931,-0.78,0.42,49.89,-0.82,-3.73,39.31,-5.38,2.61,-8.07,2.13,-0.44,-25.00
-15,12,834,-126,-373,3912,-0.80,0.45,49.99,-1.26,-3.73,39.12,-5.37,2.62,-8.27,0.81,-1.34,-23.73
1,20,824,-43,-435,3946,-0.71,0.53,50.02,-0.43,-4.35,39.46,-5.37,2.62,-8.47,-2.93,-3.08,-22.85
-12,13,848,26,-538,3967,-0.71,0.56,50.19,0.26,-5.38,39.67,-5.38,2.63,-8.67,0.36,-1.21,-24.72
-20,1,896,87,-623,3898,-0.76,0.51,50.63,0.87,-6.23,38.98,-5.38,2.63,-8.87,2.20,1.66,-28.37
-8,8,907,115,-505,3864,-0.74,0.51,51.10,1.15,-5.05,38.64,-5.39,2.64,-9.07,-0.74,-0.13,-28.86
-16,22,933,23,-564,3844,-0.76,0.59,51.68,0.23,-5.64,38.44,-5.39,2.65,-9.28,1.20,-3.37,-30.52
-24,11,945,21,-519,3971,-0.83,0.60,52.28,0.21,-5.19,39.71,-5.40,2.65,-9.49,2.97,-0.55,-30.98
-13,3,981,-59,-432,3831,-0.83,0.56,53.04,-0.59,-4.32,38.31,-5.40,2.66,-9.70,0.19,1.33,-33.32
6,30,988,-75,-453,3913,-0.71,0.68,53.76,-0.75,-4.53,39.13,-5.40,2.67,-9.91,-4.19,-5.05,-33.23
-3,24,961,53,-495,3999,-0.66,0.76,54.25,0.53,-4.95,39.99,-5.40,2.68,-10.13,-1.71,-3.23,-30.49
-10,8,950,65,-416,3979,-0.65,0.73,54.62,0.65,-4.16,39.79,-5.40,2.68,-10.34,0.09,0.73,-29.21
-28,11,927,-92,-421,3895,-0.76,0.73,54.81,-0.92,-4.21,38.95,-5.40,2.69,-10.56,4.27,-0.05,-27.08
-3,20,898,-118,-360,4011,-0.70,0.78,54.81,-1.18,-3.60,40.11,-5.39,2.70,-10.78,-1.87,-2.16,-24.62
-9,11,847,-167,-361,3909,-0.68,0.77,54.49,-1.67,-3.61,39.09,-5.37,2.70,-11.00,-0.29,0.09,-20.60
6,22,837,-205,-297,3843,-0.58,0.82,54.15,-2.05,-2.97,38.43,-5.35,2.73,-11.21,-3.71,-2.49,-20.07
-6,17,795,-62,-333,3941,-0.56,0.85,53.58,-0.62,-3.33,39.41,-5.34,2.74,-11.43,-0.58,-1.14,-17.05
-12,16,785,18,-319,3894,-0.58,0.86,53.01,0.18,-3.19,38.94,-5.32,2.74,-11.64,0.88,-0.83,-16.73
-10,12,701,139,-377,3847,-0.58,0.85,51.99,1.39,-3.77,38.47,-5.32,2.75,-11.85,0.36,0.14,-10.58
-6,6,680,95,-355,4013,-0.56,0.80,50.94,0.95,-3.55,40.13,-5.31,2.75,-12.05,-0.57,1.48,-9.79
-3,9,625,-73,-363,4031,-0.52,0.77,49.66,-0.73,-3.63,40.31,-5.30,2.75,-12.25,-1.20,0.62,-6.33
-2,14,613,-75,-340,3833,-0.48,0.78,48.43,-0.75,-3.40,38.33,-5.29,2.76,-12.44,-1.30,-0.62,-6.46
-14,9,559,-105,-409,3924,-0.52,0.76,47.00,-1.05,-4.09,39.24,-5.29,2.76,-12.63,1.61,0.57,-3.24
0,-3,533,25,-481,3826,-0.47,0.66,45.55,0.25,-4.81,38.26,-5.29,2.76,-12.81,-1.75,3.26,-2.39
-17,1,498,204,-527,3876,-0.52,0.60,44.03,2.04,-5.27,38.76,-5.29,2.77,-12.98,2.35,2.02,-0.85
-13,6,490,215,-521,3949,-0.55,0.58,42.62,2.15,-5.21,39.49,-5.30,2.77,-13.15,1.23,0.66,-1.50
-7,-1,470,41,-552,3868,-0.54,0.52,41.22,0.41,-5.52,38.68,-5.30,2.77,-13.32,-0.25,2.20,-1.12
-12,7,483,-49,-603,3952,-0.56,0.51,40.05,-0.49,-6.03,39.52,-5.31,2.78,-13.47,0.95,0.13,-3.32
-17,11,593,-145,-547,3919,-0.61,0.52,39.66,-1.45,-5.47,39.19,-5.32,2.79,-13.63,2.04,-0.83,-13.00
-2,14,621,-160,-508,3937,-0.56,0.56,39.48,-1.60,-5.08,39.37,-5.34,2.80,-13.79,-1.59,-1.46,-15.54
-12,8,691,-137,-451,3867,-0.57,0.55,39.75,-1.37,-4.51,38.67,-5.35,2.81,-13.94,0.89,0.04,-21.22
-7,21,701,-93,-472,3818,-0.56,0.62,40.05,-0.93,-4.72,38.18,-5.36,2.82,-14.10,-0.33,-2.99,-21.79
-23,6,743,33,-440,3951,-0.64,0.60,40.58,0.33,-4.40,39.51,-5.36,2.82,-14.26,3.42,0.72,-24.85
-12,7,759,48,-426,3825,-0.65,0.58,41.15,0.48,-4.26,38.25,-5.35,2.82,-14.43,0.59,0.41,-25.67
-11,10,794,60,-431,3895,-0.65,0.58,41.88,0.60,-4.31,38.95,-5.35,2.82,-14.60,0.33,-0.35,-27.95
-11,3,802,113,-476,3977,-0.66,0.54,42.58,1.13,-4.76,39.77,-5.35,2.82,-14.76,0.32,1.28,-27.97
-2,22,836,86,-461,3934,-0.60,0.62,43.42,0.86,-4.61,39.34,-5.35,2.82,-14.94,-1.76,-3.25,-30.06
-12,10,843,57,-508,4036,-0.62,0.62,44.22,0.57,-5.08,40.36,-5.36,2.82,-15.11,0.73,-0.20,-29.90
-15,4,858,19,-409,3936,-0.65,0.58,45.03,0.19,-4.09,39.36,-5.35,2.82,-15.29,1.38,1.18,-30.41
-21,16,850,-28,-379,3829,-0.71,0.62,45.72,-0.28,-3.79,38.29,-5.35,2.82,-15.47,2.67,-1.72,-29.09
-18,6,774,-128,-264,3921,-0.75,0.60,45.87,-1.28,-2.64,39.21,-5.33,2.83,-15.66,1.76,0.72,-22.51
-4,7,745,-107,-255,3944,-0.70,0.58,45.82,-1.07,-2.55,39.44,-5.31,2.84,-15.84,-1.61,0.41,-20.09
-14,10,627,-228,-293,4032,-0.71,0.58,45.07,-2.28,-2.93,40.32,-5.28,2.87,-16.02,0.87,-0.34,-10.81
-6,0,563,-164,-240,3875,-0.68,0.52,43.99,-1.64,-2.40,38.75,-5.26,2.88,-16.20,-1.03,1.98,-6.39
-12,7,440,-144,-354,3936,-0.68,0.52,42.28,-1.44,-3.54,39.36,-5.25,2.88,-16.37,0.47,0.16,2.42
-12,3,418,-87,-360,3922,-0.69,0.48,40.60,-0.87,-3.60,39.22,-5.25,2.88,-16.53,0.46,1.05,2.71
2,11,342,-69,-469,3844,-0.61,0.50,38.63,-0.69,-4.69,38.44,-5.25,2.88,-16.68,-2.80,-0.91,7.29
1,4,320,-41,-466,3879,-0.54,0.48,36.72,-0.41,-4.66,38.79,-5.26,2.88,-16.83,-2.29,0.77,7.36
-9,-1,258,-21,-458,3928,-0.54,0.42,34.62,-0.21,-4.58,39.28,-5.26,2.88,-16.96,0.25,1.84,10.64
-8,-2,248,-35,-490,3978,-0.54,0.37,32.67,-0.35,-4.90,39.78,-5.27,2.88,-17.09,0.01,1.89,9.66
3,8,229,-54,-589,3925,-0.46,0.38,30.80,-0.54,-5.89,39.25,-5.28,2.88,-17.22,-2.51,-0.60,9.52
0,12,228,-48,-564,3922,-0.42,0.41,29.11,-0.48,-5.64,39.22,-5.29,2.88,-17.33,-1.57,-1.49,8.01
-4,26,277,-84,-613,3875,-0.40,0.53,27.89,-0.84,-6.13,38.75,-5.30,2.89,-17.44,-0.49,-4.61,2.72
-5,11,271,-114,-389,3883,-0.39,0.55,26.75,-1.14,-3.89,38.83,-5.31,2.88,-17.55,-0.20,-0.74,2.16
-10,17,263,-145,-483,3867,-0.41,0.59,25.68,-1.45,-4.83,38.67,-5.32,2.89,-17.65,0.99,-2.08,1.83
-1,12,267,-140,-475,3893,-0.38,0.61,24.74,-1.40,-4.75,38.93,-5.33,2.89,-17.75,-1.17,-0.76,0.61
0,6,308,-112,-471,3878,-0.34,0.58,24.15,-1.12,-4.71,38.78,-5.34,2.89,-17.84,-1.28,0.68,-3.42
-8,1,322,-73,-509,3914,-0.35,0.53,23.70,-0.73,-5.09,39.14,-5.35,2.89,-17.93,0.70,1.75,-5.03
1,-15,317,-24,-483,3859,-0.31,0.39,23.26,-0.24,-4.83,38.59,-5.36,2.88,-18.03,-1.43,5.27,-5.02
-9,-6,311,-23,-528,3908,-0.34,0.31,22.83,-0.23,-5.28,39.08,-5.37,2.88,-18.12,1.02,2.70,-4.91
-9,-11,287,37,-469,3991,-0.36,0.21,22.30,0.37,-4.69,39.91,-5.37,2.87,-18.21,0.94,3.60,-3.38
-10,-9,280,12,-429,3927,-0.38,0.14,21.78,0.12,-4.29,39.27,-5.38,2.86,-18.29,1.10,2.80,-3.28
-5,16,287,-28,-434,3990,-0.38,0.22,21.35,-0.28,-4.34,39.90,-5.38,2.85,-18.38,-0.14,-3.23,-4.27
-4,13,273,-28,-397,3918,-0.36,0.28,20.88,-0.28,-3.97,39.18,-5.38,2.85,-18.46,-0.35,-2.26,-3.52
-5,9,237,-89,-502,3835,-0.36,0.31,20.24,-0.89,-5.02,38.35,-5.39,2.84,-18.54,-0.07,-1.14,-1.08
-1,13,227,-142,-503,3848,-0.33,0.35,19.60,-1.42,-5.03,38.48,-5.41,2.85,-18.62,-0.98,-1.97,-0.83
-6,1,243,-137,-541,3951,-0.33,0.32,19.12,-1.37,-5.41,39.51,-5.42,2.85,-18.69,0.28,0.97,-2.63
-6,-14,252,-155,-529,3913,-0.33,0.21,18.75,-1.55,-5.29,39.13,-5.44,2.85,-18.77,0.27,4.34,-3.75
-3,-1,288,-52,-457,3934,-0.32,0.18,18.63,-0.52,-4.57,39.34,-5.44,2.84,-18.84,-0.44,0.93,-6.91
-7,9,290,-45,-441,3930,-0.33,0.22,18.53,-0.45,-4.41,39.30,-5.45,2.83,-18.91,0.54,-1.47,-7.17
4,7,270,88,-399,3881,-0.27,0.24,18.33,0.88,-3.99,38.81,-5.45,2.82,-18.99,-2.04,-0.88,-5.67
-7,7,266,34,-452,3919,-0.29,0.26,18.12,0.34,-4.52,39.19,-5.45,2.81,-19.06,0.69,-0.81,-5.53
-6,2,278,31,-502,4016,-0.30,0.24,18.00,0.31,-5.02,40.16,-5.46,2.81,-19.13,0.41,0.41,-6.65
-4,-6,286,-42,-438,3833,-0.29,0.18,17.95,-0.42,-4.38,38.33,-5.46,2.80,-19.20,-0.08,2.21,-7.38
-1,-3,276,13,-472,3960,-0.27,0.15,17.84,0.13,-4.72,39.60,-5.47,2.79,-19.27,-0.75,1.31,-6.64
0,-8,283,5,-398,3973,-0.24,0.08,17.78,0.05,-3.98,39.73,-5.47,2.78,-19.34,-0.91,2.34,-7.28
0,-4,265,-54,-369,3810,-0.22,0.05,17.62,-0.54,-3.69,38.10,-5.46,2.77,-19.41,-0.82,1.20,-5.91
-3,5,264,-46,-368,4010,-0.21,0.08,17.47,-0.46,-3.68,40.10,-5.46,2.75,-19.48,-0.04,-0.99,-5.97
7,2,247,-76,-458,3951,-0.15,0.08,17.23,-0.76,-4.58,39.51,-5.47,2.75,-19.55,-2.34,-0.21,-4.75
-7,-6,243,-9,-467,3937,-0.18,0.04,16.99,-0.09,-4.67,39.37,-5.47,2.74,-19.62,1.11,1.66,-4.64
5,1,233,10,-459,3901,-0.13,0.04,16.71,0.10,-4.59,39.01,-5.48,2.73,-19.68,-1.76,-0.11,-4.05
-7,0,232,35,-430,3986,-0.16,0.03,16.45,0.35,-4.30,39.86,-5.48,2.71,-19.75,1.18,0.13,-4.21
-10,8,252,-34,-524,4007,-0.20,0.08,16.34,-0.34,-5.24,40.07,-5.49,2.71,-19.81,1.77,-1.73,-6.00
-13,17,281,-14,-526,3821,-0.26,0.18,16.42,-0.14,-5.26,38.21,-5.50,2.70,-19.88,2.31,-3.66,-8.39
-1,4,293,119,-465,3728,-0.24,0.18,16.57,1.19,-4.65,37.28,-5.50,2.69,-19.94,-0.66,-0.33,-9.27
-1,17,287,153,-465,3995,-0.22,0.27,16.66,1.53,-4.65,39.95,-5.51,2.68,-20.01,-0.59,-3.31,-8.67
-7,-11,237,165,-348,3994,-0.24,0.17,16.44,1.65,-3.48,39.94,-5.50,2.67,-20.08,0.86,3.45,-4.64
0,9,215,164,-321,3770,-0.22,0.21,16.11,1.64,-3.21,37.70,-5.50,2.66,-20.14,-0.83,-1.49,-3.09
5,8,178,24,-439,3864,-0.17,0.24,15.58,0.24,-4.39,38.64,-5.50,2.65,-20.20,-1.90,-1.13,-0.45
0,1,166,-19,-469,3918,-0.15,0.22,15.04,-0.19,-4.69,39.18,-5.51,2.64,-20.26,-0.57,0.58,0.06
-4,-6,134,5,-458,3956,-0.16,0.16,14.35,0.05,-4.58,39.56,-5.51,2.63,-20.32,0.41,2.14,2.12
-3,1,131,16,-442,3868,-0.16,0.15,13.72,0.16,-4.42,38.68,-5.52,2.62,-20.37,0.15,0.32,1.78
-1,-8,141,-39,-485,3890,-0.15,0.09,13.20,-0.39,-4.85,38.90,-5.53,2.61,-20.42,-0.32,2.37,0.45
-9,-9,162,-45,-486,3951,-0.19,0.02,12.87,-0.45,-4.86,39.51,-5.54,2.60,-20.47,1.56,2.38,-1.64
-3,-1,175,-35,-380,3962,-0.19,0.02,12.65,-0.35,-3.80,39.62,-5.53,2.58,-20.53,0.04,0.31,-2.95
-1,0,156,-40,-341,3883,-0.18,0.01,12.34,-0.40,-3.41,38.83,-5.53,2.57,-20.57,-0.42,0.05,-1.63
1,-3,117,24,-466,3893,-0.15,-0.01,11.82,0.24,-4.66,38.93,-5.53,2.56,-20.62,-0.84,0.74,1.18
-1,-3,120,23,-465,3934,-0.14,-0.02,11.37,0.23,-4.65,39.34,-5.54,2.55,-20.67,-0.29,0.68,0.51
-15,3,158,-41,-463,3918,-0.22,-0.00,11.20,-0.41,-4.63,39.18,-5.55,2.53,-20.71,2.98,-0.77,-2.87
-6,-5,158,-8,-408,3953,-0.24,-0.03,11.04,-0.08,-4.08,39.53,-5.55,2.52,-20.75,0.63,1.15,-3.02
-5,-5,138,-81,-393,3900,-0.24,-0.06,10.78,-0.81,-3.93,39.00,-5.55,2.51,-20.80,0.35,1.04,-1.57
-5,-6,129,-66,-381,3921,-0.25,-0.09,10.49,-0.66,-3.81,39.21,-5.55,2.49,-20.84,0.33,1.18,-1.08
-3,-9,59,-18,-339,3917,-0.24,-0.14,9.80,-0.18,-3.39,39.17,-5.54,2.48,-20.88,-0.15,1.77,4.20
1,-10,30,-28,-423,3900,-0.21,-0.18,9.00,-0.28,-4.23,39.00,-5.55,2.46,-20.91,-1.05,1.85,5.91
0,-11,31,-34,-518,3935,-0.19,-0.23,8.29,-0.34,-5.18,39.35,-5.56,2.45,-20.95,-0.72,1.92,5.16
-2,-14,36,-31,-525,3925,-0.18,-0.29,7.68,-0.31,-5.25,39.25,-5.57,2.44,-20.98,-0.19,2.45,4.16
-6,-2,82,-20,-571,3921,-0.20,-0.28,7.41,-0.20,-5.71,39.21,-5.59,2.43,-21.01,0.76,-0.54,0.01
-1,3,94,-40,-544,3879,-0.19,-0.23,7.25,-0.40,-5.44,38.79,-5.60,2.42,-21.03,-0.45,-1.63,-1.16
-3,11,105,-21,-393,3852,-0.19,-0.14,7.16,-0.21,-3.93,38.52,-5.60,2.41,-21.06,0.06,-3.33,-2.17
0,10,91,-54,-413,3962,-0.17,-0.07,7.00,-0.54,-4.13,39.62,-5.61,2.39,-21.09,-0.64,-2.79,-1.14
-4,-10,74,31,-440,3946,-0.18,-0.12,6.75,0.31,-4.40,39.46,-5.61,2.38,-21.12,0.35,2.09,0.07
-4,-8,75,5,-448,3830,-0.18,-0.16,6.53,0.05,-4.48,38.30,-5.62,2.36,-21.14,0.33,1.44,-0.22
2,-1,78,-70,-520,3888,-0.15,-0.15,6.36,-0.70,-5.20,38.88,-5.63,2.35,-21.17,-1.08,-0.30,-0.64
-9,-18,66,-30,-418,3920,-0.19,-0.24,6.12,-0.30,-4.18,39.20,-5.64,2.34,-21.19,1.56,3.66,0.16
-4,-4,16,-21,-395,3937,-0.20,-0.24,5.61,-0.21,-3.95,39.37,-5.64,2.32,-21.21,0.27,0.10,3.91
2,-2,2,-66,-445,3914,-0.17,-0.23,5.06,-0.66,-4.45,39.14,-5.65,2.30,-21.23,-1.13,-0.36,4.58
-2,-1,-8,14,-409,3955,-0.16,-0.21,4.51,0.14,-4.09,39.55,-5.65,2.29,-21.25,-0.10,-0.55,4.91
3,-4,-15,10,-432,3921,-0.13,-0.22,3.96,0.10,-4.32,39.21,-5.65,2.27,-21.27,-1.24,0.20,4.99
3,-2,-44,-23,-468,3910,-0.10,-0.21,3.30,-0.23,-4.68,39.10,-5.66,2.25,-21.28,-1.12,-0.27,6.82
3,-1,-45,-38,-501,3861,-0.07,-0.19,2.69,-0.38,-5.01,38.61,-5.68,2.24,-21.29,-1.02,-0.47,6.34
3,-7,-34,38,-469,3884,-0.04,-0.22,2.22,0.38,-4.69,38.84,-5.68,2.23,-21.30,-0.92,0.97,4.96
2,-9,-28,76,-489,3914,-0.03,-0.25,1.82,0.76,-4.89,39.14,-5.69,2.21,-21.31,-0.61,1.35,4.09
1,-2,-36,26,-460,3899,-0.02,-0.24,1.42,0.26,-4.60,38.99,-5.70,2.19,-21.31,-0.32,-0.38,4.39
1,-10,-49,-60,-514,3884,-0.01,-0.27,0.98,-0.60,-5.14,38.84,-5.71,2.18,-21.32,-0.29,1.51,5.07
0,-6,-2,-52,-497,3942,-0.01,-0.28,0.87,-0.52,-4.97,39.42,-5.72,2.17,-21.32,-0.03,0.46,0.99
-7,0,36,-35,-527,3929,-0.05,-0.25,1.00,-0.35,-5.27,39.29,-5.74,2.15,-21.32,1.59,-0.96,-2.11
-2,3,68,85,-355,3888,-0.06,-0.21,1.32,0.85,-3.55,38.88,-5.74,2.13,-21.33,0.29,-1.56,-4.52
6,2,51,76,-360,3987,-0.02,-0.18,1.50,0.76,-3.60,39.87,-5.73,2.12,-21.33,-1.58,-1.18,-2.92
4,3,9,28,-436,3897,0.01,-0.14,1.40,0.28,-4.36,38.97,-5.74,2.10,-21.34,-0.98,-1.30,0.55
1,6,0,3,-474,3860,0.02,-0.09,1.26,0.03,-4.74,38.60,-5.75,2.08,-21.34,-0.20,-1.87,1.19
-3,-5,16,24,-444,3924,-0.00,-0.11,1.23,0.24,-4.44,39.24,-5.75,2.07,-21.35,0.75,0.85,-0.20
1,0,25,38,-425,3926,0.00,-0.10,1.26,0.38,-4.25,39.26,-5.75,2.05,-21.35,-0.25,-0.38,-0.93
2,5,31,10,-392,3942,0.01,-0.06,1.33,0.10,-3.92,39.42,-5.75,2.03,-21.36,-0.45,-1.50,-1.38
1,5,21,-9,-365,3928,0.02,-0.02,1.32,-0.09,-3.65,39.28,-5.75,2.01,-21.36,-0.18,-1.36,-0.54
0,2,16,-37,-456,3910,0.02,-0.01,1.29,-0.37,-4.56,39.10,-5.76,2.00,-21.37,0.06,-0.54,-0.15
1,0,18,-45,-472,3895,0.02,-0.01,1.27,-0.45,-4.72,38.95,-5.77,1.98,-21.37,-0.17,-0.03,-0.33
0,-7,46,-56,-522,3928,0.02,-0.05,1.42,-0.56,-5.22,39.28,-5.78,1.97,-21.38,0.07,1.59,-2.56
-3,-13,58,-22,-477,3919,-0.00,-0.12,1.63,-0.22,-4.77,39.19,-5.79,1.96,-21.39,0.76,2.84,-3.38
-3,-4,56,10,-437,3920,-0.02,-0.14,1.81,0.10,-4.37,39.20,-5.80,1.94,-21.39,0.69,0.50,-3.04
0,-2,53,2,-438,3934,-0.02,-0.14,1.95,0.02,-4.38,39.34,-5.80,1.92,-21.40,-0.06,-0.00,-2.66
-2,0,37,51,-427,3915,-0.03,-0.12,1.98,0.51,-4.27,39.15,-5.81,1.91,-21.41,0.40,-0.46,-1.27
-3,3,38,40,-427,3899,-0.04,-0.09,2.02,0.40,-4.27,38.99,-5.81,1.89,-21.42,0.60,-1.11,-1.33
-1,2,22,44,-432,3902,-0.05,-0.07,1.95,0.44,-4.32,39.02,-5.81,1.87,-21.42,0.08,-0.77,-0.03
0,0,12,43,-430,3898,-0.04,-0.06,1.83,0.43,-4.30,38.98,-5.82,1.85,-21.43,-0.15,-0.24,0.70
0,-3,-4,-4,-481,3910,-0.04,-0.07,1.62,-0.04,-4.81,39.10,-5.83,1.84,-21.44,-0.14,0.48,1.86
