gyroADC_X,gyroADC_Y,gyroADC_Z,accADC_X,accADC_Y,accADC_Z,GyroX,GyroY,GyroZ,AccX,AccY,AccZ,roll_IMU,pitch_IMU,yaw_IMU,roll_PID,pitch_PID,yaw_PID
-2,-2,0,-5,-393,3897,-0.04,0.03,-1.02,-0.05,-3.93,38.97,-5.36,0.17,51.84,3.59,-0.08,-3.14
-2,-4,-2,-3,-364,3881,-0.04,0.00,-0.93,-0.03,-3.64,38.81,-5.36,0.15,51.84,3.59,-0.02,-2.80
-3,-7,-1,7,-359,3887,-0.06,-0.04,-0.84,0.07,-3.59,38.87,-5.35,0.13,51.85,3.61,0.07,-2.76
-4,-7,0,13,-357,3899,-0.08,-0.08,-0.76,0.13,-3.57,38.99,-5.35,0.11,51.85,3.63,0.09,-2.73
-4,-7,0,8,-367,3898,-0.09,-0.11,-0.68,0.08,-3.67,38.98,-5.35,0.09,51.85,3.64,0.11,-2.62
-5,-9,3,-6,-352,3887,-0.11,-0.16,-0.60,-0.06,-3.52,38.87,-5.33,0.09,51.85,3.65,0.17,-2.79
-5,-8,5,-8,-350,3866,-0.13,-0.19,-0.51,-0.08,-3.50,38.66,-5.32,0.09,51.86,3.65,0.15,-2.85
-3,-7,6,-27,-348,3901,-0.14,-0.21,-0.42,-0.27,-3.48,39.01,-5.31,0.11,51.86,3.60,0.13,-2.82
-2,-7,6,-38,-351,3903,-0.14,-0.24,-0.34,-0.38,-3.51,39.03,-5.30,0.12,51.86,3.58,0.12,-2.69
-3,-4,4,-16,-365,3895,-0.14,-0.24,-0.28,-0.16,-3.65,38.95,-5.31,0.14,51.86,3.60,0.05,-2.40
-1,-5,5,-13,-363,3905,-0.13,-0.24,-0.22,-0.13,-3.63,39.05,-5.31,0.16,51.86,3.56,0.06,-2.41
-1,-1,7,-13,-359,3893,-0.13,-0.22,-0.16,-0.13,-3.59,38.93,-5.30,0.17,51.86,3.55,-0.03,-2.51
-1,-1,8,-9,-354,3896,-0.12,-0.21,-0.09,-0.09,-3.54,38.96,-5.28,0.16,51.86,3.54,-0.03,-2.51
0,1,11,15,-346,3903,-0.11,-0.18,-0.02,0.15,-3.46,39.03,-5.27,0.14,51.86,3.51,-0.07,-2.70
0,2,12,-6,-363,3906,-0.10,-0.15,0.06,-0.06,-3.63,39.06,-5.28,0.13,51.86,3.51,-0.08,-2.69
0,2,9,-19,-358,3898,-0.09,-0.12,0.11,-0.19,-3.58,38.98,-5.28,0.15,51.86,3.51,-0.10,-2.30
-1,2,9,-23,-354,3894,-0.08,-0.10,0.15,-0.23,-3.54,38.94,-5.27,0.16,51.86,3.52,-0.12,-2.24
2,0,9,-27,-361,3894,-0.06,-0.09,0.19,-0.27,-3.61,38.94,-5.27,0.18,51.86,3.46,-0.09,-2.17
2,2,7,-27,-363,3906,-0.05,-0.07,0.21,-0.27,-3.63,39.06,-5.28,0.20,51.86,3.45,-0.15,-1.93
-4,-3,6,-34,-306,3886,-0.07,-0.08,0.23,-0.34,-3.06,38.86,-5.26,0.20,51.86,3.57,-0.05,-1.81
0,-5,4,-3,-356,3901,-0.06,-0.10,0.23,-0.03,-3.56,39.01,-5.25,0.19,51.86,3.48,0.01,-1.60
2,0,6,-5,-364,3903,-0.04,-0.09,0.24,-0.05,-3.64,39.03,-5.26,0.17,51.85,3.45,-0.09,-1.78
2,0,3,-8,-388,3888,-0.02,-0.08,0.24,-0.08,-3.88,38.88,-5.28,0.17,51.85,3.45,-0.09,-1.49
-1,-3,-2,-7,-378,3901,-0.03,-0.09,0.20,-0.07,-3.78,39.01,-5.30,0.16,51.85,3.53,-0.02,-1.04
-1,-3,-1,-15,-353,3916,-0.03,-0.10,0.18,-0.15,-3.53,39.16,-5.28,0.17,51.85,3.52,-0.02,-1.18
1,-1,1,-21,-361,3891,-0.02,-0.10,0.16,-0.21,-3.61,38.91,-5.29,0.19,51.85,3.47,-0.08,-1.40
1,-1,0,-23,-365,3888,-0.01,-0.09,0.15,-0.23,-3.65,38.88,-5.29,0.20,51.85,3.48,-0.09,-1.32
0,-2,-3,-17,-351,3885,-0.01,-0.10,0.12,-0.17,-3.51,38.85,-5.28,0.21,51.85,3.49,-0.07,-1.07
0,-2,-2,-14,-349,3892,-0.01,-0.10,0.09,-0.14,-3.49,38.92,-5.26,0.21,51.85,3.47,-0.07,-1.21
6,0,-7,12,-337,3858,0.03,-0.09,0.04,0.12,-3.37,38.58,-5.25,0.19,51.85,3.33,-0.10,-0.78
9,10,-18,-64,-374,3944,0.08,-0.02,-0.07,-0.64,-3.74,39.44,-5.25,0.21,51.85,3.26,-0.34,0.16
3,1,-6,3,-325,3885,0.09,-0.01,-0.10,0.03,-3.25,38.85,-5.24,0.20,51.85,3.37,-0.15,-1.11
5,2,-5,-13,-376,3880,0.11,0.00,-0.12,-0.13,-3.76,38.80,-5.25,0.20,51.85,3.34,-0.17,-1.24
8,-1,10,15,-327,3878,0.15,-0.00,-0.05,0.15,-3.27,38.78,-5.24,0.19,51.85,3.26,-0.10,-2.65
2,5,8,-7,-298,3863,0.15,0.03,0.00,-0.07,-2.98,38.63,-5.22,0.19,51.85,3.37,-0.23,-2.36
11,10,-30,-37,-282,3907,0.20,0.08,-0.18,-0.37,-2.82,39.07,-5.20,0.19,51.85,3.16,-0.35,1.21
2,-4,-40,-33,-286,3901,0.19,0.05,-0.41,-0.33,-2.86,39.01,-5.18,0.20,51.85,3.33,-0.06,1.88
-2,-5,-57,-48,-428,3876,0.16,0.02,-0.71,-0.48,-4.28,38.76,-5.20,0.20,51.86,3.43,-0.04,3.13
2,-2,-51,-22,-455,3911,0.16,0.00,-0.95,-0.22,-4.55,39.11,-5.22,0.21,51.86,3.36,-0.10,2.15
-2,-1,-12,7,-375,3898,0.13,-0.00,-0.93,0.07,-3.75,38.98,-5.23,0.19,51.86,3.46,-0.11,-1.78
0,-1,-8,1,-368,3892,0.12,-0.01,-0.89,0.01,-3.68,38.92,-5.24,0.18,51.87,3.43,-0.09,-2.12
3,-2,6,-15,-341,3904,0.12,-0.02,-0.76,-0.15,-3.41,39.04,-5.22,0.18,51.87,3.35,-0.07,-3.35
4,-1,8,-21,-358,3898,0.13,-0.02,-0.64,-0.21,-3.58,38.98,-5.23,0.20,51.87,3.33,-0.10,-3.36
0,-3,-3,-26,-300,3889,0.12,-0.04,-0.59,-0.26,-3.00,38.89,-5.21,0.20,51.87,3.40,-0.06,-2.17
-1,-6,-11,24,-311,3893,0.10,-0.07,-0.60,0.24,-3.11,38.93,-5.19,0.19,51.88,3.42,0.02,-1.37
-1,0,-13,2,-396,3866,0.09,-0.07,-0.62,0.02,-3.96,38.66,-5.21,0.18,51.88,3.44,-0.10,-1.20
0,4,-10,-1,-426,3887,0.08,-0.03,-0.62,-0.01,-4.26,38.87,-5.23,0.18,51.88,3.43,-0.19,-1.50
-2,1,2,2,-376,3897,0.06,-0.03,-0.54,0.02,-3.76,38.97,-5.24,0.17,51.88,3.49,-0.12,-2.61
-1,0,1,-8,-382,3883,0.05,-0.02,-0.48,-0.08,-3.82,38.83,-5.26,0.17,51.89,3.48,-0.10,-2.41
0,-1,3,-17,-361,3901,0.04,-0.03,-0.42,-0.17,-3.61,39.01,-5.27,0.18,51.89,3.46,-0.09,-2.51
-1,-2,3,-18,-369,3905,0.03,-0.04,-0.36,-0.18,-3.69,39.05,-5.28,0.19,51.89,3.50,-0.08,-2.42
-2,-3,3,0,-351,3891,0.02,-0.05,-0.30,0.00,-3.51,38.91,-5.27,0.18,51.89,3.52,-0.04,-2.33
-1,-2,3,-7,-357,3899,0.01,-0.06,-0.25,-0.07,-3.57,38.99,-5.26,0.16,51.89,3.49,-0.05,-2.26
-4,0,1,-11,-352,3887,-0.02,-0.05,-0.22,-0.11,-3.52,38.87,-5.24,0.16,51.89,3.55,-0.09,-2.00
-1,-2,1,-9,-354,3895,-0.02,-0.06,-0.19,-0.09,-3.54,38.95,-5.23,0.15,51.89,3.48,-0.04,-1.96
-1,-3,-2,-20,-357,3891,-0.03,-0.07,-0.19,-0.20,-3.57,38.91,-5.23,0.17,51.89,3.48,-0.03,-1.64
-2,-3,-3,-22,-356,3889,-0.04,-0.08,-0.19,-0.22,-3.56,38.89,-5.23,0.19,51.89,3.50,-0.04,-1.54
-2,-5,-4,-15,-359,3912,-0.04,-0.10,-0.19,-0.15,-3.59,39.12,-5.24,0.20,51.90,3.51,-0.00,-1.45
-1,-5,-4,-9,-349,3887,-0.05,-0.12,-0.20,-0.09,-3.49,38.87,-5.22,0.19,51.90,3.48,0.01,-1.46
-2,-9,1,3,-352,3882,-0.05,-0.17,-0.17,0.03,-3.52,38.82,-5.22,0.17,51.90,3.50,0.11,-1.93
-2,-8,1,-8,-353,3872,-0.06,-0.20,-0.15,-0.08,-3.53,38.72,-5.22,0.15,51.90,3.50,0.11,-1.89
-1,-4,0,-11,-360,3904,-0.06,-0.20,-0.13,-0.11,-3.60,39.04,-5.23,0.16,51.90,3.49,0.03,-1.76
3,0,0,24,-414,3947,-0.04,-0.18,-0.12,0.24,-4.14,39.47,-5.25,0.15,51.90,3.41,-0.05,-1.74
0,0,8,-13,-326,3860,-0.03,-0.17,-0.06,-0.13,-3.26,38.60,-5.23,0.15,51.90,3.46,-0.05,-2.46
2,-1,9,2,-330,3878,-0.02,-0.15,0.00,0.02,-3.30,38.78,-5.22,0.14,51.90,3.41,-0.03,-2.47
4,-3,13,-2,-342,3889,0.01,-0.16,0.08,-0.02,-3.42,38.89,-5.20,0.13,51.90,3.35,0.02,-2.75
4,-2,12,-11,-351,3895,0.03,-0.15,0.15,-0.11,-3.51,38.95,-5.18,0.14,51.90,3.33,-0.01,-2.55
4,-1,8,4,-352,3873,0.05,-0.14,0.18,0.04,-3.52,38.73,-5.18,0.12,51.90,3.33,-0.02,-2.09
6,-2,7,10,-343,3862,0.09,-0.14,0.20,0.10,-3.43,38.62,-5.18,0.10,51.90,3.27,0.01,-1.95
-5,-3,7,71,-319,4000,0.05,-0.15,0.23,0.71,-3.19,40.00,-5.17,0.08,51.89,3.50,0.04,-1.92
-6,-26,-10,86,-279,3871,0.00,-0.29,0.14,0.86,-2.79,38.71,-5.16,0.07,51.89,3.52,0.56,-0.32
-1,-19,-57,-50,-369,3852,-0.00,-0.38,-0.22,-0.50,-3.69,38.52,-5.17,0.08,51.89,3.43,0.43,3.90
-1,-20,-65,-30,-424,3902,-0.01,-0.46,-0.59,-0.30,-4.24,39.02,-5.18,0.09,51.90,3.44,0.47,4.13
6,-14,-42,103,-434,3948,0.03,-0.50,-0.79,1.03,-4.34,39.48,-5.19,0.07,51.90,3.30,0.37,1.48
3,-8,-43,14,-367,3879,0.05,-0.50,-0.97,0.14,-3.67,38.79,-5.20,0.05,51.90,3.36,0.26,1.30
1,-9,-29,39,-336,3874,0.05,-0.50,-1.05,0.39,-3.36,38.74,-5.20,0.03,51.91,3.40,0.30,-0.25
1,-5,-25,9,-307,3882,0.05,-0.48,-1.10,0.09,-3.07,38.82,-5.18,0.03,51.91,3.38,0.22,-0.73
2,-5,-34,-30,-299,3906,0.06,-0.47,-1.20,-0.30,-2.99,39.06,-5.16,0.03,51.92,3.35,0.21,0.03
0,-1,-35,-28,-307,3886,0.05,-0.43,-1.29,-0.28,-3.07,38.86,-5.15,0.04,51.92,3.38,0.11,-0.01
9,3,-40,-69,-414,3903,0.10,-0.37,-1.41,-0.69,-4.14,39.03,-5.16,0.05,51.93,3.19,0.00,0.32
-2,-4,-23,-88,-447,3916,0.08,-0.35,-1.41,-0.88,-4.47,39.16,-5.17,0.06,51.93,3.43,0.14,-1.41
2,3,11,-31,-360,3898,0.08,-0.30,-1.20,-0.31,-3.60,38.98,-5.18,0.08,51.94,3.35,-0.03,-4.54
1,1,12,-38,-366,3900,0.08,-0.26,-1.01,-0.38,-3.66,39.00,-5.18,0.09,51.94,3.38,-0.01,-4.34
1,0,13,-19,-359,3891,0.08,-0.24,-0.83,-0.19,-3.59,38.91,-5.19,0.11,51.94,3.38,-0.01,-4.16
1,-1,14,1,-357,3884,0.08,-0.22,-0.66,0.01,-3.57,38.84,-5.20,0.09,51.95,3.39,0.02,-4.01
1,-1,15,-13,-360,3891,0.07,-0.20,-0.50,-0.13,-3.60,38.91,-5.21,0.10,51.95,3.40,0.01,-3.86
1,-1,13,-21,-361,3899,0.07,-0.19,-0.37,-0.21,-3.61,38.99,-5.22,0.12,51.95,3.40,-0.01,-3.46
0,-1,6,-26,-375,3893,0.07,-0.18,-0.30,-0.26,-3.75,38.93,-5.23,0.13,51.95,3.43,-0.02,-2.63
0,-1,4,-21,-375,3884,0.06,-0.16,-0.24,-0.21,-3.75,38.84,-5.24,0.14,51.95,3.45,-0.03,-2.34
1,0,4,-2,-357,3893,0.06,-0.15,-0.19,-0.02,-3.57,38.93,-5.24,0.12,51.95,3.42,-0.04,-2.27
1,0,4,7,-362,3893,0.06,-0.13,-0.15,0.07,-3.62,38.93,-5.25,0.10,51.95,3.43,-0.03,-2.20
3,0,16,2,-392,3899,0.07,-0.12,-0.04,0.02,-3.92,38.99,-5.27,0.10,51.95,3.40,-0.03,-3.24
3,-2,20,-5,-377,3912,0.08,-0.12,0.09,-0.05,-3.77,39.12,-5.28,0.10,51.95,3.40,0.01,-3.46
0,3,25,-30,-354,3895,0.07,-0.09,0.23,-0.30,-3.54,38.95,-5.28,0.11,51.95,3.46,-0.11,-3.74
0,4,19,-17,-325,3883,0.07,-0.06,0.32,-0.17,-3.25,38.83,-5.26,0.12,51.95,3.45,-0.14,-2.99
3,2,7,-3,-365,3889,0.08,-0.04,0.33,-0.03,-3.65,38.89,-5.28,0.11,51.95,3.40,-0.10,-1.75
3,4,8,13,-390,3891,0.09,-0.01,0.35,0.13,-3.90,38.91,-5.29,0.10,51.95,3.41,-0.14,-1.83
2,2,19,11,-383,3884,0.09,0.00,0.43,0.11,-3.83,38.84,-5.30,0.09,51.95,3.44,-0.10,-2.82
5,1,22,13,-422,3856,0.11,0.01,0.52,0.13,-4.22,38.56,-5.32,0.08,51.94,3.38,-0.08,-2.98
-3,-1,47,14,-406,3864,0.08,0.00,0.76,0.14,-4.06,38.64,-5.34,0.08,51.94,3.56,-0.03,-5.16
-2,3,52,3,-381,3897,0.06,0.02,1.00,0.03,-3.81,38.97,-5.35,0.07,51.94,3.56,-0.11,-5.29
6,10,70,26,-417,3918,0.09,0.08,1.33,0.26,-4.17,39.18,-5.37,0.06,51.93,3.40,-0.26,-6.61
4,7,76,0,-398,3924,0.11,0.11,1.66,0.00,-3.98,39.24,-5.39,0.06,51.93,3.44,-0.21,-6.71
14,22,75,-10,-350,3899,0.18,0.24,1.95,-0.10,-3.50,38.99,-5.37,0.06,51.92,3.21,-0.55,-6.15
10,21,87,-12,-387,3933,0.23,0.34,2.28,-0.12,-3.87,39.33,-5.38,0.07,51.91,3.29,-0.57,-6.85
1,6,85,-42,-234,3892,0.21,0.34,2.57,-0.42,-2.34,38.92,-5.37,0.08,51.90,3.46,-0.27,-6.19
2,7,66,-49,-221,3847,0.20,0.35,2.72,-0.49,-2.21,38.47,-5.35,0.09,51.89,3.43,-0.30,-4.03
0,3,20,13,-364,3904,0.18,0.33,2.57,0.13,-3.64,39.04,-5.35,0.07,51.88,3.48,-0.20,0.41
6,7,19,56,-437,3897,0.20,0.34,2.43,0.56,-4.37,38.97,-5.36,0.06,51.87,3.36,-0.28,0.29
-1,6,42,12,-367,3898,0.17,0.35,2.44,0.12,-3.67,38.98,-5.36,0.05,51.86,3.51,-0.25,-2.02
1,5,43,18,-340,3874,0.16,0.34,2.46,0.18,-3.40,38.74,-5.35,0.04,51.85,3.46,-0.22,-2.10
0,6,65,-10,-345,3861,0.15,0.34,2.61,-0.10,-3.45,38.61,-5.33,0.05,51.84,3.48,-0.25,-4.10
2,8,69,-2,-329,3906,0.14,0.36,2.77,-0.02,-3.29,39.06,-5.31,0.05,51.83,3.42,-0.29,-4.26
4,9,90,-3,-344,3901,0.15,0.38,3.04,-0.03,-3.44,39.01,-5.29,0.05,51.82,3.37,-0.32,-5.97
8,6,99,-11,-307,3863,0.19,0.38,3.34,-0.11,-3.07,38.63,-5.27,0.06,51.80,3.27,-0.26,-6.42
-8,5,82,-115,-282,3860,0.12,0.37,3.51,-1.15,-2.82,38.60,-5.26,0.08,51.79,3.60,-0.25,-4.43
-11,4,63,-111,-225,3910,0.04,0.36,3.54,-1.11,-2.25,39.10,-5.25,0.09,51.78,3.68,-0.24,-2.45
-9,1,18,-44,-346,3890,-0.02,0.33,3.30,-0.44,-3.46,38.90,-5.24,0.11,51.76,3.65,-0.18,1.75
-8,-3,14,-38,-330,3894,-0.07,0.28,3.05,-0.38,-3.30,38.94,-5.23,0.13,51.75,3.63,-0.10,1.78
-6,-2,12,-17,-339,3883,-0.10,0.24,2.82,-0.17,-3.39,38.83,-5.21,0.14,51.74,3.59,-0.11,1.62
-5,-1,11,-6,-333,3872,-0.12,0.21,2.61,-0.06,-3.33,38.72,-5.20,0.13,51.73,3.56,-0.12,1.39
-3,1,9,-12,-359,3885,-0.12,0.19,2.40,-0.12,-3.59,38.85,-5.21,0.14,51.72,3.54,-0.17,1.27
-2,1,8,-10,-347,3898,-0.12,0.18,2.21,-0.10,-3.47,38.98,-5.20,0.15,51.71,3.50,-0.17,1.07
-3,-1,9,-17,-352,3896,-0.13,0.16,2.04,-0.17,-3.52,38.96,-5.19,0.17,51.70,3.52,-0.13,0.71
-3,-1,7,-22,-364,3898,-0.13,0.13,1.88,-0.22,-3.64,38.98,-5.20,0.18,51.69,3.53,-0.13,0.67
-7,-3,9,-10,-357,3884,-0.16,0.10,1.75,-0.10,-3.57,38.84,-5.22,0.17,51.69,3.63,-0.08,0.26
-7,-4,8,-6,-361,3882,-0.19,0.07,1.62,-0.06,-3.61,38.82,-5.23,0.16,51.68,3.65,-0.04,0.16
-10,-6,21,-7,-369,3884,-0.23,0.02,1.59,-0.07,-3.69,38.84,-5.25,0.15,51.68,3.73,0.01,-1.21
-8,-7,20,-10,-346,3893,-0.26,-0.02,1.55,-0.10,-3.46,38.93,-5.23,0.15,51.67,3.69,0.05,-1.17
-3,-6,22,-7,-386,3891,-0.25,-0.06,1.53,-0.07,-3.86,38.91,-5.25,0.15,51.66,3.60,0.04,-1.40
-2,-5,25,-6,-377,3883,-0.24,-0.08,1.53,-0.06,-3.77,38.83,-5.27,0.15,51.66,3.59,0.03,-1.71
-7,-9,14,22,-556,3878,-0.26,-0.13,1.46,0.22,-5.56,38.78,-5.29,0.15,51.65,3.70,0.12,-0.70
1,-16,20,-3,-503,4013,-0.22,-0.21,1.44,-0.03,-5.03,40.13,-5.31,0.14,51.65,3.55,0.29,-1.34
1,-12,72,-1,-382,3909,-0.20,-0.26,1.73,-0.01,-3.82,39.09,-5.33,0.14,51.64,3.55,0.23,-6.17
7,1,81,22,-362,3892,-0.13,-0.23,2.05,0.22,-3.62,38.92,-5.33,0.12,51.63,3.41,-0.03,-6.59
10,1,68,77,-373,3910,-0.06,-0.20,2.26,0.77,-3.73,39.10,-5.33,0.10,51.62,3.33,-0.03,-4.94
11,-10,52,-25,-234,3964,0.01,-0.24,2.35,-0.25,-2.34,39.64,-5.31,0.10,51.61,3.28,0.20,-3.17
2,-10,30,-60,-249,3884,0.02,-0.28,2.30,-0.60,-2.49,38.84,-5.30,0.11,51.60,3.45,0.21,-1.01
2,-1,26,-43,-254,3886,0.03,-0.26,2.23,-0.43,-2.54,38.86,-5.28,0.12,51.59,3.43,0.01,-0.72
5,1,25,-20,-291,3895,0.06,-0.23,2.16,-0.20,-2.91,38.95,-5.26,0.12,51.58,3.35,-0.04,-0.73
5,-1,24,-20,-288,3866,0.09,-0.21,2.09,-0.20,-2.88,38.66,-5.24,0.12,51.58,3.33,-0.00,-0.73
3,-4,17,-31,-340,3907,0.10,-0.21,1.98,-0.31,-3.40,39.07,-5.23,0.14,51.57,3.36,0.05,-0.19
4,-5,16,-41,-354,3902,0.11,-0.22,1.88,-0.41,-3.54,39.02,-5.23,0.15,51.56,3.34,0.06,-0.24
3,-5,11,-16,-371,3898,0.12,-0.23,1.76,-0.16,-3.71,38.98,-5.24,0.16,51.55,3.37,0.06,0.08
0,-7,8,-29,-362,3898,0.11,-0.25,1.64,-0.29,-3.62,38.98,-5.25,0.18,51.55,3.43,0.09,0.19
1,-7,1,-5,-397,3904,0.10,-0.27,1.48,-0.05,-3.97,39.04,-5.26,0.17,51.54,3.43,0.10,0.65
-6,-12,1,37,-438,3901,0.05,-0.31,1.34,0.37,-4.38,39.01,-5.28,0.16,51.54,3.59,0.22,0.43
-3,-6,-5,-19,-330,3905,0.03,-0.32,1.17,-0.19,-3.30,39.05,-5.26,0.17,51.53,3.53,0.10,0.79
-7,-5,-4,-49,-298,3859,-0.01,-0.32,1.03,-0.49,-2.98,38.59,-5.25,0.18,51.53,3.61,0.07,0.46
-3,-1,-14,20,-350,3888,-0.03,-0.29,0.84,0.20,-3.50,38.88,-5.24,0.16,51.52,3.53,-0.00,1.19
-3,1,-15,11,-344,3886,-0.05,-0.26,0.67,0.11,-3.44,38.86,-5.23,0.14,51.52,3.53,-0.04,1.02
1,0,-9,-45,-342,3884,-0.04,-0.23,0.54,-0.45,-3.42,38.84,-5.23,0.16,51.52,3.44,-0.04,0.22
1,0,-5,-46,-347,3896,-0.03,-0.21,0.46,-0.46,-3.47,38.96,-5.22,0.17,51.52,3.43,-0.06,-0.32
1,-2,0,-38,-352,3914,-0.02,-0.20,0.41,-0.38,-3.52,39.14,-5.22,0.19,51.51,3.43,-0.03,-0.90
-2,-4,-1,-49,-351,3897,-0.03,-0.20,0.37,-0.49,-3.51,38.97,-5.22,0.21,51.51,3.49,-0.00,-0.87
0,-7,0,-27,-373,3891,-0.03,-0.23,0.33,-0.27,-3.73,38.91,-5.23,0.22,51.51,3.46,0.06,-1.03
0,-4,3,-21,-366,3879,-0.02,-0.23,0.32,-0.21,-3.66,38.79,-5.25,0.23,51.51,3.47,-0.01,-1.36
2,-2,11,-22,-411,3888,-0.01,-0.22,0.35,-0.22,-4.11,38.88,-5.27,0.23,51.51,3.44,-0.05,-2.12
2,-1,15,-13,-418,3894,0.00,-0.20,0.41,-0.13,-4.18,38.94,-5.28,0.23,51.51,3.45,-0.07,-2.44
-1,-1,31,-15,-411,3902,-0.00,-0.19,0.56,-0.15,-4.11,39.02,-5.30,0.23,51.50,3.52,-0.08,-3.83
-2,-1,32,-29,-389,3892,-0.01,-0.18,0.70,-0.29,-3.89,38.92,-5.32,0.23,51.50,3.55,-0.09,-3.72
-4,-1,24,-12,-342,3902,-0.04,-0.16,0.77,-0.12,-3.42,39.02,-5.30,0.23,51.50,3.59,-0.09,-2.78
-2,-1,24,-14,-359,3896,-0.05,-0.15,0.84,-0.14,-3.59,38.96,-5.29,0.22,51.50,3.54,-0.08,-2.68
-5,1,42,-19,-443,3874,-0.07,-0.13,1.01,-0.19,-4.43,38.74,-5.30,0.22,51.49,3.62,-0.13,-4.24
-2,5,52,-39,-435,3863,-0.08,-0.09,1.23,-0.39,-4.35,38.63,-5.32,0.23,51.49,3.57,-0.23,-4.92
-3,-5,70,25,-418,3977,-0.09,-0.11,1.53,0.25,-4.18,39.77,-5.34,0.21,51.48,3.61,-0.01,-6.27
0,-3,83,-7,-468,3814,-0.08,-0.12,1.89,-0.07,-4.68,38.14,-5.35,0.21,51.47,3.56,-0.05,-7.05
-9,0,121,-11,-413,3835,-0.13,-0.11,2.44,-0.11,-4.13,38.35,-5.37,0.21,51.46,3.76,-0.11,-10.05
-9,9,131,-4,-349,3853,-0.17,-0.04,2.99,-0.04,-3.49,38.53,-5.36,0.20,51.45,3.77,-0.31,-10.21
-9,7,161,44,-249,3898,-0.21,0.01,3.67,0.44,-2.49,38.98,-5.34,0.20,51.44,3.77,-0.27,-12.19
-9,14,164,2,-192,3858,-0.24,0.09,4.31,0.02,-1.92,38.58,-5.33,0.20,51.42,3.76,-0.44,-11.51
-3,18,103,7,-152,3888,-0.23,0.19,4.50,0.07,-1.52,38.88,-5.31,0.20,51.40,3.63,-0.55,-5.00
0,20,87,-24,-176,3896,-0.21,0.29,4.58,-0.24,-1.76,38.96,-5.29,0.20,51.38,3.55,-0.62,-3.25
3,22,36,-73,-336,3903,-0.17,0.40,4.35,-0.73,-3.36,39.03,-5.29,0.22,51.37,3.47,-0.70,1.56
2,22,39,-209,-376,4027,-0.14,0.49,4.15,-2.09,-3.76,40.27,-5.29,0.24,51.35,3.49,-0.74,0.95
-8,3,107,-68,-414,4004,-0.18,0.46,4.39,-0.68,-4.14,40.04,-5.30,0.26,51.33,3.71,-0.36,-5.59
0,10,103,-62,-376,3797,-0.16,0.48,4.58,-0.62,-3.76,37.97,-5.31,0.28,51.31,3.55,-0.52,-4.89
2,15,86,10,-352,3843,-0.13,0.52,4.64,0.10,-3.52,38.43,-5.31,0.26,51.30,3.50,-0.62,-3.05
2,12,81,11,-401,3905,-0.11,0.54,4.67,0.11,-4.01,39.05,-5.32,0.26,51.28,3.50,-0.56,-2.50
-2,5,75,8,-399,3892,-0.11,0.52,4.66,0.08,-3.99,38.92,-5.34,0.25,51.26,3.59,-0.41,-1.90
-4,3,75,26,-387,3843,-0.12,0.49,4.65,0.26,-3.87,38.43,-5.35,0.24,51.24,3.64,-0.35,-1.92
-5,-2,33,108,-351,3929,-0.14,0.42,4.39,1.08,-3.51,39.29,-5.34,0.22,51.22,3.67,-0.22,1.94
0,2,35,44,-383,3862,-0.13,0.39,4.16,0.44,-3.83,38.62,-5.35,0.21,51.21,3.57,-0.29,1.39
1,3,76,60,-532,3872,-0.11,0.37,4.21,0.60,-5.32,38.72,-5.37,0.21,51.19,3.55,-0.30,-2.71
-1,9,115,186,-535,3905,-0.10,0.39,4.49,1.86,-5.35,39.05,-5.38,0.20,51.17,3.60,-0.42,-6.23
0,8,192,91,-412,3839,-0.09,0.40,5.21,0.91,-4.12,38.39,-5.39,0.18,51.15,3.58,-0.39,-12.94
12,16,214,138,-478,3964,-0.01,0.46,6.00,1.38,-4.78,39.64,-5.40,0.17,51.13,3.32,-0.56,-13.95
2,-9,128,21,-41,3966,0.00,0.36,6.18,0.21,-0.41,39.66,-5.38,0.17,51.10,3.51,-0.03,-4.93
12,13,96,28,-149,3833,0.08,0.40,6.15,0.28,-1.49,38.33,-5.36,0.17,51.08,3.27,-0.49,-1.72
3,10,41,-108,-314,3921,0.09,0.42,5.78,-1.08,-3.14,39.21,-5.35,0.19,51.06,3.45,-0.45,3.30
1,5,36,-138,-327,3915,0.08,0.41,5.42,-1.38,-3.27,39.15,-5.35,0.21,51.04,3.49,-0.36,3.25
0,4,56,-113,-408,3869,0.08,0.39,5.22,-1.13,-4.08,38.69,-5.35,0.23,51.01,3.51,-0.34,0.91
-4,7,61,-120,-360,3895,0.04,0.40,5.07,-1.20,-3.60,38.95,-5.35,0.26,50.99,3.60,-0.42,0.17
-4,9,26,-89,-321,3904,0.02,0.41,4.72,-0.89,-3.21,39.04,-5.34,0.28,50.98,3.60,-0.48,3.18
-4,4,17,-62,-373,3886,-0.01,0.40,4.36,-0.62,-3.73,38.86,-5.35,0.30,50.96,3.61,-0.38,3.52
-1,2,12,-29,-399,3890,-0.02,0.37,3.99,-0.29,-3.99,38.90,-5.36,0.30,50.94,3.57,-0.34,3.47
-2,-2,20,-111,-409,3891,-0.03,0.32,3.72,-1.11,-4.09,38.91,-5.37,0.32,50.93,3.59,-0.26,2.22
-3,-1,56,22,-438,3901,-0.04,0.28,3.69,0.22,-4.38,39.01,-5.39,0.32,50.91,3.63,-0.26,-1.48
-6,5,67,-3,-426,3832,-0.07,0.28,3.73,-0.03,-4.26,38.32,-5.41,0.31,50.90,3.71,-0.39,-2.54
4,7,98,70,-502,3845,-0.04,0.30,3.95,0.70,-5.02,38.45,-5.42,0.31,50.88,3.51,-0.43,-5.34
-3,4,116,67,-475,3969,-0.06,0.29,4.26,0.67,-4.75,39.69,-5.43,0.30,50.87,3.66,-0.36,-6.68
1,-8,117,-58,-437,3881,-0.04,0.21,4.55,-0.58,-4.37,38.81,-5.45,0.31,50.85,3.59,-0.10,-6.34
-4,-5,113,-12,-474,3887,-0.06,0.16,4.79,-0.12,-4.74,38.87,-5.47,0.31,50.83,3.71,-0.15,-5.56
4,5,170,13,-487,3918,-0.03,0.18,5.34,0.13,-4.87,39.18,-5.49,0.31,50.81,3.55,-0.35,-10.49
-8,3,176,-71,-424,3751,-0.08,0.18,5.88,-0.71,-4.24,37.51,-5.50,0.32,50.79,3.82,-0.32,-10.26
-2,9,111,57,-186,3771,-0.08,0.21,5.97,0.57,-1.86,37.71,-5.48,0.32,50.76,3.68,-0.45,-3.51
2,10,102,94,-262,3969,-0.06,0.25,6.00,0.94,-2.62,39.69,-5.47,0.31,50.74,3.59,-0.48,-2.56
-1,8,72,-14,-351,3947,-0.06,0.28,5.84,-0.14,-3.51,39.47,-5.45,0.31,50.71,3.64,-0.44,0.24
-1,-1,68,-34,-308,3870,-0.06,0.24,5.67,-0.34,-3.08,38.70,-5.44,0.31,50.69,3.63,-0.25,0.39
0,8,84,-69,-341,3862,-0.06,0.27,5.61,-0.69,-3.41,38.62,-5.43,0.33,50.67,3.60,-0.45,-1.32
-8,8,92,-68,-320,3865,-0.10,0.29,5.61,-0.68,-3.20,38.65,-5.41,0.35,50.65,3.76,-0.47,-2.14
4,1,91,-68,-299,3966,-0.07,0.27,5.61,-0.68,-2.99,39.66,-5.40,0.36,50.63,3.50,-0.33,-2.04
-3,-2,90,-77,-307,3836,-0.08,0.23,5.60,-0.77,-3.07,38.36,-5.39,0.38,50.60,3.64,-0.27,-1.96
-3,-9,82,-86,-264,3814,-0.09,0.15,5.54,-0.86,-2.64,38.14,-5.37,0.39,50.58,3.63,-0.11,-1.24
-4,-2,70,-99,-212,3943,-0.10,0.12,5.41,-0.99,-2.12,39.43,-5.35,0.40,50.56,3.64,-0.26,-0.21
3,-1,10,-65,-224,3951,-0.07,0.10,4.93,-0.65,-2.24,39.51,-5.34,0.41,50.54,3.48,-0.28,5.14
7,2,0,-30,-236,3901,-0.02,0.11,4.44,-0.30,-2.36,39.01,-5.32,0.41,50.52,3.37,-0.34,5.39
1,5,-2,-31,-343,3898,-0.02,0.13,3.98,-0.31,-3.43,38.98,-5.30,0.41,50.51,3.48,-0.41,4.88
2,6,1,-31,-359,3886,-0.00,0.15,3.59,-0.31,-3.59,38.86,-5.29,0.43,50.49,3.45,-0.45,3.97
1,4,-6,-62,-406,3888,0.00,0.16,3.19,-0.62,-4.06,38.88,-5.31,0.44,50.48,3.48,-0.42,4.07
0,1,-5,-172,-434,3886,0.00,0.15,2.84,-1.72,-4.34,38.86,-5.32,0.46,50.47,3.51,-0.37,3.42
-1,-9,16,-26,-435,3890,-0.00,0.08,2.66,-0.26,-4.35,38.90,-5.33,0.46,50.46,3.54,-0.14,0.99
-1,-6,20,-43,-444,3883,-0.01,0.04,2.51,-0.43,-4.44,38.83,-5.35,0.46,50.45,3.55,-0.19,0.37
-6,-8,57,-5,-465,3873,-0.04,-0.02,2.61,-0.05,-4.65,38.73,-5.37,0.46,50.44,3.68,-0.14,-3.25
-6,-8,71,-26,-404,3897,-0.08,-0.06,2.78,-0.26,-4.04,38.97,-5.39,0.46,50.43,3.70,-0.12,-4.40
-2,-9,88,-10,-321,3885,-0.08,-0.11,3.04,-0.10,-3.21,38.85,-5.37,0.45,50.41,3.61,-0.08,-5.73
0,-3,92,-29,-328,3885,-0.07,-0.12,3.30,-0.29,-3.28,38.85,-5.35,0.45,50.40,3.55,-0.20,-5.73
0,3,96,9,-252,3875,-0.07,-0.09,3.55,0.09,-2.52,38.75,-5.34,0.45,50.39,3.54,-0.33,-5.74
1,1,87,-11,-269,3911,-0.05,-0.07,3.73,-0.11,-2.69,39.11,-5.32,0.44,50.37,3.50,-0.29,-4.55
-4,0,80,7,-353,3896,-0.07,-0.07,3.84,0.07,-3.53,38.96,-5.31,0.43,50.36,3.61,-0.26,-3.66
-3,-4,83,0,-332,3900,-0.08,-0.08,3.97,0.00,-3.32,39.00,-5.30,0.42,50.34,3.58,-0.17,-3.78
-2,-1,75,-12,-382,3898,-0.09,-0.08,4.03,-0.12,-3.82,38.98,-5.32,0.41,50.32,3.57,-0.22,-2.87
0,1,74,1,-386,3901,-0.08,-0.07,4.08,0.01,-3.86,39.01,-5.33,0.39,50.31,3.54,-0.26,-2.69
0,1,80,-64,-379,3868,-0.07,-0.06,4.16,-0.64,-3.79,38.68,-5.33,0.41,50.29,3.54,-0.28,-3.17
-8,-10,87,6,-374,3906,-0.11,-0.11,4.27,0.06,-3.74,39.06,-5.34,0.39,50.27,3.72,-0.03,-3.70
-5,-5,86,-20,-346,3913,-0.13,-0.13,4.37,-0.20,-3.46,39.13,-5.32,0.39,50.26,3.65,-0.12,-3.45
-3,-8,87,14,-381,3909,-0.14,-0.17,4.46,0.14,-3.81,39.09,-5.33,0.37,50.24,3.62,-0.04,-3.41
-3,-7,107,2,-366,3881,-0.14,-0.19,4.67,0.02,-3.66,38.81,-5.33,0.36,50.22,3.62,-0.04,-5.12
-5,0,114,-22,-363,3845,-0.16,-0.17,4.90,-0.22,-3.63,38.45,-5.35,0.35,50.20,3.68,-0.18,-5.47
4,3,125,-12,-355,3911,-0.12,-0.14,5.17,-0.12,-3.55,39.11,-5.34,0.34,50.18,3.47,-0.25,-6.17
2,-5,123,11,-333,3947,-0.09,-0.15,5.40,0.11,-3.33,39.47,-5.33,0.33,50.16,3.50,-0.07,-5.60
-8,-3,128,-63,-397,3887,-0.13,-0.16,5.64,-0.63,-3.97,38.87,-5.34,0.34,50.14,3.72,-0.12,-5.73
-2,1,129,-83,-361,3838,-0.13,-0.14,5.87,-0.83,-3.61,38.38,-5.34,0.36,50.11,3.60,-0.22,-5.49
-4,0,99,20,-248,3839,-0.14,-0.12,5.88,0.20,-2.48,38.39,-5.32,0.36,50.09,3.63,-0.20,-2.41
-1,4,74,-37,-296,3927,-0.13,-0.08,5.75,-0.37,-2.96,39.27,-5.30,0.36,50.07,3.56,-0.30,-0.08
4,4,68,-70,-520,3908,-0.10,-0.05,5.59,-0.70,-5.20,39.08,-5.32,0.37,50.04,3.46,-0.31,0.28
0,2,76,-60,-522,3879,-0.09,-0.03,5.49,-0.60,-5.22,38.79,-5.34,0.37,50.02,3.55,-0.28,-0.68
6,12,121,-84,-493,3821,-0.04,0.04,5.68,-0.84,-4.93,38.21,-5.36,0.38,50.00,3.43,-0.51,-4.96
-2,8,130,-93,-461,3924,-0.05,0.09,5.91,-0.93,-4.61,39.24,-5.37,0.40,49.98,3.60,-0.45,-5.52
-5,3,156,29,-650,3884,-0.08,0.10,6.27,0.29,-6.50,38.84,-5.39,0.40,49.95,3.68,-0.35,-7.60
-21,-3,178,-160,-530,3653,-0.20,0.07,6.73,-1.60,-5.30,36.53,-5.41,0.41,49.93,4.05,-0.23,-9.12
11,6,124,83,-247,3790,-0.11,0.10,6.81,0.83,-2.47,37.90,-5.39,0.40,49.90,3.37,-0.41,-3.50
7,12,113,44,-184,3933,-0.06,0.16,6.82,0.44,-1.84,39.33,-5.38,0.40,49.87,3.42,-0.55,-2.37
4,3,135,43,-289,3895,-0.03,0.16,6.96,0.43,-2.89,38.95,-5.36,0.39,49.84,3.46,-0.36,-4.39
-6,-4,167,91,-229,3886,-0.06,0.12,7.28,0.91,-2.29,38.86,-5.35,0.38,49.81,3.67,-0.20,-7.14
-7,4,137,18,3,3880,-0.10,0.13,7.39,0.18,0.03,38.80,-5.33,0.38,49.78,3.69,-0.37,-3.92
2,15,109,-14,-7,3866,-0.07,0.21,7.32,-0.14,-0.07,38.66,-5.31,0.38,49.76,3.49,-0.62,-1.19
2,4,55,-84,-236,3900,-0.05,0.22,6.92,-0.84,-2.36,39.00,-5.30,0.39,49.73,3.47,-0.40,3.69
3,2,54,-69,-271,3895,-0.03,0.21,6.56,-0.69,-2.71,38.95,-5.28,0.40,49.70,3.43,-0.36,3.23
-3,-1,36,-14,-421,3896,-0.05,0.18,6.12,-0.14,-4.21,38.96,-5.30,0.40,49.68,3.57,-0.29,4.38
0,0,30,-18,-438,3902,-0.04,0.16,5.69,-0.18,-4.38,39.02,-5.32,0.40,49.65,3.52,-0.31,4.32
-1,-5,10,25,-383,3871,-0.04,0.12,5.18,0.25,-3.83,38.71,-5.32,0.39,49.63,3.55,-0.19,5.56
-1,-6,4,14,-374,3876,-0.05,0.07,4.69,0.14,-3.74,38.76,-5.33,0.37,49.62,3.55,-0.14,5.41
-4,-8,-1,-7,-357,3888,-0.07,0.01,4.21,-0.07,-3.57,38.88,-5.32,0.36,49.60,3.61,-0.08,5.17
-4,-9,-3,-9,-339,3899,-0.08,-0.04,3.77,-0.09,-3.39,38.99,-5.31,0.35,49.58,3.61,-0.04,4.69
0,-3,8,-27,-414,3850,-0.07,-0.06,3.45,-0.27,-4.14,38.50,-5.33,0.35,49.57,3.54,-0.16,3.06
-1,3,21,1,-434,3882,-0.07,-0.03,3.23,0.01,-4.34,38.82,-5.34,0.35,49.56,3.57,-0.28,1.41
-1,-8,48,-18,-342,3924,-0.07,-0.08,3.20,-0.18,-3.42,39.24,-5.33,0.34,49.54,3.56,-0.04,-1.39
-2,-3,51,-17,-356,3842,-0.08,-0.09,3.19,-0.17,-3.56,38.42,-5.32,0.33,49.53,3.57,-0.13,-1.70
5,1,80,13,-349,3892,-0.04,-0.07,3.36,0.13,-3.49,38.92,-5.31,0.31,49.52,3.42,-0.20,-4.39
3,-3,99,-9,-352,3876,-0.02,-0.09,3.63,-0.09,-3.52,38.76,-5.30,0.30,49.50,3.44,-0.11,-5.90
-3,-8,122,-21,-410,3867,-0.03,-0.13,4.01,-0.21,-4.10,38.67,-5.32,0.30,49.49,3.58,0.00,-7.65
-28,-11,127,-156,-281,3729,-0.20,-0.18,4.38,-1.56,-2.81,37.29,-5.31,0.32,49.47,4.13,0.06,-7.57
-7,-9,17,-43,-386,3878,-0.22,-0.22,4.05,-0.43,-3.86,38.78,-5.33,0.33,49.45,3.72,0.03,3.09
-6,-6,11,-61,-307,3942,-0.24,-0.23,3.71,-0.61,-3.07,39.42,-5.31,0.34,49.44,3.69,-0.04,3.17
-4,-3,6,-20,-361,3874,-0.24,-0.23,3.38,-0.20,-3.61,38.74,-5.32,0.32,49.43,3.66,-0.09,3.16
-4,-4,8,-15,-328,3883,-0.24,-0.23,3.09,-0.15,-3.28,38.83,-5.30,0.32,49.41,3.65,-0.07,2.51
-1,-5,8,-22,-329,3895,-0.22,-0.24,2.83,-0.22,-3.29,38.95,-5.28,0.32,49.40,3.57,-0.04,2.11
-1,-4,10,-32,-344,3903,-0.21,-0.24,2.61,-0.32,-3.44,39.03,-5.27,0.33,49.39,3.55,-0.07,1.56
-8,-11,29,-10,-386,3861,-0.23,-0.28,2.52,-0.10,-3.86,38.61,-5.29,0.32,49.38,3.72,0.09,-0.50
-1,-4,32,-32,-389,3818,-0.22,-0.28,2.46,-0.32,-3.89,38.18,-5.31,0.32,49.37,3.58,-0.06,-0.90
-1,5,41,-15,-363,3885,-0.20,-0.22,2.47,-0.15,-3.63,38.85,-5.31,0.31,49.36,3.58,-0.24,-1.81
-3,4,43,-14,-353,3916,-0.20,-0.17,2.48,-0.14,-3.53,39.16,-5.30,0.30,49.35,3.61,-0.23,-1.99
-2,3,58,-43,-386,3850,-0.19,-0.14,2.59,-0.43,-3.86,38.50,-5.31,0.31,49.34,3.60,-0.23,-3.35
-2,6,62,-31,-349,3913,-0.18,-0.09,2.71,-0.31,-3.49,39.13,-5.30,0.32,49.33,3.59,-0.31,-3.57
0,2,60,-25,-367,3874,-0.17,-0.07,2.80,-0.25,-3.67,38.74,-5.32,0.33,49.32,3.55,-0.24,-3.22
2,7,61,-42,-383,3890,-0.14,-0.02,2.90,-0.42,-3.83,38.90,-5.33,0.34,49.31,3.51,-0.36,-3.17
-4,16,132,-108,-554,3932,-0.15,0.08,3.41,-1.08,-5.54,39.32,-5.35,0.35,49.29,3.65,-0.58,-9.59
5,13,170,-55,-532,3962,-0.10,0.15,4.11,-0.55,-5.32,39.62,-5.36,0.36,49.28,3.47,-0.54,-12.37
14,18,280,117,-592,4046,-0.01,0.25,5.40,1.17,-5.92,40.46,-5.38,0.35,49.26,3.27,-0.66,-20.00
2,22,299,105,-539,3737,0.01,0.36,6.69,1.05,-5.39,37.37,-5.39,0.34,49.23,3.52,-0.77,-20.00
4,14,435,-26,-429,3726,0.03,0.41,8.67,-0.26,-4.29,37.26,-5.41,0.35,49.20,3.48,-0.63,-20.00
4,30,456,-16,-493,3844,0.05,0.55,10.59,-0.16,-4.93,38.44,-5.43,0.35,49.15,3.49,-0.99,-20.00
-22,29,465,-63,-410,3809,-0.09,0.67,12.36,-0.63,-4.10,38.09,-5.44,0.37,49.11,4.06,-1.02,-20.00
-18,4,483,-64,-369,4000,-0.19,0.63,14.07,-0.64,-3.69,40.00,-5.44,0.40,49.05,4.01,-0.52,-20.00
-30,10,518,49,-378,3829,-0.35,0.63,15.83,0.49,-3.78,38.29,-5.44,0.39,48.99,4.30,-0.63,-20.00
-10,29,516,63,-337,3928,-0.38,0.74,17.39,0.63,-3.37,39.28,-5.44,0.38,48.92,3.90,-1.04,-20.00
-16,16,529,-7,-350,3926,-0.44,0.76,18.88,-0.07,-3.50,39.26,-5.42,0.38,48.84,4.02,-0.78,-20.00
0,4,532,-47,-291,3977,-0.39,0.71,20.24,-0.47,-2.91,39.77,-5.41,0.39,48.76,3.68,-0.54,-20.00
-2,16,510,79,-337,3796,-0.37,0.74,21.32,0.79,-3.37,37.96,-5.40,0.39,48.68,3.71,-0.78,-20.00
-18,7,505,23,-319,3912,-0.44,0.71,22.27,0.23,-3.19,39.12,-5.39,0.39,48.59,4.05,-0.59,-18.13
-3,3,502,43,-270,3978,-0.41,0.66,23.11,0.43,-2.70,39.78,-5.38,0.39,48.50,3.72,-0.49,-16.52
-2,3,516,-80,-479,3910,-0.39,0.61,23.94,-0.80,-4.79,39.10,-5.40,0.41,48.40,3.71,-0.49,-16.64
-11,28,589,19,-333,3825,-0.41,0.72,25.14,0.19,-3.33,38.25,-5.39,0.40,48.30,3.89,-1.03,-20.00
-11,4,565,9,-338,4025,-0.44,0.67,26.07,0.09,-3.38,40.25,-5.37,0.40,48.20,3.89,-0.53,-18.30
-19,-10,566,98,-397,3975,-0.51,0.54,26.92,0.98,-3.97,39.75,-5.38,0.40,48.09,4.08,-0.21,-17.08
-14,24,563,22,-450,3714,-0.55,0.63,27.66,0.22,-4.50,37.14,-5.40,0.40,47.98,4.00,-0.93,-15.62
-3,12,579,41,-259,4040,-0.51,0.64,28.43,0.41,-2.59,40.40,-5.38,0.41,47.87,3.75,-0.69,-16.05
-10,14,583,61,-428,3900,-0.52,0.67,29.14,0.61,-4.28,39.00,-5.39,0.40,47.75,3.91,-0.73,-15.34
-6,17,663,116,-558,3840,-0.50,0.70,30.27,1.16,-5.58,38.40,-5.41,0.41,47.63,3.83,-0.81,-20.00
-16,16,740,132,-512,3885,-0.55,0.73,31.76,1.32,-5.12,38.85,-5.42,0.41,47.51,4.06,-0.79,-20.00
-14,21,878,37,-338,3979,-0.58,0.78,33.94,0.37,-3.38,39.79,-5.42,0.41,47.37,4.02,-0.91,-20.00
-49,-1,893,-25,-287,3845,-0.82,0.70,35.99,-0.25,-2.87,38.45,-5.40,0.43,47.23,4.78,-0.45,-20.00
-35,4,887,-9,-388,3903,-0.95,0.65,37.80,-0.09,-3.88,39.03,-5.41,0.43,47.08,4.55,-0.54,-20.00
-28,13,898,-17,-493,3846,-1.03,0.67,39.50,-0.17,-4.93,38.46,-5.44,0.45,46.92,4.44,-0.74,-20.00
-14,17,952,-46,-416,3897,-1.01,0.71,41.36,-0.46,-4.16,38.97,-5.46,0.47,46.76,4.16,-0.85,-20.00
-7,14,954,-62,-411,3963,-0.95,0.72,43.04,-0.62,-4.11,39.63,-5.47,0.50,46.59,4.01,-0.81,-20.00
-21,-4,960,-93,-485,3922,-0.99,0.62,44.59,-0.93,-4.85,39.22,-5.49,0.53,46.41,4.32,-0.44,-20.00
-7,24,963,-120,-336,3850,-0.93,0.71,46.01,-1.20,-3.36,38.50,-5.49,0.57,46.23,4.02,-1.06,-20.00
-12,15,936,-252,-407,3939,-0.91,0.73,47.12,-2.52,-4.07,39.39,-5.49,0.61,46.04,4.12,-0.90,-20.00
-12,26,950,-207,-389,3825,-0.89,0.81,48.20,-2.07,-3.89,38.25,-5.49,0.65,45.85,4.11,-1.18,-20.00
-44,2,995,-62,-438,3977,-1.07,0.75,49.45,-0.62,-4.38,39.77,-5.51,0.67,45.65,4.83,-0.69,-20.00
-10,13,979,-169,-325,3875,-1.03,0.75,50.48,-1.69,-3.25,38.75,-5.51,0.71,45.45,4.12,-0.94,-20.00
-17,4,927,-107,-301,4032,-1.03,0.70,51.08,-1.07,-3.01,40.32,-5.49,0.74,45.25,4.25,-0.76,-16.08
-5,16,896,-147,-202,3923,-0.95,0.73,51.44,-1.47,-2.02,39.23,-5.48,0.78,45.04,3.98,-1.04,-12.37
2,34,819,-177,-287,3893,-0.85,0.86,51.29,-1.77,-2.87,38.93,-5.47,0.81,44.84,3.80,-1.46,-4.76
-23,11,804,-193,-313,3956,-0.90,0.84,51.07,-1.93,-3.13,39.56,-5.46,0.85,44.63,4.32,-1.02,-3.58
-8,10,773,9,-360,3967,-0.86,0.82,50.68,0.09,-3.60,39.67,-5.46,0.86,44.43,4.00,-0.99,-1.03
-23,12,755,-41,-333,3868,-0.92,0.81,50.21,-0.41,-3.33,38.68,-5.44,0.87,44.23,4.31,-1.04,0.08
-13,22,710,-146,-320,3918,-0.90,0.86,49.52,-1.46,-3.20,39.18,-5.43,0.91,44.04,4.10,-1.28,3.59
4,14,685,-110,-303,3869,-0.79,0.86,48.75,-1.10,-3.03,38.69,-5.42,0.94,43.84,3.71,-1.14,4.93
-13,15,607,-129,-427,3798,-0.79,0.87,47.58,-1.29,-4.27,37.98,-5.43,0.98,43.65,4.06,-1.19,11.04
-2,16,591,-45,-412,3933,-0.72,0.88,46.43,-0.45,-4.12,39.33,-5.45,0.99,43.47,3.83,-1.22,10.88
-14,9,566,-131,-425,3867,-0.74,0.85,45.24,-1.31,-4.25,38.67,-5.46,1.02,43.29,4.09,-1.09,11.57
0,-3,580,-21,-508,3923,-0.66,0.74,44.25,-0.21,-5.08,39.23,-5.47,1.04,43.11,3.79,-0.83,8.62
-5,2,576,-12,-331,3878,-0.63,0.68,43.34,-0.12,-3.31,38.78,-5.46,1.04,42.94,3.88,-0.91,7.61
-11,-6,582,-23,-372,3951,-0.63,0.58,42.55,-0.23,-3.72,39.51,-5.46,1.04,42.77,4.00,-0.72,5.79
-35,-22,642,-18,-467,3999,-0.78,0.38,42.22,-0.18,-4.67,39.99,-5.48,1.05,42.60,4.54,-0.35,-0.83
2,8,659,20,-497,3871,-0.69,0.39,42.01,0.20,-4.97,38.71,-5.49,1.06,42.44,3.77,-0.97,-2.87
-8,5,721,-56,-548,3823,-0.67,0.39,42.21,-0.56,-5.48,38.23,-5.51,1.07,42.27,3.98,-0.91,-8.86
-29,-1,746,-116,-477,3840,-0.78,0.34,42.54,-1.16,-4.77,38.40,-5.53,1.10,42.10,4.45,-0.80,-10.89
-6,16,766,-126,-366,3980,-0.74,0.40,42.96,-1.26,-3.66,39.80,-5.52,1.13,41.93,3.97,-1.18,-12.26
-18,11,768,-92,-308,3864,-0.77,0.43,43.35,-0.92,-3.08,38.64,-5.50,1.15,41.76,4.21,-1.10,-11.86
-29,7,692,-138,-359,3778,-0.87,0.43,43.23,-1.38,-3.59,37.78,-5.50,1.19,41.58,4.46,-1.05,-4.30
2,19,678,-161,-313,3914,-0.77,0.50,43.05,-1.61,-3.13,39.14,-5.49,1.22,41.41,3.79,-1.33,-3.16
-24,3,647,51,-364,3925,-0.84,0.47,42.69,0.51,-3.64,39.25,-5.48,1.22,41.24,4.34,-1.00,-0.56
-27,-5,626,-23,-312,3896,-0.92,0.39,42.24,-0.23,-3.12,38.96,-5.47,1.23,41.07,4.41,-0.82,0.88
-5,4,634,32,-393,3878,-0.86,0.38,41.88,0.32,-3.93,38.78,-5.48,1.23,40.91,3.95,-1.00,-0.49
-1,10,647,19,-410,3850,-0.78,0.40,41.64,0.19,-4.10,38.50,-5.48,1.23,40.74,3.85,-1.12,-2.18
-3,13,702,88,-344,3857,-0.72,0.44,41.76,0.88,-3.44,38.57,-5.48,1.23,40.58,3.87,-1.20,-7.58
-18,4,703,28,-269,3909,-0.76,0.42,41.87,0.28,-2.69,39.09,-5.46,1.23,40.41,4.18,-1.01,-7.50
-27,11,723,45,-274,3799,-0.85,0.45,42.09,0.45,-2.74,37.99,-5.45,1.24,40.24,4.38,-1.16,-9.19
-11,13,721,110,-326,3992,-0.83,0.48,42.28,1.10,-3.26,39.92,-5.45,1.24,40.07,4.05,-1.21,-8.68
-21,10,772,72,-329,3937,-0.88,0.49,42.76,0.72,-3.29,39.37,-5.44,1.24,39.90,4.26,-1.15,-13.11
-19,21,793,-51,-344,3917,-0.90,0.57,43.32,-0.51,-3.44,39.17,-5.43,1.24,39.73,4.22,-1.40,-14.37
-5,13,812,26,-350,3863,-0.84,0.59,43.95,0.26,-3.50,38.63,-5.43,1.24,39.56,3.91,-1.25,-15.33
-10,11,817,-18,-455,3878,-0.82,0.60,44.53,-0.18,-4.55,38.78,-5.44,1.25,39.38,4.02,-1.21,-14.92
-23,-8,812,-68,-412,3884,-0.88,0.49,45.03,-0.68,-4.12,38.84,-5.46,1.26,39.20,4.31,-0.81,-13.63
-22,-1,786,-121,-520,3898,-0.93,0.44,45.33,-1.21,-5.20,38.98,-5.48,1.29,39.02,4.31,-0.95,-10.52
-43,-16,755,-97,-530,3741,-1.09,0.30,45.40,-0.97,-5.30,37.41,-5.49,1.31,38.84,4.80,-0.62,-7.25
-17,-9,741,-138,-406,3981,-1.09,0.21,45.38,-1.38,-4.06,39.81,-5.50,1.34,38.66,4.27,-0.76,-5.86
-4,2,666,-249,-379,3934,-1.00,0.20,44.90,-2.49,-3.79,39.34,-5.50,1.38,38.48,3.99,-1.00,1.04
-18,5,670,-311,-432,3892,-1.01,0.21,44.50,-3.11,-4.32,38.92,-5.51,1.41,38.30,4.28,-1.09,0.01
-10,9,638,-77,-536,3925,-0.97,0.25,43.94,-0.77,-5.36,39.25,-5.52,1.43,38.13,4.12,-1.19,2.40
4,13,636,-61,-485,3721,-0.85,0.30,43.43,-0.61,-4.85,37.21,-5.54,1.44,37.96,3.81,-1.30,1.80
-5,12,638,-175,-281,3779,-0.80,0.34,42.98,-1.75,-2.81,37.79,-5.53,1.47,37.79,3.97,-1.31,0.90
8,-4,660,-254,-210,3899,-0.67,0.29,42.70,-2.54,-2.10,38.99,-5.51,1.50,37.62,3.66,-0.99,-1.75
-30,-10,745,93,-300,3896,-0.78,0.20,42.98,0.93,-3.00,38.96,-5.50,1.50,37.44,4.46,-0.84,-9.96
-9,-1,763,-41,-351,3840,-0.76,0.17,43.34,-0.41,-3.51,38.40,-5.50,1.50,37.27,4.02,-1.02,-11.23
-24,1,888,12,-294,3824,-0.83,0.16,44.42,0.12,-2.94,38.24,-5.49,1.50,37.09,4.34,-1.06,-20.00
-70,-31,920,-38,-249,3747,-1.18,-0.05,45.59,-0.38,-2.49,37.47,-5.47,1.51,36.91,5.35,-0.36,-20.00
-2,36,898,-183,-374,3843,-1.07,0.18,46.51,-1.83,-3.74,38.43,-5.47,1.55,36.73,3.94,-1.80,-20.00
-15,11,923,-41,-479,3881,-1.05,0.23,47.49,-0.41,-4.79,38.81,-5.48,1.56,36.54,4.21,-1.31,-20.00
-14,25,939,-103,-431,3745,-1.03,0.36,48.47,-1.03,-4.31,37.45,-5.50,1.58,36.35,4.20,-1.65,-20.00
-16,36,962,42,-531,3910,-1.03,0.54,49.49,0.42,-5.31,39.10,-5.51,1.59,36.15,4.24,-1.93,-20.00
-4,26,941,-204,-90,3825,-0.95,0.65,50.28,-2.04,-0.90,38.25,-5.49,1.62,35.95,3.97,-1.77,-18.48
-22,-8,926,318,-149,3885,-0.99,0.53,50.90,3.18,-1.49,38.85,-5.48,1.62,35.75,4.34,-1.05,-15.98
9,23,909,-115,-394,3856,-0.84,0.62,51.35,-1.15,-3.94,38.56,-5.50,1.65,35.54,3.67,-1.72,-13.54
-58,5,928,-70,-539,3915,-1.11,0.59,51.88,-0.70,-5.39,39.15,-5.52,1.66,35.34,5.12,-1.36,-14.65
-4,21,839,-42,-265,3976,-1.02,0.66,51.81,-0.42,-2.65,39.76,-5.50,1.68,35.13,3.99,-1.71,-5.70
-28,25,802,-5,-273,3957,-1.09,0.74,51.52,-0.05,-2.73,39.57,-5.48,1.69,34.92,4.49,-1.82,-2.38
-38,24,707,-81,-497,3889,-1.21,0.82,50.68,-0.81,-4.97,38.89,-5.50,1.70,34.72,4.73,-1.84,5.97
-14,-2,679,-43,-503,3927,-1.18,0.72,49.76,-0.43,-5.03,39.27,-5.52,1.72,34.53,4.25,-1.29,7.39
-41,3,556,-196,-414,4046,-1.31,0.67,48.17,-1.96,-4.14,40.46,-5.52,1.76,34.33,4.83,-1.40,17.43
0,12,517,-9,-409,3803,-1.18,0.67,46.51,-0.09,-4.09,38.03,-5.53,1.76,34.15,3.97,-1.59,18.81
-6,13,459,-217,-542,3794,-1.10,0.69,44.66,-2.17,-5.42,37.94,-5.54,1.79,33.97,4.08,-1.63,20.00
-13,5,450,-26,-522,3875,-1.07,0.65,42.94,-0.26,-5.22,38.75,-5.55,1.80,33.80,4.22,-1.46,20.00
2,9,403,180,-343,3931,-0.95,0.64,41.10,1.80,-3.43,39.31,-5.55,1.80,33.64,3.88,-1.54,20.00
-29,19,403,-24,-419,3721,-1.03,0.69,39.45,-0.24,-4.19,37.21,-5.56,1.80,33.48,4.54,-1.76,19.43
3,17,353,25,-453,3838,-0.91,0.73,37.66,0.25,-4.53,38.38,-5.57,1.80,33.33,3.86,-1.73,20.00
-8,9,384,47,-543,3805,-0.87,0.71,36.23,0.47,-5.43,38.05,-5.58,1.81,33.19,4.08,-1.57,16.37
8,15,376,-122,-325,3878,-0.73,0.73,34.90,-1.22,-3.25,38.78,-5.56,1.82,33.05,3.71,-1.71,15.12
-3,14,366,-37,-408,3834,-0.68,0.74,33.65,-0.37,-4.08,38.34,-5.56,1.82,32.92,3.92,-1.69,14.18
-21,12,391,45,-421,3908,-0.74,0.74,32.67,0.45,-4.21,39.08,-5.57,1.82,32.79,4.30,-1.65,10.12
-5,6,391,63,-482,3867,-0.69,0.70,31.79,0.63,-4.82,38.67,-5.58,1.82,32.66,3.97,-1.51,8.75
5,19,428,58,-437,3798,-0.59,0.75,31.22,0.58,-4.37,37.98,-5.58,1.82,32.54,3.74,-1.79,4.11
-4,8,435,-28,-523,3910,-0.56,0.72,30.75,-0.28,-5.23,39.10,-5.59,1.82,32.41,3.93,-1.56,2.67
-15,4,455,-71,-459,3837,-0.59,0.67,30.45,-0.71,-4.59,38.37,-5.61,1.82,32.29,4.17,-1.47,0.17
-19,1,450,-6,-380,3973,-0.65,0.61,30.15,-0.06,-3.80,39.73,-5.61,1.82,32.17,4.26,-1.39,0.22
-16,10,497,-57,-406,3854,-0.68,0.61,30.17,-0.57,-4.06,38.54,-5.61,1.82,32.05,4.21,-1.57,-4.53
-6,1,504,-98,-390,3926,-0.65,0.56,30.22,-0.98,-3.90,39.26,-5.61,1.81,31.93,4.00,-1.37,-5.15
8,19,471,-96,-419,4024,-0.54,0.62,30.08,-0.96,-4.19,40.24,-5.62,1.81,31.82,3.69,-1.75,-2.02
-8,3,478,93,-365,3939,-0.53,0.57,29.98,0.93,-3.65,39.39,-5.62,1.81,31.70,4.02,-1.41,-2.87
5,24,505,120,-576,3780,-0.45,0.66,30.07,1.20,-5.76,37.80,-5.63,1.81,31.58,3.74,-1.86,-5.49
14,24,499,-7,-288,4053,-0.32,0.74,30.10,-0.07,-2.88,40.53,-5.61,1.81,31.46,3.51,-1.89,-4.82
-16,20,646,11,-409,3950,-0.38,0.79,31.03,0.11,-4.09,39.50,-5.61,1.81,31.33,4.14,-1.82,-18.31
4,28,669,39,-354,3879,-0.32,0.88,32.01,0.39,-3.54,38.79,-5.61,1.81,31.21,3.71,-2.00,-19.12
-7,30,657,-61,-354,3901,-0.33,0.98,32.82,-0.61,-3.54,39.01,-5.60,1.81,31.08,3.93,-2.07,-16.64
-20,4,662,0,-335,3872,-0.42,0.90,33.57,0.00,-3.35,38.72,-5.59,1.81,30.94,4.21,-1.52,-15.97
-13,-2,689,11,-503,3864,-0.46,0.80,34.42,0.11,-5.03,38.64,-5.60,1.81,30.81,4.08,-1.37,-17.39
-23,4,719,-41,-479,3840,-0.55,0.75,35.36,-0.41,-4.79,38.40,-5.61,1.81,30.67,4.32,-1.48,-18.97
7,24,754,95,-352,3858,-0.45,0.82,36.43,0.95,-3.52,38.58,-5.61,1.81,30.52,3.68,-1.91,-20.00
-13,36,752,-132,-315,4027,-0.49,0.96,37.37,-1.32,-3.15,40.27,-5.58,1.83,30.37,4.08,-2.20,-19.19
-10,37,778,-30,-291,3888,-0.50,1.09,38.38,-0.30,-2.91,38.88,-5.57,1.84,30.22,4.02,-2.26,-20.00
-8,42,809,-130,-327,3876,-0.50,1.23,39.48,-1.30,-3.27,38.76,-5.55,1.86,30.06,3.96,-2.42,-20.00
-1,18,819,52,-279,3830,-0.46,1.22,40.52,0.52,-2.79,38.30,-5.54,1.87,29.90,3.80,-1.93,-20.00
-2,25,780,-85,-238,3948,-0.42,1.25,41.23,-0.85,-2.38,39.48,-5.52,1.88,29.74,3.80,-2.09,-16.01
2,23,839,-74,-386,3998,-0.37,1.27,42.23,-0.74,-3.86,39.98,-5.51,1.88,29.57,3.70,-2.06,-20.00
-13,22,866,-159,-470,3874,-0.41,1.27,43.29,-1.59,-4.70,38.74,-5.52,1.91,29.40,4.02,-2.06,-20.00
-16,12,920,-196,-489,3800,-0.47,1.22,44.57,-1.96,-4.89,38.00,-5.54,1.94,29.22,4.11,-1.86,-20.00
22,42,928,-235,-301,3999,-0.29,1.35,45.77,-2.35,-3.01,39.99,-5.52,1.98,29.04,3.27,-2.53,-20.00
-54,10,924,-135,-515,3876,-0.59,1.28,46.83,-1.35,-5.15,38.76,-5.53,2.00,28.85,4.91,-1.87,-20.00
-45,10,873,-108,-306,3852,-0.80,1.21,47.47,-1.08,-3.06,38.52,-5.51,2.02,28.66,4.77,-1.87,-15.71
-11,31,796,-98,-421,3759,-0.79,1.28,47.58,-0.98,-4.21,37.59,-5.53,2.03,28.48,4.09,-2.32,-7.71
-7,13,713,-17,-141,4086,-0.75,1.23,47.17,-0.17,-1.41,40.86,-5.51,2.05,28.29,3.98,-1.95,0.10
-22,28,657,-72,-438,3835,-0.81,1.28,46.46,-0.72,-4.38,38.35,-5.52,2.06,28.10,4.31,-2.28,4.69
-15,16,660,-28,-299,3904,-0.82,1.25,45.84,-0.28,-2.99,39.04,-5.50,2.06,27.92,4.16,-2.03,3.43
-5,9,579,-5,-301,3893,-0.77,1.18,44.79,-0.05,-3.01,38.93,-5.49,2.07,27.74,3.93,-1.87,10.03
-3,15,572,-43,-210,3857,-0.71,1.15,43.80,-0.43,-2.10,38.57,-5.47,2.08,27.57,3.87,-1.99,9.20
4,28,550,0,-477,3888,-0.62,1.21,42.78,0.00,-4.77,38.88,-5.48,2.09,27.40,3.70,-2.28,9.85
-13,8,549,-52,-347,3945,-0.63,1.14,41.85,-0.52,-3.47,39.45,-5.47,2.09,27.23,4.05,-1.85,8.51
-6,13,503,-51,-367,3947,-0.61,1.10,40.73,-0.51,-3.67,39.47,-5.46,2.09,27.07,3.89,-1.95,11.45
-12,9,525,-19,-384,3809,-0.62,1.05,39.86,-0.19,-3.84,38.09,-5.46,2.09,26.91,4.02,-1.85,7.87
-13,14,521,161,-362,3821,-0.64,1.03,39.05,1.61,-3.62,38.21,-5.46,2.10,26.76,4.04,-1.95,7.02
-8,8,435,-233,-289,3929,-0.62,0.97,37.80,-2.33,-2.89,39.29,-5.44,2.13,26.61,3.92,-1.83,13.82
0,7,434,129,-394,3740,-0.56,0.92,36.67,1.29,-3.94,37.40,-5.44,2.13,26.46,3.74,-1.80,12.16
-7,-2,405,19,-435,3948,-0.55,0.81,35.47,0.19,-4.35,39.48,-5.45,2.13,26.32,3.89,-1.58,13.25
-23,-37,343,-391,-496,3865,-0.63,0.51,34.02,-3.91,-4.96,38.65,-5.45,2.16,26.18,4.24,-0.81,17.30
-33,-16,361,-126,-467,4015,-0.77,0.36,32.82,-1.26,-4.67,40.15,-5.47,2.17,26.05,4.49,-1.20,13.60
-6,29,337,142,-440,3884,-0.73,0.50,31.59,1.42,-4.40,38.84,-5.47,2.16,25.93,3.93,-2.15,14.14
-2,14,301,-37,-456,3889,-0.67,0.54,30.27,-0.37,-4.56,38.89,-5.48,2.16,25.81,3.84,-1.86,15.74
2,-8,331,-113,-363,3945,-0.59,0.43,29.26,-1.13,-3.63,39.45,-5.47,2.16,25.69,3.73,-1.38,11.13
-11,1,338,27,-374,3952,-0.60,0.40,28.40,0.27,-3.74,39.52,-5.47,2.15,25.58,3.99,-1.55,9.07
3,22,352,85,-507,3881,-0.52,0.49,27.70,0.85,-5.07,38.81,-5.47,2.15,25.47,3.69,-2.00,6.57
-6,-6,318,-25,-335,3891,-0.50,0.40,26.87,-0.25,-3.35,38.91,-5.47,2.14,25.36,3.87,-1.40,8.74
-5,9,404,24,-345,3943,-0.48,0.42,26.65,0.24,-3.45,39.43,-5.46,2.14,25.26,3.84,-1.71,-0.35
-2,10,412,0,-334,3844,-0.45,0.44,26.50,0.00,-3.34,38.44,-5.46,2.13,25.15,3.76,-1.73,-1.39
-8,9,496,-34,-519,3948,-0.45,0.45,26.87,-0.34,-5.19,39.48,-5.47,2.13,25.04,3.89,-1.71,-9.34
-5,-1,474,5,-245,3814,-0.44,0.40,27.08,0.05,-2.45,38.14,-5.45,2.13,24.94,3.82,-1.49,-6.79
-1,12,362,-102,-417,3909,-0.40,0.43,26.58,-1.02,-4.17,39.09,-5.46,2.13,24.83,3.74,-1.77,3.83
-12,-3,357,-70,-504,3922,-0.43,0.37,26.10,-0.70,-5.04,39.22,-5.48,2.13,24.73,3.98,-1.44,3.59
-9,13,427,138,-483,3877,-0.44,0.41,26.09,1.38,-4.83,38.77,-5.48,2.12,24.62,3.92,-1.78,-3.53
-1,1,382,20,-379,3962,-0.41,0.38,25.81,0.20,-3.79,39.62,-5.48,2.12,24.52,3.75,-1.52,0.61
-6,-2,390,55,-449,3882,-0.40,0.33,25.61,0.55,-4.49,38.82,-5.48,2.11,24.42,3.85,-1.44,-0.51
-6,2,378,-7,-380,3971,-0.40,0.31,25.36,-0.07,-3.80,39.71,-5.48,2.10,24.32,3.85,-1.51,0.31
-17,2,433,5,-534,3868,-0.46,0.29,25.46,0.05,-5.34,38.68,-5.49,2.10,24.22,4.10,-1.51,-5.11
7,29,459,-32,-501,3831,-0.37,0.44,25.72,-0.32,-5.01,38.31,-5.51,2.10,24.12,3.59,-2.10,-7.36
-13,15,448,5,-559,3958,-0.42,0.48,25.88,0.05,-5.59,39.58,-5.52,2.10,24.01,4.02,-1.82,-5.99
4,26,434,79,-430,3909,-0.35,0.59,25.94,0.79,-4.30,39.09,-5.52,2.10,23.91,3.66,-2.07,-4.47
1,15,381,-8,-425,3946,-0.31,0.63,25.67,-0.08,-4.25,39.46,-5.52,2.09,23.81,3.71,-1.86,0.51
-6,10,382,-8,-414,3843,-0.31,0.62,25.43,-0.08,-4.14,38.43,-5.53,2.09,23.71,3.85,-1.75,0.04
-15,0,368,-83,-423,3871,-0.37,0.56,25.13,-0.83,-4.23,38.71,-5.53,2.08,23.61,4.06,-1.53,1.00
0,1,372,-31,-393,3971,-0.34,0.51,24.89,-0.31,-3.93,39.71,-5.53,2.08,23.51,3.74,-1.53,0.22
-15,-8,372,-90,-452,3913,-0.39,0.41,24.67,-0.90,-4.52,39.13,-5.55,2.08,23.41,4.07,-1.32,-0.12
-11,-10,373,-33,-444,3880,-0.42,0.31,24.48,-0.33,-4.44,38.80,-5.55,2.07,23.31,4.00,-1.25,-0.52
-21,-19,340,-141,-307,3804,-0.51,0.16,24.10,-1.41,-3.07,38.04,-5.53,2.08,23.22,4.22,-1.03,2.26
-18,-18,337,-102,-370,3899,-0.57,0.04,23.75,-1.02,-3.70,38.99,-5.53,2.07,23.12,4.17,-1.01,2.01
-3,-29,316,-122,-431,3902,-0.53,-0.14,23.30,-1.22,-4.31,39.02,-5.55,2.08,23.03,3.87,-0.74,3.46
-18,-42,319,-27,-499,3798,-0.59,-0.39,22.92,-0.27,-4.99,37.98,-5.56,2.07,22.94,4.19,-0.41,2.55
-19,-29,343,-88,-445,3883,-0.64,-0.52,22.72,-0.88,-4.45,38.83,-5.57,2.07,22.85,4.24,-0.63,-0.19
-3,8,373,-112,-532,3813,-0.60,-0.42,22.72,-1.12,-5.32,38.13,-5.59,2.07,22.76,3.91,-1.41,-3.23
-18,15,393,-105,-454,3933,-0.65,-0.29,22.85,-1.05,-4.54,39.33,-5.60,2.07,22.67,4.24,-1.59,-5.07
-2,12,375,-141,-447,3983,-0.59,-0.19,22.85,-1.41,-4.47,39.83,-5.62,2.08,22.58,3.91,-1.56,-3.23
-16,10,427,6,-497,3992,-0.63,-0.11,23.17,0.06,-4.97,39.92,-5.63,2.07,22.49,4.21,-1.54,-8.02
-17,13,423,47,-511,3763,-0.67,-0.02,23.43,0.47,-5.11,37.63,-5.64,2.06,22.39,4.25,-1.62,-7.20
-19,7,468,51,-518,3896,-0.72,0.03,23.94,0.51,-5.18,38.96,-5.65,2.06,22.30,4.31,-1.51,-10.98
-10,14,492,22,-627,3823,-0.71,0.11,24.55,0.22,-6.27,38.23,-5.67,2.06,22.20,4.14,-1.67,-12.47
6,18,587,-91,-572,3855,-0.60,0.21,25.68,-0.91,-5.72,38.55,-5.68,2.07,22.10,3.79,-1.79,-20.00
-23,5,599,29,-552,4132,-0.68,0.22,26.76,0.29,-5.52,41.32,-5.69,2.06,21.99,4.41,-1.52,-19.90
-18,3,545,-222,-415,3894,-0.72,0.21,27.41,-2.22,-4.15,38.94,-5.70,2.09,21.88,4.32,-1.50,-13.40
-29,-7,534,-129,-407,3945,-0.83,0.15,27.93,-1.29,-4.07,39.45,-5.71,2.09,21.77,4.58,-1.28,-11.47
-19,13,500,-30,-449,3760,-0.86,0.21,28.18,-0.30,-4.49,37.60,-5.72,2.09,21.66,4.40,-1.70,-7.61
-4,20,510,-85,-534,3846,-0.80,0.32,28.48,-0.85,-5.34,38.46,-5.73,2.09,21.55,4.08,-1.87,-8.17
-23,4,563,-32,-595,3838,-0.86,0.31,29.06,-0.32,-5.95,38.38,-5.75,2.10,21.43,4.50,-1.55,-12.64
-4,20,596,-1,-535,3912,-0.80,0.40,29.79,-0.01,-5.35,39.12,-5.76,2.10,21.32,4.10,-1.90,-14.86
-28,2,638,-71,-440,4030,-0.89,0.37,30.71,-0.71,-4.40,40.30,-5.77,2.09,21.19,4.62,-1.52,-17.70
-18,9,649,-45,-445,3862,-0.91,0.39,31.59,-0.45,-4.45,38.62,-5.78,2.09,21.07,4.43,-1.67,-17.43
-6,5,632,-134,-434,3664,-0.86,0.38,32.29,-1.34,-4.34,36.64,-5.79,2.11,20.94,4.18,-1.60,-14.62
-46,19,627,-18,-383,4036,-1.05,0.46,32.89,-0.18,-3.83,40.36,-5.79,2.10,20.81,5.04,-1.90,-13.18
-27,-10,606,16,-444,4024,-1.11,0.35,33.29,0.16,-4.44,40.24,-5.79,2.10,20.68,4.67,-1.28,-10.40
2,20,638,30,-556,3747,-0.99,0.44,33.86,0.30,-5.56,37.47,-5.80,2.10,20.54,4.06,-1.91,-12.78
-17,8,705,-53,-447,3876,-0.99,0.44,34.77,-0.53,-4.47,38.76,-5.81,2.10,20.41,4.45,-1.67,-18.16
-31,7,717,-93,-361,3920,-1.08,0.44,35.67,-0.93,-3.61,39.20,-5.80,2.11,20.26,4.75,-1.65,-17.98
12,22,763,-204,-344,3970,-0.90,0.53,36.75,-2.04,-3.44,39.70,-5.79,2.13,20.12,3.82,-2.00,-20.00
-8,5,777,-97,-237,3834,-0.86,0.51,37.82,-0.97,-2.37,38.34,-5.77,2.15,19.97,4.20,-1.66,-20.00
-7,-5,772,-54,-309,3933,-0.82,0.43,38.75,-0.54,-3.09,39.33,-5.75,2.15,19.81,4.16,-1.43,-18.77
-28,7,760,-130,-301,3809,-0.91,0.43,39.51,-1.30,-3.01,38.09,-5.73,2.17,19.65,4.60,-1.69,-16.36
6,16,703,-39,-605,3917,-0.78,0.48,39.85,-0.39,-6.05,39.17,-5.74,2.17,19.50,3.88,-1.89,-10.03
-16,22,718,-19,-538,3929,-0.80,0.57,40.24,-0.19,-5.38,39.29,-5.76,2.18,19.34,4.34,-2.04,-10.94
-12,16,632,-95,-534,3913,-0.79,0.61,40.07,-0.95,-5.34,39.13,-5.77,2.19,19.18,4.27,-1.94,-2.45
-24,2,638,-90,-676,3762,-0.86,0.56,39.96,-0.90,-6.76,37.62,-5.78,2.21,19.02,4.54,-1.65,-3.24
-13,37,677,-97,-406,3772,-0.85,0.73,40.09,-0.97,-4.06,37.72,-5.79,2.21,18.86,4.32,-2.41,-6.99
6,27,680,-70,-359,4117,-0.73,0.82,40.23,-0.70,-3.59,41.17,-5.78,2.21,18.70,3.89,-2.23,-7.07
-20,-5,640,-124,-362,3890,-0.78,0.71,40.11,-1.24,-3.62,38.90,-5.76,2.22,18.54,4.42,-1.56,-3.18
-4,6,649,-146,-365,3899,-0.73,0.67,40.06,-1.46,-3.65,38.99,-5.74,2.24,18.38,4.07,-1.78,-4.18
-8,1,695,9,-386,3928,-0.70,0.61,40.29,0.09,-3.86,39.28,-5.73,2.24,18.22,4.14,-1.66,-8.48
-5,1,689,-103,-284,3854,-0.66,0.56,40.47,-1.03,-2.84,38.54,-5.71,2.25,18.06,4.05,-1.66,-7.60
31,1,626,-7,-331,3970,-0.41,0.51,40.24,-0.07,-3.31,39.70,-5.70,2.25,17.90,3.24,-1.64,-1.54
-42,1,614,-62,-404,3900,-0.62,0.46,39.96,-0.62,-4.04,39.00,-5.70,2.25,17.74,4.79,-1.63,-0.75
16,17,662,-10,-501,3925,-0.46,0.52,40.00,-0.10,-5.01,39.25,-5.71,2.25,17.58,3.57,-1.97,-5.56
-28,10,656,38,-452,3908,-0.59,0.53,40.00,0.38,-4.52,39.08,-5.71,2.25,17.42,4.50,-1.83,-4.94
-20,14,645,-47,-446,3808,-0.65,0.56,39.94,-0.47,-4.46,38.08,-5.72,2.25,17.26,4.36,-1.93,-3.92
-37,25,656,-95,-593,3791,-0.81,0.66,39.95,-0.95,-5.93,37.91,-5.73,2.27,17.10,4.76,-2.18,-5.03
-13,4,605,9,-315,3865,-0.81,0.62,39.64,0.09,-3.15,38.65,-5.72,2.27,16.95,4.26,-1.75,-0.31
-36,-1,599,36,-442,3825,-0.95,0.55,39.33,0.36,-4.42,38.25,-5.72,2.27,16.79,4.77,-1.63,-0.18
-12,-10,616,6,-450,4091,-0.93,0.43,39.16,0.06,-4.50,40.91,-5.72,2.27,16.64,4.27,-1.41,-2.17
-34,-27,600,30,-387,3815,-1.04,0.23,38.90,0.30,-3.87,38.15,-5.72,2.27,16.48,4.75,-1.01,-0.94
-12,3,585,-165,-512,3968,-1.01,0.22,38.58,-1.65,-5.12,39.68,-5.74,2.29,16.33,4.31,-1.63,0.09
-48,-9,570,17,-454,3873,-1.20,0.14,38.20,0.17,-4.54,38.73,-5.74,2.28,16.18,5.09,-1.36,1.03
-12,8,573,-32,-644,3742,-1.15,0.18,37.87,-0.32,-6.44,37.42,-5.76,2.29,16.03,4.36,-1.72,0.22
-9,-9,587,-25,-609,4016,-1.09,0.11,37.67,-0.25,-6.09,40.16,-5.77,2.30,15.88,4.29,-1.36,-1.52
-31,4,436,-315,-450,3401,-1.17,0.12,36.56,-3.15,-4.50,34.01,-5.78,2.33,15.73,4.77,-1.65,12.11
-1,34,502,79,-698,3891,-1.06,0.32,35.97,0.79,-6.98,38.91,-5.79,2.33,15.59,4.13,-2.32,4.48
-24,23,612,-53,-466,3862,-1.10,0.42,36.10,-0.53,-4.66,38.62,-5.80,2.33,15.45,4.62,-2.12,-6.48
-13,9,596,6,-380,3904,-1.07,0.44,36.13,0.06,-3.80,39.04,-5.80,2.33,15.30,4.38,-1.84,-4.81
6,13,588,72,-355,3960,-0.93,0.47,36.10,0.72,-3.55,39.60,-5.79,2.33,15.16,3.96,-1.93,-4.04
-47,-4,572,-76,-453,3887,-1.12,0.40,35.98,-0.76,-4.53,38.87,-5.80,2.33,15.01,5.09,-1.57,-2.59
-35,9,606,4,-377,3841,-1.22,0.42,36.08,0.04,-3.77,38.41,-5.80,2.33,14.87,4.87,-1.83,-5.89
14,22,615,57,-463,3962,-1.02,0.51,36.22,0.57,-4.63,39.62,-5.80,2.33,14.73,3.82,-2.12,-6.58
-7,10,503,-130,-282,3864,-0.96,0.52,35.67,-1.30,-2.82,38.64,-5.78,2.34,14.58,4.22,-1.89,3.95
-18,9,495,-28,-382,3762,-0.97,0.52,35.12,-0.28,-3.82,37.62,-5.78,2.34,14.45,4.45,-1.87,3.91
-13,12,448,-46,-439,3805,-0.95,0.54,34.34,-0.46,-4.39,38.05,-5.79,2.34,14.31,4.34,-1.94,7.48
3,22,455,-43,-593,3909,-0.84,0.62,33.68,-0.43,-5.93,39.09,-5.80,2.34,14.18,4.00,-2.16,5.75
-13,5,456,-10,-490,3885,-0.83,0.59,33.10,-0.10,-4.90,38.85,-5.81,2.35,14.04,4.33,-1.81,4.74
-29,-12,435,-40,-410,3860,-0.93,0.46,32.44,-0.40,-4.10,38.60,-5.81,2.34,13.92,4.68,-1.43,5.86
-42,-4,457,-143,-463,3704,-1.09,0.39,31.98,-1.43,-4.63,37.04,-5.83,2.35,13.79,5.00,-1.58,2.91
11,25,485,-123,-477,3869,-0.92,0.50,31.74,-1.23,-4.77,38.69,-5.84,2.36,13.66,3.88,-2.20,-0.30
-4,23,532,-41,-479,3662,-0.85,0.59,31.82,-0.41,-4.79,36.62,-5.85,2.36,13.54,4.18,-2.19,-4.97
-13,31,556,-29,-560,4082,-0.84,0.72,32.03,-0.29,-5.60,40.82,-5.87,2.37,13.41,4.37,-2.39,-7.08
-1,24,630,-65,-615,3820,-0.76,0.80,32.67,-0.65,-6.15,38.20,-5.88,2.38,13.28,4.11,-2.27,-13.60
17,20,645,-95,-573,3711,-0.58,0.84,33.33,-0.95,-5.73,37.11,-5.89,2.39,13.15,3.70,-2.21,-14.08
-11,23,578,96,-331,3729,-0.59,0.89,33.53,0.96,-3.31,37.29,-5.89,2.39,13.02,4.27,-2.29,-6.97
6,29,526,6,-228,3998,-0.50,0.98,33.38,0.06,-2.28,39.98,-5.87,2.39,12.88,3.89,-2.44,-1.90
-7,18,454,-33,-486,3720,-0.49,0.99,32.81,-0.33,-4.86,37.20,-5.88,2.40,12.75,4.16,-2.22,4.54
1,14,466,134,-504,3861,-0.44,0.98,32.37,1.34,-5.04,38.61,-5.88,2.40,12.63,3.98,-2.13,2.64
-8,3,547,-22,-362,3835,-0.44,0.90,32.47,-0.22,-3.62,38.35,-5.87,2.39,12.50,4.16,-1.89,-5.44
10,20,551,-44,-144,3937,-0.34,0.93,32.59,-0.44,-1.44,39.37,-5.85,2.40,12.37,3.75,-2.25,-5.66
1,2,592,90,-424,3950,-0.30,0.85,32.94,0.90,-4.24,39.50,-5.85,2.40,12.24,3.92,-1.86,-9.28
0,12,598,-51,-561,3805,-0.27,0.84,33.29,-0.51,-5.61,38.05,-5.86,2.41,12.10,3.94,-2.06,-9.33
13,36,615,85,-507,3927,-0.16,0.97,33.72,0.85,-5.07,39.27,-5.86,2.41,11.97,3.65,-2.59,-10.40
-4,18,617,19,-480,3900,-0.17,0.99,34.11,0.19,-4.80,39.00,-5.86,2.41,11.84,4.00,-2.23,-9.99
-1,17,652,-76,-313,3769,-0.16,0.99,34.67,-0.76,-3.13,37.69,-5.85,2.42,11.70,3.92,-2.21,-12.66
-16,25,655,-71,-318,4009,-0.24,1.05,35.20,-0.71,-3.18,40.09,-5.83,2.42,11.56,4.24,-2.39,-12.14
-14,32,735,11,-486,3882,-0.30,1.14,36.17,0.11,-4.86,38.82,-5.83,2.42,11.41,4.22,-2.56,-18.77
-16,24,765,-25,-380,3872,-0.37,1.17,37.22,-0.25,-3.80,38.72,-5.83,2.43,11.27,4.27,-2.41,-20.00
1,16,807,-54,-263,3879,-0.33,1.15,38.42,-0.54,-2.63,38.79,-5.81,2.43,11.11,3.90,-2.24,-20.00
13,21,807,-31,-456,3840,-0.21,1.16,39.50,-0.31,-4.56,38.40,-5.81,2.44,10.96,3.63,-2.35,-20.00
-1,13,777,-226,-267,3794,-0.20,1.13,40.29,-2.26,-2.67,37.94,-5.79,2.47,10.80,3.89,-2.20,-16.60
14,18,686,-520,82,3973,-0.09,1.12,40.44,-5.20,0.82,39.73,-5.77,2.50,10.63,3.55,-2.32,-7.11
-4,-15,228,-53,-337,3913,-0.11,0.92,37.79,-0.53,-3.37,39.13,-5.75,2.50,10.48,3.91,-1.60,20.00
2,3,188,-139,-536,3822,-0.09,0.85,35.16,-1.39,-5.36,38.22,-5.76,2.51,10.34,3.79,-1.95,20.00
7,4,133,-88,-508,3893,-0.03,0.79,32.45,-0.88,-5.08,38.93,-5.77,2.52,10.22,3.68,-1.96,20.00
6,3,131,-60,-444,3892,0.01,0.73,30.01,-0.60,-4.44,38.92,-5.78,2.52,10.10,3.69,-1.92,20.00
6,13,91,-123,-565,3850,0.04,0.73,27.56,-1.23,-5.65,38.50,-5.79,2.53,9.99,3.69,-2.13,20.00
-1,21,110,-111,-559,3862,0.03,0.79,25.48,-1.11,-5.59,38.62,-5.80,2.53,9.89,3.84,-2.31,20.00
-4,12,69,-68,-469,3899,0.00,0.78,23.35,-0.68,-4.69,38.99,-5.81,2.53,9.80,3.91,-2.13,20.00
-2,12,59,-60,-445,3899,-0.01,0.78,21.37,-0.60,-4.45,38.99,-5.81,2.53,9.71,3.88,-2.12,20.00
-3,14,54,-59,-425,3886,-0.03,0.78,19.57,-0.59,-4.25,38.86,-5.81,2.52,9.63,3.90,-2.16,20.00
-3,13,56,-68,-419,3873,-0.04,0.79,17.95,-0.68,-4.19,38.73,-5.81,2.51,9.56,3.91,-2.14,20.00
-1,9,44,-23,-511,3913,-0.04,0.76,16.42,-0.23,-5.11,39.13,-5.82,2.51,9.50,3.87,-2.05,20.00
-4,9,30,-41,-483,3903,-0.06,0.74,14.97,-0.41,-4.83,39.03,-5.83,2.50,9.44,3.95,-2.04,19.96
17,4,32,-191,-493,3686,0.05,0.69,13.66,-1.91,-4.93,36.86,-5.84,2.51,9.39,3.50,-1.93,17.74
-6,11,43,-226,-343,3958,0.01,0.69,12.56,-2.26,-3.43,39.58,-5.83,2.53,9.34,3.97,-2.08,14.90
-10,4,142,-202,-352,3925,-0.06,0.64,12.17,-2.02,-3.52,39.25,-5.81,2.55,9.29,4.05,-1.94,4.23
-8,10,172,-117,-430,3845,-0.10,0.64,12.00,-1.17,-4.30,38.45,-5.82,2.54,9.24,4.03,-2.06,0.92
3,-3,192,-150,-436,3896,-0.07,0.56,11.97,-1.50,-4.36,38.96,-5.83,2.54,9.19,3.81,-1.77,-1.16
-13,-3,187,-163,-568,4026,-0.14,0.48,11.92,-1.63,-5.68,40.26,-5.85,2.55,9.15,4.16,-1.75,-0.74
-12,12,244,-263,-626,3702,-0.20,0.51,12.21,-2.63,-6.26,37.02,-5.86,2.56,9.10,4.17,-2.07,-6.07
-12,4,246,-110,-576,4082,-0.26,0.48,12.49,-1.10,-5.76,40.82,-5.88,2.56,9.05,4.19,-1.90,-5.83
-22,7,300,-310,-809,3742,-0.36,0.48,13.07,-3.10,-8.09,37.42,-5.90,2.57,9.00,4.44,-1.97,-10.42
0,24,374,-161,-529,3988,-0.33,0.58,14.05,-1.61,-5.29,39.88,-5.91,2.58,8.94,3.99,-2.35,-16.42
39,-17,390,-2,-406,3949,-0.06,0.41,15.02,-0.02,-4.06,39.49,-5.91,2.57,8.88,3.12,-1.46,-16.53
-37,1,354,-61,-654,3859,-0.28,0.38,15.68,-0.61,-6.54,38.59,-5.93,2.57,8.82,4.74,-1.82,-11.85
-5,28,462,-86,-463,3685,-0.28,0.51,16.93,-0.86,-4.63,36.85,-5.94,2.56,8.76,4.10,-2.40,-20.00
-9,20,469,9,-526,3851,-0.31,0.58,18.10,0.09,-5.26,38.51,-5.95,2.56,8.69,4.19,-2.25,-19.77
-16,30,520,70,-570,3719,-0.37,0.71,19.46,0.70,-5.70,37.19,-5.95,2.55,8.61,4.36,-2.49,-20.00
3,38,566,-4,-644,3720,-0.32,0.87,20.97,-0.04,-6.44,37.20,-5.97,2.56,8.53,3.96,-2.70,-20.00
-28,7,573,70,-121,3833,-0.46,0.82,22.36,0.70,-1.21,38.33,-5.95,2.56,8.44,4.62,-2.05,-20.00
-16,0,542,-54,-137,3889,-0.51,0.74,23.43,-0.54,-1.37,38.89,-5.93,2.56,8.34,4.38,-1.89,-18.87
-5,3,485,191,-438,4044,-0.49,0.69,24.05,1.91,-4.38,40.44,-5.93,2.56,8.25,4.15,-1.93,-12.12
-8,-1,445,114,-315,3911,-0.49,0.61,24.36,1.14,-3.15,39.11,-5.92,2.55,8.15,4.21,-1.83,-7.57
-2,2,355,108,-421,4063,-0.45,0.56,24.09,1.08,-4.21,40.63,-5.92,2.54,8.05,4.07,-1.87,1.16
-3,5,364,102,-338,3711,-0.42,0.54,23.90,1.02,-3.38,37.11,-5.92,2.54,7.96,4.08,-1.92,-0.04
-16,-19,358,8,-212,4006,-0.48,0.37,23.69,0.08,-2.12,40.06,-5.90,2.54,7.86,4.35,-1.39,0.25
-10,-10,371,65,-419,3893,-0.49,0.27,23.59,0.65,-4.19,38.93,-5.90,2.53,7.77,4.23,-1.54,-1.23
-12,-11,451,65,-549,3869,-0.52,0.18,23.98,0.65,-5.49,38.69,-5.91,2.52,7.68,4.28,-1.49,-8.75
-24,-12,433,31,-537,3858,-0.61,0.08,24.22,0.31,-5.37,38.58,-5.91,2.52,7.58,4.56,-1.44,-6.54
-12,-11,372,-2,-393,3871,-0.62,0.01,24.07,-0.02,-3.93,38.71,-5.91,2.51,7.48,4.32,-1.44,-0.58
-4,2,352,41,-428,3901,-0.59,0.02,23.81,0.41,-4.28,39.01,-5.91,2.50,7.39,4.14,-1.70,1.06
-6,28,303,96,-371,3908,-0.56,0.19,23.28,0.96,-3.71,39.08,-5.91,2.50,7.30,4.18,-2.27,5.21
-3,23,267,-72,-369,3934,-0.53,0.31,22.58,-0.72,-3.69,39.34,-5.90,2.49,7.21,4.10,-2.19,7.79
4,-2,287,104,-394,3941,-0.45,0.27,22.07,1.04,-3.94,39.41,-5.90,2.48,7.12,3.93,-1.67,4.97
-14,-1,270,19,-398,3851,-0.49,0.23,21.51,0.19,-3.98,38.51,-5.90,2.47,7.03,4.31,-1.68,5.82
-3,14,310,17,-617,3879,-0.46,0.30,21.25,0.17,-6.17,38.79,-5.91,2.47,6.95,4.08,-2.00,1.36
-5,5,354,51,-565,3855,-0.44,0.30,21.29,0.51,-5.65,38.55,-5.92,2.47,6.87,4.13,-1.81,-3.06
-27,-9,320,0,-574,3761,-0.56,0.21,21.11,0.00,-5.74,37.61,-5.93,2.46,6.78,4.62,-1.50,0.12
1,15,340,16,-530,3893,-0.50,0.28,21.07,0.16,-5.30,38.93,-5.94,2.46,6.70,4.04,-2.00,-1.97
-14,-5,324,-36,-599,3859,-0.54,0.22,20.94,-0.36,-5.99,38.59,-5.95,2.46,6.62,4.36,-1.58,-0.54
-7,15,352,-12,-586,3828,-0.53,0.29,20.99,-0.12,-5.86,38.28,-5.96,2.46,6.53,4.22,-2.01,-3.30
0,2,433,-40,-503,3831,-0.47,0.28,21.54,-0.40,-5.03,38.31,-5.97,2.45,6.45,4.07,-1.73,-10.69
-17,-1,460,-50,-429,3795,-0.53,0.24,22.19,-0.50,-4.29,37.95,-5.98,2.44,6.36,4.43,-1.66,-12.42
-22,6,524,50,-477,3809,-0.61,0.25,23.17,0.50,-4.77,38.09,-5.98,2.44,6.27,4.56,-1.80,-17.40
-25,15,505,-66,-550,3909,-0.70,0.32,23.93,-0.66,-5.50,39.09,-6.00,2.44,6.17,4.66,-2.00,-14.28
-15,-5,538,18,-195,3913,-0.72,0.26,24.82,0.18,-1.95,39.13,-5.98,2.44,6.07,4.45,-1.58,-16.24
-10,18,589,-169,-293,3912,-0.71,0.34,25.93,-1.69,-2.93,39.12,-5.96,2.45,5.97,4.33,-2.08,-19.70
3,17,538,14,-402,3995,-0.62,0.41,26.62,0.14,-4.02,39.95,-5.96,2.44,5.86,4.04,-2.07,-13.44
-8,-1,541,11,-321,3820,-0.61,0.36,27.26,0.11,-3.21,38.20,-5.95,2.44,5.76,4.25,-1.69,-12.74
-14,-12,596,81,-452,3879,-0.63,0.25,28.17,0.81,-4.52,38.79,-5.95,2.43,5.64,4.38,-1.43,-16.92
-14,7,597,76,-478,3967,-0.66,0.27,28.99,0.76,-4.78,39.67,-5.95,2.43,5.53,4.39,-1.82,-15.73
-16,21,567,-39,-478,3949,-0.69,0.37,29.55,-0.39,-4.78,39.49,-5.96,2.43,5.41,4.44,-2.13,-11.81
5,19,568,36,-309,3865,-0.59,0.45,30.06,0.36,-3.09,38.65,-5.95,2.43,5.29,3.98,-2.11,-11.11
-8,4,553,-78,-576,3855,-0.58,0.43,30.43,-0.78,-5.76,38.55,-5.96,2.43,5.17,4.25,-1.80,-9.01
4,38,570,21,-502,3902,-0.50,0.62,30.86,0.21,-5.02,39.02,-5.97,2.43,5.05,3.99,-2.55,-10.06
2,-1,500,2,-448,3909,-0.43,0.55,30.83,0.02,-4.48,39.09,-5.97,2.43,4.93,4.02,-1.73,-3.00
-17,-6,486,-20,-509,3799,-0.49,0.46,30.71,-0.20,-5.09,37.99,-5.97,2.43,4.80,4.42,-1.61,-1.75
3,13,532,69,-528,3891,-0.43,0.49,30.88,0.69,-5.28,38.91,-5.98,2.43,4.68,4.00,-2.00,-6.15
-19,10,541,21,-407,3890,-0.50,0.50,31.09,0.21,-4.07,38.90,-5.98,2.42,4.56,4.47,-1.94,-6.73
-14,5,456,10,-380,3861,-0.54,0.48,30.77,0.10,-3.80,38.61,-5.97,2.42,4.44,4.37,-1.83,1.40
-1,16,440,43,-397,4017,-0.49,0.53,30.37,0.43,-3.97,40.17,-5.97,2.42,4.32,4.09,-2.07,2.42
-2,21,414,42,-484,3823,-0.45,0.61,29.86,0.42,-4.84,38.23,-5.97,2.41,4.20,4.10,-2.19,4.27
-6,34,460,-32,-586,3830,-0.44,0.76,29.68,-0.32,-5.86,38.30,-5.98,2.42,4.08,4.19,-2.49,-0.68
-24,-9,458,-171,-280,3937,-0.54,0.62,29.51,-1.71,-2.80,39.37,-5.96,2.43,3.96,4.57,-1.59,-0.75
-4,2,461,-22,-388,3847,-0.51,0.57,29.37,-0.22,-3.88,38.47,-5.96,2.43,3.85,4.15,-1.80,-1.27
-6,13,528,73,-609,4030,-0.50,0.60,29.65,0.73,-6.09,40.30,-5.96,2.43,3.73,4.19,-2.03,-7.63
-11,13,517,8,-494,3877,-0.52,0.62,29.84,0.08,-4.94,38.77,-5.97,2.43,3.61,4.30,-2.04,-6.22
-8,10,477,-25,-638,3876,-0.51,0.62,29.77,-0.25,-6.38,38.76,-5.98,2.43,3.49,4.25,-1.98,-2.26
-9,5,504,-53,-560,3845,-0.52,0.58,29.86,-0.53,-5.60,38.45,-5.99,2.44,3.37,4.28,-1.87,-4.85
-15,4,522,59,-574,3803,-0.56,0.55,30.06,0.59,-5.74,38.03,-6.00,2.44,3.25,4.42,-1.84,-6.37
-10,0,509,19,-434,4001,-0.56,0.50,30.16,0.19,-4.34,40.01,-6.00,2.43,3.14,4.32,-1.74,-4.89
1,22,418,8,-545,3862,-0.50,0.58,29.69,0.08,-5.45,38.62,-6.01,2.44,3.02,4.08,-2.21,3.64
-3,9,435,98,-429,3980,-0.47,0.58,29.38,0.98,-4.29,39.80,-6.01,2.43,2.90,4.15,-1.95,1.42
-3,30,476,-129,-344,3866,-0.44,0.70,29.34,-1.29,-3.44,38.66,-5.99,2.44,2.78,4.13,-2.41,-2.80
-15,-4,487,-1,-463,3974,-0.49,0.61,29.38,-0.01,-4.63,39.74,-5.99,2.43,2.67,4.39,-1.69,-3.86
-2,2,545,-24,-404,3931,-0.45,0.56,29.77,-0.24,-4.04,39.31,-5.98,2.43,2.55,4.11,-1.80,-9.15
5,-3,566,-14,-457,3973,-0.38,0.48,30.24,-0.14,-4.57,39.73,-5.99,2.43,2.43,3.95,-1.67,-10.54
-25,-7,594,-44,-526,3959,-0.49,0.39,30.84,-0.44,-5.26,39.59,-5.99,2.43,2.31,4.60,-1.57,-12.45
-8,4,578,-98,-536,3914,-0.49,0.38,31.28,-0.98,-5.36,39.14,-6.01,2.43,2.18,4.26,-1.79,-10.13
-8,8,507,70,-429,3802,-0.49,0.39,31.25,0.70,-4.29,38.02,-6.01,2.43,2.06,4.26,-1.87,-2.96
-11,12,486,42,-445,3923,-0.51,0.42,31.09,0.42,-4.45,39.23,-6.01,2.43,1.94,4.33,-1.96,-1.07
-5,20,507,-91,-419,3864,-0.49,0.50,31.07,-0.91,-4.19,38.64,-6.01,2.42,1.81,4.20,-2.14,-3.23
-13,8,511,-44,-437,3922,-0.52,0.50,31.08,-0.44,-4.37,39.22,-6.01,2.42,1.69,4.37,-1.90,-3.62
-18,9,541,-58,-556,3790,-0.58,0.51,31.27,-0.58,-5.56,37.90,-6.02,2.43,1.56,4.50,-1.92,-6.37
3,7,520,-44,-369,3958,-0.50,0.50,31.32,-0.44,-3.69,39.58,-6.01,2.42,1.44,4.04,-1.88,-4.16
-2,0,498,71,-737,4135,-0.46,0.45,31.22,0.71,-7.37,41.35,-6.02,2.43,1.32,4.14,-1.72,-2.06
5,26,504,68,-526,3868,-0.39,0.56,31.18,0.68,-5.26,38.68,-6.02,2.43,1.19,3.98,-2.28,-2.74
-7,14,475,19,-425,3908,-0.39,0.59,30.96,0.19,-4.25,39.08,-6.02,2.42,1.07,4.22,-2.05,-0.14
-8,20,476,-12,-528,3876,-0.40,0.65,30.76,-0.12,-5.28,38.76,-6.03,2.42,0.95,4.25,-2.19,-0.53
-12,17,458,-22,-354,3866,-0.43,0.69,30.48,-0.22,-3.54,38.66,-6.02,2.42,0.83,4.33,-2.13,0.86
2,6,456,-45,-430,3949,-0.38,0.66,30.21,-0.45,-4.30,39.49,-6.02,2.42,0.71,4.03,-1.90,0.65
6,19,461,-62,-511,3914,-0.30,0.71,30.01,-0.62,-5.11,39.14,-6.03,2.42,0.59,3.94,-2.18,-0.18
-22,-4,456,-54,-519,3809,-0.41,0.61,29.79,-0.54,-5.19,38.09,-6.04,2.42,0.47,4.54,-1.69,-0.01
-6,5,427,86,-442,3843,-0.40,0.58,29.41,0.86,-4.42,38.43,-6.04,2.42,0.35,4.22,-1.86,2.36
4,42,427,89,-531,3876,-0.34,0.78,29.08,0.89,-5.31,38.76,-6.04,2.42,0.24,4.00,-2.66,1.84
-17,34,468,-29,-481,3881,-0.41,0.91,29.02,-0.29,-4.81,38.81,-6.04,2.42,0.12,4.45,-2.54,-2.40
-5,10,497,-21,-330,3941,-0.40,0.88,29.15,-0.21,-3.30,39.41,-6.03,2.42,0.01,4.19,-2.04,-5.15
-15,15,498,26,-355,3905,-0.45,0.88,29.28,0.26,-3.55,39.05,-6.02,2.42,-0.11,4.40,-2.14,-5.06
-2,26,525,24,-522,3852,-0.42,0.95,29.55,0.24,-5.22,38.52,-6.03,2.42,-0.23,4.13,-2.38,-7.37
-1,26,495,-83,-293,3789,-0.38,1.02,29.61,-0.83,-2.93,37.89,-6.01,2.42,-0.34,4.09,-2.41,-4.21
-11,-5,490,-3,-73,4054,-0.41,0.89,29.64,-0.03,-0.73,40.54,-5.99,2.43,-0.46,4.29,-1.74,-3.66
-6,6,555,-26,-646,4039,-0.41,0.83,30.06,-0.26,-6.46,40.39,-6.00,2.44,-0.58,4.20,-1.96,-9.61
-10,9,534,-63,-621,3819,-0.43,0.80,30.31,-0.63,-6.21,38.19,-6.02,2.45,-0.70,4.29,-2.02,-7.08
-13,12,551,-124,-440,3954,-0.46,0.80,30.64,-1.24,-4.40,39.54,-6.02,2.45,-0.82,4.37,-2.08,-8.29
3,9,563,-92,-272,3941,-0.40,0.77,31.01,-0.92,-2.72,39.41,-6.00,2.45,-0.95,4.01,-2.01,-8.93
-23,-1,578,-62,-569,3822,-0.50,0.69,31.44,-0.62,-5.69,38.22,-6.01,2.46,-1.07,4.57,-1.79,-9.79
-4,17,546,-113,-578,3964,-0.47,0.72,31.63,-1.13,-5.78,39.64,-6.03,2.47,-1.19,4.19,-2.17,-6.24
11,52,592,87,-244,3988,-0.36,0.97,32.07,0.87,-2.44,39.88,-6.01,2.47,-1.32,3.84,-2.95,-10.22
8,24,624,211,-248,3918,-0.27,1.02,32.67,2.11,-2.48,39.18,-6.00,2.47,-1.45,3.87,-2.40,-12.54
-22,31,624,-75,-524,3897,-0.38,1.11,33.21,-0.75,-5.24,38.97,-6.01,2.48,-1.58,4.52,-2.57,-11.69
20,36,620,-66,-261,3960,-0.22,1.21,33.67,-0.66,-2.61,39.60,-5.99,2.49,-1.72,3.61,-2.70,-10.56
-2,10,536,-40,-450,3911,-0.21,1.15,33.58,-0.40,-4.50,39.11,-5.99,2.49,-1.85,4.05,-2.16,-2.17
-23,12,548,9,-648,3793,-0.33,1.11,33.56,0.09,-6.48,37.93,-6.00,2.50,-1.98,4.52,-2.19,-3.41
-21,2,513,106,-507,3792,-0.43,1.01,33.33,1.06,-5.07,37.92,-6.01,2.50,-2.12,4.51,-1.97,-0.20
4,30,526,160,-584,3832,-0.36,1.09,33.21,1.60,-5.84,38.32,-6.01,2.50,-2.25,3.98,-2.56,-1.71
-19,27,529,36,-569,3862,-0.44,1.15,33.11,0.36,-5.69,38.62,-6.02,2.50,-2.38,4.48,-2.51,-2.16
2,59,531,-76,-479,3699,-0.38,1.39,33.04,-0.76,-4.79,36.99,-6.03,2.51,-2.51,4.04,-3.24,-2.47
-13,19,457,15,-588,3788,-0.42,1.37,32.53,0.15,-5.88,37.88,-6.04,2.52,-2.64,4.36,-2.42,4.25
22,34,452,-47,-636,3986,-0.25,1.44,32.03,-0.47,-6.36,39.86,-6.05,2.53,-2.76,3.61,-2.75,3.99
-26,2,464,-27,-420,3808,-0.38,1.31,31.66,-0.27,-4.20,38.08,-6.04,2.53,-2.89,4.62,-2.07,2.19
13,30,468,-2,-551,3986,-0.26,1.36,31.35,-0.02,-5.51,39.86,-6.05,2.53,-3.01,3.80,-2.65,1.31
6,22,439,-79,-365,3767,-0.20,1.36,30.89,-0.79,-3.65,37.67,-6.04,2.53,-3.13,3.92,-2.49,3.55
4,27,423,-124,-443,3900,-0.16,1.39,30.38,-1.24,-4.43,39.00,-6.04,2.53,-3.25,3.95,-2.60,4.39
2,18,389,-67,-334,3901,-0.13,1.36,29.72,-0.67,-3.34,39.01,-6.03,2.54,-3.37,3.97,-2.41,6.81
-18,24,384,-79,-349,3732,-0.23,1.37,29.09,-0.79,-3.49,37.32,-6.02,2.54,-3.49,4.40,-2.54,6.34
9,13,322,145,-367,4024,-0.15,1.31,28.14,1.45,-3.67,40.24,-6.01,2.54,-3.60,3.82,-2.30,11.18
-8,33,350,-7,-570,3860,-0.18,1.38,27.46,-0.07,-5.70,38.60,-6.02,2.54,-3.71,4.18,-2.73,7.28
-1,57,401,-55,-352,3898,-0.17,1.59,27.16,-0.55,-3.52,38.98,-6.01,2.54,-3.82,4.03,-3.27,1.63
7,14,382,-147,-272,3983,-0.11,1.52,26.78,-1.47,-2.72,39.83,-5.98,2.56,-3.92,3.84,-2.39,2.96
-2,12,414,16,-692,3741,-0.11,1.44,26.62,0.16,-6.92,37.41,-5.99,2.56,-4.03,4.03,-2.33,-0.52
-14,33,453,-129,-532,3793,-0.19,1.50,26.73,-1.29,-5.32,37.93,-6.01,2.58,-4.13,4.30,-2.78,-4.33
-3,12,499,-10,-443,3872,-0.19,1.42,27.10,-0.10,-4.43,38.72,-6.01,2.57,-4.24,4.08,-2.33,-8.42
-5,15,490,-102,-304,3874,-0.20,1.37,27.38,-1.02,-3.04,38.74,-5.99,2.58,-4.35,4.11,-2.38,-7.07
-12,6,479,16,-731,3833,-0.25,1.27,27.56,0.16,-7.31,38.33,-6.00,2.59,-4.46,4.27,-2.18,-5.66
-16,-15,495,13,-514,3950,-0.32,1.05,27.82,0.13,-5.14,39.50,-6.01,2.59,-4.57,4.38,-1.69,-6.88
-6,-10,406,67,-492,3973,-0.33,0.88,27.52,0.67,-4.92,39.73,-6.01,2.59,-4.68,4.18,-1.74,1.70
-7,-6,392,-39,-384,3977,-0.34,0.76,27.16,-0.39,-3.84,39.77,-6.00,2.58,-4.78,4.19,-1.79,2.57
-18,5,440,-46,-534,3864,-0.41,0.71,27.13,-0.46,-5.34,38.64,-6.01,2.58,-4.89,4.44,-2.00,-2.36
-12,-7,434,-84,-594,3918,-0.45,0.60,27.06,-0.84,-5.94,39.18,-6.02,2.59,-5.00,4.34,-1.73,-1.85
-25,-17,488,91,-511,3932,-0.55,0.44,27.33,0.91,-5.11,39.32,-6.03,2.58,-5.11,4.64,-1.48,-6.91
-16,3,508,-27,-530,3750,-0.60,0.41,27.70,-0.27,-5.30,37.50,-6.04,2.58,-5.22,4.47,-1.88,-8.38
-28,-32,484,-93,-756,4140,-0.71,0.17,27.88,-0.93,-7.56,41.40,-6.05,2.59,-5.33,4.76,-1.11,-5.65
-19,-19,482,-45,-485,3696,-0.75,0.04,28.03,-0.45,-4.85,36.96,-6.06,2.59,-5.44,4.59,-1.33,-5.20
-12,-38,418,7,-521,3832,-0.75,-0.19,27.78,0.07,-5.21,38.32,-6.07,2.58,-5.55,4.45,-0.88,0.91
-7,-2,425,-38,-533,3843,-0.72,-0.19,27.59,-0.38,-5.33,38.43,-6.08,2.58,-5.66,4.35,-1.61,-0.09
2,16,500,-48,-508,4022,-0.63,-0.07,27.88,-0.48,-5.08,40.22,-6.08,2.58,-5.77,4.15,-2.01,-7.25
29,49,579,-150,-198,3894,-0.39,0.24,28.63,-1.50,-1.98,38.94,-6.06,2.59,-5.88,3.52,-2.77,-14.13
1,29,669,-100,-481,3913,-0.35,0.39,29.85,-1.00,-4.81,39.13,-6.07,2.59,-6.00,4.08,-2.40,-20.00
-16,25,656,-231,-226,4123,-0.41,0.50,30.86,-2.31,-2.26,41.23,-6.05,2.61,-6.12,4.43,-2.37,-18.47
10,27,742,-98,-281,3954,-0.31,0.62,32.30,-0.98,-2.81,39.54,-6.03,2.61,-6.25,3.86,-2.44,-20.00
-36,13,714,-200,-332,3958,-0.50,0.63,33.43,-2.00,-3.32,39.58,-6.01,2.63,-6.39,4.83,-2.18,-20.00
1,1,677,-90,-468,3798,-0.44,0.58,34.21,-0.90,-4.68,37.98,-6.01,2.64,-6.52,4.07,-1.92,-15.37
-35,14,663,-9,-444,3683,-0.61,0.60,34.84,-0.09,-4.44,36.83,-6.02,2.64,-6.66,4.85,-2.19,-12.97
-22,4,563,2,-439,3829,-0.68,0.57,34.79,0.02,-4.39,38.29,-6.02,2.63,-6.80,4.60,-1.98,-2.88
-2,9,537,113,-507,3834,-0.63,0.57,34.58,1.13,-5.07,38.34,-6.02,2.63,-6.94,4.18,-2.08,-0.55
-9,5,502,79,-411,3835,-0.62,0.54,34.19,0.79,-4.11,38.35,-6.01,2.63,-7.07,4.32,-1.99,2.40
-5,-7,448,48,-237,3892,-0.59,0.44,33.50,0.48,-2.37,38.92,-6.00,2.63,-7.21,4.22,-1.72,6.82
-10,8,351,160,-619,3890,-0.59,0.45,32.29,1.60,-6.19,38.90,-6.01,2.63,-7.33,4.33,-2.02,14.81
0,21,362,125,-566,3890,-0.53,0.53,31.27,1.25,-5.66,38.90,-6.01,2.63,-7.46,4.11,-2.31,12.10
8,2,263,148,-431,3924,-0.43,0.49,29.75,1.48,-4.31,39.24,-6.01,2.63,-7.58,3.92,-1.91,19.80
8,-6,250,133,-375,3852,-0.34,0.40,28.30,1.33,-3.75,38.52,-6.00,2.62,-7.69,3.89,-1.72,18.87
1,8,237,78,-361,3900,-0.30,0.41,26.92,0.78,-3.61,39.00,-5.99,2.62,-7.79,4.02,-2.00,18.04
7,16,244,70,-368,3940,-0.23,0.47,25.71,0.70,-3.68,39.40,-5.99,2.61,-7.90,3.87,-2.18,15.46
0,3,243,41,-399,3919,-0.20,0.44,24.62,0.41,-3.99,39.19,-5.98,2.61,-8.00,4.00,-1.90,13.86
-10,3,231,35,-322,3857,-0.24,0.42,23.57,0.35,-3.22,38.57,-5.97,2.60,-8.09,4.21,-1.89,13.45
-7,15,265,7,-455,3988,-0.26,0.47,22.83,0.07,-4.55,39.88,-5.97,2.59,-8.18,4.16,-2.14,8.84
-5,9,298,33,-504,3796,-0.27,0.47,22.36,0.33,-5.04,37.96,-5.98,2.59,-8.27,4.12,-2.02,4.77
-4,-6,305,3,-441,3853,-0.26,0.39,21.99,0.03,-4.41,38.53,-5.98,2.58,-8.36,4.10,-1.69,3.47
-18,-7,326,20,-626,3854,-0.35,0.31,21.78,0.20,-6.26,38.54,-5.99,2.58,-8.44,4.42,-1.64,1.01
-8,-29,340,-50,-332,4008,-0.36,0.10,21.67,-0.50,-3.32,40.08,-5.98,2.57,-8.53,4.21,-1.14,-0.57
-18,-21,354,-34,-395,3777,-0.44,-0.04,21.67,-0.34,-3.95,37.77,-5.98,2.57,-8.61,4.43,-1.26,-2.00
-20,6,467,-31,-557,3913,-0.51,0.00,22.35,-0.31,-5.57,39.13,-5.99,2.56,-8.70,4.50,-1.81,-12.43
10,17,513,29,-384,3886,-0.40,0.11,23.24,0.29,-3.84,38.86,-5.98,2.55,-8.80,3.85,-2.06,-15.71
-29,10,625,-92,-548,4073,-0.54,0.16,24.73,-0.92,-5.48,40.73,-6.00,2.55,-8.89,4.69,-1.93,-20.00
-17,1,673,-107,-422,3880,-0.59,0.15,26.36,-1.07,-4.22,38.80,-6.00,2.55,-9.00,4.46,-1.74,-20.00
-31,-18,784,-3,-714,3837,-0.72,0.02,28.51,-0.03,-7.14,38.37,-6.01,2.55,-9.11,4.79,-1.32,-20.00
-19,14,812,-84,-636,3925,-0.76,0.11,30.61,-0.84,-6.36,39.25,-6.03,2.56,-9.23,4.57,-2.00,-20.00
-16,24,902,3,-536,3795,-0.78,0.24,33.05,0.03,-5.36,37.95,-6.03,2.56,-9.36,4.52,-2.24,-20.00
-21,15,921,-30,-601,3940,-0.83,0.31,35.37,-0.30,-6.01,39.40,-6.05,2.56,-9.50,4.64,-2.08,-20.00
-21,10,979,-80,-605,3833,-0.88,0.34,37.80,-0.80,-6.05,38.33,-6.06,2.57,-9.65,4.67,-1.99,-20.00
-19,18,974,-11,-656,3886,-0.91,0.41,39.96,-0.11,-6.56,38.86,-6.07,2.58,-9.81,4.64,-2.18,-20.00
-20,23,1004,27,-472,3810,-0.94,0.51,42.09,0.27,-4.72,38.10,-6.07,2.58,-9.98,4.67,-2.31,-20.00
-10,20,984,-2,-437,4046,-0.90,0.58,43.88,-0.02,-4.37,40.46,-6.07,2.58,-10.15,4.46,-2.27,-20.00
19,9,887,31,-495,4074,-0.70,0.58,44.91,0.31,-4.95,40.74,-6.07,2.59,-10.33,3.81,-2.05,-19.96
-47,2,882,20,-511,3637,-0.92,0.53,45.80,0.20,-5.11,36.37,-6.07,2.59,-10.51,5.21,-1.90,-18.07
-26,17,802,130,-455,3986,-0.98,0.59,46.11,1.30,-4.55,39.86,-6.07,2.60,-10.70,4.80,-2.22,-9.44
-20,15,808,88,-404,3847,-1.01,0.62,46.43,0.88,-4.04,38.47,-6.07,2.60,-10.88,4.68,-2.19,-9.55
38,36,804,-55,-430,3796,-0.67,0.78,46.69,-0.55,-4.30,37.96,-6.06,2.61,-11.07,3.41,-2.66,-8.73
-28,23,788,-39,-480,3890,-0.78,0.84,46.83,-0.39,-4.80,38.90,-6.07,2.61,-11.25,4.79,-2.42,-6.88
5,4,634,-57,-389,3982,-0.67,0.78,46.01,-0.57,-3.89,39.82,-6.06,2.62,-11.43,4.08,-2.02,7.51
-30,4,649,-105,-402,3866,-0.79,0.73,45.37,-1.05,-4.02,38.66,-6.05,2.62,-11.61,4.82,-2.01,4.99
-17,4,662,-16,-446,4064,-0.81,0.68,44.87,-0.16,-4.46,40.64,-6.05,2.63,-11.79,4.56,-2.00,2.90
-13,7,630,-2,-365,3748,-0.81,0.65,44.23,-0.02,-3.65,37.48,-6.04,2.63,-11.97,4.47,-2.05,5.15
-16,23,593,113,-528,3995,-0.83,0.73,43.42,1.13,-5.28,39.95,-6.04,2.63,-12.14,4.54,-2.40,7.67
-17,4,586,121,-488,3834,-0.85,0.68,42.65,1.21,-4.88,38.34,-6.04,2.64,-12.31,4.56,-2.01,7.19
-6,40,591,58,-483,3852,-0.80,0.86,41.99,0.58,-4.83,38.52,-6.04,2.64,-12.48,4.33,-2.79,5.66
-9,17,602,-1,-491,3859,-0.77,0.87,41.47,-0.01,-4.91,38.59,-6.04,2.64,-12.64,4.38,-2.33,3.72
-2,19,582,-65,-454,3852,-0.71,0.90,40.87,-0.65,-4.54,38.52,-6.05,2.65,-12.80,4.22,-2.38,4.83
-5,4,564,-91,-464,3943,-0.67,0.84,40.22,-0.91,-4.64,39.43,-6.05,2.65,-12.96,4.28,-2.06,5.66
-12,-4,465,43,-544,3926,-0.67,0.73,39.04,0.43,-5.44,39.26,-6.05,2.65,-13.12,4.42,-1.87,13.89
-1,-18,459,-93,-290,4027,-0.61,0.55,37.93,-0.93,-2.90,40.27,-6.04,2.66,-13.27,4.17,-1.54,12.78
-4,10,441,-43,-509,3940,-0.58,0.55,36.83,-0.43,-5.09,39.40,-6.04,2.66,-13.42,4.23,-2.11,12.90
-11,1,439,-36,-443,3911,-0.59,0.50,35.82,-0.36,-4.43,39.11,-6.04,2.66,-13.56,4.37,-1.92,11.54
-3,12,408,-115,-415,3942,-0.55,0.53,34.73,-1.15,-4.15,39.42,-6.04,2.66,-13.70,4.19,-2.14,13.00
7,17,392,-114,-338,3910,-0.45,0.58,33.65,-1.14,-3.38,39.10,-6.02,2.67,-13.83,3.95,-2.26,12.94
4,27,416,29,-488,3907,-0.38,0.68,32.82,0.29,-4.88,39.07,-6.02,2.67,-13.96,3.99,-2.49,9.22
4,35,443,-79,-436,3914,-0.32,0.83,32.24,-0.79,-4.36,39.14,-6.02,2.66,-14.09,3.98,-2.70,5.57
-1,14,412,-84,-390,3955,-0.29,0.83,31.53,-0.84,-3.90,39.55,-6.01,2.66,-14.21,4.07,-2.27,7.62
-8,1,388,-111,-448,3891,-0.31,0.75,30.74,-1.11,-4.48,38.91,-6.01,2.66,-14.34,4.22,-1.98,8.84
1,-6,363,-29,-465,3841,-0.27,0.64,29.88,-0.29,-4.65,38.41,-6.02,2.66,-14.45,4.02,-1.81,10.05
-16,0,358,54,-476,3912,-0.34,0.58,29.08,0.54,-4.76,39.12,-6.02,2.66,-14.57,4.39,-1.91,9.31
-17,-2,297,138,-444,3910,-0.41,0.51,27.98,1.38,-4.44,39.10,-6.01,2.65,-14.68,4.43,-1.85,13.81
-16,-2,274,101,-376,3882,-0.47,0.45,26.86,1.01,-3.76,38.82,-6.01,2.65,-14.79,4.42,-1.83,14.39
-2,9,216,101,-481,3927,-0.43,0.46,25.49,1.01,-4.81,39.27,-6.01,2.64,-14.89,4.13,-2.05,18.16
1,26,222,0,-465,3848,-0.39,0.57,24.29,0.00,-4.65,38.48,-6.01,2.64,-14.98,4.05,-2.42,15.70
6,32,179,-73,-452,3876,-0.31,0.71,22.96,-0.73,-4.52,38.76,-6.02,2.63,-15.08,3.93,-2.58,17.99
11,32,177,-80,-508,3885,-0.21,0.83,21.74,-0.80,-5.08,38.85,-6.03,2.63,-15.16,3.81,-2.61,16.30
10,40,183,-61,-511,3879,-0.13,0.99,20.68,-0.61,-5.11,38.79,-6.04,2.63,-15.24,3.82,-2.82,14.05
26,38,180,16,-406,3929,0.04,1.12,19.71,0.16,-4.06,39.29,-6.03,2.63,-15.32,3.44,-2.81,12.85
0,17,139,72,-418,3959,0.04,1.12,18.59,0.72,-4.18,39.59,-6.03,2.62,-15.39,3.97,-2.38,15.27
-2,11,137,59,-462,3837,0.02,1.07,17.57,0.59,-4.62,38.37,-6.03,2.61,-15.46,4.01,-2.24,13.88
-4,-5,124,36,-441,3894,-0.00,0.93,16.57,0.36,-4.41,38.94,-6.03,2.61,-15.53,4.06,-1.87,13.65
-1,-7,116,22,-363,3901,-0.01,0.80,15.62,0.22,-3.63,39.01,-6.02,2.60,-15.59,4.00,-1.79,12.98
-3,-11,91,272,-352,3911,-0.03,0.65,14.61,2.72,-3.52,39.11,-6.02,2.59,-15.65,4.04,-1.66,13.96
-5,-13,70,233,-340,3866,-0.06,0.51,13.58,2.33,-3.40,38.66,-6.01,2.58,-15.70,4.08,-1.58,14.49
-9,-15,31,32,-461,3877,-0.10,0.36,12.41,0.32,-4.61,38.77,-6.01,2.57,-15.75,4.18,-1.49,16.64
-7,-12,34,7,-484,3938,-0.14,0.25,11.37,0.07,-4.84,39.38,-6.02,2.56,-15.80,4.15,-1.51,14.72
-6,-2,41,-30,-409,3890,-0.16,0.22,10.49,-0.30,-4.09,38.90,-6.02,2.54,-15.84,4.14,-1.70,12.63
-4,0,41,-28,-417,3904,-0.17,0.20,9.69,-0.28,-4.17,39.04,-6.02,2.53,-15.88,4.10,-1.72,11.39
1,2,58,-24,-438,3921,-0.15,0.19,9.07,-0.24,-4.38,39.21,-6.02,2.52,-15.91,3.99,-1.75,8.70
1,-2,57,-15,-440,3924,-0.12,0.16,8.51,-0.15,-4.40,39.24,-6.02,2.50,-15.95,3.99,-1.65,7.94
-3,-12,51,-38,-513,3898,-0.13,0.07,7.97,-0.38,-5.13,38.98,-6.03,2.49,-15.98,4.08,-1.42,7.71
0,-12,55,10,-486,3893,-0.12,-0.01,7.51,0.10,-4.86,38.93,-6.04,2.48,-16.01,4.02,-1.39,6.58
0,-10,51,47,-488,3853,-0.11,-0.07,7.07,0.47,-4.88,38.53,-6.04,2.46,-16.04,4.02,-1.40,6.30
0,-12,51,22,-497,3884,-0.10,-0.14,6.68,0.22,-4.97,38.84,-6.05,2.45,-16.06,4.02,-1.33,5.69
-4,-13,75,-25,-544,3885,-0.11,-0.20,6.47,-0.25,-5.44,38.85,-6.06,2.44,-16.09,4.11,-1.29,2.92
-13,-20,115,-14,-599,3886,-0.18,-0.30,6.52,-0.14,-5.99,38.86,-6.08,2.43,-16.11,4.32,-1.11,-1.06
-6,-10,87,33,-391,3856,-0.20,-0.34,6.40,0.33,-3.91,38.56,-6.07,2.41,-16.14,4.18,-1.30,1.60
-5,-3,83,44,-460,3910,-0.21,-0.32,6.27,0.44,-4.60,39.10,-6.08,2.39,-16.16,4.17,-1.43,1.80
-4,3,86,2,-481,3895,-0.21,-0.27,6.16,0.02,-4.81,38.95,-6.08,2.38,-16.19,4.15,-1.56,1.34
-1,7,99,-36,-537,3892,-0.20,-0.20,6.15,-0.36,-5.37,38.92,-6.10,2.37,-16.21,4.10,-1.65,-0.00
-8,-12,133,47,-457,3870,-0.23,-0.25,6.35,0.47,-4.57,38.70,-6.10,2.35,-16.24,4.25,-1.24,-3.15
0,2,144,10,-479,3873,-0.20,-0.22,6.59,0.10,-4.79,38.73,-6.11,2.33,-16.26,4.09,-1.52,-3.89
-1,-7,163,53,-385,3889,-0.19,-0.24,6.93,0.53,-3.85,38.89,-6.10,2.32,-16.29,4.10,-1.32,-5.30
0,-5,166,18,-441,3854,-0.17,-0.24,7.25,0.18,-4.41,38.54,-6.11,2.30,-16.32,4.08,-1.35,-5.11
-11,-17,145,79,-483,3884,-0.22,-0.32,7.41,0.79,-4.83,38.84,-6.11,2.29,-16.35,4.32,-1.08,-2.72
-16,-31,122,77,-529,3876,-0.30,-0.48,7.41,0.77,-5.29,38.76,-6.12,2.27,-16.38,4.44,-0.74,-0.38
-2,-15,152,132,-440,3925,-0.28,-0.52,7.60,1.32,-4.40,39.25,-6.12,2.25,-16.41,4.16,-1.04,-3.14
-1,-17,156,115,-419,3902,-0.26,-0.57,7.79,1.15,-4.19,39.02,-6.12,2.24,-16.44,4.13,-0.97,-3.24
0,-3,142,-88,-415,3918,-0.23,-0.54,7.88,-0.88,-4.15,39.18,-6.12,2.22,-16.47,4.10,-1.26,-1.68
4,-1,147,-96,-448,3924,-0.18,-0.49,7.98,-0.96,-4.48,39.24,-6.12,2.20,-16.50,4.01,-1.30,-2.02
-4,2,187,122,-480,3854,-0.19,-0.43,8.33,1.22,-4.80,38.54,-6.13,2.19,-16.54,4.18,-1.37,-5.55
3,3,156,75,-446,3872,-0.15,-0.37,8.45,0.75,-4.46,38.72,-6.13,2.17,-16.57,4.03,-1.40,-2.22
-11,1,138,86,-588,3884,-0.20,-0.32,8.44,0.86,-5.88,38.84,-6.14,2.16,-16.60,4.33,-1.36,-0.39
-4,-1,139,62,-461,3870,-0.21,-0.30,8.45,0.62,-4.61,38.70,-6.14,2.14,-16.64,4.19,-1.31,-0.48
-7,-6,102,12,-422,3877,-0.23,-0.30,8.22,0.12,-4.22,38.77,-6.14,2.13,-16.67,4.26,-1.20,2.93
-6,-5,100,-12,-404,3924,-0.24,-0.30,8.01,-0.12,-4.04,39.24,-6.14,2.11,-16.70,4.24,-1.21,2.81
2,12,127,-81,-425,3900,-0.21,-0.20,7.99,-0.81,-4.25,39.00,-6.14,2.10,-16.73,4.07,-1.57,0.02
7,10,130,-117,-499,3873,-0.14,-0.12,7.98,-1.17,-4.99,38.73,-6.16,2.09,-16.76,3.96,-1.55,-0.29
-5,-13,86,12,-550,3877,-0.16,-0.19,7.71,0.12,-5.50,38.77,-6.17,2.08,-16.80,4.22,-1.06,3.76
-6,-14,77,52,-522,3892,-0.18,-0.25,7.41,0.52,-5.22,38.92,-6.18,2.07,-16.82,4.25,-1.01,4.20
-6,-17,67,45,-490,3895,-0.20,-0.33,7.07,0.45,-4.90,38.95,-6.18,2.05,-16.85,4.26,-0.92,4.71
-7,-16,69,41,-506,3891,-0.22,-0.40,6.79,0.41,-5.06,38.91,-6.19,2.04,-16.88,4.29,-0.91,4.06
-7,-8,85,18,-481,3888,-0.24,-0.41,6.63,0.18,-4.81,38.88,-6.20,2.02,-16.91,4.30,-1.06,2.18
-8,-13,84,10,-489,3917,-0.27,-0.44,6.48,0.10,-4.89,39.17,-6.21,2.01,-16.93,4.33,-0.94,2.05
-1,4,91,-2,-442,3949,-0.25,-0.38,6.38,-0.02,-4.42,39.49,-6.21,1.99,-16.96,4.18,-1.29,1.19
-1,1,83,38,-459,3889,-0.23,-0.33,6.25,0.38,-4.59,38.89,-6.21,1.97,-16.98,4.18,-1.23,1.80
3,11,106,2,-472,3885,-0.19,-0.23,6.27,0.02,-4.72,38.85,-6.22,1.96,-17.01,4.09,-1.45,-0.50
0,10,111,-2,-449,3917,-0.17,-0.15,6.32,-0.02,-4.49,39.17,-6.22,1.94,-17.03,4.15,-1.44,-0.93
8,16,111,7,-415,3910,-0.10,-0.03,6.37,0.07,-4.15,39.10,-6.22,1.93,-17.06,3.97,-1.59,-0.86
6,12,99,21,-423,3888,-0.06,0.04,6.33,0.21,-4.23,38.88,-6.22,1.91,-17.08,4.00,-1.52,0.31
0,8,69,14,-494,3901,-0.05,0.09,6.12,0.14,-4.94,39.01,-6.23,1.90,-17.11,4.12,-1.44,3.03
-2,3,68,0,-523,3899,-0.06,0.10,5.92,0.00,-5.23,38.99,-6.24,1.89,-17.13,4.17,-1.33,2.82
-2,1,62,53,-410,3893,-0.06,0.09,5.71,0.53,-4.10,38.93,-6.23,1.87,-17.15,4.17,-1.28,3.10
-3,2,49,84,-398,3891,-0.08,0.10,5.44,0.84,-3.98,38.91,-6.23,1.85,-17.17,4.19,-1.29,4.00
-5,-5,14,35,-470,3887,-0.10,0.06,4.98,0.35,-4.70,38.87,-6.24,1.84,-17.19,4.24,-1.13,6.84
-4,-6,10,18,-455,3894,-0.11,0.01,4.54,0.18,-4.55,38.94,-6.24,1.82,-17.21,4.23,-1.08,6.57
0,-2,3,25,-459,3886,-0.10,-0.00,4.11,0.25,-4.59,38.86,-6.24,1.81,-17.23,4.15,-1.15,6.61
0,-2,2,23,-465,3896,-0.09,-0.01,3.71,0.23,-4.65,38.96,-6.25,1.79,-17.24,4.15,-1.14,6.09
2,-3,2,36,-472,3895,-0.07,-0.03,3.35,0.36,-4.72,38.95,-6.25,1.77,-17.26,4.11,-1.10,5.53
4,-3,3,41,-473,3884,-0.04,-0.04,3.03,0.41,-4.73,38.84,-6.26,1.76,-17.27,4.06,-1.09,4.93
5,-6,5,33,-471,3884,-0.00,-0.08,2.76,0.33,-4.71,38.84,-6.26,1.74,-17.28,4.03,-1.01,4.31
3,-6,7,21,-466,3876,0.01,-0.11,2.53,0.21,-4.66,38.76,-6.27,1.72,-17.29,4.07,-0.99,3.74
13,12,2,-28,-473,3932,0.09,-0.02,2.29,-0.28,-4.73,39.32,-6.27,1.71,-17.30,3.85,-1.37,3.87
1,2,8,2,-504,3879,0.09,-0.01,2.11,0.02,-5.04,38.79,-6.28,1.69,-17.31,4.10,-1.16,2.99
-2,1,9,5,-466,3900,0.07,-0.00,1.95,0.05,-4.66,39.00,-6.29,1.68,-17.31,4.17,-1.13,2.64
-1,5,10,25,-481,3899,0.06,0.03,1.82,0.25,-4.81,38.99,-6.29,1.66,-17.32,4.16,-1.21,2.33
0,2,13,37,-479,3894,0.05,0.04,1.71,0.37,-4.79,38.94,-6.30,1.64,-17.33,4.14,-1.14,1.87
2,1,13,41,-477,3890,0.06,0.04,1.62,0.41,-4.77,38.90,-6.30,1.63,-17.33,4.10,-1.11,1.72
3,2,10,27,-462,3870,0.07,0.05,1.52,0.27,-4.62,38.70,-6.31,1.61,-17.34,4.08,-1.12,1.87
2,-1,11,34,-453,3865,0.07,0.04,1.44,0.34,-4.53,38.65,-6.31,1.59,-17.34,4.10,-1.04,1.64
0,-12,15,29,-453,3871,0.07,-0.04,1.38,0.29,-4.53,38.71,-6.31,1.58,-17.35,4.15,-0.79,1.15
1,-17,15,23,-454,3877,0.07,-0.14,1.34,0.23,-4.54,38.77,-6.32,1.56,-17.36,4.13,-0.64,1.08
-2,-22,25,10,-464,3887,0.05,-0.26,1.36,0.10,-4.64,38.87,-6.32,1.54,-17.36,4.20,-0.50,0.09
-3,-23,24,34,-468,3871,0.02,-0.37,1.37,0.34,-4.68,38.71,-6.33,1.52,-17.37,4.23,-0.43,0.21
-5,-25,35,17,-473,3883,-0.01,-0.49,1.44,0.17,-4.73,38.83,-6.33,1.50,-17.37,4.28,-0.35,-0.79
-4,-22,36,14,-472,3895,-0.03,-0.57,1.52,0.14,-4.72,38.95,-6.34,1.48,-17.38,4.27,-0.38,-0.77
-1,-12,26,6,-463,3903,-0.03,-0.59,1.53,0.06,-4.63,39.03,-6.34,1.46,-17.38,4.22,-0.56,0.25
0,-8,24,14,-465,3900,-0.03,-0.58,1.52,0.14,-4.65,39.00,-6.35,1.45,-17.39,4.20,-0.63,0.45
2,3,17,19,-481,3909,-0.02,-0.50,1.47,0.19,-4.81,39.09,-6.35,1.43,-17.40,4.16,-0.87,1.08
2,4,16,20,-477,3900,-0.00,-0.43,1.42,0.20,-4.77,39.00,-6.36,1.41,-17.40,4.16,-0.89,1.11
1,5,14,20,-472,3897,0.00,-0.36,1.36,0.20,-4.72,38.97,-6.37,1.39,-17.41,4.18,-0.92,1.22
1,3,15,6,-476,3902,0.01,-0.30,1.32,0.06,-4.76,39.02,-6.37,1.37,-17.41,4.18,-0.88,1.05
-7,1,27,21,-472,3895,-0.03,-0.27,1.35,0.21,-4.72,38.95,-6.38,1.35,-17.42,4.36,-0.84,-0.12
-7,0,31,27,-466,3882,-0.07,-0.24,1.41,0.27,-4.66,38.82,-6.38,1.34,-17.42,4.37,-0.82,-0.44
-6,-4,24,25,-482,3891,-0.10,-0.24,1.41,0.25,-4.82,38.91,-6.39,1.32,-17.43,4.37,-0.72,0.28
-5,-1,22,41,-468,3894,-0.12,-0.22,1.41,0.41,-4.68,38.94,-6.39,1.30,-17.43,4.36,-0.78,0.47
-1,0,22,52,-503,3884,-0.12,-0.20,1.40,0.52,-5.03,38.84,-6.40,1.28,-17.44,4.28,-0.79,0.46
-2,-1,22,50,-495,3887,-0.12,-0.19,1.39,0.50,-4.95,38.87,-6.41,1.27,-17.45,4.30,-0.77,0.46
1,2,17,8,-449,3887,-0.10,-0.15,1.36,0.08,-4.49,38.87,-6.41,1.25,-17.45,4.24,-0.82,0.91
1,3,15,6,-457,3887,-0.08,-0.12,1.31,0.06,-4.57,38.87,-6.42,1.23,-17.46,4.24,-0.84,1.04
2,3,12,23,-464,3896,-0.06,-0.09,1.26,0.23,-4.64,38.96,-6.42,1.21,-17.46,4.21,-0.84,1.26
2,3,13,26,-465,3896,-0.04,-0.06,1.21,0.26,-4.65,38.96,-6.43,1.20,-17.47,4.21,-0.83,1.08
3,2,16,38,-474,3889,-0.02,-0.04,1.19,0.38,-4.74,38.89,-6.43,1.18,-17.47,4.19,-0.81,0.74
3,4,16,30,-469,3882,-0.00,-0.02,1.16,0.30,-4.69,38.82,-6.44,1.16,-17.47,4.19,-0.84,0.71
5,4,10,18,-457,3890,0.03,0.01,1.11,0.18,-4.57,38.90,-6.44,1.14,-17.48,4.14,-0.84,1.23
9,7,9,-5,-438,3895,0.08,0.05,1.05,-0.05,-4.38,38.95,-6.44,1.13,-17.48,4.04,-0.90,1.25
2,-3,12,21,-475,3892,0.09,0.03,1.02,0.21,-4.75,38.92,-6.44,1.11,-17.49,4.19,-0.68,0.89
1,-6,10,0,-450,3888,0.08,-0.01,0.98,0.00,-4.50,38.88,-6.45,1.09,-17.49,4.21,-0.60,1.03
3,-6,19,24,-462,3908,0.09,-0.05,1.00,0.24,-4.62,39.08,-6.45,1.07,-17.50,4.17,-0.57,0.15
4,-4,20,5,-463,3879,0.11,-0.07,1.02,0.05,-4.63,38.79,-6.45,1.06,-17.50,4.15,-0.60,0.08
9,5,75,204,-153,3867,0.15,-0.03,1.38,2.04,-1.53,38.67,-6.44,1.05,-17.50,4.03,-0.78,-4.96
18,33,119,166,-155,3937,0.25,0.18,1.96,1.66,-1.55,39.37,-6.43,1.04,-17.51,3.81,-1.40,-8.52
0,21,151,-12,-552,3918,0.22,0.29,2.69,-0.12,-5.52,39.18,-6.44,1.03,-17.52,4.19,-1.18,-10.64
-3,9,144,-32,-600,3793,0.18,0.31,3.30,-0.32,-6.00,37.93,-6.46,1.03,-17.54,4.27,-0.95,-8.98
-7,-19,109,-21,-543,3872,0.12,0.16,3.63,-0.21,-5.43,38.72,-6.47,1.02,-17.55,4.38,-0.33,-4.90
-8,-27,127,113,-465,3868,0.06,-0.02,4.04,1.13,-4.65,38.68,-6.48,1.01,-17.57,4.42,-0.11,-6.09
1,-5,148,57,-458,3899,0.06,-0.05,4.54,0.57,-4.58,38.99,-6.48,0.99,-17.58,4.24,-0.54,-7.45
-1,-10,165,156,-473,3895,0.05,-0.10,5.10,1.56,-4.73,38.95,-6.48,0.97,-17.60,4.28,-0.41,-8.32
-2,-5,174,48,-424,3810,0.03,-0.12,5.65,0.48,-4.24,38.10,-6.48,0.96,-17.63,4.31,-0.50,-8.37
0,-1,185,81,-463,3921,0.03,-0.12,6.21,0.81,-4.63,39.21,-6.48,0.94,-17.65,4.27,-0.57,-8.61
0,-4,142,-14,-553,3840,0.03,-0.13,6.46,-0.14,-5.53,38.40,-6.49,0.94,-17.68,4.28,-0.50,-3.86
1,-6,125,-43,-587,3896,0.03,-0.15,6.57,-0.43,-5.87,38.96,-6.51,0.94,-17.70,4.27,-0.45,-1.95
-8,-14,99,48,-550,3870,-0.02,-0.22,6.52,0.48,-5.50,38.70,-6.52,0.93,-17.73,4.48,-0.27,0.62
-6,-14,89,16,-493,3889,-0.06,-0.29,6.41,0.16,-4.93,38.89,-6.53,0.91,-17.75,4.45,-0.24,1.46
5,-11,63,-11,-458,3910,-0.02,-0.32,6.15,-0.11,-4.58,39.10,-6.54,0.89,-17.78,4.22,-0.28,3.71
-8,-10,58,35,-411,3947,-0.07,-0.35,5.89,0.35,-4.11,39.47,-6.53,0.88,-17.80,4.49,-0.28,3.81
2,7,43,9,-490,3905,-0.05,-0.27,5.57,0.09,-4.90,39.05,-6.54,0.86,-17.82,4.29,-0.64,4.83
3,9,43,20,-508,3909,-0.03,-0.19,5.27,0.20,-5.08,39.09,-6.55,0.85,-17.85,4.27,-0.69,4.37
3,12,38,6,-448,3901,-0.00,-0.10,4.98,0.06,-4.48,39.01,-6.55,0.84,-17.87,4.26,-0.77,4.42
2,11,32,-5,-439,3895,0.01,-0.02,4.67,-0.05,-4.39,38.95,-6.55,0.82,-17.88,4.28,-0.76,4.56
2,10,13,-12,-455,3883,0.02,0.04,4.29,-0.12,-4.55,38.83,-6.55,0.80,-17.90,4.28,-0.74,5.89
3,10,10,-8,-446,3879,0.04,0.10,3.92,-0.08,-4.46,38.79,-6.55,0.79,-17.92,4.25,-0.75,5.62
3,9,8,3,-455,3882,0.05,0.14,3.57,0.03,-4.55,38.82,-6.55,0.77,-17.93,4.25,-0.73,5.29
2,7,8,7,-454,3880,0.06,0.17,3.27,0.07,-4.54,38.80,-6.55,0.76,-17.94,4.27,-0.69,4.81
2,3,10,23,-457,3899,0.06,0.17,3.00,0.23,-4.57,38.99,-6.56,0.74,-17.95,4.27,-0.60,4.19
2,1,11,27,-469,3898,0.07,0.16,2.77,0.27,-4.69,38.98,-6.56,0.72,-17.97,4.27,-0.54,3.73
0,0,11,20,-461,3882,0.06,0.14,2.56,0.20,-4.61,38.82,-6.56,0.71,-17.98,4.32,-0.51,3.40
1,-1,13,20,-463,3880,0.06,0.12,2.38,0.20,-4.63,38.80,-6.57,0.69,-17.99,4.30,-0.47,2.92
0,-4,15,32,-475,3888,0.06,0.09,2.23,0.32,-4.75,38.88,-6.57,0.68,-17.99,4.32,-0.39,2.49
-1,-5,16,37,-495,3875,0.04,0.05,2.11,0.37,-4.95,38.75,-6.58,0.66,-18.00,4.35,-0.35,2.20
-4,-5,21,26,-454,3893,0.02,0.01,2.03,0.26,-4.54,38.93,-6.58,0.64,-18.01,4.42,-0.33,1.56
-3,-5,22,19,-453,3891,-0.00,-0.02,1.96,0.19,-4.53,38.91,-6.58,0.63,-18.02,4.41,-0.31,1.35
0,-4,18,31,-451,3899,-0.00,-0.04,1.87,0.31,-4.51,38.99,-6.58,0.61,-18.03,4.35,-0.31,1.62
0,-4,15,24,-464,3896,-0.00,-0.06,1.78,0.24,-4.64,38.96,-6.59,0.59,-18.03,4.35,-0.29,1.78
-1,-8,16,23,-449,3913,-0.01,-0.10,1.70,0.23,-4.49,39.13,-6.59,0.57,-18.04,4.37,-0.19,1.55
-2,-9,16,17,-463,3895,-0.02,-0.15,1.62,0.17,-4.63,38.95,-6.59,0.56,-18.05,4.40,-0.14,1.44
-3,-9,17,20,-460,3880,-0.04,-0.19,1.57,0.20,-4.60,38.80,-6.60,0.54,-18.05,4.42,-0.12,1.25
-3,-9,17,34,-461,3877,-0.05,-0.22,1.51,0.34,-4.61,38.77,-6.60,0.52,-18.06,4.43,-0.10,1.17
-4,-9,17,27,-475,3891,-0.07,-0.26,1.46,0.27,-4.75,38.91,-6.61,0.50,-18.06,4.46,-0.08,1.09
-4,-9,17,40,-476,3897,-0.09,-0.29,1.42,0.40,-4.76,38.97,-6.61,0.48,-18.07,4.47,-0.06,1.03
-3,-10,12,32,-478,3892,-0.10,-0.32,1.35,0.32,-4.78,38.92,-6.62,0.47,-18.08,4.46,-0.02,1.43
-3,-11,11,37,-481,3880,-0.11,-0.35,1.28,0.37,-4.81,38.80,-6.63,0.45,-18.08,4.46,0.02,1.42
0,-8,12,16,-468,3892,-0.10,-0.37,1.23,0.16,-4.68,38.92,-6.63,0.43,-18.09,4.40,-0.02,1.24
0,-7,11,15,-469,3884,-0.09,-0.37,1.17,0.15,-4.69,38.84,-6.64,0.41,-18.09,4.41,-0.03,1.25
-1,-6,4,21,-470,3876,-0.08,-0.37,1.08,0.21,-4.70,38.76,-6.65,0.39,-18.09,4.43,-0.04,1.82
-1,-6,3,24,-467,3895,-0.08,-0.37,0.99,0.24,-4.67,38.95,-6.65,0.38,-18.10,4.43,-0.02,1.78
0,-12,-1,20,-468,3879,-0.07,-0.41,0.89,0.20,-4.68,38.79,-6.66,0.36,-18.10,4.41,0.12,2.02
-2,-10,2,43,-451,3864,-0.08,-0.43,0.81,0.43,-4.51,38.64,-6.66,0.34,-18.11,4.46,0.10,1.60
1,-11,6,28,-456,3899,-0.06,-0.45,0.77,0.28,-4.56,38.99,-6.66,0.32,-18.11,4.39,0.14,1.12
0,-12,7,17,-460,3886,-0.06,-0.48,0.73,0.17,-4.60,38.86,-6.66,0.30,-18.11,4.41,0.18,0.97
-3,-16,13,23,-441,3862,-0.07,-0.53,0.74,0.23,-4.41,38.62,-6.66,0.28,-18.12,4.47,0.29,0.37
-1,-16,18,38,-434,3875,-0.07,-0.57,0.77,0.38,-4.34,38.75,-6.65,0.26,-18.12,4.43,0.31,-0.08
-3,-16,20,17,-485,3876,-0.08,-0.61,0.82,0.17,-4.85,38.76,-6.67,0.24,-18.12,4.48,0.33,-0.22
-4,-15,18,21,-484,3884,-0.10,-0.64,0.85,0.21,-4.84,38.84,-6.68,0.23,-18.13,4.51,0.33,0.03
-3,-10,9,29,-471,3896,-0.11,-0.64,0.82,0.29,-4.71,38.96,-6.68,0.21,-18.13,4.50,0.24,0.90
-2,-6,5,28,-474,3893,-0.11,-0.61,0.77,0.28,-4.74,38.93,-6.69,0.19,-18.13,4.49,0.17,1.23
3,5,10,41,-468,3876,-0.08,-0.52,0.75,0.41,-4.68,38.76,-6.70,0.17,-18.14,4.38,-0.07,0.69
4,8,11,23,-457,3889,-0.05,-0.42,0.74,0.23,-4.57,38.89,-6.70,0.15,-18.14,4.35,-0.15,0.58
-2,2,17,13,-458,3877,-0.05,-0.37,0.77,0.13,-4.58,38.77,-6.70,0.13,-18.14,4.48,-0.03,0.02
-2,-1,16,40,-473,3889,-0.06,-0.34,0.79,0.40,-4.73,38.89,-6.70,0.11,-18.15,4.48,0.04,0.15
-13,-4,28,15,-481,3885,-0.13,-0.33,0.88,0.15,-4.81,38.85,-6.72,0.10,-18.15,4.73,0.11,-0.93
-8,-8,30,-25,-524,3745,-0.17,-0.34,0.98,-0.25,-5.24,37.45,-6.74,0.10,-18.15,4.66,0.19,-0.98
1,-16,85,-19,-527,3847,-0.15,-0.41,1.40,-0.19,-5.27,38.47,-6.76,0.10,-18.16,4.48,0.37,-5.92
-7,-18,92,15,-491,3908,-0.17,-0.48,1.82,0.15,-4.91,39.08,-6.77,0.09,-18.17,4.66,0.44,-5.98
-8,-5,111,24,-452,3903,-0.21,-0.46,2.32,0.24,-4.52,39.03,-6.76,0.07,-18.18,4.68,0.18,-7.14
-5,-4,100,4,-463,3886,-0.22,-0.44,2.69,0.04,-4.63,38.86,-6.77,0.05,-18.19,4.63,0.16,-5.43
3,-9,60,26,-432,3858,-0.18,-0.45,2.79,0.26,-4.32,38.58,-6.76,0.04,-18.20,4.45,0.28,-1.21
7,-7,57,36,-450,3910,-0.12,-0.45,2.86,0.36,-4.50,39.10,-6.75,0.02,-18.21,4.35,0.25,-0.80
7,0,57,10,-435,3886,-0.06,-0.40,2.92,0.10,-4.35,38.86,-6.74,0.01,-18.22,4.32,0.10,-0.70
5,5,61,7,-409,3914,-0.02,-0.33,3.00,0.07,-4.09,39.14,-6.72,0.01,-18.23,4.34,-0.02,-0.98
-3,8,49,30,-412,3914,-0.04,-0.25,3.00,0.30,-4.12,39.14,-6.70,0.00,-18.25,4.50,-0.10,0.24
-4,4,43,1,-424,3892,-0.06,-0.20,2.96,0.01,-4.24,38.92,-6.69,0.00,-18.26,4.51,-0.03,0.79
3,2,29,16,-473,3874,-0.04,-0.17,2.84,0.16,-4.73,38.74,-6.70,-0.01,-18.27,4.37,0.01,2.02
6,3,22,61,-480,3878,0.00,-0.13,2.69,0.61,-4.80,38.78,-6.71,-0.02,-18.28,4.30,-0.01,2.50
3,-1,10,88,-497,3904,0.02,-0.13,2.48,0.88,-4.97,39.04,-6.71,-0.04,-18.29,4.36,0.08,3.40
5,5,5,71,-490,3861,0.05,-0.08,2.27,0.71,-4.90,38.61,-6.72,-0.06,-18.30,4.32,-0.04,3.57
0,15,-17,12,-481,3890,0.05,0.02,1.94,0.12,-4.81,38.90,-6.74,-0.06,-18.31,4.44,-0.27,5.29
1,15,-25,-45,-456,3918,0.05,0.11,1.59,-0.45,-4.56,39.18,-6.74,-0.04,-18.31,4.41,-0.31,5.57
2,17,-78,-123,-346,3839,0.05,0.20,0.96,-1.23,-3.46,38.39,-6.72,-0.03,-18.32,4.38,-0.38,9.97
2,16,-83,18,-466,3971,0.06,0.28,0.35,0.18,-4.66,39.71,-6.72,-0.04,-18.32,4.38,-0.37,9.54
-1,-1,-134,72,-379,3937,0.05,0.24,-0.50,0.72,-3.79,39.37,-6.71,-0.06,-18.32,4.43,-0.01,13.40
3,-3,-167,103,-338,3904,0.06,0.20,-1.47,1.03,-3.38,39.04,-6.69,-0.07,-18.31,4.34,0.05,15.24
-3,-20,-356,227,-516,3972,0.04,0.06,-3.49,2.27,-5.16,39.72,-6.70,-0.09,-18.30,4.47,0.45,20.00
34,-11,-374,270,-646,3887,0.24,-0.01,-5.43,2.70,-6.46,38.87,-6.71,-0.10,-18.27,3.67,0.30,20.00
36,12,-313,-74,-414,4022,0.44,0.06,-6.79,-0.74,-4.14,40.22,-6.69,-0.09,-18.25,3.57,-0.20,20.00
39,26,-300,40,-632,3866,0.63,0.21,-7.94,0.40,-6.32,38.66,-6.71,-0.10,-18.22,3.46,-0.52,18.68
-13,-41,-352,-67,-481,3823,0.49,-0.06,-9.30,-0.67,-4.81,38.23,-6.71,-0.09,-18.18,4.56,0.91,20.00
19,-15,-374,11,-411,3915,0.56,-0.14,-10.65,0.11,-4.11,39.15,-6.69,-0.09,-18.14,3.88,0.41,20.00
11,-27,-422,158,-364,3943,0.57,-0.29,-12.16,1.58,-3.64,39.43,-6.68,-0.12,-18.09,4.03,0.71,20.00
17,-8,-411,141,-486,3882,0.61,-0.31,-13.45,1.41,-4.86,38.82,-6.68,-0.14,-18.03,3.90,0.34,20.00
25,-4,-359,193,-542,3789,0.71,-0.31,-14.29,1.93,-5.42,37.89,-6.69,-0.16,-17.98,3.71,0.27,14.79
-3,7,-369,-8,-486,3832,0.62,-0.23,-15.11,-0.08,-4.86,38.32,-6.70,-0.16,-17.92,4.32,0.03,14.52
-23,-44,-446,-96,-428,4044,0.41,-0.48,-16.32,-0.96,-4.28,40.44,-6.69,-0.16,-17.85,4.77,1.13,20.00
7,-52,-435,-73,-258,3881,0.42,-0.75,-17.35,-0.73,-2.58,38.81,-6.67,-0.16,-17.78,4.15,1.37,17.76
20,-17,-406,134,-272,3928,0.50,-0.78,-18.09,1.34,-2.72,39.28,-6.66,-0.18,-17.71,3.85,0.68,13.65
-40,-63,-453,249,-616,3759,0.20,-1.08,-19.04,2.49,-6.16,37.59,-6.67,-0.21,-17.64,5.16,1.71,16.94
13,-45,-523,-32,-390,3929,0.26,-1.25,-20.33,-0.32,-3.90,39.29,-6.65,-0.21,-17.56,4.05,1.40,20.00
24,-31,-496,48,-482,3927,0.38,-1.31,-21.32,0.48,-4.82,39.27,-6.66,-0.24,-17.47,3.80,1.15,17.76
-8,-52,-420,-101,-380,3941,0.29,-1.50,-21.75,-1.01,-3.80,39.41,-6.65,-0.24,-17.39,4.47,1.63,9.36
18,-17,-402,-158,-448,3834,0.38,-1.45,-22.03,-1.58,-4.48,38.34,-6.65,-0.24,-17.30,3.92,0.90,7.10
20,-16,-471,-28,-486,3709,0.46,-1.41,-22.70,-0.28,-4.86,37.09,-6.66,-0.25,-17.21,3.86,0.87,13.07
-5,-15,-477,-19,-411,4068,0.38,-1.36,-23.34,-0.19,-4.11,40.68,-6.64,-0.25,-17.12,4.38,0.84,12.68
23,7,-426,88,-619,3914,0.49,-1.18,-23.60,0.88,-6.19,39.14,-6.65,-0.28,-17.03,3.79,0.36,7.08
5,24,-361,105,-608,3796,0.47,-0.91,-23.44,1.05,-6.08,37.96,-6.67,-0.30,-16.93,4.17,-0.04,0.71
4,31,-200,-67,-385,3878,0.44,-0.63,-22.32,-0.67,-3.85,38.78,-6.65,-0.30,-16.85,4.19,-0.26,-13.91
1,16,-205,-26,-435,3916,0.41,-0.47,-21.34,-0.26,-4.35,39.16,-6.64,-0.29,-16.76,4.25,-0.00,-11.87
43,20,-289,131,-421,3956,0.63,-0.30,-20.97,1.31,-4.21,39.56,-6.64,-0.32,-16.68,3.33,-0.11,-2.76
-9,-7,-306,30,-450,3815,0.51,-0.32,-20.74,0.30,-4.50,38.15,-6.64,-0.35,-16.60,4.43,0.46,-0.67
-22,-32,-412,55,-496,3820,0.33,-0.48,-21.18,0.55,-4.96,38.20,-6.66,-0.37,-16.51,4.75,1.02,9.42
8,-41,-435,8,-345,3955,0.34,-0.68,-21.71,0.08,-3.45,39.55,-6.64,-0.38,-16.43,4.12,1.27,10.92
8,-23,-490,8,-425,3919,0.36,-0.75,-22.53,0.08,-4.25,39.19,-6.62,-0.38,-16.34,4.11,0.93,15.23
5,-19,-478,50,-451,3893,0.35,-0.79,-23.19,0.50,-4.51,38.93,-6.62,-0.42,-16.24,4.17,0.88,12.98
19,-5,-461,-57,-547,3917,0.43,-0.75,-23.69,-0.57,-5.47,39.17,-6.63,-0.42,-16.15,3.87,0.58,10.48
25,-3,-446,-87,-505,3906,0.54,-0.69,-24.04,-0.87,-5.05,39.06,-6.63,-0.41,-16.06,3.72,0.52,8.41
-7,-12,-470,218,-451,3906,0.44,-0.69,-24.50,2.18,-4.51,39.06,-6.63,-0.45,-15.96,4.40,0.73,10.12
-9,2,-506,27,-551,3886,0.34,-0.61,-25.14,0.27,-5.51,38.86,-6.65,-0.46,-15.86,4.48,0.43,12.79
11,-14,-522,-3,-620,3936,0.38,-0.64,-25.81,-0.03,-6.20,39.36,-6.66,-0.47,-15.76,4.07,0.77,13.37
16,-15,-506,49,-494,3803,0.44,-0.66,-26.31,0.49,-4.94,38.03,-6.68,-0.49,-15.65,3.96,0.81,10.95
9,-29,-485,88,-455,3948,0.45,-0.77,-26.64,0.88,-4.55,39.48,-6.67,-0.52,-15.55,4.10,1.15,8.30
24,-36,-479,79,-445,3900,0.55,-0.92,-26.90,0.79,-4.45,39.00,-6.66,-0.56,-15.44,3.76,1.35,7.29
25,-27,-488,115,-416,3823,0.65,-0.99,-27.19,1.15,-4.16,38.23,-6.65,-0.59,-15.33,3.71,1.21,7.75
11,-24,-483,40,-526,3894,0.65,-1.04,-27.41,0.40,-5.26,38.94,-6.67,-0.61,-15.23,4.00,1.17,6.89
4,-24,-508,7,-469,3917,0.61,-1.08,-27.77,0.07,-4.69,39.17,-6.67,-0.61,-15.12,4.15,1.18,8.87
48,-10,-493,31,-378,3986,0.84,-1.03,-28.00,0.31,-3.78,39.86,-6.65,-0.62,-15.00,3.18,0.90,6.98
47,-60,-495,31,-479,3896,1.04,-1.30,-28.22,0.31,-4.79,38.96,-6.66,-0.63,-14.89,3.15,1.99,6.84
33,-47,-544,-6,-661,3576,1.14,-1.45,-28.72,-0.06,-6.61,35.76,-6.67,-0.65,-14.78,3.42,1.78,11.05
12,-3,-562,103,-370,4137,1.10,-1.33,-29.27,1.03,-3.70,41.37,-6.65,-0.68,-14.66,3.84,0.87,12.01
24,-20,-566,98,-450,3921,1.14,-1.32,-29.80,0.98,-4.50,39.21,-6.64,-0.71,-14.55,3.58,1.24,11.59
29,1,-562,238,-340,3838,1.20,-1.18,-30.25,2.38,-3.40,38.38,-6.62,-0.75,-14.43,3.45,0.79,10.48
14,-5,-528,344,-310,4112,1.16,-1.09,-30.44,3.44,-3.10,41.12,-6.61,-0.78,-14.31,3.76,0.92,6.72
33,-69,-415,212,-305,3805,1.25,-1.40,-29.93,2.12,-3.05,38.05,-6.59,-0.82,-14.19,3.34,2.32,-3.97
33,-63,-435,236,-407,3705,1.33,-1.65,-29.59,2.36,-4.07,37.05,-6.58,-0.85,-14.07,3.31,2.29,-1.42
-25,80,-746,-131,-371,3612,1.04,-0.99,-31.18,-1.31,-3.71,36.12,-6.57,-0.85,-13.95,4.56,-0.79,20.00
-48,57,-824,-113,-423,3891,0.64,-0.55,-33.09,-1.13,-4.23,38.91,-6.56,-0.85,-13.82,5.13,-0.45,20.00
31,-101,-973,111,-291,4126,0.77,-1.11,-35.72,1.11,-2.91,41.26,-6.54,-0.88,-13.67,3.48,2.94,20.00
35,-116,-1014,121,-394,3920,0.91,-1.70,-38.33,1.21,-3.94,39.20,-6.52,-0.92,-13.52,3.35,3.43,20.00
27,12,-1076,-100,-613,3785,0.98,-1.46,-41.06,-1.00,-6.13,37.85,-6.53,-0.93,-13.36,3.49,0.77,20.00
28,36,-1083,-158,-583,3928,1.05,-1.10,-43.56,-1.58,-5.83,39.28,-6.53,-0.94,-13.19,3.45,0.19,20.00
32,-29,-1042,37,-562,3823,1.14,-1.16,-45.56,0.37,-5.62,38.23,-6.54,-0.96,-13.01,3.36,1.54,20.00
39,0,-1039,38,-547,3889,1.27,-1.05,-47.34,0.38,-5.47,38.89,-6.55,-0.98,-12.82,3.19,0.93,20.00
2,59,-943,55,-313,3815,1.15,-0.58,-48.36,0.55,-3.13,38.15,-6.53,-1.00,-12.63,3.95,-0.38,20.00
12,63,-921,239,-606,3874,1.11,-0.14,-49.14,2.39,-6.06,38.74,-6.53,-1.04,-12.43,3.76,-0.56,17.51
17,50,-881,48,-468,3878,1.10,0.18,-49.60,0.48,-4.68,38.78,-6.54,-1.05,-12.24,3.67,-0.37,12.72
20,51,-843,-23,-313,3908,1.11,0.47,-49.78,-0.23,-3.13,39.08,-6.51,-1.06,-12.04,3.59,-0.47,8.57
15,18,-812,40,-405,4046,1.09,0.54,-49.76,0.40,-4.05,40.46,-6.49,-1.07,-11.84,3.68,0.19,5.45
18,-30,-764,63,-445,3973,1.09,0.30,-49.44,0.63,-4.45,39.73,-6.47,-1.07,-11.64,3.61,1.24,1.05
10,12,-732,89,-567,3796,1.05,0.34,-48.96,0.89,-5.67,37.96,-6.48,-1.10,-11.45,3.79,0.39,-1.46
-8,-33,-730,0,-604,4071,0.89,0.11,-48.52,0.00,-6.04,40.71,-6.49,-1.11,-11.25,4.20,1.37,-0.98
21,-39,-730,0,-614,3944,0.93,-0.14,-48.12,0.00,-6.14,39.44,-6.50,-1.12,-11.06,3.61,1.57,-0.36
-9,-30,-715,20,-383,3890,0.78,-0.31,-47.67,0.20,-3.83,38.90,-6.48,-1.13,-10.87,4.25,1.44,-1.19
27,8,-654,109,-330,4018,0.87,-0.23,-46.89,1.09,-3.30,40.18,-6.45,-1.16,-10.69,3.47,0.67,-6.19
4,19,-644,-10,-535,3933,0.81,-0.09,-46.13,-0.10,-5.35,39.33,-6.46,-1.17,-10.50,3.96,0.41,-6.02
17,30,-646,-1,-432,3864,0.83,0.10,-45.46,-0.01,-4.32,38.64,-6.45,-1.17,-10.32,3.69,0.14,-4.78
21,14,-647,-63,-472,4039,0.88,0.18,-44.86,-0.63,-4.72,40.39,-6.45,-1.17,-10.15,3.59,0.44,-3.75
13,-9,-650,-62,-488,3933,0.87,0.10,-44.34,-0.62,-4.88,39.33,-6.44,-1.17,-9.97,3.75,0.93,-2.64
22,-4,-668,31,-497,3802,0.91,0.07,-43.98,0.31,-4.97,38.02,-6.45,-1.18,-9.79,3.56,0.84,-0.26
-3,-18,-684,9,-458,3957,0.80,-0.05,-43.75,0.09,-4.58,39.57,-6.45,-1.18,-9.62,4.10,1.16,1.72
11,-37,-686,69,-379,3845,0.79,-0.27,-43.56,0.69,-3.79,38.45,-6.42,-1.20,-9.45,3.80,1.62,2.21
47,-5,-729,-9,-486,3867,1.00,-0.27,-43.65,-0.09,-4.86,38.67,-6.42,-1.21,-9.27,3.01,0.97,6.44
-13,-20,-733,26,-474,3939,0.82,-0.37,-43.76,0.26,-4.74,39.39,-6.43,-1.21,-9.10,4.28,1.31,6.67
22,-5,-759,18,-435,3923,0.87,-0.36,-44.01,0.18,-4.35,39.23,-6.42,-1.21,-8.93,3.55,1.00,8.92
22,-8,-761,42,-418,3907,0.92,-0.37,-44.25,0.42,-4.18,39.07,-6.40,-1.22,-8.75,3.53,1.07,8.74
5,14,-746,158,-496,3951,0.86,-0.25,-44.38,1.58,-4.96,39.51,-6.40,-1.25,-8.57,3.89,0.61,7.02
17,8,-731,179,-403,3947,0.88,-0.18,-44.40,1.79,-4.03,39.47,-6.39,-1.29,-8.40,3.63,0.74,5.45
43,32,-744,-50,-474,3968,1.05,0.04,-44.50,-0.50,-4.74,39.68,-6.39,-1.29,-8.22,3.05,0.19,6.62
33,2,-716,-42,-314,3780,1.15,0.04,-44.42,-0.42,-3.14,37.80,-6.37,-1.30,-8.04,3.22,0.80,3.89
12,-36,-774,-198,-392,4033,1.11,-0.18,-44.70,-1.98,-3.92,40.33,-6.35,-1.30,-7.87,3.65,1.64,9.35
6,-52,-770,-118,-555,3800,1.03,-0.48,-44.92,-1.18,-5.55,38.00,-6.35,-1.31,-7.69,3.79,2.05,8.58
-9,-30,-823,63,-779,3905,0.87,-0.61,-45.45,0.63,-7.79,39.05,-6.37,-1.33,-7.51,4.15,1.65,13.14
17,-44,-828,15,-319,4085,0.89,-0.82,-45.96,0.15,-3.19,40.85,-6.34,-1.34,-7.32,3.60,2.01,12.86
12,-23,-897,8,-386,3845,0.87,-0.88,-46.83,0.08,-3.86,38.45,-6.33,-1.35,-7.14,3.69,1.60,18.50
-3,-30,-886,82,-340,4005,0.77,-0.97,-47.55,0.82,-3.40,40.05,-6.30,-1.37,-6.95,4.01,1.78,16.26
21,31,-953,-144,-565,4086,0.82,-0.69,-48.61,-1.44,-5.65,40.86,-6.30,-1.38,-6.76,3.51,0.47,20.00
40,7,-1019,-131,-451,3840,0.98,-0.58,-49.97,-1.31,-4.51,38.40,-6.29,-1.39,-6.56,3.07,0.93,20.00
42,1,-1141,-33,-468,3728,1.14,-0.51,-51.93,-0.33,-4.68,37.28,-6.29,-1.40,-6.35,2.99,1.04,20.00
34,-3,-1208,-61,-497,3863,1.23,-0.48,-54.11,-0.61,-4.97,38.63,-6.29,-1.40,-6.14,3.12,1.12,20.00
-11,-21,-1311,-103,-581,3984,1.04,-0.56,-56.69,-1.03,-5.81,39.84,-6.29,-1.42,-5.91,4.09,1.51,20.00
63,-51,-1319,23,-496,3979,1.32,-0.81,-59.07,0.23,-4.96,39.79,-6.29,-1.43,-5.68,2.51,2.20,20.00
-5,-37,-1273,-106,-391,3761,1.16,-0.96,-60.93,-1.06,-3.91,37.61,-6.28,-1.44,-5.44,3.93,1.97,20.00
-28,-36,-1251,-78,-671,3861,0.87,-1.08,-62.47,-0.78,-6.71,38.61,-6.28,-1.46,-5.19,4.48,1.99,20.00
15,2,-1159,-108,-606,3751,0.88,-0.96,-63.29,-1.08,-6.06,37.51,-6.28,-1.48,-4.94,3.60,1.20,19.46
-13,-30,-1154,-115,-539,4037,0.71,-1.05,-64.00,-1.15,-5.39,40.37,-6.28,-1.50,-4.68,4.22,1.88,17.84
14,-13,-1092,6,-607,4046,0.72,-1.02,-64.26,0.06,-6.07,40.46,-6.29,-1.52,-4.43,3.67,1.55,11.12
9,-30,-1016,-75,-443,3843,0.71,-1.10,-64.03,-0.75,-4.43,38.43,-6.28,-1.53,-4.17,3.77,1.92,3.74
-20,-31,-1036,-184,-262,3772,0.51,-1.18,-63.95,-1.84,-2.62,37.72,-6.26,-1.55,-3.92,4.40,1.98,5.90
33,-9,-1018,-88,-370,3878,0.66,-1.12,-63.76,-0.88,-3.70,38.78,-6.25,-1.57,-3.67,3.27,1.52,4.35
30,-30,-1026,-37,-470,4029,0.78,-1.19,-63.65,-0.37,-4.70,40.29,-6.24,-1.58,-3.41,3.30,1.98,5.34
37,-34,-1016,-44,-182,4105,0.93,-1.28,-63.48,-0.44,-1.82,41.05,-6.22,-1.60,-3.16,3.10,2.10,4.57
13,-19,-836,-89,-378,3706,0.91,-1.27,-62.23,-0.89,-3.78,37.06,-6.20,-1.62,-2.91,3.58,1.80,-11.79
8,5,-818,-144,-491,3781,0.87,-1.11,-61.00,-1.44,-4.91,37.81,-6.20,-1.63,-2.67,3.69,1.28,-11.71
12,-31,-804,-127,-170,4147,0.86,-1.19,-59.80,-1.27,-1.70,41.47,-6.17,-1.65,-2.44,3.60,2.04,-11.28
12,-51,-763,57,-38,3986,0.85,-1.38,-58.48,0.57,-0.38,39.86,-6.15,-1.68,-2.20,3.58,2.52,-13.39
7,-21,-679,-50,-361,3675,0.80,-1.37,-56.77,-0.50,-3.61,36.75,-6.13,-1.69,-1.98,3.69,1.92,-19.28
18,-14,-667,-21,-336,3944,0.83,-1.32,-55.16,-0.21,-3.36,39.44,-6.11,-1.70,-1.76,3.44,1.77,-18.00
11,-34,-701,-49,-570,3835,0.82,-1.39,-53.92,-0.49,-5.70,38.35,-6.12,-1.72,-1.54,3.59,2.21,-12.62
17,-36,-715,42,-537,3959,0.84,-1.47,-52.89,0.42,-5.37,39.59,-6.12,-1.74,-1.33,3.47,2.28,-9.60
30,-22,-699,-99,-356,4065,0.94,-1.46,-51.87,-0.99,-3.56,40.65,-6.10,-1.75,-1.13,3.16,2.00,-9.64
-24,-44,-699,45,-393,3960,0.70,-1.58,-50.94,0.45,-3.93,39.60,-6.09,-1.76,-0.93,4.32,2.49,-8.21
18,-2,-649,137,-271,3796,0.74,-1.44,-49.81,1.37,-2.71,37.96,-6.06,-1.79,-0.73,3.43,1.61,-11.53
13,31,-640,-45,-393,3835,0.74,-1.10,-48.73,-0.45,-3.93,38.35,-6.05,-1.79,-0.54,3.53,0.85,-10.78
30,16,-728,71,-418,3887,0.85,-0.90,-48.30,0.71,-4.18,38.87,-6.04,-1.80,-0.34,3.15,1.11,-1.16
25,-1,-775,-36,-531,3901,0.92,-0.81,-48.20,-0.36,-5.31,39.01,-6.04,-1.81,-0.15,3.23,1.44,3.77
31,-1,-857,-155,-378,3867,1.02,-0.74,-48.60,-1.55,-3.78,38.67,-6.03,-1.81,0.04,3.07,1.42,11.47
15,-20,-874,-140,-265,4045,1.01,-0.79,-49.08,-1.40,-2.65,40.45,-6.01,-1.82,0.24,3.39,1.82,12.46
11,-35,-941,-5,-189,3932,0.97,-0.92,-49.91,-0.05,-1.89,39.32,-5.99,-1.84,0.44,3.46,2.17,17.97
2,-13,-974,-81,-619,3879,0.89,-0.91,-50.86,-0.81,-6.19,38.79,-5.99,-1.85,0.64,3.67,1.73,19.83
9,-20,-936,-52,-534,3801,0.85,-0.94,-51.48,-0.52,-5.34,38.01,-5.99,-1.86,0.84,3.54,1.89,14.99
29,-17,-903,-140,-505,4003,0.95,-0.95,-51.84,-1.40,-5.05,40.03,-5.99,-1.87,1.05,3.10,1.84,11.07
43,-116,-807,-116,-675,3917,1.11,-1.56,-51.58,-1.16,-6.75,39.17,-5.99,-1.88,1.25,2.77,4.03,1.71
24,-111,-809,-128,-546,3715,1.15,-2.08,-51.36,-1.28,-5.46,37.15,-5.99,-1.90,1.45,3.15,4.08,2.26
22,-33,-803,-15,-597,3944,1.17,-2.08,-51.12,-0.15,-5.97,39.44,-5.99,-1.91,1.66,3.19,2.50,2.01
-11,-26,-821,-6,-587,3978,0.98,-2.03,-51.02,-0.06,-5.87,39.78,-5.99,-1.93,1.86,3.91,2.36,4.00
43,-75,-802,32,-340,3942,1.15,-2.28,-50.81,0.32,-3.40,39.42,-5.97,-1.95,2.06,2.75,3.43,2.39
56,-82,-778,-79,-327,4065,1.37,-2.55,-50.47,-0.79,-3.27,40.65,-5.95,-1.96,2.26,2.41,3.66,0.46
45,-81,-707,-131,-465,3636,1.51,-2.79,-49.74,-1.31,-4.65,36.36,-5.94,-1.98,2.46,2.60,3.71,-5.62
11,-21,-730,-64,-715,3796,1.43,-2.64,-49.22,-0.64,-7.15,37.96,-5.95,-2.00,2.65,3.31,2.47,-2.48
-12,37,-721,75,-412,3915,1.21,-2.15,-48.69,0.75,-4.12,39.15,-5.94,-2.01,2.84,3.83,1.16,-2.58
28,41,-711,61,-568,3987,1.26,-1.69,-48.16,0.61,-5.68,39.87,-5.94,-2.03,3.03,3.01,0.96,-2.78
11,-33,-638,102,-282,3887,1.20,-1.72,-47.24,1.02,-2.82,38.87,-5.91,-2.05,3.22,3.35,2.49,-8.77
15,-45,-603,114,-270,3954,1.17,-1.82,-46.19,1.14,-2.70,39.54,-5.88,-2.07,3.41,3.26,2.78,-10.70
16,-17,-518,126,-443,3712,1.15,-1.74,-44.73,1.26,-4.43,37.12,-5.89,-2.09,3.58,3.25,2.20,-17.08
-6,11,-523,162,-462,3787,1.00,-1.50,-43.45,1.62,-4.62,37.87,-5.90,-2.12,3.75,3.74,1.59,-14.58
7,2,-530,-41,-482,4078,0.94,-1.34,-42.34,-0.41,-4.82,40.78,-5.89,-2.13,3.92,3.49,1.73,-12.14
22,-24,-543,-2,-373,4012,0.98,-1.35,-41.42,-0.02,-3.73,40.12,-5.88,-2.13,4.09,3.16,2.26,-9.39
27,-55,-574,-92,-476,3775,1.05,-1.55,-40.78,-0.92,-4.76,37.75,-5.87,-2.14,4.25,3.04,2.95,-5.24
-6,-4,-606,52,-515,3635,0.91,-1.42,-40.39,0.52,-5.15,36.35,-5.88,-2.15,4.41,3.75,1.89,-1.40
-5,-46,-649,-216,-980,4128,0.79,-1.56,-40.31,-2.16,-9.80,41.28,-5.89,-2.16,4.57,3.77,2.79,3.09
43,-118,-593,-90,-864,4192,0.97,-2.12,-39.90,-0.90,-8.64,41.92,-5.89,-2.18,4.72,2.75,4.42,-1.96
13,-86,-497,-166,-783,3830,0.95,-2.44,-38.94,-1.66,-7.83,38.30,-5.90,-2.19,4.88,3.37,3.86,-10.24
20,-111,-497,-130,-518,3887,0.98,-2.87,-38.08,-1.30,-5.18,38.87,-5.89,-2.20,5.03,3.22,4.49,-8.90
46,-30,-532,-179,-707,3899,1.16,-2.77,-37.52,-1.79,-7.07,38.99,-5.90,-2.22,5.18,2.64,2.83,-4.47
21,-38,-519,-8,-419,3793,1.17,-2.72,-36.93,-0.08,-4.19,37.93,-5.89,-2.22,5.32,3.14,2.98,-4.88
-10,-16,-598,-225,-547,3975,1.00,-2.55,-36.89,-2.25,-5.47,39.75,-5.89,-2.23,5.47,3.82,2.49,3.21
20,11,-647,-281,-459,3938,1.02,-2.22,-37.14,-2.81,-4.59,39.38,-5.88,-2.24,5.61,3.19,1.86,7.79
-25,14,-806,-73,-395,3809,0.76,-1.92,-38.35,-0.73,-3.95,38.09,-5.87,-2.24,5.77,4.17,1.72,20.00
-31,-10,-880,-125,-475,3594,0.50,-1.79,-39.88,-1.25,-4.75,35.94,-5.87,-2.25,5.92,4.37,2.17,20.00
71,35,-943,-300,-620,3754,0.88,-1.39,-41.64,-3.00,-6.20,37.54,-5.87,-2.26,6.09,2.19,1.16,20.00
-17,45,-1003,-145,-445,3958,0.69,-0.98,-43.60,-1.45,-4.45,39.58,-5.86,-2.26,6.26,4.02,0.84,20.00
24,10,-995,-34,-431,3961,0.77,-0.82,-45.31,-0.34,-4.31,39.61,-5.85,-2.26,6.44,3.16,1.51,20.00
-23,-6,-1018,-1,-575,3631,0.55,-0.78,-46.99,-0.01,-5.75,36.31,-5.86,-2.27,6.63,4.18,1.83,20.00
-28,17,-992,-5,-557,3716,0.32,-0.59,-48.34,-0.05,-5.57,37.16,-5.86,-2.28,6.82,4.35,1.32,20.00
8,22,-988,43,-508,3956,0.34,-0.40,-49.53,0.43,-5.08,39.56,-5.86,-2.29,7.02,3.61,1.17,20.00
-6,82,-996,42,-288,3927,0.27,0.14,-50.65,0.42,-2.88,39.27,-5.84,-2.30,7.22,3.90,-0.19,20.00
14,27,-980,-118,-453,4393,0.33,0.29,-51.57,-1.18,-4.53,43.93,-5.83,-2.30,7.42,3.47,0.89,19.14
96,-286,-884,-116,-517,4006,0.88,-1.48,-51.80,-1.16,-5.17,40.06,-5.83,-2.31,7.63,1.65,7.74,9.01
74,-210,-867,-49,-408,3588,1.24,-2.62,-51.91,-0.49,-4.08,35.88,-5.82,-2.32,7.84,2.00,6.52,7.10
-27,68,-855,-19,-516,3700,0.96,-1.94,-51.94,-0.19,-5.16,37.00,-5.82,-2.34,8.04,4.13,0.69,5.84
-20,91,-844,49,-266,4044,0.74,-1.19,-51.89,0.49,-2.66,40.44,-5.79,-2.35,8.25,4.03,0.03,4.78
28,-108,-864,-31,-439,4068,0.83,-1.73,-51.97,-0.31,-4.39,40.68,-5.78,-2.36,8.45,3.02,4.23,6.68
72,-136,-871,23,-420,3905,1.19,-2.39,-52.09,0.23,-4.20,39.05,-5.77,-2.37,8.66,2.02,4.98,7.21
31,-52,-886,-22,-530,3761,1.26,-2.47,-52.28,-0.22,-5.30,37.61,-5.77,-2.39,8.87,2.83,3.31,8.42
-19,-12,-900,165,-318,3907,1.02,-2.29,-52.55,1.65,-3.18,39.07,-5.74,-2.42,9.08,3.90,2.47,9.43
30,-8,-881,2,-352,4192,1.10,-2.11,-52.66,0.02,-3.52,41.92,-5.72,-2.43,9.29,2.86,2.35,7.31
52,-26,-868,-32,-412,3833,1.31,-2.06,-52.69,-0.32,-4.12,38.33,-5.71,-2.45,9.49,2.35,2.70,5.94
10,-18,-858,84,-427,3925,1.24,-1.96,-52.66,0.84,-4.27,39.25,-5.70,-2.46,9.70,3.22,2.52,4.97
-10,21,-829,-51,-500,3709,1.05,-1.64,-52.45,-0.51,-5.00,37.09,-5.70,-2.47,9.91,3.68,1.65,2.34
25,6,-828,106,-400,4016,1.10,-1.44,-52.25,1.06,-4.00,40.16,-5.68,-2.48,10.12,2.94,1.91,2.53
57,4,-818,77,-623,3815,1.34,-1.27,-52.02,0.77,-6.23,38.15,-5.69,-2.50,10.32,2.23,1.91,1.88
21,-48,-786,-22,-411,4028,1.33,-1.44,-51.61,-0.22,-4.11,40.28,-5.67,-2.50,10.53,2.95,3.02,-0.75
18,-47,-781,7,-268,3947,1.31,-1.58,-51.21,0.07,-2.68,39.47,-5.65,-2.52,10.73,3.00,3.05,-0.64
56,-8,-749,107,-322,3880,1.52,-1.47,-50.66,1.07,-3.22,38.80,-5.62,-2.53,10.94,2.16,2.23,-3.04
73,17,-746,45,-513,3995,1.81,-1.22,-50.15,0.45,-5.13,39.95,-5.62,-2.54,11.13,1.73,1.66,-2.55
-19,-5,-805,82,-380,4014,1.52,-1.13,-50.04,0.82,-3.80,40.14,-5.60,-2.55,11.33,3.67,2.09,3.60
2,-5,-809,-22,-301,3986,1.38,-1.05,-49.97,-0.22,-3.01,39.86,-5.58,-2.55,11.53,3.26,2.07,4.11
25,-43,-816,-61,-485,3948,1.39,-1.20,-49.95,-0.61,-4.85,39.48,-5.57,-2.56,11.73,2.79,2.89,4.85
36,-20,-810,87,-398,3707,1.47,-1.20,-49.90,0.87,-3.98,37.07,-5.56,-2.57,11.93,2.54,2.43,4.32
13,10,-780,141,-253,3958,1.40,-1.02,-49.67,1.41,-2.53,39.58,-5.53,-2.59,12.13,3.00,1.78,1.62
51,21,-759,95,-480,4096,1.57,-0.79,-49.33,0.95,-4.80,40.96,-5.53,-2.59,12.32,2.18,1.50,0.00
24,-29,-766,47,-383,3764,1.56,-0.89,-49.07,0.47,-3.83,37.64,-5.51,-2.60,12.52,2.73,2.55,1.12
39,-22,-733,-27,-387,4031,1.64,-0.94,-48.63,-0.27,-3.87,40.31,-5.50,-2.60,12.71,2.39,2.42,-1.57
-13,28,-726,109,-376,3819,1.40,-0.67,-48.20,1.09,-3.76,38.19,-5.49,-2.61,12.90,3.50,1.33,-1.61
0,25,-738,7,-303,3978,1.26,-0.45,-47.88,0.07,-3.03,39.78,-5.47,-2.61,13.09,3.26,1.34,0.10
41,-44,-736,-66,-358,3962,1.39,-0.67,-47.58,-0.66,-3.58,39.62,-5.45,-2.61,13.28,2.39,2.80,0.36
34,-53,-747,-63,-372,3775,1.45,-0.93,-47.38,-0.63,-3.72,37.75,-5.44,-2.62,13.47,2.50,3.06,1.78
25,14,-755,-65,-460,3802,1.46,-0.75,-47.25,-0.65,-4.60,38.02,-5.43,-2.62,13.66,2.68,1.65,2.80
26,25,-767,67,-382,3976,1.47,-0.52,-47.20,0.67,-3.82,39.76,-5.42,-2.62,13.85,2.64,1.36,4.08
39,-19,-767,45,-421,3936,1.56,-0.59,-47.16,0.45,-4.21,39.36,-5.41,-2.62,14.04,2.35,2.28,4.14
32,-36,-753,12,-454,3933,1.60,-0.75,-47.04,0.12,-4.54,39.33,-5.40,-2.63,14.22,2.48,2.67,2.91
18,7,-735,76,-369,3845,1.55,-0.63,-46.82,0.76,-3.69,38.45,-5.39,-2.63,14.41,2.77,1.77,1.41
14,19,-739,-15,-359,3825,1.48,-0.45,-46.64,-0.15,-3.59,38.25,-5.37,-2.63,14.59,2.86,1.47,2.08
22,-38,-666,122,-336,3918,1.47,-0.64,-46.04,1.22,-3.36,39.18,-5.35,-2.63,14.78,2.68,2.69,-4.41
35,-55,-615,56,-431,3953,1.54,-0.91,-45.19,0.56,-4.31,39.53,-5.34,-2.64,14.96,2.40,3.11,-8.27
11,-40,-617,95,-430,3829,1.45,-1.06,-44.43,0.95,-4.30,38.29,-5.34,-2.65,15.13,2.91,2.85,-6.89
9,-12,-607,77,-409,3797,1.36,-1.03,-43.69,0.77,-4.09,37.97,-5.34,-2.65,15.31,2.97,2.27,-6.76
9,-27,-564,-21,-441,4012,1.28,-1.09,-42.76,-0.21,-4.41,40.12,-5.33,-2.65,15.48,2.98,2.60,-9.69
35,-16,-582,51,-435,3964,1.36,-1.08,-42.04,0.51,-4.35,39.64,-5.32,-2.66,15.64,2.43,2.37,-6.74
22,-7,-553,-7,-323,3922,1.36,-1.01,-41.21,-0.07,-3.23,39.22,-5.31,-2.66,15.81,2.68,2.17,-8.40
16,-11,-531,-8,-418,3912,1.32,-0.98,-40.33,-0.08,-4.18,39.12,-5.30,-2.66,15.97,2.81,2.25,-9.27
12,-32,-479,52,-467,3865,1.26,-1.08,-39.22,0.52,-4.67,38.65,-5.30,-2.66,16.12,2.91,2.70,-12.83
12,-11,-485,39,-492,3828,1.21,-1.04,-38.25,0.39,-4.92,38.28,-5.30,-2.67,16.27,2.92,2.27,-10.73
8,16,-472,-36,-531,3941,1.14,-0.84,-37.31,-0.36,-5.31,39.41,-5.30,-2.67,16.42,3.02,1.67,-10.58
-11,5,-444,-20,-494,3791,0.96,-0.72,-36.28,-0.20,-4.94,37.91,-5.30,-2.67,16.57,3.46,1.86,-11.84
-15,-15,-465,56,-527,3975,0.77,-0.74,-35.49,0.56,-5.27,39.75,-5.30,-2.68,16.71,3.59,2.27,-8.48
8,-16,-470,5,-478,3919,0.74,-0.76,-34.81,0.05,-4.78,39.19,-5.30,-2.68,16.85,3.13,2.30,-6.91
42,-38,-470,-114,-407,3878,0.92,-0.92,-34.20,-1.14,-4.07,38.78,-5.30,-2.67,16.98,2.39,2.79,-5.96
28,-10,-502,3,-370,3767,1.00,-0.89,-33.84,0.03,-3.70,37.67,-5.29,-2.67,17.12,2.65,2.21,-2.15
20,17,-532,89,-505,4004,1.02,-0.70,-33.70,0.89,-5.05,40.04,-5.29,-2.68,17.25,2.81,1.61,1.11
-1,-15,-530,40,-541,4019,0.92,-0.72,-33.56,0.40,-5.41,40.19,-5.30,-2.68,17.38,3.27,2.27,1.12
32,-34,-586,53,-429,3808,1.02,-0.85,-33.78,0.53,-4.29,38.08,-5.29,-2.68,17.52,2.57,2.69,6.47
17,-10,-595,10,-383,3778,1.02,-0.83,-34.03,0.10,-3.83,37.78,-5.29,-2.68,17.65,2.87,2.20,6.98
14,-12,-616,-50,-414,3951,1.00,-0.82,-34.39,-0.50,-4.14,39.51,-5.28,-2.68,17.79,2.93,2.23,8.56
43,-18,-615,-50,-429,3957,1.17,-0.85,-34.70,-0.50,-4.29,39.57,-5.27,-2.67,17.93,2.29,2.36,7.97
-9,8,-604,69,-271,3828,0.99,-0.71,-34.91,0.69,-2.71,38.28,-5.25,-2.68,18.07,3.38,1.80,6.52
-1,32,-606,171,-246,3820,0.89,-0.45,-35.12,1.71,-2.46,38.20,-5.22,-2.69,18.21,3.23,1.25,6.39
48,-13,-540,-38,-365,4005,1.09,-0.48,-34.90,-0.38,-3.65,40.05,-5.21,-2.69,18.34,2.17,2.17,0.02
25,-5,-544,-57,-403,3852,1.14,-0.46,-34.73,-0.57,-4.03,38.52,-5.21,-2.68,18.48,2.62,2.00,0.69
-1,77,-588,33,-515,3887,1.02,0.05,-34.84,0.33,-5.15,38.87,-5.21,-2.68,18.62,3.18,0.19,4.98
44,83,-585,-35,-534,3950,1.18,0.55,-34.93,-0.35,-5.34,39.50,-5.21,-2.68,18.76,2.22,-0.07,4.54
-2,131,-575,246,-309,3710,1.05,1.30,-34.94,2.46,-3.09,37.10,-5.19,-2.70,18.90,3.18,-1.23,3.50
-4,160,-568,260,-461,3638,0.92,2.14,-34.91,2.60,-4.61,36.38,-5.20,-2.72,19.04,3.26,-2.04,2.83
13,150,-507,345,-312,4246,0.91,2.84,-34.51,3.45,-3.12,42.46,-5.18,-2.73,19.18,2.91,-2.02,-2.76
-24,74,-482,335,-256,4025,0.67,3.01,-34.00,3.35,-2.56,40.25,-5.16,-2.75,19.32,3.71,-0.51,-4.51
20,16,-482,-150,-504,3961,0.73,2.81,-33.54,-1.50,-5.04,39.61,-5.16,-2.73,19.45,2.80,0.71,-3.80
7,-26,-490,-131,-469,3997,0.70,2.37,-33.18,-1.31,-4.69,39.97,-5.15,-2.72,19.58,3.07,1.68,-2.42
5,-39,-492,-87,-484,3813,0.66,1.89,-32.86,-0.87,-4.84,38.13,-5.15,-2.71,19.71,3.12,2.06,-1.73
9,-45,-511,-139,-471,3936,0.65,1.43,-32.69,-1.39,-4.71,39.36,-5.15,-2.69,19.85,3.04,2.30,0.47
-3,-45,-500,-96,-458,4031,0.56,1.01,-32.47,-0.96,-4.58,40.31,-5.15,-2.68,19.97,3.30,2.41,-0.32
7,-32,-503,-19,-335,3864,0.55,0.72,-32.29,-0.19,-3.35,38.64,-5.14,-2.68,20.10,3.10,2.22,0.26
26,-11,-474,-319,-536,3892,0.65,0.58,-31.96,-3.19,-5.36,38.92,-5.14,-2.67,20.23,2.68,1.83,-2.16
-1,-25,-479,-236,-415,4021,0.58,0.37,-31.68,-2.36,-4.15,40.21,-5.13,-2.66,20.36,3.25,2.16,-1.23
4,-21,-522,-266,-510,3770,0.55,0.20,-31.70,-2.66,-5.10,37.70,-5.13,-2.65,20.48,3.15,2.12,3.11
17,-29,-531,-275,-455,4013,0.60,0.00,-31.77,-2.75,-4.55,40.13,-5.12,-2.65,20.61,2.87,2.33,3.92
21,-33,-539,-343,-573,3775,0.67,-0.20,-31.88,-3.43,-5.73,37.75,-5.12,-2.64,20.74,2.77,2.47,4.55
-2,-24,-548,-331,-532,3757,0.59,-0.32,-32.03,-3.31,-5.32,37.57,-5.12,-2.64,20.86,3.26,2.32,5.22
6,1,-594,-150,-396,4198,0.56,-0.29,-32.45,-1.50,-3.96,41.98,-5.11,-2.63,20.99,3.10,1.79,9.24
46,-40,-578,-57,-429,3971,0.79,-0.50,-32.73,-0.57,-4.29,39.71,-5.11,-2.63,21.12,2.22,2.68,7.17
-3,3,-558,-60,-413,3673,0.69,-0.43,-32.86,-0.60,-4.13,36.73,-5.11,-2.62,21.25,3.24,1.79,4.93
-6,18,-558,-97,-482,3872,0.59,-0.28,-32.98,-0.97,-4.82,38.72,-5.11,-2.62,21.39,3.33,1.44,4.75
25,-17,-582,-101,-347,3938,0.68,-0.36,-33.23,-1.01,-3.47,39.38,-5.10,-2.61,21.52,2.67,2.17,6.79
29,-39,-612,-69,-439,4027,0.79,-0.56,-33.64,-0.69,-4.39,40.27,-5.09,-2.61,21.65,2.56,2.67,9.20
12,-6,-648,-204,-443,3815,0.78,-0.54,-34.23,-2.04,-4.43,38.15,-5.09,-2.61,21.79,2.90,1.99,11.94
-11,-1,-657,-176,-478,3866,0.64,-0.49,-34.82,-1.76,-4.78,38.66,-5.09,-2.61,21.93,3.41,1.87,11.94
31,-2,-667,-93,-394,3932,0.76,-0.45,-35.40,-0.93,-3.94,39.32,-5.08,-2.60,22.07,2.51,1.88,12.04
30,-1,-665,-9,-406,3861,0.87,-0.41,-35.92,-0.09,-4.06,38.61,-5.08,-2.60,22.21,2.50,1.85,11.03
17,-21,-692,-48,-438,3938,0.89,-0.50,-36.55,-0.48,-4.38,39.38,-5.07,-2.60,22.36,2.76,2.28,12.79
17,-24,-706,-69,-347,3894,0.90,-0.60,-37.20,-0.69,-3.47,38.94,-5.06,-2.59,22.50,2.75,2.36,13.19
12,-18,-736,-94,-360,3950,0.88,-0.65,-37.97,-0.94,-3.60,39.50,-5.05,-2.59,22.65,2.85,2.25,15.04
13,-10,-740,-109,-362,3895,0.88,-0.64,-38.69,-1.09,-3.62,38.95,-5.04,-2.59,22.81,2.83,2.09,14.33
12,-54,-815,-167,-335,4006,0.86,-0.91,-39.79,-1.67,-3.35,40.06,-5.03,-2.59,22.97,2.84,3.05,20.00
37,-49,-828,-40,-346,3858,1.00,-1.12,-40.86,-0.40,-3.46,38.58,-5.02,-2.59,23.13,2.29,3.01,19.88
34,-17,-845,79,-379,3800,1.11,-1.11,-41.93,0.79,-3.79,38.00,-5.02,-2.59,23.30,2.32,2.36,19.94
10,-22,-845,-93,-506,3849,1.06,-1.13,-42.89,-0.93,-5.06,38.49,-5.02,-2.60,23.47,2.82,2.47,18.44
28,-14,-841,-67,-388,3907,1.12,-1.10,-43.73,-0.67,-3.88,39.07,-5.01,-2.60,23.64,2.43,2.30,16.72
8,-7,-843,56,-312,3982,1.06,-1.04,-44.50,0.56,-3.12,39.82,-4.99,-2.60,23.82,2.84,2.14,15.72
22,-31,-806,-43,-255,3881,1.09,-1.12,-44.97,-0.43,-2.55,38.81,-4.97,-2.60,24.00,2.54,2.65,11.22
25,-37,-809,-42,-326,3938,1.13,-1.24,-45.41,-0.42,-3.26,39.38,-4.96,-2.60,24.18,2.45,2.81,10.84
18,-31,-771,24,-308,3864,1.13,-1.30,-45.57,0.24,-3.08,38.64,-4.94,-2.61,24.36,2.59,2.71,6.72
14,-43,-777,-41,-359,3894,1.10,-1.43,-45.75,-0.41,-3.59,38.94,-4.93,-2.61,24.54,2.67,2.99,7.04
10,-45,-755,-146,-430,3836,1.05,-1.56,-45.78,-1.46,-4.30,38.36,-4.92,-2.61,24.72,2.76,3.07,4.75
17,-58,-749,-168,-307,3883,1.05,-1.76,-45.77,-1.68,-3.07,38.83,-4.91,-2.62,24.91,2.61,3.39,4.15
24,-14,-718,30,-413,3871,1.09,-1.67,-45.58,0.30,-4.13,38.71,-4.90,-2.63,25.09,2.45,2.47,1.30
12,-25,-695,32,-345,3956,1.06,-1.66,-45.26,0.32,-3.45,39.56,-4.89,-2.63,25.27,2.70,2.70,-0.55
8,8,-694,-80,-492,3852,1.00,-1.44,-44.96,-0.80,-4.92,38.52,-4.89,-2.63,25.44,2.79,1.97,-0.20
7,4,-690,-15,-407,3902,0.94,-1.27,-44.68,-0.15,-4.07,39.02,-4.88,-2.64,25.62,2.82,2.01,-0.17
14,5,-670,18,-422,3888,0.93,-1.12,-44.30,0.18,-4.22,38.88,-4.88,-2.64,25.80,2.68,1.95,-1.61
15,12,-665,81,-468,3893,0.93,-0.93,-43.92,0.81,-4.68,38.93,-4.88,-2.65,25.97,2.66,1.76,-1.54
22,-13,-630,-30,-382,3888,0.97,-0.92,-43.37,-0.30,-3.82,38.88,-4.88,-2.65,26.14,2.51,2.26,-4.25
1,-22,-610,21,-326,3804,0.88,-0.96,-42.76,0.21,-3.26,38.04,-4.87,-2.65,26.31,2.95,2.46,-5.33
-9,-27,-493,47,-446,3745,0.74,-1.03,-41.49,0.47,-4.46,37.45,-4.87,-2.66,26.48,3.19,2.58,-15.26
6,-8,-497,47,-594,3982,0.70,-0.97,-40.37,0.47,-5.94,39.82,-4.87,-2.66,26.64,2.90,2.19,-13.12
17,3,-493,33,-499,3879,0.73,-0.86,-39.34,0.33,-4.99,38.79,-4.88,-2.67,26.80,2.67,1.93,-11.92
3,2,-484,91,-476,3838,0.68,-0.76,-38.36,0.91,-4.76,38.38,-4.88,-2.68,26.95,2.98,1.93,-11.32
23,32,-508,12,-480,3981,0.75,-0.49,-37.62,0.12,-4.80,39.81,-4.88,-2.68,27.10,2.55,1.25,-7.73
3,24,-532,-111,-555,3956,0.69,-0.29,-37.11,-1.11,-5.55,39.56,-4.89,-2.67,27.24,2.97,1.36,-4.49
21,11,-578,10,-401,3907,0.75,-0.20,-36.92,0.10,-4.01,39.07,-4.88,-2.67,27.39,2.59,1.59,0.47
15,4,-600,145,-462,3854,0.77,-0.15,-36.89,1.45,-4.62,38.54,-4.89,-2.68,27.54,2.71,1.73,2.75
23,17,-607,-54,-496,3988,0.83,-0.03,-36.90,-0.54,-4.96,39.88,-4.89,-2.68,27.68,2.53,1.43,3.44
5,12,-595,7,-367,3899,0.78,0.04,-36.84,0.07,-3.67,38.99,-4.88,-2.67,27.83,2.91,1.51,2.31
-7,12,-542,54,-296,3818,0.66,0.11,-36.46,0.54,-2.96,38.18,-4.87,-2.66,27.98,3.18,1.48,-2.50
6,16,-520,0,-243,3922,0.63,0.20,-35.99,0.00,-2.43,39.22,-4.85,-2.66,28.12,2.91,1.38,-4.00
9,14,-497,-23,-407,3854,0.62,0.26,-35.42,-0.23,-4.07,38.54,-4.85,-2.65,28.26,2.85,1.40,-5.46
12,15,-498,-85,-409,3935,0.63,0.33,-34.92,-0.85,-4.09,39.35,-4.85,-2.65,28.40,2.78,1.35,-4.58
8,-4,-531,-145,-502,3838,0.62,0.27,-34.67,-1.45,-5.02,38.38,-4.85,-2.64,28.54,2.87,1.75,-0.83
15,21,-539,-148,-539,3868,0.65,0.37,-34.49,-1.48,-5.39,38.68,-4.85,-2.64,28.68,2.72,1.21,0.25
17,-6,-541,56,-429,3902,0.69,0.30,-34.34,0.56,-4.29,39.02,-4.85,-2.63,28.81,2.67,1.78,0.68
8,-13,-473,184,-199,3913,0.67,0.19,-33.79,1.84,-1.99,39.13,-4.82,-2.64,28.95,2.84,1.96,-5.38
-5,-20,-423,-128,-364,3900,0.57,0.05,-32.99,-1.28,-3.64,39.00,-4.82,-2.64,29.08,3.12,2.13,-9.22
-3,-33,-421,-62,-420,3866,0.49,-0.16,-32.26,-0.62,-4.20,38.66,-4.81,-2.63,29.21,3.10,2.45,-8.29
-2,-10,-463,-96,-539,3893,0.43,-0.20,-31.86,-0.96,-5.39,38.93,-4.82,-2.63,29.34,3.10,1.99,-3.40
9,-8,-484,-98,-522,3849,0.44,-0.23,-31.62,-0.98,-5.22,38.49,-4.82,-2.62,29.46,2.88,1.96,-0.91
10,-6,-528,-85,-533,3884,0.46,-0.24,-31.68,-0.85,-5.33,38.84,-4.82,-2.62,29.59,2.85,1.92,3.47
5,0,-545,-111,-512,3845,0.45,-0.22,-31.84,-1.11,-5.12,38.45,-4.83,-2.62,29.71,2.96,1.79,4.95
3,-19,-557,-14,-410,3793,0.42,-0.31,-32.05,-0.14,-4.10,37.93,-4.83,-2.61,29.84,3.01,2.20,5.84
9,3,-565,-23,-383,3832,0.43,-0.26,-32.29,-0.23,-3.83,38.32,-4.82,-2.61,29.97,2.88,1.73,6.27
17,3,-517,-69,-421,3781,0.49,-0.22,-32.22,-0.69,-4.21,37.81,-4.82,-2.60,30.10,2.70,1.72,1.51
8,-17,-496,-107,-279,3976,0.49,-0.30,-32.02,-1.07,-2.79,39.76,-4.81,-2.60,30.23,2.88,2.14,-0.33
0,-21,-510,-115,-222,3923,0.44,-0.40,-31.93,-1.15,-2.22,39.23,-4.80,-2.59,30.35,3.05,2.25,1.23
8,-19,-538,-136,-289,3877,0.45,-0.48,-32.02,-1.36,-2.89,38.77,-4.79,-2.59,30.48,2.88,2.22,3.94
0,-5,-524,-109,-410,3953,0.40,-0.46,-32.01,-1.09,-4.10,39.53,-4.79,-2.58,30.61,3.05,1.93,2.52
10,-16,-524,-37,-366,3951,0.42,-0.51,-32.01,-0.37,-3.66,39.51,-4.78,-2.57,30.74,2.84,2.16,2.52
15,-11,-577,-68,-264,3978,0.47,-0.53,-32.33,-0.68,-2.64,39.78,-4.77,-2.57,30.86,2.71,2.06,7.41
36,3,-591,-78,-336,3747,0.64,-0.46,-32.70,-0.78,-3.36,37.47,-4.76,-2.56,30.99,2.24,1.76,8.25
8,-9,-635,-99,-226,3862,0.63,-0.46,-33.30,-0.99,-2.26,38.62,-4.75,-2.56,31.13,2.80,2.00,11.78
10,-18,-639,-28,-295,3824,0.63,-0.53,-33.87,-0.28,-2.95,38.24,-4.74,-2.56,31.26,2.75,2.20,11.30
1,-29,-684,-156,-432,3796,0.57,-0.65,-34.66,-1.56,-4.32,37.96,-4.74,-2.55,31.40,2.95,2.45,14.65
22,-6,-732,-234,-303,3966,0.65,-0.62,-35.66,-2.34,-3.03,39.66,-4.73,-2.55,31.54,2.49,1.97,17.97
4,-22,-793,-139,-304,4027,0.61,-0.70,-36.93,-1.39,-3.04,40.27,-4.71,-2.54,31.69,2.86,2.32,20.00
12,-41,-809,-124,-298,3977,0.62,-0.88,-38.17,-1.24,-2.98,39.77,-4.70,-2.54,31.84,2.69,2.75,20.00
13,-7,-852,-93,-354,3832,0.64,-0.83,-39.55,-0.93,-3.54,38.32,-4.70,-2.54,32.00,2.66,2.05,20.00
21,-9,-859,-3,-424,3907,0.70,-0.80,-40.83,-0.03,-4.24,39.07,-4.70,-2.54,32.16,2.48,2.08,20.00
5,-20,-893,-119,-309,3896,0.66,-0.84,-42.20,-1.19,-3.09,38.96,-4.69,-2.54,32.33,2.81,2.31,20.00
18,-10,-903,-154,-351,3857,0.71,-0.82,-43.49,-1.54,-3.51,38.57,-4.68,-2.54,32.50,2.53,2.10,20.00
19,-19,-920,-159,-515,3817,0.75,-0.85,-44.75,-1.59,-5.15,38.17,-4.68,-2.54,32.68,2.49,2.30,20.00
28,-20,-919,-121,-327,3841,0.85,-0.89,-45.88,-1.21,-3.27,38.41,-4.66,-2.54,32.86,2.28,2.33,20.00
6,-42,-954,-198,-270,3907,0.80,-1.06,-47.11,-1.98,-2.70,39.07,-4.65,-2.54,33.05,2.73,2.82,20.00
-1,-50,-940,3,-346,3831,0.71,-1.26,-48.14,0.03,-3.46,38.31,-4.64,-2.55,33.24,2.89,3.04,19.64
17,-18,-931,-127,-382,3858,0.75,-1.24,-49.00,-1.27,-3.82,38.58,-4.64,-2.55,33.44,2.51,2.39,17.37
-10,-18,-932,-42,-525,3827,0.61,-1.23,-49.79,-0.42,-5.25,38.27,-4.64,-2.56,33.64,3.10,2.39,16.24
9,-26,-917,52,-450,3928,0.60,-1.26,-50.40,0.52,-4.50,39.28,-4.64,-2.57,33.84,2.71,2.57,13.76
8,-15,-900,-31,-449,3897,0.59,-1.23,-50.85,-0.31,-4.49,38.97,-4.64,-2.57,34.04,2.74,2.34,11.32
16,-6,-813,160,-202,3830,0.63,-1.14,-50.73,1.60,-2.02,38.30,-4.61,-2.59,34.24,2.54,2.14,2.67
8,-2,-812,124,-179,3890,0.62,-1.04,-50.61,1.24,-1.79,38.90,-4.58,-2.60,34.44,2.69,2.04,2.74
13,-3,-778,-24,-346,3709,0.63,-0.95,-50.29,-0.24,-3.46,37.09,-4.57,-2.61,34.64,2.58,2.04,-0.23
73,14,-763,174,-240,4062,1.02,-0.77,-49.92,1.74,-2.40,40.62,-4.54,-2.62,34.84,1.24,1.66,-1.18
