gyroADC_X,gyroADC_Y,gyroADC_Z,accADC_X,accADC_Y,accADC_Z,GyroX,GyroY,GyroZ,AccX,AccY,AccZ,roll_IMU,pitch_IMU,yaw_IMU,roll_PID,pitch_PID,yaw_PID
-8,0,-85,-10,-303,3879,-0.07,0.05,-4.49,-0.10,-3.03,38.79,-4.52,0.19,92.69,3.11,-0.14,-5.89
1,-2,-60,8,-261,3908,-0.06,0.03,-4.40,0.08,-2.61,39.08,-4.51,0.18,92.71,2.99,-0.11,-7.92
-2,-2,-32,29,-275,3906,-0.07,0.02,-4.16,0.29,-2.75,39.06,-4.50,0.17,92.73,3.02,-0.09,-10.04
-2,-2,-16,34,-285,3927,-0.07,0.00,-3.84,0.34,-2.85,39.27,-4.49,0.15,92.74,3.02,-0.07,-11.06
0,0,-5,2,-300,3909,-0.06,0.00,-3.49,0.02,-3.00,39.09,-4.48,0.13,92.75,2.98,-0.09,-11.62
-1,0,-3,4,-303,3900,-0.06,0.00,-3.16,0.04,-3.03,39.00,-4.48,0.11,92.77,2.99,-0.07,-11.44
-1,0,0,-17,-296,3904,-0.06,0.00,-2.84,-0.17,-2.96,39.04,-4.46,0.12,92.78,2.98,-0.08,-11.36
0,0,0,-24,-295,3904,-0.06,0.00,-2.56,-0.24,-2.95,39.04,-4.45,0.14,92.79,2.96,-0.09,-11.06
4,5,-2,-15,-297,3908,-0.03,0.03,-2.31,-0.15,-2.97,39.08,-4.44,0.15,92.80,2.89,-0.17,-10.63
3,7,-4,27,-278,3954,-0.01,0.07,-2.11,0.27,-2.78,39.54,-4.43,0.13,92.81,2.89,-0.20,-10.24
-7,6,-37,65,-157,3928,-0.05,0.10,-2.12,0.65,-1.57,39.28,-4.41,0.13,92.81,3.01,-0.20,-7.47
3,5,-55,96,-85,3889,-0.03,0.12,-2.25,0.96,-0.85,38.89,-4.40,0.12,92.82,2.88,-0.19,-6.07
3,-4,-98,153,-110,3911,-0.00,0.08,-2.62,1.53,-1.10,39.11,-4.38,0.10,92.83,2.86,-0.06,-2.82
9,-2,-120,121,-165,3857,0.05,0.06,-3.09,1.21,-1.65,38.57,-4.37,0.09,92.85,2.76,-0.06,-1.46
8,-5,-128,37,-319,3933,0.09,0.03,-3.56,0.37,-3.19,39.33,-4.38,0.07,92.86,2.75,-0.00,-1.28
-2,-7,-128,9,-316,3842,0.07,-0.02,-3.99,0.09,-3.16,38.42,-4.39,0.06,92.88,2.89,0.05,-1.73
4,-7,-104,-152,-480,3908,0.09,-0.06,-4.22,-1.52,-4.80,39.08,-4.40,0.07,92.89,2.82,0.06,-4.02
-12,-2,-107,-196,-453,3853,0.01,-0.07,-4.45,-1.96,-4.53,38.53,-4.42,0.09,92.91,3.05,-0.01,-4.01
14,2,-67,-51,-385,3814,0.09,-0.05,-4.42,-0.51,-3.85,38.14,-4.43,0.09,92.93,2.72,-0.07,-7.36
-4,11,-52,-50,-366,3899,0.06,0.02,-4.29,-0.50,-3.66,38.99,-4.45,0.10,92.95,2.96,-0.21,-8.50
6,2,-49,11,-271,3911,0.09,0.03,-4.16,0.11,-2.71,39.11,-4.43,0.09,92.96,2.82,-0.10,-8.62
4,0,-52,-41,-333,3880,0.11,0.03,-4.06,-0.41,-3.33,38.80,-4.44,0.10,92.98,2.84,-0.08,-8.26
-5,-2,-76,-45,-293,3893,0.06,0.02,-4.12,-0.45,-2.93,38.93,-4.44,0.12,92.99,2.96,-0.06,-6.29
-3,-1,-77,-36,-300,3874,0.04,0.01,-4.18,-0.36,-3.00,38.74,-4.44,0.14,93.01,2.95,-0.08,-6.27
-2,9,-51,-60,-373,3886,0.02,0.06,-4.07,-0.60,-3.73,38.86,-4.45,0.15,93.03,2.95,-0.23,-8.36
0,6,-43,-63,-356,3903,0.02,0.09,-3.93,-0.63,-3.56,39.03,-4.46,0.16,93.04,2.94,-0.21,-8.89
1,0,-48,-69,-359,3879,0.02,0.08,-3.83,-0.69,-3.59,38.79,-4.48,0.17,93.06,2.93,-0.15,-8.36
-2,0,-41,-59,-370,3891,0.01,0.08,-3.69,-0.59,-3.70,38.91,-4.49,0.18,93.07,2.98,-0.15,-8.81
-3,0,-22,-63,-364,3911,-0.01,0.07,-3.46,-0.63,-3.64,39.11,-4.51,0.19,93.09,3.01,-0.15,-10.18
-2,-2,-20,-62,-359,3916,-0.02,0.05,-3.23,-0.62,-3.59,39.16,-4.52,0.20,93.10,3.01,-0.13,-10.11
0,-3,-14,-21,-324,3906,-0.02,0.03,-3.00,-0.21,-3.24,39.06,-4.54,0.21,93.11,3.00,-0.11,-10.37
-1,-3,-12,-17,-325,3903,-0.02,0.00,-2.77,-0.17,-3.25,39.03,-4.55,0.21,93.12,3.03,-0.11,-10.30
-1,-2,-8,-17,-312,3908,-0.03,-0.01,-2.54,-0.17,-3.12,39.08,-4.56,0.23,93.13,3.03,-0.12,-10.40
-1,-1,-5,-18,-306,3908,-0.03,-0.01,-2.32,-0.18,-3.06,39.08,-4.54,0.24,93.14,3.02,-0.14,-10.41
-3,-1,0,-23,-305,3895,-0.05,-0.02,-2.09,-0.23,-3.05,38.95,-4.53,0.25,93.15,3.05,-0.15,-10.59
-2,0,0,-17,-297,3902,-0.05,-0.02,-1.88,-0.17,-2.97,39.02,-4.51,0.25,93.16,3.03,-0.16,-10.37
-1,1,1,-24,-304,3909,-0.05,-0.01,-1.68,-0.24,-3.04,39.09,-4.50,0.26,93.17,3.01,-0.18,-10.25
-1,1,1,-21,-307,3916,-0.05,-0.00,-1.51,-0.21,-3.07,39.16,-4.50,0.28,93.17,3.00,-0.20,-10.07
-2,2,2,-20,-302,3900,-0.06,0.01,-1.35,-0.20,-3.02,39.00,-4.48,0.28,93.18,3.00,-0.22,-9.98
-2,1,2,-13,-302,3899,-0.07,0.02,-1.20,-0.13,-3.02,38.99,-4.47,0.27,93.18,3.00,-0.19,-9.83
-1,1,2,-3,-315,3899,-0.07,0.02,-1.07,-0.03,-3.15,38.99,-4.48,0.25,93.19,3.00,-0.19,-9.69
-1,0,3,-28,-312,3909,-0.07,0.02,-0.94,-0.28,-3.12,39.09,-4.49,0.27,93.19,3.00,-0.18,-9.64
-1,0,0,-30,-310,3904,-0.07,0.02,-0.85,-0.30,-3.10,39.04,-4.50,0.28,93.19,3.01,-0.19,-9.29
-1,1,-1,-27,-313,3914,-0.07,0.02,-0.77,-0.27,-3.13,39.14,-4.51,0.30,93.20,3.01,-0.22,-9.12
-2,1,0,-23,-303,3895,-0.07,0.02,-0.69,-0.23,-3.03,38.95,-4.49,0.31,93.20,3.02,-0.23,-9.12
0,2,-1,-14,-296,3901,-0.06,0.03,-0.63,-0.14,-2.96,39.01,-4.48,0.30,93.20,2.98,-0.24,-8.97
3,2,0,-4,-292,3908,-0.04,0.04,-0.57,-0.04,-2.92,39.08,-4.46,0.28,93.20,2.93,-0.23,-8.99
6,2,-2,-9,-277,3899,0.00,0.05,-0.52,-0.09,-2.77,38.99,-4.45,0.28,93.21,2.86,-0.23,-8.77
8,1,-8,-26,-306,3908,0.05,0.05,-0.52,-0.26,-3.06,39.08,-4.45,0.30,93.21,2.82,-0.23,-8.26
6,-1,-10,-47,-287,3896,0.08,0.04,-0.53,-0.47,-2.87,38.96,-4.44,0.31,93.21,2.83,-0.21,-8.10
3,3,-32,-92,-241,3899,0.09,0.06,-0.67,-0.92,-2.41,38.99,-4.43,0.33,93.21,2.85,-0.27,-6.39
3,-1,-52,-123,-215,3891,0.10,0.04,-0.92,-1.23,-2.15,38.91,-4.42,0.34,93.22,2.84,-0.23,-4.96
11,8,-98,12,-296,3843,0.16,0.09,-1.43,0.12,-2.96,38.43,-4.42,0.32,93.22,2.72,-0.34,-1.60
11,8,-101,-26,-283,3905,0.21,0.13,-1.90,-0.26,-2.83,39.05,-4.40,0.32,93.23,2.69,-0.36,-1.85
6,14,-129,-10,-297,3933,0.22,0.20,-2.50,-0.10,-2.97,39.33,-4.39,0.31,93.24,2.73,-0.45,-0.11
8,11,-133,-17,-316,3907,0.25,0.25,-3.06,-0.17,-3.16,39.07,-4.41,0.30,93.25,2.71,-0.43,-0.36
2,2,-128,11,-345,3884,0.24,0.24,-3.53,0.11,-3.45,38.84,-4.42,0.29,93.27,2.80,-0.31,-1.29
0,-2,-126,8,-314,3929,0.21,0.20,-3.95,0.08,-3.14,39.29,-4.43,0.28,93.28,2.83,-0.24,-1.90
3,0,-107,-3,-344,3901,0.21,0.18,-4.21,-0.03,-3.44,39.01,-4.44,0.27,93.30,2.81,-0.25,-3.79
0,-4,-109,-44,-351,3936,0.19,0.14,-4.45,-0.44,-3.51,39.36,-4.46,0.28,93.32,2.86,-0.19,-3.88
-2,-4,-137,-59,-262,3900,0.16,0.10,-4.84,-0.59,-2.62,39.00,-4.44,0.29,93.34,2.89,-0.18,-1.92
3,0,-135,38,-322,3880,0.16,0.09,-5.18,0.38,-3.22,38.80,-4.45,0.27,93.36,2.83,-0.21,-2.45
-3,-7,-99,-18,-308,3906,0.13,0.04,-5.27,-0.18,-3.08,39.06,-4.47,0.27,93.38,2.93,-0.11,-5.59
-1,-11,-113,-65,-282,3908,0.11,-0.03,-5.43,-0.65,-2.82,39.08,-4.46,0.28,93.40,2.91,-0.04,-4.58
8,-10,-172,-106,-242,3914,0.15,-0.09,-5.94,-1.06,-2.42,39.14,-4.45,0.29,93.42,2.78,-0.04,-0.12
10,-5,-188,-84,-268,3875,0.19,-0.11,-6.49,-0.84,-2.68,38.75,-4.44,0.31,93.45,2.73,-0.10,0.65
0,-8,-237,-84,-337,3869,0.17,-0.15,-7.29,-0.84,-3.37,38.69,-4.45,0.32,93.48,2.86,-0.05,3.95
9,-2,-271,-52,-312,3905,0.21,-0.15,-8.21,-0.52,-3.12,39.05,-4.45,0.33,93.51,2.74,-0.14,5.85
0,2,-283,-37,-271,3830,0.19,-0.12,-9.12,-0.37,-2.71,38.30,-4.43,0.34,93.55,2.85,-0.20,5.91
-8,7,-285,-101,-253,3975,0.12,-0.07,-9.94,-1.01,-2.53,39.75,-4.42,0.35,93.59,2.96,-0.29,5.20
5,5,-266,-13,-235,3897,0.14,-0.03,-10.57,-0.13,-2.35,38.97,-4.41,0.35,93.63,2.79,-0.28,2.92
-6,2,-285,-129,-319,3947,0.09,-0.01,-11.25,-1.29,-3.19,39.47,-4.41,0.36,93.67,2.94,-0.26,3.80
11,1,-274,-13,-325,3879,0.15,-0.01,-11.80,-0.13,-3.25,38.79,-4.42,0.35,93.72,2.73,-0.24,2.29
0,-3,-279,39,-366,3914,0.13,-0.02,-12.32,0.39,-3.66,39.14,-4.44,0.33,93.77,2.87,-0.17,2.15
-7,-11,-214,68,-340,3878,0.08,-0.09,-12.39,0.68,-3.40,38.78,-4.44,0.31,93.82,2.98,-0.04,-3.44
-1,-10,-211,43,-309,3923,0.06,-0.14,-12.44,0.43,-3.09,39.23,-4.45,0.29,93.87,2.92,-0.01,-3.75
-1,-17,-276,-35,-238,3965,0.05,-0.23,-12.88,-0.35,-2.38,39.65,-4.43,0.29,93.92,2.91,0.11,1.29
7,-9,-309,-38,-263,3963,0.09,-0.26,-13.48,-0.38,-2.63,39.63,-4.41,0.29,93.97,2.79,0.02,3.45
18,6,-527,-137,-341,3931,0.19,-0.20,-15.34,-1.37,-3.41,39.31,-4.42,0.30,94.03,2.62,-0.19,19.94
23,17,-531,-118,-211,3909,0.31,-0.08,-17.05,-1.18,-2.11,39.09,-4.40,0.31,94.10,2.51,-0.37,18.47
6,3,-507,2,-326,3933,0.32,-0.05,-18.44,0.02,-3.26,39.33,-4.41,0.29,94.18,2.71,-0.21,14.96
2,3,-497,-40,-370,3849,0.30,-0.03,-19.63,-0.40,-3.70,38.49,-4.43,0.29,94.25,2.78,-0.22,12.84
-6,-6,-502,-76,-506,3928,0.23,-0.06,-20.72,-0.76,-5.06,39.28,-4.45,0.29,94.34,2.91,-0.09,12.10
12,0,-575,-115,-417,3775,0.28,-0.05,-22.16,-1.15,-4.17,37.75,-4.46,0.29,94.43,2.69,-0.17,16.75
-17,-7,-672,128,-570,3880,0.15,-0.09,-24.04,1.28,-5.70,38.80,-4.48,0.27,94.52,3.10,-0.06,20.00
2,11,-699,104,-374,3858,0.15,-0.02,-25.90,1.04,-3.74,38.58,-4.49,0.25,94.62,2.88,-0.29,20.00
-24,-5,-565,101,-500,3783,-0.01,-0.04,-26.76,1.01,-5.00,37.83,-4.50,0.23,94.73,3.26,-0.08,11.01
13,4,-541,-9,-571,3882,0.07,-0.02,-27.38,-0.09,-5.71,38.82,-4.52,0.22,94.84,2.80,-0.19,8.30
0,-3,-496,-40,-494,3945,0.06,-0.03,-27.67,-0.40,-4.94,39.45,-4.54,0.22,94.95,2.97,-0.09,4.18
-3,3,-479,-74,-519,3854,0.04,-0.01,-27.83,-0.74,-5.19,38.54,-4.56,0.21,95.06,3.03,-0.17,2.56
-1,-6,-469,3,-312,3904,0.03,-0.05,-27.90,0.03,-3.12,39.04,-4.56,0.19,95.17,3.01,-0.03,1.62
-8,-9,-476,84,-282,3882,-0.03,-0.10,-28.02,0.84,-2.82,38.82,-4.55,0.16,95.28,3.11,0.04,2.09
-13,-15,-414,48,-223,3847,-0.10,-0.18,-27.74,0.48,-2.23,38.47,-4.54,0.14,95.40,3.19,0.16,-2.88
-1,-20,-353,125,-193,3926,-0.10,-0.28,-27.12,1.25,-1.93,39.26,-4.53,0.12,95.50,3.04,0.28,-7.41
1,-8,-216,-102,-127,3902,-0.08,-0.30,-25.73,-1.02,-1.27,39.02,-4.51,0.11,95.61,3.00,0.14,-17.54
-3,-7,-182,-121,-142,3899,-0.09,-0.32,-24.26,-1.21,-1.42,38.99,-4.50,0.12,95.70,3.04,0.14,-18.89
-1,-5,-133,-102,-201,3881,-0.09,-0.31,-22.65,-1.02,-2.01,38.81,-4.49,0.12,95.79,3.01,0.11,-20.00
-1,-7,-122,-120,-221,3865,-0.09,-0.33,-21.13,-1.20,-2.21,38.65,-4.48,0.13,95.88,3.00,0.13,-20.00
9,15,-80,125,-183,3862,-0.02,-0.20,-19.50,1.25,-1.83,38.62,-4.46,0.11,95.95,2.85,-0.16,-20.00
8,8,-51,84,-191,3873,0.03,-0.13,-17.86,0.84,-1.91,38.73,-4.45,0.09,96.03,2.83,-0.10,-20.00
-1,0,-3,4,-302,3923,0.02,-0.12,-16.10,0.04,-3.02,39.23,-4.44,0.07,96.09,2.94,0.01,-20.00
1,0,0,-19,-310,3929,0.02,-0.11,-14.49,-0.19,-3.10,39.29,-4.45,0.08,96.15,2.92,-0.01,-20.00
2,5,16,-28,-323,3929,0.03,-0.07,-12.94,-0.28,-3.23,39.29,-4.46,0.09,96.20,2.91,-0.09,-20.00
3,4,11,12,-268,3893,0.05,-0.04,-11.58,0.12,-2.68,38.93,-4.44,0.08,96.25,2.88,-0.08,-20.00
6,1,-3,-2,-298,3894,0.08,-0.03,-10.44,-0.02,-2.98,38.94,-4.43,0.06,96.29,2.82,-0.04,-19.47
4,1,-5,-2,-301,3906,0.10,-0.02,-9.43,-0.02,-3.01,39.06,-4.42,0.04,96.32,2.83,-0.03,-18.23
2,1,-3,-14,-304,3902,0.10,-0.01,-8.50,-0.14,-3.04,39.02,-4.42,0.06,96.36,2.85,-0.05,-17.42
2,1,-3,-13,-307,3908,0.10,-0.00,-7.67,-0.13,-3.07,39.08,-4.43,0.07,96.39,2.86,-0.06,-16.54
0,1,-2,-13,-312,3895,0.09,0.00,-6.91,-0.13,-3.12,38.95,-4.44,0.08,96.42,2.90,-0.07,-15.83
-1,2,0,-10,-310,3898,0.08,0.02,-6.22,-0.10,-3.10,38.98,-4.46,0.09,96.44,2.92,-0.09,-15.27
0,2,1,-15,-303,3892,0.07,0.03,-5.59,-0.15,-3.03,38.92,-4.46,0.11,96.46,2.91,-0.11,-14.69
1,1,1,-13,-305,3903,0.07,0.03,-5.03,-0.13,-3.05,39.03,-4.46,0.12,96.48,2.90,-0.11,-14.09
-1,2,3,-22,-317,3898,0.05,0.04,-4.51,-0.22,-3.17,38.98,-4.47,0.14,96.50,2.94,-0.13,-13.71
2,2,-1,-11,-321,3878,0.06,0.05,-4.06,-0.11,-3.21,38.78,-4.49,0.14,96.52,2.91,-0.13,-12.90
0,-4,-7,-16,-293,3904,0.06,0.02,-3.70,-0.16,-2.93,39.04,-4.47,0.14,96.53,2.93,-0.05,-12.01
0,-4,-8,-2,-310,3894,0.05,-0.01,-3.38,-0.02,-3.10,38.94,-4.48,0.13,96.55,2.94,-0.03,-11.59
0,-5,-6,-12,-309,3885,0.04,-0.04,-3.08,-0.12,-3.09,38.85,-4.50,0.14,96.56,2.95,-0.02,-11.44
-1,-4,-6,-11,-315,3894,0.03,-0.06,-2.81,-0.11,-3.15,38.94,-4.52,0.14,96.57,2.98,-0.02,-11.15
1,-1,-5,-15,-308,3905,0.04,-0.06,-2.56,-0.15,-3.08,39.05,-4.51,0.16,96.58,2.95,-0.07,-10.98
-1,0,-5,-34,-316,3898,0.03,-0.05,-2.33,-0.34,-3.16,38.98,-4.52,0.17,96.59,2.98,-0.09,-10.74
-2,-6,-8,-117,-372,3872,0.01,-0.08,-2.15,-1.17,-3.72,38.72,-4.53,0.19,96.60,3.01,-0.02,-10.29
-1,-7,-20,-148,-403,3879,0.00,-0.12,-2.05,-1.48,-4.03,38.79,-4.54,0.20,96.61,3.01,-0.00,-9.18
-18,-8,-72,-40,-284,3897,-0.11,-0.16,-2.29,-0.40,-2.84,38.97,-4.53,0.21,96.61,3.25,0.02,-5.02
-3,-6,-57,98,-217,3911,-0.11,-0.18,-2.41,0.98,-2.17,39.11,-4.52,0.20,96.62,3.06,0.01,-6.42
11,8,-78,-40,-402,3914,-0.03,-0.11,-2.64,-0.40,-4.02,39.14,-4.54,0.20,96.63,2.88,-0.18,-4.89
5,7,-92,-124,-412,3884,-0.00,-0.06,-2.94,-1.24,-4.12,38.84,-4.55,0.21,96.65,2.94,-0.20,-4.02
3,-6,-101,20,-321,3941,0.02,-0.09,-3.26,0.20,-3.21,39.41,-4.55,0.19,96.66,2.96,-0.02,-3.60
4,-6,-97,25,-272,3895,0.04,-0.12,-3.53,0.25,-2.72,38.95,-4.54,0.18,96.67,2.93,-0.00,-4.22
-8,-2,-79,91,-228,3883,-0.01,-0.12,-3.66,0.91,-2.28,38.83,-4.53,0.16,96.69,3.09,-0.04,-5.88
-9,-7,-59,92,-205,3886,-0.07,-0.15,-3.65,0.92,-2.05,38.86,-4.51,0.15,96.70,3.11,0.05,-7.57
-5,-2,-8,42,-347,3888,-0.09,-0.14,-3.33,0.42,-3.47,38.88,-4.53,0.13,96.72,3.08,-0.00,-11.56
-6,1,3,40,-363,3895,-0.12,-0.12,-2.98,0.40,-3.63,38.95,-4.54,0.12,96.73,3.12,-0.04,-12.12
0,-7,8,-36,-337,3938,-0.11,-0.15,-2.64,-0.36,-3.37,39.38,-4.55,0.13,96.74,3.05,0.06,-12.17
6,6,-10,-13,-374,3942,-0.06,-0.10,-2.43,-0.13,-3.74,39.42,-4.57,0.13,96.75,2.97,-0.12,-10.44
0,0,-41,19,-188,3899,-0.05,-0.09,-2.44,0.19,-1.88,38.99,-4.55,0.13,96.76,3.03,-0.05,-7.82
1,-1,-30,15,-159,3906,-0.04,-0.09,-2.38,0.15,-1.59,39.06,-4.54,0.12,96.77,3.00,-0.03,-8.69
3,5,-5,-24,-279,3909,-0.02,-0.05,-2.17,-0.24,-2.79,39.09,-4.52,0.13,96.78,2.96,-0.12,-10.59
2,6,-2,-6,-294,3905,-0.00,-0.01,-1.97,-0.06,-2.94,39.05,-4.50,0.13,96.78,2.95,-0.15,-10.62
1,0,1,-19,-306,3896,0.00,-0.01,-1.76,-0.19,-3.06,38.96,-4.50,0.14,96.79,2.96,-0.09,-10.66
1,0,1,-24,-307,3897,0.01,-0.01,-1.58,-0.24,-3.07,38.97,-4.50,0.16,96.80,2.96,-0.10,-10.47
-2,-2,3,-16,-318,3899,-0.01,-0.02,-1.40,-0.16,-3.18,38.99,-4.52,0.17,96.80,3.01,-0.08,-10.45
-4,-1,5,-16,-314,3895,-0.03,-0.02,-1.23,-0.16,-3.14,38.95,-4.53,0.18,96.81,3.05,-0.10,-10.44
-4,3,8,-12,-304,3916,-0.05,-0.00,-1.06,-0.12,-3.04,39.16,-4.51,0.18,96.81,3.05,-0.15,-10.51
-2,2,7,0,-313,3918,-0.06,0.01,-0.91,0.00,-3.13,39.18,-4.52,0.16,96.82,3.03,-0.13,-10.27
-2,-2,8,-17,-302,3899,-0.06,-0.00,-0.77,-0.17,-3.02,38.99,-4.51,0.17,96.82,3.02,-0.09,-10.21
-2,-2,7,-18,-305,3892,-0.07,-0.01,-0.65,-0.18,-3.05,38.92,-4.50,0.19,96.82,3.02,-0.10,-10.00
-1,-3,27,7,-319,3901,-0.07,-0.03,-0.42,0.07,-3.19,39.01,-4.51,0.17,96.82,3.02,-0.07,-11.45
-4,-2,34,30,-343,3909,-0.09,-0.04,-0.17,0.30,-3.43,39.09,-4.52,0.16,96.82,3.07,-0.06,-11.78
-1,4,76,49,-328,3910,-0.08,-0.01,0.31,0.49,-3.28,39.10,-4.53,0.14,96.82,3.04,-0.14,-14.83
0,5,92,57,-351,3908,-0.08,0.02,0.84,0.57,-3.51,39.08,-4.54,0.13,96.82,3.03,-0.15,-15.62
1,9,182,74,-394,3893,-0.06,0.07,1.86,0.74,-3.94,38.93,-4.55,0.11,96.81,3.02,-0.21,-20.00
-2,10,203,94,-406,3888,-0.07,0.13,2.92,0.94,-4.06,38.88,-4.57,0.10,96.80,3.07,-0.24,-20.00
0,10,306,143,-477,3913,-0.06,0.17,4.49,1.43,-4.77,39.13,-4.58,0.09,96.78,3.05,-0.25,-20.00
-3,10,365,104,-404,3881,-0.07,0.22,6.27,1.04,-4.04,38.81,-4.59,0.08,96.76,3.10,-0.26,-20.00
2,13,433,46,-374,3872,-0.05,0.28,8.28,0.46,-3.74,38.72,-4.61,0.07,96.72,3.04,-0.32,-20.00
-1,12,435,15,-275,3955,-0.05,0.32,10.11,0.15,-2.75,39.55,-4.59,0.07,96.68,3.06,-0.32,-20.00
-4,14,376,-32,-195,3846,-0.07,0.37,11.39,-0.32,-1.95,38.46,-4.57,0.08,96.64,3.10,-0.37,-20.00
-5,14,347,-137,-131,3940,-0.10,0.42,12.37,-1.37,-1.31,39.40,-4.56,0.10,96.59,3.11,-0.40,-20.00
-3,-1,283,-91,-69,3814,-0.11,0.37,12.86,-0.91,-0.69,38.14,-4.54,0.11,96.54,3.08,-0.21,-19.05
-13,-14,301,-133,-8,3814,-0.17,0.25,13.41,-1.33,-0.08,38.14,-4.52,0.12,96.48,3.21,-0.02,-19.99
3,12,398,-139,-264,3896,-0.14,0.30,14.50,-1.39,-2.64,38.96,-4.52,0.14,96.43,3.00,-0.36,-20.00
17,-4,422,-199,-281,3904,-0.02,0.25,15.62,-1.99,-2.81,39.04,-4.52,0.17,96.36,2.79,-0.16,-20.00
1,7,457,-216,-403,3978,-0.01,0.26,16.85,-2.16,-4.03,39.78,-4.52,0.19,96.30,2.98,-0.32,-20.00
1,5,494,-267,-399,3886,-0.01,0.27,18.17,-2.67,-3.99,38.86,-4.53,0.21,96.23,2.98,-0.31,-20.00
-26,17,646,-170,-394,3823,-0.16,0.34,20.30,-1.70,-3.94,38.23,-4.54,0.24,96.14,3.37,-0.50,-20.00
-8,19,689,-245,-332,3939,-0.20,0.43,22.47,-2.45,-3.32,39.39,-4.54,0.27,96.06,3.17,-0.58,-20.00
-7,13,837,-249,-81,3905,-0.22,0.46,25.33,-2.49,-0.81,39.05,-4.53,0.29,95.95,3.16,-0.53,-20.00
-6,10,831,-175,-89,3901,-0.23,0.48,27.87,-1.75,-0.89,39.01,-4.51,0.31,95.84,3.15,-0.52,-20.00
-8,19,621,-161,-158,3929,-0.26,0.55,28.87,-1.61,-1.58,39.29,-4.50,0.33,95.73,3.17,-0.67,-20.00
0,18,553,-93,-141,3927,-0.23,0.60,29.35,-0.93,-1.41,39.27,-4.48,0.35,95.61,3.06,-0.69,-20.00
4,24,351,285,-218,3936,-0.19,0.69,28.56,2.85,-2.18,39.36,-4.48,0.35,95.50,2.98,-0.80,-8.09
12,19,324,287,-239,3936,-0.09,0.73,27.68,2.87,-2.39,39.36,-4.47,0.34,95.39,2.85,-0.75,-6.72
3,9,283,233,-169,3885,-0.07,0.72,26.64,2.33,-1.69,38.85,-4.47,0.33,95.28,2.94,-0.62,-4.34
6,-4,291,191,-199,3797,-0.02,0.62,25.75,1.91,-1.99,37.97,-4.46,0.33,95.18,2.88,-0.42,-5.95
0,-6,346,57,-444,3883,-0.02,0.52,25.29,0.57,-4.44,38.83,-4.47,0.33,95.08,2.96,-0.36,-11.10
-6,-5,357,22,-524,3923,-0.06,0.44,24.93,0.22,-5.24,39.23,-4.49,0.34,94.98,3.06,-0.34,-12.39
-2,0,386,-55,-554,3915,-0.06,0.39,24.80,-0.55,-5.54,39.15,-4.51,0.35,94.88,3.02,-0.39,-14.99
-8,1,386,-54,-532,3939,-0.10,0.36,24.67,-0.54,-5.32,39.39,-4.53,0.36,94.78,3.13,-0.40,-15.11
-6,-1,456,63,-407,3891,-0.13,0.32,24.99,0.63,-4.07,38.91,-4.54,0.36,94.68,3.12,-0.35,-20.00
0,-5,501,12,-323,3904,-0.12,0.26,25.54,0.12,-3.23,39.04,-4.55,0.35,94.58,3.05,-0.28,-20.00
-11,3,598,106,-349,3960,-0.17,0.25,26.64,1.06,-3.49,39.60,-4.55,0.34,94.47,3.21,-0.36,-20.00
-7,19,638,106,-372,3780,-0.20,0.34,27.86,1.06,-3.72,37.80,-4.56,0.33,94.36,3.17,-0.59,-20.00
-1,0,747,5,-229,3880,-0.18,0.31,29.63,0.05,-2.29,38.80,-4.54,0.34,94.25,3.09,-0.35,-20.00
-10,4,772,46,-352,3993,-0.23,0.30,31.38,0.46,-3.52,39.93,-4.55,0.33,94.12,3.22,-0.39,-20.00
-4,0,843,12,-287,3905,-0.23,0.27,33.38,0.12,-2.87,39.05,-4.54,0.33,93.99,3.14,-0.33,-20.00
-4,11,876,49,-441,3943,-0.23,0.31,35.39,0.49,-4.41,39.43,-4.56,0.33,93.85,3.15,-0.48,-20.00
-21,4,1047,12,-473,3927,-0.34,0.30,38.24,0.12,-4.73,39.27,-4.57,0.34,93.69,3.41,-0.40,-20.00
-10,5,1089,24,-372,3891,-0.36,0.30,41.06,0.24,-3.72,38.91,-4.59,0.35,93.53,3.30,-0.41,-20.00
-12,13,1152,6,-385,3885,-0.40,0.35,43.98,0.06,-3.85,38.85,-4.61,0.35,93.36,3.35,-0.53,-20.00
-19,3,1139,-69,-373,3953,-0.48,0.34,46.53,-0.69,-3.73,39.53,-4.62,0.38,93.17,3.47,-0.43,-20.00
-9,9,1043,-2,-313,3867,-0.48,0.36,48.24,-0.02,-3.13,38.67,-4.62,0.38,92.98,3.36,-0.50,-20.00
-12,5,1018,-101,-287,3859,-0.51,0.35,49.62,-1.01,-2.87,38.59,-4.62,0.42,92.78,3.40,-0.48,-20.00
-21,2,937,-92,-196,3818,-0.59,0.33,50.38,-0.92,-1.96,38.18,-4.60,0.44,92.58,3.53,-0.45,-20.00
0,14,927,-96,-232,3879,-0.53,0.38,50.99,-0.96,-2.32,38.79,-4.59,0.47,92.38,3.25,-0.63,-20.00
-12,0,910,-97,-336,3887,-0.55,0.34,51.45,-0.97,-3.36,38.87,-4.60,0.51,92.17,3.40,-0.48,-20.00
-1,4,912,-92,-399,3921,-0.50,0.33,51.86,-0.92,-3.99,39.21,-4.61,0.53,91.96,3.26,-0.54,-20.00
-8,8,941,-140,-472,3971,-0.50,0.35,52.42,-1.40,-4.72,39.71,-4.63,0.56,91.76,3.35,-0.61,-20.00
-13,1,947,-99,-454,3874,-0.53,0.32,52.95,-0.99,-4.54,38.74,-4.64,0.59,91.55,3.44,-0.53,-20.00
-15,-4,860,-71,-372,3940,-0.57,0.26,52.90,-0.71,-3.72,39.40,-4.66,0.62,91.33,3.49,-0.47,-20.00
-12,-7,822,-125,-330,3870,-0.58,0.19,52.63,-1.25,-3.30,38.70,-4.66,0.65,91.12,3.46,-0.43,-20.00
-23,-8,595,-34,-308,3881,-0.66,0.13,50.99,-0.34,-3.08,38.81,-4.65,0.66,90.92,3.62,-0.39,-4.60
3,15,527,-60,-289,4019,-0.58,0.21,49.11,-0.60,-2.89,40.19,-4.63,0.68,90.73,3.26,-0.71,-0.81
-10,0,387,12,-188,3827,-0.58,0.18,46.56,0.12,-1.88,38.27,-4.62,0.69,90.54,3.41,-0.53,8.36
-15,2,373,43,-190,3873,-0.62,0.18,44.18,0.43,-1.90,38.73,-4.60,0.69,90.36,3.47,-0.55,7.05
3,4,304,-85,-279,3899,-0.54,0.18,41.62,-0.85,-2.79,38.99,-4.59,0.72,90.20,3.21,-0.60,10.19
-9,-5,305,-11,-259,3865,-0.54,0.14,39.31,-0.11,-2.59,38.65,-4.58,0.72,90.04,3.35,-0.47,7.69
-6,-4,290,-36,-295,3923,-0.52,0.10,37.15,-0.36,-2.95,39.23,-4.56,0.72,89.89,3.30,-0.47,6.68
-2,3,279,-48,-306,3957,-0.48,0.11,35.14,-0.48,-3.06,39.57,-4.54,0.73,89.75,3.22,-0.56,5.49
2,11,290,-48,-331,3925,-0.42,0.16,33.39,-0.48,-3.31,39.25,-4.56,0.74,89.62,3.16,-0.69,2.72
-5,1,288,-23,-327,3930,-0.41,0.15,31.81,-0.23,-3.27,39.30,-4.57,0.73,89.49,3.24,-0.56,1.23
-4,2,293,-39,-378,3903,-0.39,0.15,30.42,-0.39,-3.78,39.03,-4.59,0.74,89.37,3.24,-0.57,-0.66
0,5,302,-62,-426,3885,-0.35,0.17,29.22,-0.62,-4.26,38.85,-4.61,0.75,89.25,3.19,-0.62,-2.68
-3,6,304,-35,-362,3868,-0.34,0.19,28.15,-0.35,-3.62,38.68,-4.62,0.76,89.14,3.23,-0.65,-3.97
0,3,330,-35,-437,3884,-0.30,0.19,27.35,-0.35,-4.37,38.84,-4.64,0.76,89.03,3.19,-0.62,-7.01
2,0,400,-16,-308,3957,-0.26,0.17,27.05,-0.16,-3.08,39.57,-4.63,0.76,88.93,3.14,-0.57,-13.25
-10,-9,403,0,-302,3852,-0.29,0.09,26.81,0.00,-3.02,38.52,-4.63,0.75,88.82,3.30,-0.43,-13.75
-7,-4,442,8,-405,3929,-0.31,0.06,26.82,0.08,-4.05,39.29,-4.65,0.75,88.71,3.28,-0.47,-17.03
-15,18,444,-47,-343,3936,-0.37,0.16,26.85,-0.47,-3.43,39.36,-4.66,0.75,88.61,3.41,-0.78,-17.16
-8,15,514,21,-317,3985,-0.38,0.24,27.30,0.21,-3.17,39.85,-4.66,0.74,88.50,3.33,-0.77,-20.00
-1,7,542,60,-320,3888,-0.35,0.26,27.88,0.60,-3.20,38.88,-4.66,0.73,88.39,3.23,-0.67,-20.00
-6,6,653,64,-317,3901,-0.35,0.27,29.07,0.64,-3.17,39.01,-4.66,0.73,88.27,3.29,-0.66,-20.00
-2,4,677,64,-258,3908,-0.33,0.27,30.29,0.64,-2.58,39.08,-4.65,0.72,88.15,3.23,-0.63,-20.00
-19,-3,711,-65,-294,3888,-0.41,0.22,31.60,-0.65,-2.94,38.88,-4.64,0.74,88.02,3.46,-0.55,-20.00
-15,6,690,-87,-311,3873,-0.46,0.24,32.65,-0.87,-3.11,38.73,-4.64,0.77,87.89,3.43,-0.68,-20.00
-3,2,638,-36,-313,3918,-0.43,0.22,33.28,-0.36,-3.13,39.18,-4.63,0.77,87.76,3.27,-0.62,-20.00
-11,2,622,-139,-251,3966,-0.46,0.21,33.74,-1.39,-2.51,39.66,-4.62,0.79,87.63,3.37,-0.64,-20.00
-8,8,557,-168,-201,3929,-0.46,0.24,33.77,-1.68,-2.01,39.29,-4.61,0.82,87.49,3.32,-0.73,-19.31
-16,-9,554,-102,-176,3877,-0.51,0.16,33.77,-1.02,-1.76,38.77,-4.59,0.84,87.36,3.43,-0.51,-19.04
-4,1,566,-67,-180,3957,-0.49,0.15,33.85,-0.67,-1.80,39.57,-4.57,0.85,87.22,3.26,-0.63,-19.96
-3,10,556,-70,-223,3893,-0.45,0.20,33.85,-0.70,-2.23,38.93,-4.55,0.86,87.09,3.23,-0.77,-19.10
-8,16,616,-23,-300,3861,-0.46,0.28,34.22,-0.23,-3.00,38.61,-4.55,0.86,86.95,3.29,-0.87,-20.00
8,11,644,0,-335,3994,-0.36,0.32,34.73,0.00,-3.35,39.94,-4.55,0.85,86.81,3.06,-0.82,-20.00
-5,22,696,46,-391,3930,-0.36,0.42,35.50,0.46,-3.91,39.30,-4.56,0.85,86.67,3.22,-0.99,-20.00
-2,18,714,33,-375,3921,-0.33,0.49,36.31,0.33,-3.75,39.21,-4.57,0.85,86.53,3.18,-0.97,-20.00
-24,5,736,18,-361,3853,-0.45,0.47,37.17,0.18,-3.61,38.53,-4.58,0.85,86.38,3.49,-0.81,-20.00
1,5,730,87,-437,3981,-0.40,0.45,37.90,0.87,-4.37,39.81,-4.59,0.85,86.23,3.18,-0.80,-20.00
-6,12,692,-30,-304,3929,-0.39,0.48,38.33,-0.30,-3.04,39.29,-4.59,0.84,86.07,3.26,-0.90,-20.00
-9,0,669,75,-327,3848,-0.41,0.43,38.58,0.75,-3.27,38.48,-4.59,0.84,85.92,3.30,-0.73,-20.00
-20,8,625,11,-212,3905,-0.49,0.44,38.54,0.11,-2.12,39.05,-4.57,0.84,85.77,3.46,-0.83,-19.87
-8,10,635,70,-294,3906,-0.49,0.45,38.56,0.70,-2.94,39.06,-4.57,0.84,85.61,3.31,-0.86,-20.00
-11,14,607,-125,-124,3921,-0.51,0.49,38.40,-1.25,-1.24,39.21,-4.55,0.86,85.46,3.34,-0.94,-18.45
-20,5,591,-83,-296,3844,-0.58,0.48,38.17,-0.83,-2.96,38.44,-4.55,0.89,85.31,3.48,-0.84,-17.33
-9,-15,524,-125,-218,3950,-0.58,0.34,37.55,-1.25,-2.18,39.50,-4.53,0.91,85.16,3.33,-0.56,-12.30
-6,-2,436,-106,-311,3938,-0.56,0.29,36.45,-1.06,-3.11,39.38,-4.53,0.94,85.01,3.29,-0.72,-5.99
1,13,288,-70,-315,3930,-0.49,0.34,34.56,-0.70,-3.15,39.30,-4.54,0.97,84.87,3.19,-0.94,4.56
-1,7,268,-53,-311,3924,-0.45,0.35,32.74,-0.53,-3.11,39.24,-4.54,0.96,84.74,3.19,-0.86,4.34
2,5,259,-22,-322,3939,-0.39,0.35,31.05,-0.22,-3.22,39.39,-4.54,0.96,84.62,3.14,-0.83,3.32
-6,8,269,-21,-260,3858,-0.39,0.36,29.58,-0.21,-2.60,38.58,-4.53,0.96,84.50,3.22,-0.87,0.93
0,2,259,-6,-355,3924,-0.35,0.34,28.21,-0.06,-3.55,39.24,-4.54,0.95,84.39,3.14,-0.79,0.33
-4,-1,280,-16,-310,3866,-0.34,0.30,27.09,-0.16,-3.10,38.66,-4.54,0.94,84.28,3.18,-0.73,-2.62
1,0,362,-27,-334,3951,-0.30,0.27,26.59,-0.27,-3.34,39.51,-4.55,0.94,84.18,3.11,-0.73,-10.09
-2,3,377,-44,-364,3854,-0.28,0.26,26.23,-0.44,-3.64,38.54,-4.56,0.94,84.07,3.15,-0.76,-11.73
1,-7,453,-51,-337,3903,-0.25,0.19,26.37,-0.51,-3.37,39.03,-4.58,0.94,83.97,3.11,-0.62,-18.01
-5,-12,463,-46,-282,3867,-0.25,0.10,26.56,-0.46,-2.82,38.67,-4.56,0.94,83.86,3.18,-0.52,-18.65
-28,-15,538,37,-370,3928,-0.40,-0.00,27.19,0.37,-3.70,39.28,-4.57,0.93,83.75,3.51,-0.44,-20.00
-35,-16,588,-49,-387,3986,-0.57,-0.10,28.05,-0.49,-3.87,39.86,-4.59,0.94,83.64,3.68,-0.39,-20.00
-31,-28,760,45,-380,3991,-0.70,-0.26,29.88,0.45,-3.80,39.91,-4.60,0.93,83.52,3.69,-0.17,-20.00
-64,-41,791,-29,-289,3877,-1.02,-0.49,31.72,-0.29,-2.89,38.77,-4.59,0.92,83.40,4.21,0.08,-20.00
-119,-98,838,-9,-415,3992,-1.65,-1.03,33.66,-0.09,-4.15,39.92,-4.61,0.92,83.26,5.13,0.98,-20.00
-106,-82,836,23,-394,3935,-2.13,-1.43,35.39,0.23,-3.94,39.35,-4.63,0.91,83.12,5.19,0.96,-20.00
-37,-20,771,-6,-479,3893,-2.14,-1.41,36.56,-0.06,-4.79,38.93,-4.65,0.91,82.97,4.39,0.22,-20.00
-33,-13,747,-50,-432,3853,-2.13,-1.35,37.46,-0.50,-4.32,38.53,-4.68,0.92,82.82,4.36,0.10,-20.00
-7,-8,708,-7,-361,3931,-1.96,-1.26,38.03,-0.07,-3.61,39.31,-4.69,0.91,82.67,3.99,0.01,-20.00
-12,-1,681,-77,-352,3905,-1.84,-1.14,38.38,-0.77,-3.52,39.05,-4.72,0.92,82.52,4.01,-0.13,-20.00
-15,-1,630,-154,-285,3976,-1.74,-1.03,38.39,-1.54,-2.85,39.76,-4.71,0.95,82.37,4.01,-0.19,-20.00
-1,7,608,-138,-276,3919,-1.58,-0.89,38.26,-1.38,-2.76,39.19,-4.71,0.97,82.21,3.77,-0.36,-18.40
1,9,534,-113,-260,3937,-1.41,-0.74,37.69,-1.13,-2.60,39.37,-4.69,0.99,82.06,3.67,-0.46,-12.72
-3,9,501,-121,-330,3906,-1.29,-0.62,36.98,-1.21,-3.30,39.06,-4.70,1.02,81.91,3.67,-0.53,-10.66
-4,8,451,-48,-320,3934,-1.18,-0.50,36.03,-0.48,-3.20,39.34,-4.70,1.01,81.77,3.64,-0.56,-7.42
-5,3,444,-34,-325,3898,-1.10,-0.44,35.14,-0.34,-3.25,38.98,-4.70,1.01,81.63,3.62,-0.52,-7.76
-9,25,463,-3,-290,3827,-1.04,-0.24,34.45,-0.03,-2.90,38.27,-4.70,1.00,81.49,3.64,-0.86,-10.09
-2,-3,467,61,-345,3971,-0.95,-0.23,33.85,0.61,-3.45,39.71,-4.70,0.99,81.36,3.52,-0.52,-11.04
-8,13,494,29,-366,3901,-0.90,-0.13,33.48,0.29,-3.66,39.01,-4.71,0.98,81.22,3.58,-0.75,-13.71
-9,5,476,9,-410,3879,-0.87,-0.09,33.03,0.09,-4.10,38.79,-4.73,0.98,81.09,3.58,-0.67,-12.65
-10,5,445,14,-385,3886,-0.84,-0.05,32.45,0.14,-3.85,38.86,-4.74,0.98,80.96,3.59,-0.69,-10.63
-10,9,439,45,-375,3869,-0.82,0.01,31.88,0.45,-3.75,38.69,-4.75,0.97,80.84,3.59,-0.75,-10.71
0,2,397,-81,-327,3892,-0.74,0.02,31.11,-0.81,-3.27,38.92,-4.75,1.00,80.71,3.44,-0.69,-7.95
-6,1,390,-38,-329,3881,-0.70,0.03,30.38,-0.38,-3.29,38.81,-4.76,0.99,80.59,3.50,-0.68,-8.13
-6,4,430,-11,-292,3865,-0.67,0.05,29.97,-0.11,-2.92,38.65,-4.75,0.99,80.47,3.48,-0.72,-11.94
-2,10,447,-18,-348,3919,-0.61,0.10,29.70,-0.18,-3.48,39.19,-4.76,0.98,80.35,3.42,-0.81,-13.66
-5,9,504,24,-405,3924,-0.58,0.15,29.80,0.24,-4.05,39.24,-4.77,0.98,80.24,3.45,-0.81,-18.37
-1,16,512,12,-350,3903,-0.53,0.23,29.94,0.12,-3.50,39.03,-4.78,0.97,80.12,3.38,-0.93,-18.88
-6,16,593,48,-374,3889,-0.51,0.31,30.57,0.48,-3.74,38.89,-4.78,0.97,79.99,3.44,-0.95,-20.00
-2,11,638,75,-427,3858,-0.47,0.34,31.40,0.75,-4.27,38.58,-4.79,0.96,79.87,3.38,-0.91,-20.00
-13,9,714,0,-431,3914,-0.51,0.36,32.62,0.00,-4.31,39.14,-4.81,0.97,79.74,3.54,-0.89,-20.00
-17,7,736,4,-399,3916,-0.56,0.37,33.84,0.04,-3.99,39.16,-4.82,0.97,79.61,3.61,-0.87,-20.00
-20,5,780,-12,-393,3910,-0.63,0.36,35.22,-0.12,-3.93,39.10,-4.84,0.97,79.47,3.69,-0.85,-20.00
-21,7,784,8,-436,3870,-0.69,0.37,36.48,0.08,-4.36,38.70,-4.85,0.97,79.32,3.74,-0.88,-20.00
-6,13,793,-94,-332,3888,-0.66,0.41,37.67,-0.94,-3.32,38.88,-4.85,1.00,79.17,3.55,-0.99,-20.00
-8,2,795,-39,-271,3847,-0.64,0.38,38.75,-0.39,-2.71,38.47,-4.84,1.01,79.02,3.55,-0.85,-20.00
-3,21,840,-42,-265,3911,-0.60,0.47,40.00,-0.42,-2.65,39.11,-4.82,1.02,78.86,3.46,-1.11,-20.00
-3,15,869,20,-299,3908,-0.55,0.52,41.30,0.20,-2.99,39.08,-4.81,1.02,78.69,3.44,-1.06,-20.00
-10,6,906,17,-364,3927,-0.56,0.50,42.70,0.17,-3.64,39.27,-4.82,1.02,78.52,3.53,-0.95,-20.00
-12,9,905,31,-345,3910,-0.58,0.51,43.95,0.31,-3.45,39.10,-4.82,1.01,78.35,3.56,-0.98,-20.00
-17,14,865,59,-409,3877,-0.62,0.54,44.83,0.59,-4.09,38.77,-4.83,1.02,78.17,3.65,-1.06,-20.00
-5,17,848,-1,-432,3949,-0.59,0.59,45.52,-0.01,-4.32,39.49,-4.84,1.02,77.99,3.50,-1.12,-20.00
-5,10,846,-4,-423,3943,-0.56,0.59,46.13,-0.04,-4.23,39.43,-4.86,1.03,77.80,3.50,-1.04,-20.00
-12,14,849,52,-450,3868,-0.58,0.62,46.69,0.52,-4.50,38.68,-4.87,1.03,77.62,3.59,-1.10,-20.00
-8,5,873,-7,-376,3949,-0.57,0.59,47.35,-0.07,-3.76,39.49,-4.88,1.04,77.43,3.55,-0.99,-20.00
-13,9,873,-50,-386,3871,-0.59,0.58,47.94,-0.50,-3.86,38.71,-4.89,1.05,77.24,3.63,-1.04,-20.00
-7,17,915,-91,-311,3842,-0.58,0.63,48.73,-0.91,-3.11,38.42,-4.88,1.08,77.05,3.54,-1.18,-20.00
-15,11,942,-85,-270,3892,-0.61,0.63,49.60,-0.85,-2.70,38.92,-4.86,1.11,76.85,3.64,-1.12,-20.00
-3,18,1066,-84,-313,3913,-0.57,0.68,51.14,-0.84,-3.13,39.13,-4.84,1.13,76.64,3.46,-1.24,-20.00
-10,23,1108,-82,-277,3891,-0.57,0.75,52.79,-0.82,-2.77,38.91,-4.82,1.16,76.43,3.54,-1.34,-20.00
-23,17,1174,-152,-255,3851,-0.65,0.78,54.67,-1.52,-2.55,38.51,-4.81,1.19,76.21,3.72,-1.31,-20.00
-5,23,1177,-175,-317,3945,-0.62,0.84,56.38,-1.75,-3.17,39.45,-4.80,1.23,75.99,3.48,-1.43,-20.00
-22,11,1141,-155,-354,3899,-0.69,0.83,57.71,-1.55,-3.54,38.99,-4.81,1.27,75.76,3.72,-1.31,-20.00
-14,21,1118,-164,-349,3940,-0.71,0.87,58.75,-1.64,-3.49,39.40,-4.81,1.31,75.53,3.63,-1.47,-20.00
-21,10,1028,-180,-329,3852,-0.77,0.84,59.15,-1.80,-3.29,38.52,-4.81,1.35,75.29,3.74,-1.36,-20.00
-11,17,1008,-105,-386,3906,-0.76,0.86,59.38,-1.05,-3.86,39.06,-4.82,1.38,75.06,3.62,-1.47,-20.00
-16,4,885,-112,-297,3898,-0.78,0.80,58.84,-1.12,-2.97,38.98,-4.80,1.41,74.82,3.68,-1.31,-19.40
-5,19,851,-91,-411,3924,-0.73,0.84,58.15,-0.91,-4.11,39.24,-4.82,1.43,74.59,3.54,-1.52,-17.24
0,19,742,-180,-293,3889,-0.66,0.87,56.86,-1.80,-2.93,38.89,-4.81,1.47,74.36,3.44,-1.56,-9.35
2,26,713,-163,-318,3911,-0.58,0.94,55.52,-1.63,-3.18,39.11,-4.80,1.51,74.14,3.38,-1.69,-8.29
-8,27,711,-45,-332,3885,-0.57,1.01,54.31,-0.45,-3.32,38.85,-4.80,1.52,73.93,3.50,-1.74,-9.38
9,46,729,-131,-253,3958,-0.46,1.19,53.33,-1.31,-2.53,39.58,-4.78,1.55,73.71,3.24,-2.06,-11.93
-8,19,829,-23,-209,3886,-0.46,1.19,53.05,-0.23,-2.09,38.86,-4.76,1.56,73.50,3.43,-1.74,-20.00
-9,21,870,62,-342,3952,-0.47,1.20,53.05,0.62,-3.42,39.52,-4.76,1.56,73.29,3.44,-1.77,-20.00
-25,18,921,-19,-244,3936,-0.58,1.19,53.36,-0.19,-2.44,39.36,-4.74,1.57,73.08,3.66,-1.74,-20.00
-12,22,899,-64,-319,3972,-0.59,1.20,53.51,-0.64,-3.19,39.72,-4.73,1.57,72.86,3.51,-1.80,-20.00
-19,10,858,-131,-268,3837,-0.65,1.14,53.39,-1.31,-2.68,38.37,-4.71,1.61,72.65,3.60,-1.65,-20.00
-15,9,843,-98,-262,3945,-0.67,1.08,53.20,-0.98,-2.62,39.45,-4.69,1.62,72.44,3.55,-1.62,-20.00
-10,8,719,-78,-285,3882,-0.67,1.02,52.26,-0.78,-2.85,38.82,-4.68,1.63,72.23,3.48,-1.59,-12.07
-8,5,658,-53,-327,3891,-0.65,0.95,51.05,-0.53,-3.27,38.91,-4.68,1.63,72.03,3.45,-1.53,-8.17
-9,-1,515,-104,-336,3935,-0.64,0.85,49.09,-1.04,-3.36,39.35,-4.69,1.64,71.83,3.47,-1.42,1.88
-12,2,467,-84,-316,3905,-0.65,0.78,47.03,-0.84,-3.16,39.05,-4.68,1.64,71.64,3.50,-1.43,3.78
-8,3,354,-112,-365,3921,-0.63,0.72,44.48,-1.12,-3.65,39.21,-4.70,1.66,71.47,3.46,-1.43,10.68
-6,-4,324,-93,-349,3904,-0.61,0.62,42.01,-0.93,-3.49,39.04,-4.71,1.67,71.30,3.43,-1.31,10.62
-3,5,286,-79,-290,3878,-0.56,0.59,39.56,-0.79,-2.90,38.78,-4.70,1.67,71.14,3.37,-1.40,11.25
-6,4,269,-61,-281,3916,-0.54,0.56,37.24,-0.61,-2.81,39.16,-4.68,1.67,70.99,3.39,-1.38,10.25
-1,10,246,-87,-365,3964,-0.50,0.56,35.02,-0.87,-3.65,39.64,-4.70,1.67,70.86,3.32,-1.45,9.86
-2,1,224,-98,-341,3917,-0.46,0.51,32.88,-0.98,-3.41,39.17,-4.71,1.67,70.72,3.32,-1.33,9.48
-2,-2,118,-58,-353,3935,-0.42,0.45,30.31,-0.58,-3.53,39.35,-4.72,1.67,70.60,3.31,-1.26,15.75
-5,-5,107,-43,-472,3901,-0.41,0.37,27.93,-0.43,-4.72,39.01,-4.73,1.67,70.49,3.35,-1.20,14.17
-1,-5,130,-32,-504,3868,-0.38,0.31,25.93,-0.32,-5.04,38.68,-4.75,1.67,70.39,3.30,-1.17,10.11
0,0,146,-88,-466,3940,-0.34,0.27,24.23,-0.88,-4.66,39.40,-4.76,1.68,70.29,3.28,-1.22,6.96
-10,1,203,6,-300,3902,-0.37,0.25,23.05,0.06,-3.00,39.02,-4.76,1.67,70.20,3.41,-1.22,0.89
-9,6,233,-34,-290,3885,-0.39,0.26,22.16,-0.34,-2.90,38.85,-4.75,1.66,70.11,3.40,-1.28,-2.58
5,17,340,-21,-300,3906,-0.32,0.34,22.02,-0.21,-3.00,39.06,-4.74,1.65,70.03,3.20,-1.43,-11.79
0,16,370,-13,-305,3886,-0.28,0.41,22.08,-0.13,-3.05,38.86,-4.74,1.64,69.94,3.24,-1.44,-14.27
2,15,438,-35,-379,3930,-0.24,0.46,22.54,-0.35,-3.79,39.30,-4.75,1.64,69.85,3.21,-1.45,-19.53
-4,10,455,-9,-433,3880,-0.24,0.47,23.06,-0.09,-4.33,38.80,-4.76,1.63,69.76,3.29,-1.39,-20.00
2,13,485,36,-447,3905,-0.21,0.50,23.71,0.36,-4.47,39.05,-4.77,1.63,69.66,3.21,-1.44,-20.00
-4,14,503,-3,-423,3929,-0.21,0.54,24.41,-0.03,-4.23,39.29,-4.78,1.63,69.57,3.29,-1.46,-20.00
-6,6,481,-12,-358,3902,-0.23,0.52,24.90,-0.12,-3.58,39.02,-4.78,1.62,69.47,3.32,-1.35,-20.00
-7,-1,467,26,-363,3868,-0.25,0.46,25.26,0.26,-3.63,38.68,-4.79,1.61,69.37,3.34,-1.24,-19.06
-6,7,411,12,-342,3943,-0.26,0.46,25.24,0.12,-3.42,39.43,-4.79,1.60,69.27,3.34,-1.33,-14.33
-4,-1,395,-49,-327,3888,-0.26,0.41,25.13,-0.49,-3.27,38.88,-4.78,1.59,69.17,3.31,-1.21,-13.08
3,6,370,-22,-279,3925,-0.21,0.40,24.87,-0.22,-2.79,39.25,-4.77,1.59,69.07,3.20,-1.29,-11.23
-5,6,388,9,-293,3873,-0.22,0.40,24.75,0.09,-2.93,38.73,-4.77,1.58,68.97,3.30,-1.28,-12.87
-6,16,482,54,-372,3845,-0.24,0.46,25.22,0.54,-3.72,38.45,-4.77,1.57,68.87,3.32,-1.42,-20.00
-4,21,516,31,-424,3934,-0.24,0.54,25.84,0.31,-4.24,39.34,-4.78,1.57,68.77,3.30,-1.51,-20.00
-25,18,577,60,-485,3833,-0.37,0.60,26.78,0.60,-4.85,38.33,-4.79,1.57,68.66,3.61,-1.49,-20.00
-11,10,594,109,-522,3936,-0.40,0.60,27.72,1.09,-5.22,39.36,-4.80,1.57,68.55,3.46,-1.40,-20.00
1,16,637,20,-454,3880,-0.35,0.63,28.84,0.20,-4.54,38.80,-4.81,1.56,68.44,3.31,-1.48,-20.00
-21,9,671,125,-452,3873,-0.44,0.63,30.05,1.25,-4.52,38.73,-4.82,1.56,68.32,3.61,-1.39,-20.00
-20,0,766,76,-483,3900,-0.52,0.56,31.71,0.76,-4.83,39.00,-4.83,1.56,68.19,3.64,-1.26,-20.00
-24,2,796,79,-517,3836,-0.62,0.52,33.40,0.79,-5.17,38.36,-4.84,1.56,68.06,3.73,-1.27,-20.00
-18,6,919,89,-420,3896,-0.66,0.50,35.66,0.89,-4.20,38.96,-4.85,1.56,67.92,3.69,-1.31,-20.00
-3,13,945,-8,-411,3941,-0.62,0.53,37.86,-0.08,-4.11,39.41,-4.86,1.56,67.76,3.50,-1.40,-20.00
-10,14,1011,-70,-390,3888,-0.62,0.57,40.24,-0.70,-3.90,38.88,-4.87,1.56,67.61,3.59,-1.43,-20.00
-17,4,1011,-91,-341,3909,-0.66,0.53,42.39,-0.91,-3.41,39.09,-4.88,1.56,67.44,3.69,-1.30,-20.00
-6,16,999,-201,-192,3911,-0.63,0.58,44.24,-2.01,-1.92,39.11,-4.86,1.59,67.26,3.54,-1.48,-20.00
-8,22,1001,-201,-331,3894,-0.61,0.65,45.92,-2.01,-3.31,38.94,-4.86,1.63,67.08,3.55,-1.60,-20.00
4,28,998,-187,-285,3959,-0.53,0.76,47.42,-1.87,-2.85,39.59,-4.84,1.66,66.89,3.37,-1.74,-20.00
-12,16,1002,-114,-230,3858,-0.55,0.78,48.79,-1.14,-2.30,38.58,-4.82,1.68,66.69,3.55,-1.62,-20.00
1,26,1038,-109,-288,3926,-0.49,0.86,50.24,-1.09,-2.88,39.26,-4.80,1.70,66.49,3.36,-1.79,-20.00
-22,12,1028,-126,-304,3865,-0.57,0.85,51.49,-1.26,-3.04,38.65,-4.78,1.73,66.29,3.65,-1.63,-20.00
-14,18,953,-178,-336,3869,-0.60,0.87,52.15,-1.78,-3.36,38.69,-4.78,1.77,66.08,3.57,-1.74,-20.00
-19,10,938,-172,-347,3908,-0.66,0.85,52.66,-1.72,-3.47,39.08,-4.78,1.81,65.87,3.65,-1.66,-20.00
-21,1,836,-95,-403,3918,-0.72,0.77,52.49,-0.95,-4.03,39.18,-4.80,1.82,65.66,3.71,-1.53,-20.00
-34,8,798,-192,-423,3854,-0.85,0.74,52.11,-1.92,-4.23,38.54,-4.81,1.85,65.45,3.93,-1.62,-18.32
-9,0,676,-190,-334,3915,-0.82,0.67,51.02,-1.90,-3.34,39.15,-4.81,1.89,65.25,3.62,-1.52,-9.12
-4,5,616,-196,-310,3975,-0.77,0.63,49.68,-1.96,-3.10,39.75,-4.80,1.93,65.05,3.53,-1.59,-5.44
-2,15,494,-148,-340,3926,-0.70,0.66,47.72,-1.48,-3.40,39.26,-4.80,1.96,64.86,3.48,-1.74,2.84
-19,3,467,-120,-281,3823,-0.75,0.61,45.80,-1.20,-2.81,38.23,-4.78,1.97,64.68,3.69,-1.59,3.11
-4,11,352,-141,-276,3896,-0.70,0.62,43.37,-1.41,-2.76,38.96,-4.76,1.99,64.51,3.48,-1.70,10.29
-4,8,331,-138,-266,3883,-0.65,0.60,41.05,-1.38,-2.66,38.83,-4.74,2.01,64.34,3.44,-1.67,9.63
4,11,263,-94,-276,3898,-0.56,0.61,38.55,-0.94,-2.76,38.98,-4.72,2.01,64.19,3.30,-1.71,12.76
0,5,241,-96,-320,3892,-0.51,0.58,36.16,-0.96,-3.20,38.92,-4.72,2.01,64.04,3.32,-1.62,12.11
0,2,173,-94,-282,3902,-0.46,0.53,33.60,-0.94,-2.82,39.02,-4.70,2.01,63.91,3.29,-1.57,15.17
4,4,167,-73,-323,3888,-0.39,0.51,31.26,-0.73,-3.23,38.88,-4.70,2.00,63.79,3.21,-1.58,13.21
-3,2,153,-112,-286,3926,-0.37,0.47,29.07,-1.12,-2.86,39.26,-4.68,2.00,63.67,3.28,-1.54,12.09
-3,4,151,-76,-339,3903,-0.35,0.44,27.08,-0.76,-3.39,39.03,-4.69,1.99,63.56,3.27,-1.55,10.16
0,0,141,-101,-327,3897,-0.31,0.40,25.24,-1.01,-3.27,38.97,-4.69,1.99,63.46,3.22,-1.48,9.06
1,1,140,-83,-331,3908,-0.28,0.37,23.57,-0.83,-3.31,39.08,-4.69,1.98,63.37,3.20,-1.47,7.39
-1,7,153,-22,-340,3929,-0.25,0.37,22.14,-0.22,-3.40,39.29,-4.69,1.97,63.28,3.21,-1.54,4.79
-2,8,145,-22,-367,3958,-0.24,0.38,20.81,-0.22,-3.67,39.58,-4.70,1.96,63.20,3.22,-1.55,4.07
-2,1,163,23,-354,3884,-0.23,0.35,19.73,0.23,-3.54,38.84,-4.70,1.95,63.12,3.22,-1.44,1.40
0,0,163,-8,-369,3904,-0.21,0.32,18.75,-0.08,-3.69,39.04,-4.70,1.94,63.04,3.19,-1.41,0.37
-2,-4,168,-49,-403,3914,-0.20,0.26,17.90,-0.49,-4.03,39.14,-4.71,1.93,62.97,3.22,-1.34,-0.95
-5,4,179,-92,-367,3928,-0.21,0.26,17.20,-0.92,-3.67,39.28,-4.73,1.93,62.90,3.26,-1.43,-2.61
10,11,214,-105,-312,3948,-0.13,0.30,16.79,-1.05,-3.12,39.48,-4.72,1.92,62.84,3.05,-1.52,-6.01
-1,6,281,-56,-278,3928,-0.12,0.31,16.82,-0.56,-2.78,39.28,-4.70,1.91,62.77,3.17,-1.46,-11.65
10,27,482,-93,-245,3959,-0.05,0.44,18.08,-0.93,-2.45,39.59,-4.69,1.91,62.70,2.99,-1.76,-20.00
-6,11,537,-107,-298,3901,-0.08,0.46,19.55,-1.07,-2.98,39.01,-4.67,1.90,62.62,3.19,-1.58,-20.00
-6,23,677,-90,-354,3869,-0.11,0.56,21.72,-0.90,-3.54,38.69,-4.68,1.90,62.53,3.20,-1.76,-20.00
0,35,708,-155,-348,3892,-0.10,0.72,23.87,-1.55,-3.48,38.92,-4.69,1.92,62.44,3.14,-1.98,-20.00
-2,16,743,0,-420,3939,-0.10,0.74,26.01,0.00,-4.20,39.39,-4.70,1.92,62.34,3.17,-1.76,-20.00
1,21,729,28,-427,3924,-0.08,0.80,27.86,0.28,-4.27,39.24,-4.71,1.92,62.23,3.13,-1.84,-20.00
-1,20,697,-2,-468,3866,-0.08,0.84,29.33,-0.02,-4.68,38.66,-4.72,1.92,62.11,3.16,-1.85,-20.00
-9,6,692,56,-453,3916,-0.13,0.79,30.61,0.56,-4.53,39.16,-4.72,1.91,61.99,3.28,-1.66,-20.00
-6,11,664,-26,-476,3984,-0.15,0.78,31.60,-0.26,-4.76,39.84,-4.73,1.92,61.86,3.26,-1.72,-20.00
-22,-2,651,-6,-425,3861,-0.27,0.69,32.41,-0.06,-4.25,38.61,-4.74,1.92,61.73,3.50,-1.52,-20.00
2,8,629,-38,-400,3952,-0.23,0.67,33.01,-0.38,-4.00,39.52,-4.75,1.92,61.60,3.21,-1.63,-20.00
-20,2,627,-43,-389,3956,-0.33,0.61,33.53,-0.43,-3.89,39.56,-4.76,1.91,61.47,3.51,-1.54,-20.00
-6,8,642,-122,-316,3908,-0.33,0.60,34.10,-1.22,-3.16,39.08,-4.74,1.92,61.33,3.34,-1.61,-20.00
-18,-1,646,-48,-361,3891,-0.41,0.54,34.63,-0.48,-3.61,38.91,-4.75,1.91,61.20,3.51,-1.47,-20.00
-7,12,696,-139,-325,3860,-0.41,0.55,35.41,-1.39,-3.25,38.60,-4.75,1.94,61.05,3.39,-1.65,-20.00
-9,17,718,-178,-379,3848,-0.43,0.60,36.25,-1.78,-3.79,38.48,-4.76,1.97,60.91,3.42,-1.75,-20.00
-9,11,819,-193,-371,3853,-0.44,0.61,37.62,-1.93,-3.71,38.53,-4.77,2.00,60.76,3.44,-1.70,-20.00
3,20,847,-137,-332,3915,-0.38,0.67,39.02,-1.37,-3.32,39.15,-4.78,2.01,60.61,3.28,-1.84,-20.00
-18,20,908,-104,-445,3876,-0.45,0.73,40.66,-1.04,-4.45,38.76,-4.80,2.02,60.45,3.56,-1.87,-20.00
-10,20,900,-96,-455,3907,-0.46,0.78,42.08,-0.96,-4.55,39.07,-4.81,2.04,60.28,3.49,-1.90,-20.00
-26,-3,863,3,-523,3930,-0.58,0.68,43.14,0.03,-5.23,39.30,-4.82,2.04,60.11,3.73,-1.59,-20.00
-5,7,837,-38,-530,3881,-0.55,0.65,43.93,-0.38,-5.30,38.81,-4.83,2.05,59.93,3.48,-1.71,-20.00
-10,5,756,-95,-457,3916,-0.56,0.62,44.15,-0.95,-4.57,39.16,-4.85,2.06,59.76,3.55,-1.68,-20.00
-12,1,731,-19,-397,3953,-0.57,0.56,44.19,-0.19,-3.97,39.53,-4.85,2.06,59.58,3.58,-1.61,-20.00
-11,12,708,-102,-335,3948,-0.58,0.58,44.09,-1.02,-3.35,39.48,-4.85,2.06,59.41,3.57,-1.74,-18.64
-26,15,713,-74,-411,3814,-0.68,0.61,44.03,-0.74,-4.11,38.14,-4.86,2.07,59.23,3.80,-1.80,-19.11
-9,12,741,-140,-309,3900,-0.67,0.63,44.15,-1.40,-3.09,39.00,-4.84,2.08,59.05,3.57,-1.78,-20.00
-12,17,747,-148,-362,3936,-0.68,0.67,44.29,-1.48,-3.62,39.36,-4.85,2.11,58.88,3.62,-1.87,-20.00
-2,22,729,-70,-369,3927,-0.62,0.73,44.31,-0.70,-3.69,39.27,-4.86,2.11,58.70,3.48,-1.95,-20.00
-6,16,678,-87,-357,3931,-0.60,0.76,44.01,-0.87,-3.57,39.31,-4.86,2.11,58.53,3.52,-1.89,-16.10
-8,11,636,-95,-293,3946,-0.58,0.75,43.49,-0.95,-2.93,39.46,-4.84,2.11,58.35,3.53,-1.83,-13.08
-10,5,613,-46,-317,3871,-0.59,0.71,42.88,-0.46,-3.17,38.71,-4.84,2.11,58.18,3.55,-1.74,-11.76
-3,7,541,-99,-375,3866,-0.55,0.68,41.89,-0.99,-3.75,38.66,-4.85,2.11,58.02,3.46,-1.76,-6.69
-16,3,520,-87,-390,3874,-0.59,0.63,40.88,-0.87,-3.90,38.74,-4.86,2.12,57.85,3.64,-1.69,-5.98
-17,3,427,-33,-410,3917,-0.63,0.58,39.39,-0.33,-4.10,39.17,-4.86,2.12,57.70,3.67,-1.67,0.34
-1,3,401,-14,-409,3878,-0.58,0.54,37.90,-0.14,-4.09,38.78,-4.87,2.12,57.55,3.46,-1.66,0.98
0,-3,309,2,-340,3944,-0.52,0.47,36.00,0.02,-3.40,39.44,-4.87,2.11,57.40,3.43,-1.55,6.77
-5,-1,276,-92,-375,3919,-0.50,0.42,34.08,-0.92,-3.75,39.19,-4.87,2.11,57.27,3.48,-1.55,7.55
2,-1,211,-86,-337,3907,-0.44,0.37,31.96,-0.86,-3.37,39.07,-4.87,2.11,57.14,3.37,-1.53,10.82
-1,-3,175,-107,-309,3898,-0.40,0.31,29.83,-1.07,-3.09,38.98,-4.86,2.10,57.02,3.38,-1.48,11.63
-2,3,139,-137,-349,3929,-0.37,0.30,27.70,-1.37,-3.49,39.29,-4.87,2.10,56.91,3.39,-1.55,12.43
-6,0,134,-93,-313,3856,-0.37,0.27,25.74,-0.93,-3.13,38.56,-4.87,2.10,56.81,3.44,-1.50,10.79
-4,3,145,-75,-244,3932,-0.36,0.26,24.05,-0.75,-2.44,39.32,-4.85,2.10,56.71,3.40,-1.53,8.08
0,11,142,-58,-275,3926,-0.32,0.30,22.51,-0.58,-2.75,39.26,-4.84,2.09,56.62,3.32,-1.63,6.71
-3,20,162,-94,-342,3898,-0.31,0.39,21.25,-0.94,-3.42,38.98,-4.84,2.08,56.54,3.36,-1.77,3.69
-3,15,152,-95,-350,3889,-0.30,0.45,20.05,-0.95,-3.50,38.89,-4.85,2.07,56.46,3.36,-1.73,3.27
-4,15,133,-30,-377,3888,-0.29,0.49,18.86,-0.30,-3.77,38.88,-4.85,2.06,56.38,3.37,-1.74,3.63
-8,16,150,-76,-427,3948,-0.31,0.54,17.89,-0.76,-4.27,39.48,-4.86,2.06,56.31,3.43,-1.77,1.17
-11,10,189,-65,-464,3885,-0.35,0.55,17.25,-0.65,-4.64,38.85,-4.88,2.06,56.25,3.49,-1.70,-2.81
-2,10,209,-91,-451,3897,-0.32,0.55,16.80,-0.91,-4.51,38.97,-4.90,2.06,56.18,3.39,-1.71,-4.97
2,15,256,-70,-378,3943,-0.28,0.59,16.68,-0.70,-3.78,39.43,-4.90,2.05,56.11,3.33,-1.78,-9.07
-1,9,264,-70,-345,3870,-0.26,0.59,16.63,-0.70,-3.45,38.70,-4.90,2.04,56.05,3.35,-1.70,-9.81
6,9,372,-72,-346,3849,-0.20,0.58,17.23,-0.72,-3.46,38.49,-4.91,2.03,55.98,3.25,-1.69,-18.31
-7,16,400,-116,-335,3965,-0.22,0.62,17.95,-1.16,-3.35,39.65,-4.90,2.02,55.91,3.41,-1.78,-19.91
4,13,503,-33,-355,3888,-0.17,0.64,19.22,-0.33,-3.55,38.88,-4.90,2.01,55.83,3.26,-1.75,-20.00
-15,6,539,-56,-378,3958,-0.25,0.61,20.59,-0.56,-3.78,39.58,-4.91,2.01,55.75,3.52,-1.65,-20.00
-14,11,628,-51,-420,3888,-0.31,0.62,22.36,-0.51,-4.20,38.88,-4.92,2.00,55.66,3.54,-1.71,-20.00
-2,25,651,-44,-410,3918,-0.29,0.71,24.10,-0.44,-4.10,39.18,-4.93,2.00,55.57,3.40,-1.91,-20.00
-10,11,689,-75,-403,3949,-0.32,0.70,25.89,-0.75,-4.03,39.49,-4.94,2.00,55.46,3.51,-1.74,-20.00
-2,16,713,-15,-381,3917,-0.30,0.73,27.65,-0.15,-3.81,39.17,-4.94,1.99,55.35,3.41,-1.81,-20.00
-15,14,732,-38,-518,3898,-0.36,0.74,29.35,-0.38,-5.18,38.98,-4.96,2.00,55.24,3.60,-1.79,-20.00
-3,15,730,-72,-474,3907,-0.34,0.76,30.87,-0.72,-4.74,39.07,-4.97,2.00,55.11,3.46,-1.81,-20.00
-2,20,689,-134,-469,3904,-0.32,0.81,31.98,-1.34,-4.69,39.04,-4.99,2.02,54.99,3.45,-1.90,-20.00
-20,4,668,-116,-404,3882,-0.41,0.75,32.86,-1.16,-4.04,38.82,-5.00,2.03,54.86,3.71,-1.69,-20.00
-5,9,602,-97,-333,3906,-0.40,0.73,33.25,-0.97,-3.33,39.06,-4.99,2.02,54.73,3.52,-1.74,-20.00
-13,13,597,-25,-376,3840,-0.44,0.74,33.56,-0.25,-3.76,38.40,-5.00,2.02,54.59,3.63,-1.79,-19.95
-19,-1,584,-149,-333,3909,-0.51,0.66,33.77,-1.49,-3.33,39.09,-4.98,2.05,54.46,3.72,-1.61,-18.62
-2,18,592,-178,-437,3871,-0.47,0.70,34.00,-1.78,-4.37,38.71,-5.00,2.07,54.32,3.52,-1.87,-19.04
-1,23,596,-107,-508,3905,-0.43,0.77,34.24,-1.07,-5.08,39.05,-5.01,2.08,54.19,3.50,-1.96,-19.12
3,14,568,-73,-485,3956,-0.37,0.78,34.28,-0.73,-4.85,39.56,-5.02,2.09,54.05,3.43,-1.87,-16.69
-19,13,553,-81,-371,3906,-0.45,0.78,34.23,-0.81,-3.71,39.06,-5.03,2.09,53.92,3.73,-1.85,-15.46
6,8,539,-46,-394,3966,-0.37,0.75,34.09,-0.46,-3.94,39.66,-5.03,2.09,53.78,3.40,-1.78,-14.41
-5,11,487,-156,-322,3892,-0.36,0.74,33.65,-1.56,-3.22,38.92,-5.01,2.11,53.65,3.52,-1.83,-10.45
-3,10,496,-138,-345,3893,-0.34,0.73,33.31,-1.38,-3.45,38.93,-5.02,2.11,53.51,3.49,-1.81,-11.56
3,15,540,-88,-257,3908,-0.29,0.75,33.28,-0.88,-2.57,39.08,-5.00,2.11,53.38,3.38,-1.88,-15.32
-6,13,561,-66,-260,3885,-0.30,0.75,33.37,-0.66,-2.60,38.85,-4.98,2.12,53.25,3.48,-1.86,-16.99
-12,3,587,-70,-417,3910,-0.34,0.70,33.61,-0.70,-4.17,39.10,-4.99,2.12,53.11,3.58,-1.72,-18.92
-4,12,578,-102,-495,3939,-0.33,0.70,33.78,-1.02,-4.95,39.39,-5.01,2.13,52.98,3.49,-1.83,-17.97
-5,5,534,-57,-341,3915,-0.33,0.66,33.66,-0.57,-3.41,39.15,-5.00,2.12,52.85,3.50,-1.73,-14.36
-9,0,519,-18,-388,3914,-0.35,0.59,33.46,-0.18,-3.88,39.14,-5.00,2.12,52.71,3.55,-1.64,-13.29
-10,-7,487,-14,-490,3925,-0.38,0.49,33.08,-0.14,-4.90,39.25,-5.01,2.12,52.58,3.58,-1.52,-10.96
1,10,465,-91,-487,3896,-0.33,0.50,32.61,-0.91,-4.87,38.96,-5.03,2.13,52.45,3.44,-1.73,-9.59
-3,6,429,-151,-419,3897,-0.32,0.49,31.97,-1.51,-4.19,38.97,-5.04,2.14,52.33,3.50,-1.69,-7.21
-5,3,423,-87,-427,3849,-0.32,0.46,31.35,-0.87,-4.27,38.49,-5.06,2.14,52.20,3.53,-1.64,-7.34
-6,-1,400,-68,-338,3931,-0.32,0.41,30.66,-0.68,-3.38,39.31,-5.05,2.14,52.08,3.54,-1.57,-6.12
-2,4,402,-44,-333,3926,-0.30,0.39,30.04,-0.44,-3.33,39.26,-5.04,2.13,51.96,3.48,-1.62,-6.92
-9,2,365,-178,-343,3894,-0.33,0.36,29.26,-1.78,-3.43,38.94,-5.04,2.16,51.84,3.57,-1.60,-4.60
7,1,332,-162,-352,3925,-0.25,0.33,28.36,-1.62,-3.52,39.25,-5.04,2.19,51.73,3.35,-1.60,-2.75
0,10,266,-9,-259,3902,-0.23,0.36,27.15,-0.09,-2.59,39.02,-5.03,2.19,51.62,3.41,-1.71,1.57
1,14,259,-64,-318,3935,-0.20,0.41,26.01,-0.64,-3.18,39.35,-5.02,2.18,51.52,3.38,-1.77,0.97
-1,4,228,-40,-265,3898,-0.18,0.39,24.80,-0.40,-2.65,38.98,-5.01,2.18,51.42,3.39,-1.65,2.32
5,17,213,-21,-269,3863,-0.13,0.46,23.62,-0.21,-2.69,38.63,-5.00,2.17,51.32,3.29,-1.82,2.35
-3,12,177,-81,-325,3902,-0.14,0.49,22.34,-0.81,-3.25,39.02,-4.99,2.16,51.24,3.39,-1.77,4.05
0,10,172,-63,-348,3861,-0.13,0.50,21.16,-0.63,-3.48,38.61,-4.99,2.15,51.15,3.35,-1.74,3.23
-2,14,205,16,-450,3903,-0.13,0.53,20.29,0.16,-4.50,39.03,-5.00,2.15,51.07,3.37,-1.80,-0.48
5,19,223,-23,-446,3945,-0.08,0.60,19.62,-0.23,-4.46,39.45,-5.01,2.14,50.99,3.28,-1.88,-2.71
-6,16,269,-72,-431,3891,-0.11,0.63,19.30,-0.72,-4.31,38.91,-5.02,2.14,50.92,3.43,-1.86,-6.94
7,20,288,-63,-427,3942,-0.06,0.69,19.13,-0.63,-4.27,39.42,-5.03,2.14,50.84,3.26,-1.93,-8.72
0,15,342,-138,-398,3880,-0.05,0.72,19.30,-1.38,-3.98,38.80,-5.04,2.14,50.77,3.35,-1.89,-13.11
6,8,366,-152,-422,3931,-0.01,0.69,19.60,-1.52,-4.22,39.31,-5.06,2.15,50.69,3.27,-1.80,-14.81
23,27,411,-86,-381,3993,0.13,0.79,20.15,-0.86,-3.81,39.93,-5.06,2.15,50.61,3.01,-2.06,-18.04
22,37,427,-130,-389,3932,0.25,0.93,20.74,-1.30,-3.89,39.32,-5.08,2.15,50.53,2.98,-2.24,-18.76
15,35,438,-139,-427,3920,0.32,1.05,21.34,-1.39,-4.27,39.20,-5.09,2.16,50.44,3.05,-2.27,-19.05
29,40,442,-227,-461,3922,0.46,1.19,21.90,-2.27,-4.61,39.22,-5.10,2.18,50.36,2.83,-2.41,-18.79
18,32,452,-57,-496,3905,0.53,1.27,22.47,-0.57,-4.96,39.05,-5.11,2.19,50.27,2.94,-2.34,-19.03
18,42,461,-93,-486,3903,0.58,1.40,23.03,-0.93,-4.86,39.03,-5.12,2.19,50.18,2.93,-2.52,-19.18
32,55,505,-4,-519,3899,0.72,1.59,23.81,-0.04,-5.19,38.99,-5.13,2.20,50.08,2.71,-2.76,-20.00
31,58,513,-56,-479,3896,0.84,1.79,24.56,-0.56,-4.79,38.96,-5.14,2.20,49.99,2.68,-2.88,-20.00
14,38,551,-84,-576,3896,0.84,1.84,25.46,-0.84,-5.76,38.96,-5.15,2.21,49.89,2.88,-2.67,-20.00
33,42,562,-70,-617,3900,0.96,1.91,26.35,-0.70,-6.17,39.00,-5.16,2.22,49.78,2.62,-2.75,-20.00
8,14,557,-68,-319,3875,0.91,1.81,27.11,-0.68,-3.19,38.75,-5.14,2.22,49.67,2.92,-2.38,-20.00
1,29,552,-29,-400,3892,0.83,1.80,27.76,-0.29,-4.00,38.92,-5.14,2.22,49.57,3.04,-2.55,-20.00
-9,11,540,-90,-311,3905,0.69,1.69,28.28,-0.90,-3.11,39.05,-5.12,2.22,49.45,3.21,-2.29,-20.00
-14,5,534,-118,-307,3878,0.53,1.55,28.71,-1.18,-3.07,38.78,-5.10,2.23,49.34,3.31,-2.17,-19.28
-5,2,569,-130,-282,3941,0.45,1.41,29.31,-1.30,-2.82,39.41,-5.08,2.24,49.22,3.23,-2.08,-20.00
-17,6,578,-211,-269,3877,0.30,1.30,29.91,-2.11,-2.69,38.77,-5.06,2.27,49.10,3.42,-2.10,-20.00
-13,-2,609,-213,-182,3931,0.19,1.16,30.63,-2.13,-1.82,39.31,-5.04,2.29,48.98,3.40,-1.96,-20.00
-14,2,611,-222,-188,3880,0.09,1.06,31.29,-2.22,-1.88,38.80,-5.01,2.31,48.85,3.44,-1.98,-20.00
-20,-13,546,-144,-307,3910,-0.04,0.87,31.50,-1.44,-3.07,39.10,-4.99,2.32,48.73,3.55,-1.74,-17.29
-32,-20,491,-125,-419,3900,-0.23,0.66,31.34,-1.25,-4.19,39.00,-5.00,2.32,48.60,3.78,-1.57,-12.79
-33,-30,397,-91,-430,3878,-0.41,0.41,30.63,-0.91,-4.30,38.78,-5.02,2.33,48.48,3.87,-1.35,-5.57
-44,-30,390,-60,-370,3932,-0.64,0.19,29.94,-0.60,-3.70,39.32,-5.02,2.32,48.36,4.10,-1.25,-5.69
-2,10,377,-42,-301,3913,-0.59,0.23,29.25,-0.42,-3.01,39.13,-5.01,2.31,48.25,3.57,-1.74,-5.31
7,22,365,-84,-345,3908,-0.49,0.34,28.55,-0.84,-3.45,39.08,-5.01,2.31,48.13,3.42,-1.92,-5.02
3,12,336,-99,-439,3879,-0.42,0.38,27.75,-0.99,-4.39,38.79,-5.02,2.31,48.02,3.45,-1.82,-3.41
1,1,330,-70,-386,3874,-0.37,0.35,26.98,-0.70,-3.86,38.74,-5.03,2.30,47.92,3.46,-1.68,-3.70
-22,-14,357,-119,-338,3947,-0.47,0.23,26.46,-1.19,-3.38,39.47,-5.02,2.30,47.81,3.77,-1.44,-6.53
-15,-13,370,-88,-299,3902,-0.51,0.13,26.07,-0.88,-2.99,39.02,-5.01,2.29,47.71,3.69,-1.41,-8.03
-6,-6,371,-152,-273,3882,-0.50,0.08,25.73,-1.52,-2.73,38.82,-4.99,2.30,47.60,3.57,-1.48,-8.47
3,29,401,-238,-375,4038,-0.43,0.25,25.60,-2.38,-3.75,40.38,-4.99,2.33,47.50,3.43,-1.98,-11.14
37,40,524,-123,-157,3947,-0.16,0.47,26.24,-1.23,-1.57,39.47,-4.97,2.33,47.40,2.91,-2.21,-20.00
43,50,544,-142,-208,3875,0.12,0.72,26.93,-1.42,-2.08,38.75,-4.95,2.34,47.29,2.71,-2.44,-20.00
27,39,538,-75,-234,3908,0.27,0.89,27.52,-0.75,-2.34,39.08,-4.93,2.34,47.18,2.82,-2.38,-20.00
11,30,517,-53,-384,3903,0.31,0.98,27.92,-0.53,-3.84,39.03,-4.93,2.34,47.07,2.99,-2.31,-18.47
-5,-4,387,-116,-460,3899,0.25,0.86,27.49,-1.16,-4.60,38.99,-4.94,2.35,46.96,3.22,-1.86,-7.90
-9,-8,380,-25,-480,3876,0.17,0.73,27.06,-0.25,-4.80,38.76,-4.95,2.35,46.85,3.30,-1.75,-7.76
2,11,388,11,-451,3906,0.16,0.72,26.72,0.11,-4.51,39.06,-4.95,2.34,46.75,3.18,-1.97,-8.78
-18,-3,399,-42,-422,3897,0.04,0.63,26.48,-0.42,-4.22,38.97,-4.96,2.34,46.64,3.47,-1.77,-9.96
-27,-25,412,-48,-468,3951,-0.13,0.41,26.35,-0.48,-4.68,39.51,-4.97,2.34,46.54,3.65,-1.42,-11.19
-26,-21,410,-18,-395,3881,-0.28,0.25,26.21,-0.18,-3.95,38.81,-4.97,2.33,46.43,3.70,-1.39,-11.16
-34,-22,409,-114,-256,3908,-0.46,0.09,26.09,-1.14,-2.56,39.08,-4.95,2.33,46.33,3.86,-1.31,-11.20
-24,-15,422,-118,-282,3903,-0.56,-0.01,26.05,-1.18,-2.82,39.03,-4.94,2.33,46.22,3.77,-1.35,-12.33
-10,2,436,-146,-470,3891,-0.56,-0.00,26.11,-1.46,-4.70,38.91,-4.95,2.34,46.12,3.62,-1.57,-13.44
11,13,434,-130,-390,3945,-0.44,0.08,26.14,-1.30,-3.90,39.45,-4.97,2.34,46.02,3.33,-1.73,-13.23
27,50,431,-105,-511,3848,-0.23,0.38,26.16,-1.05,-5.11,38.48,-4.98,2.34,45.91,3.06,-2.29,-12.95
49,54,426,-153,-571,3892,0.09,0.67,26.14,-1.53,-5.71,38.92,-4.99,2.35,45.81,2.68,-2.47,-12.53
60,67,429,9,-562,4005,0.45,1.01,26.14,0.09,-5.62,40.05,-5.00,2.36,45.71,2.41,-2.76,-12.78
65,79,418,53,-580,3859,0.80,1.39,26.08,0.53,-5.80,38.59,-5.01,2.36,45.60,2.21,-3.07,-11.90
39,39,399,0,-500,3949,0.96,1.49,25.91,0.00,-5.00,39.49,-5.01,2.36,45.50,2.45,-2.63,-10.47
27,29,378,18,-486,3932,1.03,1.52,25.62,0.18,-4.86,39.32,-5.02,2.36,45.40,2.57,-2.53,-8.98
-1,2,372,-3,-362,3899,0.92,1.38,25.33,-0.03,-3.62,38.99,-5.01,2.36,45.30,2.94,-2.15,-8.77
2,2,370,0,-394,3920,0.84,1.25,25.05,0.00,-3.94,39.20,-5.01,2.35,45.20,2.94,-2.09,-8.89
1,16,373,-71,-381,3913,0.76,1.22,24.82,-0.71,-3.81,39.13,-5.01,2.35,45.10,2.98,-2.24,-9.38
-14,5,365,-60,-330,3888,0.60,1.13,24.57,-0.60,-3.30,38.88,-5.00,2.34,45.00,3.22,-2.07,-8.96
3,7,334,-176,-524,3877,0.56,1.06,24.15,-1.76,-5.24,38.77,-5.01,2.36,44.91,3.04,-2.08,-6.77
10,12,338,-187,-629,3819,0.56,1.03,23.79,-1.87,-6.29,38.19,-5.02,2.37,44.81,2.97,-2.13,-7.47
0,14,357,17,-503,3922,0.51,1.01,23.59,0.17,-5.03,39.22,-5.03,2.37,44.72,3.11,-2.15,-9.29
5,9,371,-4,-530,4016,0.49,0.97,23.50,-0.04,-5.30,40.16,-5.04,2.37,44.63,3.07,-2.07,-10.57
-9,2,404,2,-703,3996,0.38,0.88,23.61,0.02,-7.03,39.96,-5.05,2.37,44.54,3.28,-1.95,-13.23
-5,12,408,-33,-595,3920,0.31,0.87,23.74,-0.33,-5.95,39.20,-5.06,2.38,44.44,3.27,-2.07,-13.43
-8,1,440,-89,-583,3889,0.23,0.79,24.05,-0.89,-5.83,38.89,-5.07,2.38,44.35,3.35,-1.91,-15.80
-18,-5,448,-48,-493,3876,0.10,0.68,24.38,-0.48,-4.93,38.76,-5.08,2.38,44.25,3.53,-1.79,-16.13
3,8,462,-188,-338,3897,0.11,0.66,24.76,-1.88,-3.38,38.97,-5.07,2.41,44.15,3.27,-1.96,-16.90
-10,-4,450,-151,-352,3815,0.04,0.57,25.03,-1.51,-3.52,38.15,-5.08,2.41,44.05,3.46,-1.78,-15.59
2,7,411,-144,-341,3967,0.05,0.55,25.03,-1.44,-3.41,39.67,-5.07,2.41,43.95,3.30,-1.90,-12.27
-5,15,396,-162,-377,3838,0.01,0.59,24.94,-1.62,-3.77,38.38,-5.08,2.42,43.85,3.41,-2.02,-11.08
-1,14,382,-254,-439,3870,0.00,0.62,24.78,-2.54,-4.39,38.70,-5.09,2.44,43.76,3.37,-2.03,-10.06
4,10,374,-276,-394,3913,0.03,0.62,24.58,-2.76,-3.94,39.13,-5.10,2.47,43.66,3.30,-2.00,-9.58
-7,13,296,-246,-164,4121,-0.02,0.63,23.93,-2.46,-1.64,41.21,-5.07,2.49,43.56,3.44,-2.06,-3.66
6,22,276,-251,-63,3796,0.02,0.70,23.22,-2.51,-0.63,37.96,-5.05,2.50,43.47,3.26,-2.20,-2.71
13,26,232,-158,-213,3949,0.10,0.79,22.31,-1.58,-2.13,39.49,-5.03,2.51,43.38,3.13,-2.29,0.07
4,13,222,-128,-251,3914,0.11,0.79,21.44,-1.28,-2.51,39.14,-5.01,2.52,43.29,3.21,-2.14,-0.01
-4,-5,208,-158,-210,3903,0.08,0.68,20.56,-1.58,-2.10,39.03,-4.99,2.52,43.21,3.31,-1.89,0.26
-2,-10,193,-63,-153,3992,0.06,0.55,19.68,-0.63,-1.53,39.92,-4.97,2.52,43.13,3.28,-1.77,0.61
-3,-21,179,-28,-320,3844,0.03,0.37,18.81,-0.28,-3.20,38.44,-4.96,2.51,43.06,3.30,-1.56,0.87
-13,-25,178,-11,-326,3872,-0.05,0.18,18.01,-0.11,-3.26,38.72,-4.96,2.50,42.99,3.45,-1.43,0.12
-110,-106,187,-62,-391,3968,-0.72,-0.48,17.35,-0.62,-3.91,39.68,-4.97,2.49,42.92,4.88,-0.19,-1.33
-109,-112,187,-84,-347,3870,-1.31,-1.12,16.76,-0.84,-3.47,38.70,-4.97,2.47,42.85,5.11,0.16,-1.96
-144,-130,151,-110,-292,3919,-2.06,-1.80,16.00,-1.10,-2.92,39.19,-4.96,2.46,42.78,5.83,0.66,0.30
-136,-122,127,-124,-313,3857,-2.68,-2.36,15.18,-1.24,-3.13,38.57,-4.96,2.44,42.72,5.99,0.81,1.47
-42,-60,63,-112,-219,3947,-2.67,-2.49,14.04,-1.12,-2.19,39.47,-4.96,2.42,42.67,4.87,0.14,5.69
-26,-50,60,-60,-264,3929,-2.56,-2.55,13.01,-0.60,-2.64,39.29,-4.95,2.40,42.61,4.63,0.06,4.85
-14,-36,81,32,-408,3897,-2.39,-2.51,12.20,0.32,-4.08,38.97,-4.97,2.38,42.56,4.43,-0.11,2.22
-13,-33,90,16,-382,3962,-2.23,-2.46,11.53,0.16,-3.82,39.62,-4.98,2.36,42.52,4.36,-0.15,0.76
-6,-86,8,-65,-248,4001,-2.04,-2.74,10.42,-0.65,-2.48,40.01,-4.97,2.34,42.47,4.19,0.61,6.54
-2,-133,-54,-30,-197,3990,-1.85,-3.28,9.05,-0.30,-1.97,39.90,-4.96,2.31,42.44,4.06,1.40,10.34
-15,-57,103,201,-558,3908,-1.76,-3.30,8.78,2.01,-5.58,39.08,-4.98,2.29,42.40,4.19,0.52,-3.25
-13,-35,114,212,-519,3831,-1.66,-3.18,8.59,2.12,-5.19,38.31,-4.99,2.26,42.36,4.13,0.23,-4.37
19,12,51,255,-542,3887,-1.38,-2.79,8.04,2.55,-5.42,38.87,-5.00,2.24,42.33,3.64,-0.47,0.39
8,43,45,133,-609,3854,-1.19,-2.25,7.51,1.33,-6.09,38.54,-5.02,2.22,42.30,3.71,-1.05,0.34
12,23,196,-150,-452,3928,-1.00,-1.88,7.96,-1.50,-4.52,39.28,-5.04,2.21,42.27,3.60,-0.96,-11.98
-7,12,231,-199,-409,3916,-0.94,-1.62,8.57,-1.99,-4.09,39.16,-5.06,2.22,42.24,3.81,-0.94,-14.30
-2,21,178,-407,-440,3970,-0.86,-1.33,8.80,-4.07,-4.40,39.70,-5.07,2.23,42.20,3.72,-1.18,-9.56
2,-8,167,-491,-391,4030,-0.76,-1.25,8.94,-4.91,-3.91,40.30,-5.07,2.25,42.16,3.64,-0.88,-8.48
-15,6,198,-301,-528,3865,-0.78,-1.09,9.25,-3.01,-5.28,38.65,-5.09,2.26,42.13,3.85,-1.12,-10.77
-19,6,240,-189,-538,3944,-0.82,-0.94,9.79,-1.89,-5.38,39.44,-5.11,2.26,42.09,3.93,-1.18,-13.75
-17,7,311,-142,-469,3815,-0.84,-0.80,10.71,-1.42,-4.69,38.15,-5.13,2.26,42.05,3.93,-1.25,-18.79
-6,20,328,-126,-479,3850,-0.79,-0.60,11.64,-1.26,-4.79,38.50,-5.14,2.26,42.00,3.79,-1.48,-19.24
-5,2,341,-148,-333,3951,-0.74,-0.53,12.56,-1.48,-3.33,39.51,-5.13,2.26,41.95,3.75,-1.30,-19.37
-6,8,316,-115,-409,3917,-0.70,-0.43,13.23,-1.15,-4.09,39.17,-5.14,2.25,41.90,3.76,-1.40,-16.54
3,2,264,-51,-475,3901,-0.62,-0.37,13.52,-0.51,-4.75,39.01,-5.16,2.24,41.84,3.62,-1.35,-11.82
0,7,248,-99,-546,3815,-0.55,-0.29,13.68,-0.99,-5.46,38.15,-5.18,2.24,41.79,3.64,-1.44,-10.29
2,-1,192,-128,-312,3967,-0.49,-0.27,13.48,-1.28,-3.12,39.67,-5.16,2.24,41.74,3.58,-1.35,-5.75
-4,-2,174,-146,-336,3923,-0.46,-0.25,13.19,-1.46,-3.36,39.23,-5.14,2.23,41.68,3.63,-1.34,-4.52
-8,-3,201,41,-55,4047,-0.46,-0.25,13.10,0.41,-0.55,40.47,-5.13,2.23,41.63,3.67,-1.33,-6.90
-15,-12,152,-145,29,3915,-0.51,-0.30,12.72,-1.45,0.29,39.15,-5.11,2.23,41.58,3.76,-1.21,-3.15
-11,17,204,-193,-606,3773,-0.53,-0.16,12.69,-1.93,-6.06,37.73,-5.13,2.24,41.53,3.73,-1.61,-7.58
-15,16,268,-209,-568,3799,-0.56,-0.05,13.06,-2.09,-5.68,37.99,-5.15,2.24,41.48,3.81,-1.65,-12.61
-5,17,256,-169,-244,3966,-0.54,0.06,13.31,-1.69,-2.44,39.66,-5.13,2.25,41.42,3.67,-1.71,-11.32
-8,18,259,-193,-406,3869,-0.53,0.16,13.56,-1.93,-4.06,38.69,-5.14,2.27,41.37,3.71,-1.78,-11.31
-9,3,300,-24,-401,3962,-0.54,0.17,14.03,-0.24,-4.01,39.62,-5.15,2.26,41.31,3.72,-1.59,-14.27
-10,5,290,-73,-492,3833,-0.54,0.18,14.40,-0.73,-4.92,38.33,-5.16,2.25,41.26,3.75,-1.62,-13.03
-4,8,284,-47,-488,3863,-0.51,0.21,14.69,-0.47,-4.88,38.63,-5.18,2.25,41.20,3.68,-1.67,-12.21
-1,-8,271,4,-412,3929,-0.47,0.14,14.88,0.04,-4.12,39.29,-5.18,2.24,41.14,3.63,-1.44,-10.91
-1,-3,299,41,-399,3950,-0.43,0.11,15.21,0.41,-3.99,39.50,-5.19,2.22,41.08,3.61,-1.48,-12.92
8,3,285,-10,-370,3935,-0.34,0.12,15.43,-0.10,-3.70,39.35,-5.19,2.21,41.02,3.47,-1.54,-11.50
-1,20,305,38,-465,3837,-0.31,0.23,15.75,0.38,-4.65,38.37,-5.20,2.20,40.96,3.57,-1.78,-12.85
-4,11,308,47,-295,4028,-0.30,0.27,16.05,0.47,-2.95,40.28,-5.19,2.19,40.89,3.60,-1.69,-12.78
0,7,269,10,-436,4002,-0.27,0.29,16.09,0.10,-4.36,40.02,-5.20,2.18,40.83,3.54,-1.64,-9.43
-4,-1,265,-13,-443,3822,-0.27,0.25,16.09,-0.13,-4.43,38.22,-5.20,2.18,40.76,3.59,-1.53,-9.08
-12,-4,291,63,-422,3993,-0.32,0.20,16.26,0.63,-4.22,39.93,-5.21,2.16,40.70,3.71,-1.46,-11.10
-1,15,294,-78,-534,3914,-0.29,0.27,16.43,-0.78,-5.34,39.14,-5.22,2.16,40.63,3.58,-1.72,-11.17
-9,-1,313,-105,-480,4030,-0.32,0.24,16.69,-1.05,-4.80,40.30,-5.24,2.16,40.57,3.69,-1.52,-12.49
-8,10,302,-76,-410,3845,-0.33,0.28,16.87,-0.76,-4.10,38.45,-5.25,2.16,40.50,3.70,-1.66,-11.37
-6,-5,295,-61,-428,3988,-0.34,0.22,16.98,-0.61,-4.28,39.88,-5.26,2.15,40.44,3.68,-1.45,-10.65
-4,14,288,-57,-498,3844,-0.33,0.28,17.04,-0.57,-4.98,38.44,-5.27,2.15,40.37,3.66,-1.70,-9.99
-7,-8,278,-47,-254,3984,-0.34,0.21,17.03,-0.47,-2.54,39.84,-5.26,2.14,40.30,3.69,-1.40,-9.15
-3,-2,272,-59,-298,3918,-0.32,0.17,16.99,-0.59,-2.98,39.18,-5.25,2.13,40.23,3.63,-1.46,-8.68
-3,10,267,-86,-446,3738,-0.31,0.22,16.92,-0.86,-4.46,37.38,-5.26,2.13,40.16,3.63,-1.61,-8.32
-1,-7,309,9,-258,3992,-0.28,0.15,17.11,0.09,-2.58,39.92,-5.25,2.12,40.10,3.59,-1.38,-11.67
-4,3,317,-98,-438,3865,-0.28,0.15,17.33,-0.98,-4.38,38.65,-5.26,2.12,40.03,3.64,-1.50,-12.11
0,17,340,-118,-624,4024,-0.25,0.24,17.67,-1.18,-6.24,40.24,-5.28,2.13,39.96,3.59,-1.71,-13.69
1,2,347,-47,-184,3977,-0.22,0.23,18.02,-0.47,-1.84,39.77,-5.26,2.13,39.89,3.55,-1.52,-13.90
-7,-5,352,-122,-319,3873,-0.24,0.18,18.37,-1.22,-3.19,38.73,-5.25,2.12,39.81,3.64,-1.42,-13.96
-6,17,358,-2,-533,4147,-0.25,0.26,18.71,-0.02,-5.33,41.47,-5.26,2.12,39.74,3.64,-1.71,-14.09
-4,11,373,-204,-662,3833,-0.25,0.30,19.12,-2.04,-6.62,38.33,-5.27,2.13,39.66,3.63,-1.66,-14.93
-2,-8,362,-15,-249,3908,-0.24,0.22,19.41,-0.15,-2.49,39.08,-5.26,2.13,39.58,3.59,-1.40,-13.67
-5,13,373,-60,-394,3909,-0.25,0.28,19.75,-0.60,-3.94,39.09,-5.26,2.12,39.51,3.63,-1.67,-14.25
-17,30,415,-68,-590,4002,-0.32,0.44,20.31,-0.68,-5.90,40.02,-5.28,2.12,39.43,3.82,-1.93,-17.21
-7,8,435,-79,-474,3628,-0.34,0.44,20.93,-0.79,-4.74,36.28,-5.29,2.12,39.34,3.72,-1.68,-18.23
-2,16,387,-8,-426,3720,-0.31,0.50,21.20,-0.08,-4.26,37.20,-5.30,2.12,39.26,3.65,-1.79,-13.88
-3,5,410,53,-555,4047,-0.30,0.48,21.58,0.53,-5.55,40.47,-5.31,2.11,39.17,3.67,-1.65,-15.41
-8,11,450,-48,-347,3901,-0.32,0.50,22.16,-0.48,-3.47,39.01,-5.31,2.10,39.09,3.73,-1.72,-18.17
4,-2,441,-61,-205,4030,-0.26,0.43,22.64,-0.61,-2.05,40.30,-5.29,2.11,39.00,3.55,-1.54,-16.90
-5,-1,423,63,-411,4129,-0.27,0.38,22.95,0.63,-4.11,41.29,-5.29,2.10,38.90,3.66,-1.53,-15.03
-14,24,433,-353,-691,3937,-0.33,0.49,23.30,-3.53,-6.91,39.37,-5.30,2.12,38.81,3.80,-1.89,-15.50
-9,-16,440,-116,-390,3959,-0.35,0.35,23.65,-1.16,-3.90,39.59,-5.31,2.11,38.72,3.76,-1.35,-15.71
-9,16,457,-53,-442,3881,-0.37,0.41,24.08,-0.53,-4.42,38.81,-5.32,2.11,38.62,3.77,-1.75,-16.70
-14,4,492,-106,-229,3954,-0.42,0.39,24.67,-1.06,-2.29,39.54,-5.30,2.12,38.52,3.84,-1.61,-19.03
-19,6,539,-127,-275,3922,-0.49,0.39,25.49,-1.27,-2.75,39.22,-5.28,2.12,38.42,3.91,-1.63,-20.00
-15,27,534,-192,-512,3893,-0.53,0.52,26.20,-1.92,-5.12,38.93,-5.30,2.14,38.32,3.89,-1.94,-20.00
-12,13,532,-124,-409,3923,-0.55,0.54,26.82,-1.24,-4.09,39.23,-5.31,2.14,38.21,3.88,-1.79,-20.00
-3,18,496,-162,-410,3900,-0.52,0.60,27.17,-1.62,-4.10,39.00,-5.33,2.16,38.10,3.76,-1.89,-16.68
-17,7,490,-161,-466,3837,-0.57,0.58,27.44,-1.61,-4.66,38.37,-5.34,2.18,38.00,3.96,-1.76,-15.88
-10,-7,412,-218,-356,3798,-0.57,0.48,27.21,-2.18,-3.56,37.98,-5.34,2.21,37.89,3.88,-1.57,-9.50
-6,19,433,-174,-504,3843,-0.55,0.55,27.13,-1.74,-5.04,38.43,-5.36,2.22,37.78,3.83,-1.92,-11.36
-6,-7,503,-133,-409,3991,-0.53,0.45,27.48,-1.33,-4.09,39.91,-5.37,2.22,37.67,3.84,-1.57,-16.90
-5,13,509,-91,-277,3880,-0.51,0.49,27.84,-0.91,-2.77,38.80,-5.35,2.23,37.56,3.80,-1.82,-17.02
-15,1,559,76,-345,4081,-0.55,0.44,28.47,0.76,-3.45,40.81,-5.35,2.22,37.45,3.93,-1.66,-20.00
-12,17,556,-15,-493,3776,-0.57,0.50,29.01,-0.15,-4.93,37.76,-5.36,2.22,37.33,3.91,-1.87,-19.74
0,9,531,-11,-391,3940,-0.51,0.51,29.35,-0.11,-3.91,39.40,-5.36,2.22,37.22,3.75,-1.78,-17.26
-10,-2,506,61,-418,3853,-0.52,0.44,29.50,0.61,-4.18,38.53,-5.36,2.21,37.10,3.87,-1.62,-14.97
-7,17,508,-1,-388,3930,-0.51,0.50,29.65,-0.01,-3.88,39.30,-5.36,2.21,36.98,3.83,-1.86,-14.97
2,21,522,-27,-238,3937,-0.45,0.58,29.87,-0.27,-2.38,39.37,-5.35,2.21,36.86,3.69,-1.94,-15.91
-6,12,504,-71,-340,4007,-0.44,0.60,29.96,-0.71,-3.40,40.07,-5.34,2.20,36.74,3.77,-1.84,-14.29
-9,-2,453,-92,-307,3757,-0.45,0.52,29.72,-0.92,-3.07,37.57,-5.32,2.20,36.62,3.81,-1.65,-10.20
-14,-6,453,-3,-240,4051,-0.49,0.44,29.52,-0.03,-2.40,40.51,-5.31,2.20,36.51,3.87,-1.56,-10.41
3,18,438,-91,-235,3882,-0.42,0.50,29.24,-0.91,-2.35,38.82,-5.29,2.21,36.39,3.63,-1.88,-9.43
-18,-5,468,90,-429,3914,-0.49,0.42,29.17,0.90,-4.29,39.14,-5.29,2.20,36.27,3.91,-1.57,-12.03
-6,25,462,-209,-562,3912,-0.48,0.53,29.07,-2.09,-5.62,39.12,-5.31,2.22,36.16,3.77,-1.98,-11.62
0,23,651,11,-523,3881,-0.43,0.62,30.13,0.11,-5.23,38.81,-5.32,2.22,36.04,3.69,-1.99,-20.00
-12,6,677,22,-461,3977,-0.46,0.59,31.25,0.22,-4.61,39.77,-5.32,2.22,35.91,3.84,-1.78,-20.00
-6,10,773,22,-555,3917,-0.45,0.59,32.84,0.22,-5.55,39.17,-5.33,2.22,35.78,3.78,-1.83,-20.00
-6,17,783,-109,-579,3693,-0.44,0.64,34.33,-1.09,-5.79,36.93,-5.35,2.23,35.65,3.78,-1.94,-20.00
3,17,720,-131,-524,3705,-0.38,0.68,35.29,-1.31,-5.24,37.05,-5.36,2.25,35.51,3.66,-1.96,-20.00
-2,13,757,15,-483,4005,-0.35,0.69,36.38,0.15,-4.83,40.05,-5.37,2.25,35.36,3.71,-1.92,-20.00
4,-2,749,117,-406,3977,-0.29,0.61,37.31,1.17,-4.06,39.77,-5.36,2.25,35.22,3.61,-1.71,-20.00
-1,9,727,-177,-526,3687,-0.27,0.60,38.01,-1.77,-5.26,36.87,-5.38,2.27,35.06,3.67,-1.85,-20.00
-7,20,783,-90,-348,3887,-0.29,0.66,38.99,-0.90,-3.48,38.87,-5.37,2.27,34.91,3.74,-2.01,-20.00
-8,15,788,-143,-380,3972,-0.31,0.69,39.90,-1.43,-3.80,39.72,-5.37,2.27,34.75,3.76,-1.96,-20.00
-17,30,731,-155,-561,3696,-0.38,0.80,40.37,-1.55,-5.61,36.96,-5.38,2.29,34.59,3.91,-2.19,-20.00
-17,23,739,95,-428,3890,-0.45,0.86,40.84,0.95,-4.28,38.90,-5.38,2.29,34.43,3.94,-2.14,-20.00
-18,24,669,-68,-484,3796,-0.51,0.92,40.83,-0.68,-4.84,37.96,-5.39,2.29,34.27,3.98,-2.18,-16.52
-22,17,664,-75,-524,3901,-0.59,0.94,40.80,-0.75,-5.24,39.01,-5.40,2.31,34.11,4.07,-2.11,-16.12
-21,3,580,-25,-389,3830,-0.66,0.86,40.26,-0.25,-3.89,38.30,-5.40,2.31,33.95,4.09,-1.91,-9.56
-3,13,548,38,-475,3950,-0.61,0.85,39.58,0.38,-4.75,39.50,-5.41,2.31,33.79,3.86,-2.03,-7.56
-10,3,515,-105,-406,3855,-0.61,0.79,38.76,-1.05,-4.06,38.55,-5.42,2.31,33.63,3.95,-1.88,-5.62
-6,8,519,-34,-429,3832,-0.59,0.76,38.05,-0.34,-4.29,38.32,-5.42,2.31,33.48,3.89,-1.93,-6.69
-20,1,478,-57,-407,3803,-0.65,0.69,37.16,-0.57,-4.07,38.03,-5.43,2.31,33.34,4.09,-1.82,-4.15
-9,-4,484,-8,-468,3937,-0.64,0.59,36.40,-0.08,-4.68,39.37,-5.43,2.31,33.19,3.96,-1.72,-5.45
14,-20,315,127,-153,3850,-0.49,0.41,34.68,1.27,-1.53,38.50,-5.42,2.31,33.05,3.61,-1.46,7.06
0,-18,247,27,-356,3909,-0.44,0.26,32.72,0.27,-3.56,39.09,-5.41,2.31,32.92,3.75,-1.42,10.75
-18,21,426,-82,-528,4031,-0.51,0.36,32.04,-0.82,-5.28,40.31,-5.43,2.31,32.80,4.00,-1.93,-5.11
0,11,433,-32,-255,3971,-0.46,0.39,31.48,-0.32,-2.55,39.71,-5.41,2.31,32.67,3.76,-1.82,-6.29
-10,1,414,-40,-408,3843,-0.47,0.36,30.86,-0.40,-4.08,38.43,-5.41,2.31,32.55,3.89,-1.68,-5.33
-20,6,393,-68,-488,3876,-0.55,0.36,30.17,-0.68,-4.88,38.76,-5.43,2.31,32.43,4.04,-1.75,-4.27
-2,3,359,-31,-380,3911,-0.51,0.34,29.34,-0.31,-3.80,39.11,-5.42,2.31,32.31,3.81,-1.70,-2.25
1,11,366,-70,-515,3812,-0.45,0.38,28.64,-0.70,-5.15,38.12,-5.44,2.31,32.20,3.76,-1.81,-3.58
3,5,446,-52,-320,4007,-0.39,0.37,28.50,-0.52,-3.20,40.07,-5.43,2.31,32.08,3.70,-1.73,-10.50
4,26,430,-173,-454,3886,-0.32,0.49,28.27,-1.73,-4.54,38.86,-5.44,2.32,31.97,3.68,-2.04,-9.37
1,10,473,-178,-608,3812,-0.28,0.50,28.33,-1.78,-6.08,38.12,-5.45,2.34,31.86,3.71,-1.87,-12.94
-11,9,488,68,-499,3876,-0.32,0.51,28.47,0.68,-4.99,38.76,-5.46,2.33,31.75,3.87,-1.85,-14.05
-4,-19,506,-58,-400,3872,-0.31,0.34,28.71,-0.58,-4.00,38.72,-5.46,2.33,31.63,3.78,-1.45,-15.31
-18,-1,522,-185,-557,3780,-0.39,0.30,29.03,-1.85,-5.57,37.80,-5.48,2.34,31.52,3.99,-1.66,-16.33
-29,-17,638,-166,-603,3848,-0.53,0.17,30.01,-1.66,-6.03,38.48,-5.49,2.35,31.40,4.19,-1.42,-20.00
-5,16,673,-116,-586,3870,-0.51,0.25,31.12,-1.16,-5.86,38.70,-5.51,2.36,31.28,3.90,-1.85,-20.00
-27,2,777,-53,-631,3766,-0.62,0.24,32.75,-0.53,-6.31,37.66,-5.52,2.37,31.15,4.22,-1.69,-20.00
-19,25,769,-47,-688,3909,-0.68,0.36,34.16,-0.47,-6.88,39.09,-5.54,2.38,31.01,4.16,-2.02,-20.00
-13,11,751,2,-531,3943,-0.69,0.39,35.33,0.02,-5.31,39.43,-5.54,2.38,30.87,4.10,-1.86,-20.00
-13,23,749,-62,-400,3781,-0.70,0.50,36.36,-0.62,-4.00,37.81,-5.55,2.38,30.73,4.10,-2.05,-20.00
-4,-11,698,-148,-342,4131,-0.65,0.38,36.99,-1.48,-3.42,41.31,-5.53,2.39,30.58,3.96,-1.60,-20.00
1,8,728,-17,-427,3692,-0.58,0.39,37.73,-0.17,-4.27,36.92,-5.53,2.39,30.43,3.88,-1.83,-20.00
-14,10,707,59,-422,4146,-0.61,0.41,38.27,0.59,-4.22,41.46,-5.53,2.39,30.28,4.07,-1.86,-20.00
2,16,716,-55,-256,3892,-0.54,0.47,38.81,-0.55,-2.56,38.92,-5.51,2.39,30.12,3.83,-1.96,-20.00
-23,26,801,-37,-427,3887,-0.62,0.58,39.81,-0.37,-4.27,38.87,-5.51,2.39,29.96,4.17,-2.13,-20.00
-11,30,806,99,-466,3877,-0.63,0.71,40.75,0.99,-4.66,38.77,-5.52,2.39,29.80,4.03,-2.22,-20.00
-3,23,755,24,-321,3992,-0.58,0.77,41.28,0.24,-3.21,39.92,-5.51,2.39,29.64,3.91,-2.17,-20.00
-1,33,758,-115,-389,3793,-0.53,0.90,41.78,-1.15,-3.89,37.93,-5.51,2.40,29.47,3.87,-2.34,-20.00
-14,-13,623,-144,-459,3890,-0.56,0.73,41.40,-1.44,-4.59,38.90,-5.52,2.41,29.31,4.04,-1.74,-11.58
-11,2,602,-84,-522,3919,-0.57,0.67,40.93,-0.84,-5.22,39.19,-5.53,2.42,29.15,4.02,-1.90,-10.29
-3,-15,468,146,-276,4066,-0.53,0.51,39.69,1.46,-2.76,40.66,-5.52,2.42,28.99,3.90,-1.63,-0.23
1,20,442,-111,-291,3914,-0.48,0.58,38.42,-1.11,-2.91,39.14,-5.50,2.43,28.83,3.82,-2.08,0.64
-20,16,475,-66,-386,3909,-0.55,0.62,37.47,-0.66,-3.86,39.09,-5.50,2.43,28.69,4.09,-2.05,-3.14
-14,15,447,-88,-305,3936,-0.58,0.65,36.45,-0.88,-3.05,39.36,-5.48,2.43,28.54,4.02,-2.05,-1.84
-15,13,392,4,-356,3939,-0.61,0.66,35.20,0.04,-3.56,39.39,-5.48,2.43,28.40,4.05,-2.03,1.51
-21,12,384,-94,-454,3887,-0.68,0.67,34.02,-0.94,-4.54,38.87,-5.49,2.43,28.26,4.15,-2.02,0.95
-8,19,354,-59,-424,3831,-0.66,0.72,32.78,-0.59,-4.24,38.31,-5.49,2.43,28.13,3.99,-2.13,2.19
-15,10,362,47,-388,3907,-0.69,0.71,31.71,0.47,-3.88,39.07,-5.49,2.43,28.01,4.09,-2.01,0.39
-4,15,277,-43,-548,3807,-0.64,0.73,30.23,-0.43,-5.48,38.07,-5.51,2.43,27.89,3.95,-2.08,6.03
-2,19,277,-16,-455,3897,-0.59,0.77,28.90,-0.16,-4.55,38.97,-5.51,2.43,27.77,3.90,-2.15,4.63
4,14,259,-45,-362,3933,-0.51,0.78,27.59,-0.45,-3.62,39.33,-5.51,2.43,27.66,3.80,-2.09,4.78
2,-14,223,-27,-322,3972,-0.44,0.62,26.19,-0.27,-3.22,39.72,-5.50,2.42,27.56,3.79,-1.69,6.36
1,3,182,9,-444,3892,-0.39,0.57,24.68,0.09,-4.44,38.92,-5.50,2.42,27.46,3.78,-1.87,8.24
1,-5,170,-32,-505,3912,-0.35,0.49,23.25,-0.32,-5.05,39.12,-5.51,2.41,27.37,3.77,-1.73,7.75
-4,0,244,-86,-538,3862,-0.34,0.44,22.41,-0.86,-5.38,38.62,-5.53,2.42,27.28,3.83,-1.77,0.60
-5,15,274,-73,-523,3883,-0.33,0.49,21.84,-0.73,-5.23,38.83,-5.54,2.42,27.20,3.85,-1.97,-2.53
-3,16,240,-25,-343,3991,-0.32,0.53,21.12,-0.25,-3.43,39.91,-5.53,2.41,27.11,3.82,-2.00,-0.41
-1,0,208,27,-307,3944,-0.29,0.48,20.28,0.27,-3.07,39.44,-5.52,2.40,27.03,3.78,-1.78,1.42
-9,8,313,-113,-508,3895,-0.32,0.48,20.16,-1.13,-5.08,38.95,-5.54,2.41,26.95,3.89,-1.88,-7.60
-4,15,357,-55,-520,3788,-0.31,0.52,20.32,-0.55,-5.20,37.88,-5.55,2.40,26.87,3.84,-1.98,-11.15
-3,-6,316,-73,-463,3949,-0.30,0.44,20.22,-0.73,-4.63,39.49,-5.56,2.40,26.79,3.83,-1.69,-7.78
-2,2,312,-57,-558,3769,-0.28,0.40,20.10,-0.57,-5.58,37.69,-5.57,2.40,26.71,3.82,-1.77,-7.56
-5,0,363,-8,-415,3932,-0.28,0.36,20.30,-0.08,-4.15,39.32,-5.57,2.39,26.63,3.86,-1.73,-11.65
-4,11,396,-54,-500,3916,-0.28,0.39,20.69,-0.54,-5.00,39.16,-5.59,2.39,26.55,3.85,-1.87,-14.03
-6,20,367,-50,-450,3908,-0.29,0.48,20.86,-0.50,-4.50,39.08,-5.59,2.38,26.47,3.88,-2.01,-11.39
-12,17,399,-81,-490,3929,-0.33,0.53,21.21,-0.81,-4.90,39.29,-5.61,2.38,26.38,3.98,-1.99,-13.72
-15,12,475,-19,-406,3877,-0.39,0.55,21.98,-0.19,-4.06,38.77,-5.61,2.38,26.30,4.04,-1.94,-19.33
-12,20,463,3,-486,3808,-0.42,0.62,22.61,0.03,-4.86,38.08,-5.61,2.37,26.21,4.02,-2.06,-17.64
-1,-7,275,-77,-274,3873,-0.39,0.52,22.03,-0.77,-2.74,38.73,-5.60,2.37,26.12,3.87,-1.69,-2.33
-6,-3,257,-105,-460,3837,-0.39,0.45,21.39,-1.05,-4.60,38.37,-5.61,2.37,26.03,3.93,-1.71,-1.47
-3,21,343,-114,-265,4001,-0.37,0.53,21.34,-1.14,-2.65,40.01,-5.59,2.37,25.95,3.88,-2.03,-8.79
-4,26,453,-103,58,4082,-0.35,0.63,21.97,-1.03,0.58,40.82,-5.57,2.38,25.86,3.87,-2.14,-17.44
-5,-1,397,101,-597,3899,-0.35,0.56,22.20,1.01,-5.97,38.99,-5.58,2.38,25.77,3.89,-1.79,-12.45
-6,-14,326,81,-620,3832,-0.35,0.42,21.97,0.81,-6.20,38.32,-5.59,2.38,25.69,3.91,-1.58,-6.67
-6,3,336,30,-727,3906,-0.35,0.40,21.82,0.30,-7.27,39.06,-5.61,2.38,25.60,3.92,-1.77,-7.67
2,14,360,87,-615,3915,-0.30,0.44,21.83,0.87,-6.15,39.15,-5.62,2.38,25.51,3.81,-1.92,-9.68
10,18,321,11,-499,4027,-0.21,0.51,21.61,0.11,-4.99,40.27,-5.62,2.37,25.43,3.68,-1.99,-6.60
-2,5,339,-84,-538,3864,-0.20,0.49,21.52,-0.84,-5.38,38.64,-5.64,2.37,25.34,3.83,-1.83,-8.22
-11,16,356,-29,-466,3904,-0.25,0.54,21.54,-0.29,-4.66,39.04,-5.64,2.37,25.26,3.96,-1.97,-9.63
-18,0,335,7,-417,3801,-0.34,0.48,21.43,0.07,-4.17,38.01,-5.65,2.36,25.17,4.08,-1.76,-7.96
-1,7,236,-55,-378,3908,-0.31,0.48,20.72,-0.55,-3.78,39.08,-5.64,2.35,25.09,3.86,-1.83,-0.31
-6,0,200,15,-411,3882,-0.31,0.43,19.87,0.15,-4.11,38.82,-5.64,2.34,25.01,3.92,-1.72,1.84
4,10,215,-32,-549,3874,-0.26,0.45,19.19,-0.32,-5.49,38.74,-5.66,2.34,24.94,3.79,-1.85,-0.13
-5,3,225,-53,-532,3886,-0.26,0.42,18.65,-0.53,-5.32,38.86,-5.67,2.34,24.86,3.91,-1.75,-1.55
-1,0,150,-85,-291,3950,-0.24,0.38,17.70,-0.85,-2.91,39.50,-5.65,2.34,24.79,3.84,-1.70,3.80
-1,5,129,-97,-342,3922,-0.22,0.37,16.71,-0.97,-3.42,39.22,-5.64,2.33,24.72,3.83,-1.75,4.54
-5,1,103,-43,-462,3881,-0.23,0.34,15.67,-0.43,-4.62,38.81,-5.65,2.32,24.66,3.88,-1.68,5.65
-2,6,104,-40,-497,3874,-0.22,0.34,14.74,-0.40,-4.97,38.74,-5.66,2.32,24.60,3.85,-1.74,4.58
2,5,84,-24,-403,3900,-0.19,0.34,13.78,-0.24,-4.03,39.00,-5.66,2.30,24.55,3.79,-1.72,5.26
2,3,40,-23,-395,3894,-0.16,0.32,12.64,-0.23,-3.95,38.94,-5.66,2.29,24.50,3.78,-1.68,7.79
2,0,16,-39,-459,3890,-0.13,0.29,11.48,-0.39,-4.59,38.90,-5.67,2.28,24.45,3.77,-1.63,8.60
1,0,16,-42,-464,3891,-0.11,0.26,10.43,-0.42,-4.64,38.91,-5.68,2.27,24.41,3.78,-1.61,7.49
-1,3,21,-54,-449,3907,-0.10,0.25,9.51,-0.54,-4.49,39.07,-5.69,2.26,24.38,3.81,-1.63,6.10
-2,3,21,-51,-448,3913,-0.11,0.25,8.69,-0.51,-4.48,39.13,-5.69,2.25,24.34,3.83,-1.62,5.23
-8,3,66,-119,-504,3887,-0.14,0.24,8.22,-1.19,-5.04,38.87,-5.71,2.25,24.31,3.92,-1.62,0.93
0,9,84,-118,-520,3914,-0.13,0.27,7.91,-1.18,-5.20,39.14,-5.73,2.25,24.28,3.83,-1.70,-0.92
-6,-1,145,-13,-452,3869,-0.15,0.24,8.01,-0.13,-4.52,38.69,-5.73,2.24,24.25,3.92,-1.56,-5.99
-3,3,134,-24,-438,3896,-0.16,0.23,8.02,-0.24,-4.38,38.96,-5.74,2.22,24.22,3.89,-1.60,-5.04
0,-1,135,-42,-432,3911,-0.14,0.20,8.04,-0.42,-4.32,39.11,-5.74,2.21,24.18,3.85,-1.53,-5.10
0,-4,124,-55,-418,3897,-0.13,0.16,8.00,-0.55,-4.18,38.97,-5.75,2.20,24.15,3.85,-1.47,-4.21
-2,-11,91,13,-496,3895,-0.13,0.08,7.75,0.13,-4.96,38.95,-5.76,2.18,24.12,3.88,-1.34,-1.67
-5,-6,98,-18,-543,3861,-0.14,0.03,7.57,-0.18,-5.43,38.61,-5.77,2.17,24.09,3.93,-1.38,-2.45
-2,-6,113,-26,-406,3918,-0.14,-0.01,7.51,-0.26,-4.06,39.18,-5.77,2.16,24.06,3.89,-1.35,-3.79
0,-3,94,-35,-333,3930,-0.13,-0.03,7.33,-0.35,-3.33,39.30,-5.76,2.15,24.03,3.86,-1.37,-2.37
1,-11,32,-39,-456,3924,-0.11,-0.09,6.79,-0.39,-4.56,39.24,-5.77,2.13,24.01,3.84,-1.24,2.32
0,-9,33,-10,-487,3877,-0.10,-0.14,6.31,-0.10,-4.87,38.77,-5.78,2.12,23.98,3.86,-1.24,1.73
-3,-7,72,-37,-503,3884,-0.11,-0.17,6.12,-0.37,-5.03,38.84,-5.79,2.11,23.96,3.90,-1.24,-1.77
1,0,82,-26,-509,3892,-0.09,-0.15,6.01,-0.26,-5.09,38.92,-5.81,2.10,23.93,3.86,-1.32,-2.74
-1,6,110,-78,-326,3963,-0.09,-0.10,6.08,-0.78,-3.26,39.63,-5.79,2.09,23.91,3.87,-1.41,-5.03
1,0,63,-69,-360,3895,-0.07,-0.09,5.86,-0.69,-3.60,38.95,-5.78,2.07,23.89,3.83,-1.33,-1.29
3,4,44,-21,-478,3864,-0.05,-0.05,5.54,-0.21,-4.78,38.64,-5.79,2.06,23.86,3.81,-1.38,-0.01
3,8,51,-22,-471,3870,-0.02,-0.00,5.30,-0.22,-4.71,38.70,-5.80,2.05,23.84,3.80,-1.45,-0.86
10,5,31,-50,-401,3912,0.04,0.03,4.96,-0.50,-4.01,39.12,-5.80,2.03,23.82,3.69,-1.41,0.48
9,4,23,-53,-421,3903,0.09,0.05,4.60,-0.53,-4.21,39.03,-5.81,2.01,23.81,3.69,-1.40,0.78
8,2,2,-43,-454,3897,0.13,0.06,4.15,-0.43,-4.54,38.97,-5.81,2.00,23.79,3.69,-1.37,2.09
7,2,-2,-40,-463,3907,0.16,0.07,3.72,-0.40,-4.63,39.07,-5.82,1.99,23.78,3.69,-1.36,1.97
-1,2,-30,21,-491,3894,0.14,0.07,3.17,0.21,-4.91,38.94,-5.83,1.97,23.76,3.80,-1.36,3.76
2,3,-44,21,-474,3907,0.14,0.08,2.58,0.21,-4.74,39.07,-5.84,1.96,23.75,3.77,-1.36,4.33
1,0,-64,-35,-443,3923,0.13,0.07,1.94,-0.35,-4.43,39.23,-5.85,1.94,23.75,3.79,-1.31,5.33
0,3,-71,-47,-449,3910,0.12,0.08,1.31,-0.47,-4.49,39.10,-5.85,1.93,23.74,3.82,-1.34,5.26
-2,6,-105,-20,-442,3915,0.09,0.11,0.54,-0.20,-4.42,39.15,-5.86,1.91,23.74,3.85,-1.38,7.33
2,4,-120,-11,-427,3902,0.10,0.13,-0.25,-0.11,-4.27,39.02,-5.86,1.89,23.74,3.81,-1.35,7.77
8,4,-171,-48,-515,3865,0.13,0.14,-1.27,-0.48,-5.15,38.65,-5.88,1.88,23.75,3.73,-1.35,11.01
3,7,-162,-60,-494,3890,0.14,0.17,-2.13,-0.60,-4.94,38.90,-5.89,1.87,23.75,3.80,-1.39,9.33
0,8,-120,-26,-415,3887,0.13,0.20,-2.65,-0.26,-4.15,38.87,-5.89,1.85,23.77,3.84,-1.40,5.22
2,8,-131,21,-445,3897,0.13,0.23,-3.18,0.21,-4.45,38.97,-5.90,1.84,23.78,3.82,-1.40,5.59
9,9,-185,-32,-350,3916,0.17,0.26,-3.99,-0.32,-3.50,39.16,-5.89,1.82,23.79,3.71,-1.41,9.30
4,1,-214,26,-394,3890,0.18,0.24,-4.90,0.26,-3.94,38.90,-5.89,1.80,23.81,3.77,-1.30,10.80
8,0,-295,-17,-429,3922,0.21,0.22,-6.21,-0.17,-4.29,39.22,-5.89,1.78,23.84,3.71,-1.26,16.27
6,1,-284,-54,-419,3936,0.22,0.20,-7.32,-0.54,-4.19,39.36,-5.90,1.76,23.87,3.73,-1.26,14.16
6,-7,-332,-48,-463,3958,0.24,0.14,-8.61,-0.48,-4.63,39.58,-5.91,1.74,23.90,3.73,-1.12,16.86
5,-4,-328,34,-322,3950,0.24,0.10,-9.75,0.34,-3.22,39.50,-5.90,1.72,23.94,3.73,-1.13,15.31
2,12,-311,-60,-455,3886,0.23,0.16,-10.67,-0.60,-4.55,38.86,-5.91,1.71,23.98,3.78,-1.33,12.89
-3,-3,-324,26,-431,3923,0.19,0.13,-11.58,0.26,-4.31,39.23,-5.92,1.68,24.03,3.86,-1.13,13.02
10,3,-384,-50,-412,3904,0.23,0.13,-12.77,-0.50,-4.12,39.04,-5.92,1.66,24.08,3.69,-1.19,16.85
1,-2,-386,-44,-405,3919,0.21,0.11,-13.85,-0.44,-4.05,39.19,-5.92,1.64,24.14,3.81,-1.10,15.87
10,-8,-408,-28,-396,3883,0.25,0.05,-14.95,-0.28,-3.96,38.83,-5.92,1.61,24.20,3.68,-0.99,16.56
13,-9,-417,-61,-455,3894,0.31,-0.01,-16.00,-0.61,-4.55,38.94,-5.93,1.59,24.26,3.63,-0.94,16.21
13,-6,-391,-108,-415,3897,0.36,-0.05,-16.78,-1.08,-4.15,38.97,-5.95,1.58,24.33,3.63,-0.95,13.17
7,-3,-414,-49,-341,3925,0.36,-0.06,-17.63,-0.49,-3.41,39.25,-5.94,1.56,24.40,3.69,-0.97,14.21
7,-4,-445,-33,-442,3934,0.37,-0.08,-18.58,-0.33,-4.42,39.34,-5.94,1.54,24.47,3.69,-0.94,15.82
9,0,-459,-41,-429,3864,0.39,-0.07,-19.52,-0.41,-4.29,38.64,-5.95,1.51,24.55,3.66,-0.97,16.00
10,-13,-522,-75,-418,3881,0.41,-0.14,-20.76,-0.75,-4.18,38.81,-5.96,1.49,24.63,3.65,-0.77,20.00
10,-6,-547,-84,-444,3866,0.43,-0.17,-22.02,-0.84,-4.44,38.66,-5.98,1.47,24.72,3.65,-0.83,20.00
-3,-21,-628,-179,-335,3920,0.37,-0.28,-23.65,-1.79,-3.35,39.20,-5.97,1.47,24.81,3.82,-0.61,20.00
12,-10,-647,-153,-364,3935,0.41,-0.31,-25.23,-1.53,-3.64,39.35,-5.95,1.48,24.91,3.62,-0.73,20.00
3,-25,-719,-135,-345,3933,0.38,-0.43,-27.09,-1.35,-3.45,39.33,-5.94,1.47,25.02,3.73,-0.50,20.00
7,-17,-733,-153,-420,3852,0.39,-0.49,-28.85,-1.53,-4.20,38.52,-5.95,1.47,25.14,3.68,-0.57,20.00
6,-24,-796,-51,-304,3939,0.39,-0.59,-30.82,-0.51,-3.04,39.39,-5.93,1.45,25.26,3.69,-0.43,20.00
0,-28,-805,-12,-393,3984,0.35,-0.70,-32.65,-0.12,-3.93,39.84,-5.93,1.42,25.39,3.77,-0.31,20.00
-2,-18,-766,-21,-483,3850,0.30,-0.74,-34.06,-0.21,-4.83,38.50,-5.95,1.39,25.52,3.82,-0.40,20.00
5,-1,-761,-4,-469,3806,0.30,-0.67,-35.30,-0.04,-4.69,38.06,-5.96,1.36,25.66,3.75,-0.61,20.00
13,-14,-786,-163,-408,3977,0.35,-0.69,-36.56,-1.63,-4.08,39.77,-5.96,1.36,25.81,3.64,-0.44,20.00
3,-31,-797,-135,-442,3926,0.33,-0.81,-37.77,-1.35,-4.42,39.26,-5.97,1.35,25.96,3.77,-0.19,20.00
9,-22,-791,76,-524,3879,0.35,-0.86,-38.81,0.76,-5.24,38.79,-5.99,1.32,26.11,3.70,-0.25,20.00
4,-12,-759,158,-503,3897,0.34,-0.85,-39.56,1.58,-5.03,38.97,-5.99,1.28,26.27,3.77,-0.35,20.00
3,-18,-661,101,-403,3914,0.33,-0.88,-39.64,1.01,-4.03,39.14,-6.00,1.24,26.43,3.79,-0.25,11.65
20,-7,-656,35,-390,3832,0.42,-0.83,-39.68,0.35,-3.90,38.32,-6.00,1.20,26.58,3.55,-0.37,11.17
5,-27,-652,-26,-351,3961,0.41,-0.91,-39.69,-0.26,-3.51,39.61,-5.98,1.17,26.74,3.72,-0.08,10.81
9,-13,-643,-49,-282,3891,0.42,-0.90,-39.64,-0.49,-2.82,38.91,-5.97,1.15,26.90,3.66,-0.23,10.08
8,-3,-661,-42,-411,3916,0.43,-0.83,-39.71,-0.42,-4.11,39.16,-5.97,1.11,27.06,3.67,-0.36,11.52
0,-19,-667,-28,-460,3959,0.38,-0.86,-39.81,-0.28,-4.60,39.59,-5.98,1.08,27.21,3.79,-0.13,11.91
9,-26,-726,-80,-551,3854,0.40,-0.93,-40.25,-0.80,-5.51,38.54,-6.00,1.06,27.37,3.69,-0.00,16.42
6,-21,-740,-114,-585,3836,0.40,-0.97,-40.74,-1.14,-5.85,38.36,-6.02,1.04,27.54,3.74,-0.04,17.07
10,-16,-756,-84,-515,3872,0.42,-0.97,-41.28,-0.84,-5.15,38.72,-6.04,1.02,27.70,3.70,-0.08,17.85
3,-6,-747,-83,-461,3854,0.39,-0.91,-41.71,-0.83,-4.61,38.54,-6.06,1.00,27.87,3.80,-0.22,16.61
19,-12,-677,52,-480,3892,0.47,-0.89,-41.67,0.52,-4.80,38.92,-6.07,0.97,28.03,3.59,-0.13,10.71
17,-17,-650,45,-488,3894,0.53,-0.91,-41.47,0.45,-4.88,38.94,-6.08,0.93,28.20,3.59,-0.04,8.62
3,-8,-637,44,-417,3892,0.49,-0.86,-41.20,0.44,-4.17,38.92,-6.08,0.89,28.36,3.78,-0.14,7.78
8,-11,-616,53,-437,3891,0.49,-0.84,-40.84,0.53,-4.37,38.91,-6.09,0.85,28.52,3.72,-0.08,6.37
10,-6,-565,-26,-394,3959,0.50,-0.80,-40.20,-0.26,-3.94,39.59,-6.07,0.82,28.68,3.68,-0.14,2.71
18,-29,-549,-60,-525,3821,0.56,-0.89,-39.53,-0.60,-5.25,38.21,-6.09,0.80,28.84,3.58,0.19,2.06
8,-11,-529,-85,-641,3868,0.56,-0.87,-38.81,-0.85,-6.41,38.68,-6.11,0.78,28.99,3.71,-0.03,1.12
20,-11,-527,-119,-573,3830,0.62,-0.85,-38.14,-1.19,-5.73,38.30,-6.13,0.77,29.15,3.55,-0.03,1.64
7,-10,-522,-94,-504,3858,0.60,-0.83,-37.51,-0.94,-5.04,38.58,-6.14,0.76,29.29,3.72,-0.04,1.87
3,-4,-521,-80,-455,4033,0.56,-0.77,-36.94,-0.80,-4.55,40.33,-6.15,0.75,29.44,3.80,-0.13,2.38
7,-8,-518,-127,-394,4021,0.55,-0.74,-36.40,-1.27,-3.94,40.21,-6.15,0.75,29.59,3.75,-0.09,2.68
18,-14,-527,-99,-414,3790,0.60,-0.75,-35.98,-0.99,-4.14,37.90,-6.15,0.75,29.73,3.60,-0.02,3.88
4,-25,-589,-24,-270,3842,0.57,-0.83,-35.97,-0.24,-2.70,38.42,-6.13,0.73,29.87,3.76,0.16,9.12
5,-26,-610,-11,-248,4108,0.54,-0.91,-36.10,-0.11,-2.48,41.08,-6.11,0.70,30.01,3.75,0.22,10.76
6,-22,-579,-156,-567,4077,0.52,-0.95,-36.02,-1.56,-5.67,40.77,-6.12,0.70,30.16,3.76,0.19,8.20
9,-22,-553,-163,-473,3811,0.53,-0.99,-35.79,-1.63,-4.73,38.11,-6.13,0.69,30.30,3.72,0.21,6.23
13,4,-479,-96,-386,3902,0.55,-0.87,-35.13,-0.96,-3.86,39.02,-6.12,0.69,30.44,3.66,-0.15,0.64
-9,-14,-453,-19,-373,3940,0.44,-0.86,-34.38,-0.19,-3.73,39.40,-6.11,0.66,30.57,3.95,0.08,-0.78
12,4,-411,-34,-408,3860,0.47,-0.75,-33.45,-0.34,-4.08,38.60,-6.10,0.63,30.71,3.69,-0.15,-3.36
-9,-13,-416,-40,-479,3911,0.37,-0.76,-32.64,-0.40,-4.79,39.11,-6.12,0.61,30.84,3.99,0.06,-2.10
2,-9,-463,-89,-434,3914,0.34,-0.74,-32.20,-0.89,-4.34,39.14,-6.12,0.61,30.96,3.87,0.01,2.34
0,-13,-452,-50,-436,3895,0.31,-0.74,-31.74,-0.50,-4.36,38.95,-6.14,0.60,31.09,3.92,0.06,1.89
3,-19,-426,5,-447,3886,0.30,-0.78,-31.17,0.05,-4.47,38.86,-6.15,0.57,31.21,3.90,0.17,0.28
4,-11,-416,6,-444,3961,0.29,-0.77,-30.59,0.06,-4.44,39.61,-6.15,0.54,31.34,3.89,0.09,0.04
0,-7,-435,-38,-437,3965,0.26,-0.74,-30.18,-0.38,-4.37,39.65,-6.17,0.52,31.46,3.97,0.04,2.06
12,-12,-438,-30,-429,3897,0.31,-0.74,-29.84,-0.30,-4.29,38.97,-6.19,0.50,31.57,3.81,0.12,2.67
0,-12,-391,-123,-484,3903,0.28,-0.74,-29.24,-1.23,-4.84,39.03,-6.20,0.50,31.69,3.98,0.12,-0.68
7,-3,-378,-134,-466,3861,0.29,-0.68,-28.62,-1.34,-4.66,38.61,-6.20,0.50,31.80,3.89,-0.01,-1.14
1,-2,-366,-67,-440,3876,0.27,-0.63,-27.99,-0.67,-4.40,38.76,-6.21,0.50,31.91,3.98,-0.05,-1.50
6,-18,-372,-77,-449,3980,0.28,-0.67,-27.46,-0.77,-4.49,39.80,-6.22,0.50,32.02,3.92,0.16,-0.44
11,-27,-402,-36,-368,3924,0.32,-0.77,-27.17,-0.36,-3.68,39.24,-6.20,0.49,32.13,3.83,0.32,2.40
5,-19,-403,-50,-379,3914,0.32,-0.81,-26.91,-0.50,-3.79,39.14,-6.18,0.48,32.24,3.89,0.24,2.75
8,-15,-410,-118,-386,3939,0.33,-0.82,-26.72,-1.18,-3.86,39.39,-6.18,0.48,32.34,3.84,0.20,3.53
4,-12,-409,-79,-399,3845,0.33,-0.81,-26.54,-0.79,-3.99,38.45,-6.17,0.48,32.45,3.89,0.16,3.63
5,-9,-346,-39,-422,3909,0.32,-0.78,-26.00,-0.39,-4.22,39.09,-6.17,0.49,32.55,3.88,0.11,-1.14
2,-9,-340,-45,-406,3888,0.30,-0.76,-25.47,-0.45,-4.06,38.88,-6.15,0.48,32.65,3.91,0.10,-1.10
4,-14,-311,-17,-447,3884,0.30,-0.77,-24.82,-0.17,-4.47,38.84,-6.17,0.46,32.75,3.90,0.18,-2.88
4,-12,-298,14,-487,3897,0.29,-0.77,-24.16,0.14,-4.87,38.97,-6.18,0.44,32.85,3.91,0.17,-3.29
4,-7,-271,-30,-544,3886,0.29,-0.73,-23.39,-0.30,-5.44,38.86,-6.20,0.42,32.94,3.93,0.10,-4.78
6,-6,-252,-69,-494,3886,0.30,-0.70,-22.59,-0.69,-4.94,38.86,-6.22,0.42,33.03,3.91,0.08,-5.55
-2,-4,-203,-93,-457,3903,0.25,-0.65,-21.57,-0.93,-4.57,39.03,-6.22,0.43,33.12,4.03,0.03,-8.62
2,3,-188,-76,-448,3873,0.24,-0.57,-20.56,-0.76,-4.48,38.73,-6.23,0.43,33.20,3.99,-0.09,-8.83
3,1,-139,-114,-393,3897,0.23,-0.50,-19.35,-1.14,-3.93,38.97,-6.22,0.44,33.27,3.98,-0.09,-11.71
0,3,-91,-145,-355,3901,0.21,-0.44,-17.97,-1.45,-3.55,39.01,-6.21,0.44,33.34,4.02,-0.15,-14.32
0,3,-46,-80,-414,3897,0.19,-0.37,-16.46,-0.80,-4.14,38.97,-6.21,0.45,33.41,4.02,-0.18,-16.53
0,2,-45,-53,-437,3907,0.17,-0.32,-15.08,-0.53,-4.37,39.07,-6.22,0.46,33.47,4.03,-0.19,-15.17
1,1,-64,-40,-432,3895,0.16,-0.29,-13.97,-0.40,-4.32,38.95,-6.23,0.47,33.53,4.03,-0.20,-12.38
3,4,-72,-61,-434,3889,0.16,-0.23,-13.01,-0.61,-4.34,38.89,-6.24,0.48,33.58,4.01,-0.27,-10.70
0,6,-57,-74,-492,3894,0.15,-0.17,-12.06,-0.74,-4.92,38.94,-6.25,0.48,33.62,4.07,-0.32,-10.96
0,6,-55,-45,-505,3892,0.13,-0.12,-11.19,-0.45,-5.05,38.92,-6.27,0.48,33.67,4.08,-0.34,-10.22
1,4,-74,-91,-505,3903,0.12,-0.08,-10.52,-0.91,-5.05,39.03,-6.28,0.49,33.71,4.08,-0.33,-7.90
0,-4,-80,-145,-490,3886,0.11,-0.10,-9.95,-1.45,-4.90,38.86,-6.29,0.50,33.75,4.11,-0.24,-6.80
0,-9,-100,-147,-406,3914,0.10,-0.14,-9.57,-1.47,-4.06,39.14,-6.29,0.51,33.79,4.11,-0.17,-4.70
0,-10,-96,-104,-350,3891,0.09,-0.19,-9.20,-1.04,-3.50,38.91,-6.28,0.52,33.83,4.10,-0.14,-4.65
1,-4,-57,15,-324,3923,0.09,-0.20,-8.63,0.15,-3.24,39.23,-6.26,0.50,33.86,4.08,-0.21,-7.35
-1,-2,-40,35,-319,3914,0.07,-0.19,-8.01,0.35,-3.19,39.14,-6.24,0.49,33.89,4.10,-0.22,-8.14
-2,1,-11,-36,-411,3900,0.05,-0.16,-7.27,-0.36,-4.11,39.00,-6.23,0.49,33.92,4.11,-0.27,-9.82
-1,0,-9,-34,-426,3891,0.04,-0.15,-6.60,-0.34,-4.26,38.91,-6.24,0.49,33.95,4.11,-0.26,-9.28
0,3,-6,-59,-411,3889,0.04,-0.11,-5.98,-0.59,-4.11,38.89,-6.23,0.51,33.97,4.10,-0.32,-8.88
-1,3,-1,-67,-411,3896,0.03,-0.08,-5.39,-0.67,-4.11,38.96,-6.23,0.52,33.99,4.11,-0.34,-8.68
-1,1,-2,-58,-433,3898,0.02,-0.07,-4.86,-0.58,-4.33,38.98,-6.23,0.53,34.01,4.12,-0.34,-8.04
-1,1,-2,-57,-432,3896,0.01,-0.06,-4.39,-0.57,-4.32,38.96,-6.24,0.55,34.03,4.12,-0.35,-7.54
3,-1,-7,-60,-462,3855,0.03,-0.06,-3.99,-0.60,-4.62,38.55,-6.25,0.56,34.04,4.08,-0.33,-6.70
2,2,-14,-34,-504,3876,0.04,-0.04,-3.68,-0.34,-5.04,38.76,-6.27,0.55,34.06,4.10,-0.37,-5.77
1,-1,-14,-72,-398,3888,0.04,-0.04,-3.39,-0.72,-3.98,38.88,-6.26,0.57,34.07,4.10,-0.34,-5.47
-1,-2,-12,-61,-395,3899,0.03,-0.05,-3.13,-0.61,-3.95,38.99,-6.25,0.57,34.08,4.12,-0.34,-5.36
0,-1,-6,-74,-394,3901,0.03,-0.05,-2.85,-0.74,-3.94,39.01,-6.23,0.59,34.10,4.10,-0.35,-5.58
1,0,-3,-70,-395,3900,0.03,-0.05,-2.58,-0.70,-3.95,39.00,-6.22,0.60,34.11,4.08,-0.38,-5.55
0,-2,0,-54,-434,3911,0.03,-0.05,-2.33,-0.54,-4.34,39.11,-6.23,0.61,34.11,4.10,-0.36,-5.53
0,-3,1,-47,-431,3904,0.02,-0.07,-2.09,-0.47,-4.31,39.04,-6.24,0.62,34.12,4.11,-0.35,-5.37
0,-1,-3,-57,-436,3908,0.02,-0.07,-1.90,-0.57,-4.36,39.08,-6.25,0.64,34.13,4.12,-0.38,-4.83
2,0,-6,-39,-462,3912,0.03,-0.06,-1.74,-0.39,-4.62,39.12,-6.27,0.64,34.14,4.10,-0.40,-4.41
1,-1,-46,19,-556,3886,0.03,-0.06,-1.85,0.19,-5.56,38.86,-6.29,0.63,34.15,4.12,-0.38,-1.14
4,1,-60,85,-463,3923,0.06,-0.05,-2.03,0.85,-4.63,39.23,-6.29,0.61,34.15,4.08,-0.39,-0.14
0,-3,-47,-49,-356,3899,0.05,-0.06,-2.11,-0.49,-3.56,38.99,-6.27,0.61,34.16,4.12,-0.34,-1.33
2,-3,-44,-57,-363,3867,0.06,-0.07,-2.17,-0.57,-3.63,38.67,-6.25,0.61,34.17,4.08,-0.34,-1.65
4,4,-64,-60,-397,3877,0.08,-0.04,-2.34,-0.60,-3.97,38.77,-6.24,0.62,34.18,4.04,-0.44,-0.14
3,1,-47,-33,-405,3920,0.09,-0.03,-2.40,-0.33,-4.05,39.20,-6.22,0.61,34.19,4.03,-0.40,-1.63
-1,-5,-25,-195,-427,3924,0.07,-0.06,-2.31,-1.95,-4.27,39.24,-6.22,0.63,34.20,4.09,-0.33,-3.41
0,-6,-22,-224,-414,3913,0.06,-0.09,-2.21,-2.24,-4.14,39.13,-6.22,0.65,34.21,4.08,-0.32,-3.56
-2,-5,-27,-34,-395,3884,0.05,-0.11,-2.16,-0.34,-3.95,38.84,-6.20,0.64,34.22,4.10,-0.32,-3.08
-3,-5,-40,22,-384,3892,0.02,-0.13,-2.18,0.22,-3.84,38.92,-6.19,0.62,34.22,4.11,-0.30,-2.00
0,-5,-103,57,-365,3934,0.02,-0.15,-2.59,0.57,-3.65,39.34,-6.18,0.60,34.23,4.07,-0.28,2.90
3,-9,-134,80,-421,3898,0.04,-0.19,-3.15,0.80,-4.21,38.98,-6.18,0.58,34.25,4.03,-0.20,4.93
7,-2,-136,-45,-460,3918,0.08,-0.18,-3.67,-0.45,-4.60,39.18,-6.20,0.58,34.26,3.98,-0.29,4.56
0,-4,-130,-32,-458,3857,0.07,-0.19,-4.09,-0.32,-4.58,38.57,-6.22,0.58,34.28,4.08,-0.26,3.59
7,3,-125,-93,-404,3889,0.10,-0.15,-4.45,-0.93,-4.04,38.89,-6.21,0.59,34.29,3.97,-0.36,2.80
8,5,-128,-144,-470,3911,0.14,-0.10,-4.78,-1.44,-4.70,39.11,-6.22,0.61,34.31,3.95,-0.42,2.69
1,-1,-105,-154,-532,3926,0.13,-0.10,-4.94,-1.54,-5.32,39.26,-6.23,0.62,34.33,4.05,-0.35,0.57
-1,-3,-90,-148,-509,3894,0.11,-0.11,-5.00,-1.48,-5.09,38.94,-6.24,0.63,34.35,4.08,-0.34,-0.76
-1,1,-39,-95,-415,3925,0.10,-0.09,-4.74,-0.95,-4.15,39.25,-6.24,0.64,34.37,4.09,-0.40,-4.81
1,-1,-39,-81,-436,3912,0.09,-0.09,-4.50,-0.81,-4.36,39.12,-6.24,0.66,34.39,4.07,-0.39,-4.56
2,-2,-45,-71,-433,3905,0.10,-0.09,-4.33,-0.71,-4.33,39.05,-6.24,0.68,34.41,4.06,-0.38,-3.86
2,-3,-48,-79,-443,3885,0.10,-0.10,-4.19,-0.79,-4.43,38.85,-6.25,0.69,34.42,4.06,-0.38,-3.46
1,-2,-35,-130,-427,3916,0.10,-0.10,-3.98,-1.30,-4.27,39.16,-6.25,0.71,34.44,4.08,-0.40,-4.35
1,0,-32,-140,-423,3916,0.09,-0.09,-3.78,-1.40,-4.23,39.16,-6.25,0.72,34.45,4.08,-0.44,-4.39
4,13,-46,-32,-473,3700,0.11,-0.00,-3.68,-0.32,-4.73,37.00,-6.27,0.72,34.47,4.05,-0.63,-3.10
-3,2,-48,47,-460,3796,0.08,0.01,-3.61,0.47,-4.60,37.96,-6.28,0.70,34.48,4.15,-0.49,-2.85
3,4,-50,-86,-442,3929,0.09,0.03,-3.55,-0.86,-4.42,39.29,-6.28,0.71,34.50,4.07,-0.53,-2.63
2,6,-50,-74,-452,3912,0.09,0.07,-3.50,-0.74,-4.52,39.12,-6.29,0.73,34.51,4.09,-0.58,-2.58
0,-3,-82,-56,-539,3866,0.08,0.04,-3.65,-0.56,-5.39,38.66,-6.31,0.73,34.53,4.13,-0.46,-0.03
3,-4,-100,-62,-540,3895,0.09,0.01,-3.90,-0.62,-5.40,38.95,-6.33,0.73,34.54,4.10,-0.44,1.24
10,-9,-192,8,-530,3856,0.14,-0.04,-4.68,0.08,-5.30,38.56,-6.34,0.72,34.56,4.01,-0.35,8.20
10,-14,-249,70,-580,3856,0.19,-0.13,-5.73,0.70,-5.80,38.56,-6.36,0.70,34.58,4.00,-0.25,11.92
13,-11,-234,-62,-267,3916,0.25,-0.18,-6.58,-0.62,-2.67,39.16,-6.34,0.70,34.61,3.93,-0.26,9.74
9,-11,-200,-90,-230,3927,0.28,-0.23,-7.14,-0.90,-2.30,39.27,-6.32,0.70,34.64,3.95,-0.24,6.26
3,-7,-177,-175,-312,3939,0.27,-0.25,-7.51,-1.75,-3.12,39.39,-6.31,0.71,34.67,4.02,-0.28,3.92
0,-13,-205,-215,-387,3867,0.24,-0.30,-8.01,-2.15,-3.87,38.67,-6.30,0.72,34.70,4.06,-0.20,5.76
1,-15,-325,-62,-181,3944,0.23,-0.36,-9.19,-0.62,-1.81,39.44,-6.28,0.72,34.74,4.04,-0.15,14.68
1,-3,-338,-99,-255,3866,0.21,-0.35,-10.33,-0.99,-2.55,38.66,-6.27,0.72,34.78,4.04,-0.29,14.56
10,0,-409,-157,-533,3967,0.25,-0.31,-11.80,-1.57,-5.33,39.67,-6.28,0.72,34.82,3.92,-0.35,19.03
18,-4,-427,-106,-553,3855,0.33,-0.30,-13.22,-1.06,-5.53,38.55,-6.29,0.72,34.88,3.80,-0.30,19.04
-4,-12,-487,-23,-419,3941,0.28,-0.35,-14.87,-0.23,-4.19,39.41,-6.28,0.70,34.94,4.08,-0.18,20.00
-1,-23,-477,50,-404,3943,0.24,-0.45,-16.29,0.50,-4.04,39.43,-6.28,0.67,35.00,4.06,0.01,20.00
3,-16,-397,30,-485,3876,0.24,-0.51,-17.08,0.30,-4.85,38.76,-6.29,0.65,35.07,4.02,-0.03,12.39
10,-21,-362,25,-461,3921,0.27,-0.58,-17.58,0.25,-4.61,39.21,-6.30,0.62,35.14,3.92,0.08,8.89
5,-7,-259,-19,-358,3932,0.28,-0.57,-17.41,-0.19,-3.58,39.32,-6.28,0.61,35.21,3.97,-0.08,0.34
6,0,-239,-4,-388,3932,0.29,-0.51,-17.12,-0.04,-3.88,39.32,-6.26,0.59,35.27,3.95,-0.18,-1.06
2,-8,-230,27,-339,3908,0.27,-0.51,-16.81,0.27,-3.39,39.08,-6.25,0.57,35.34,3.99,-0.07,-1.50
2,-8,-239,-34,-403,3897,0.25,-0.51,-16.59,-0.34,-4.03,38.97,-6.23,0.55,35.41,3.98,-0.06,-0.51
12,7,-236,-123,-413,3885,0.30,-0.41,-16.37,-1.23,-4.13,38.85,-6.23,0.56,35.47,3.84,-0.28,-0.53
3,-3,-240,-104,-417,3886,0.29,-0.39,-16.20,-1.04,-4.17,38.86,-6.23,0.57,35.53,3.95,-0.18,-0.02
11,3,-258,-68,-339,3931,0.33,-0.33,-16.15,-0.68,-3.39,39.31,-6.21,0.57,35.60,3.83,-0.27,1.55
9,6,-256,-130,-358,3909,0.35,-0.26,-16.10,-1.30,-3.58,39.09,-6.20,0.58,35.66,3.84,-0.34,1.43
5,39,-308,-190,-453,3880,0.35,0.00,-16.37,-1.90,-4.53,38.80,-6.20,0.59,35.73,3.89,-0.85,5.55
12,25,-309,-183,-378,3927,0.38,0.15,-16.62,-1.83,-3.78,39.27,-6.19,0.60,35.79,3.79,-0.75,5.36
7,-7,-304,-123,-440,3916,0.39,0.10,-16.81,-1.23,-4.40,39.16,-6.19,0.61,35.86,3.85,-0.36,4.73
-3,-13,-318,-111,-440,3906,0.33,0.01,-17.07,-1.11,-4.40,39.06,-6.20,0.62,35.93,3.99,-0.26,5.64
3,-24,-393,-33,-299,3929,0.32,-0.14,-17.76,-0.33,-2.99,39.29,-6.18,0.61,36.00,3.91,-0.06,11.25
7,-24,-402,-6,-339,3918,0.33,-0.27,-18.43,-0.06,-3.39,39.18,-6.16,0.59,36.07,3.85,0.01,11.29
2,-36,-414,-90,-398,3899,0.31,-0.46,-19.12,-0.90,-3.98,38.99,-6.15,0.60,36.15,3.91,0.22,11.58
2,-26,-407,-54,-385,3908,0.29,-0.58,-19.69,-0.54,-3.85,39.08,-6.14,0.60,36.23,3.91,0.15,10.38
5,-14,-390,-36,-431,3875,0.29,-0.60,-20.10,-0.36,-4.31,38.75,-6.15,0.58,36.31,3.88,0.03,8.49
9,-14,-402,-40,-482,3928,0.32,-0.63,-20.54,-0.40,-4.82,39.28,-6.17,0.57,36.39,3.84,0.05,9.03
12,-12,-452,-26,-482,3898,0.36,-0.64,-21.24,-0.26,-4.82,38.98,-6.19,0.55,36.47,3.79,0.04,12.52
12,-17,-477,-15,-416,3883,0.40,-0.68,-22.03,-0.15,-4.16,38.83,-6.18,0.52,36.56,3.78,0.14,13.80
10,-24,-597,-37,-404,3919,0.42,-0.76,-23.47,-0.37,-4.04,39.19,-6.16,0.51,36.65,3.78,0.26,20.00
14,-17,-622,-44,-374,3886,0.46,-0.79,-24.91,-0.44,-3.74,38.86,-6.15,0.50,36.75,3.70,0.20,20.00
12,-21,-669,-110,-316,3899,0.49,-0.84,-26.50,-1.10,-3.16,38.99,-6.13,0.50,36.86,3.70,0.27,20.00
-9,-27,-663,-83,-384,3859,0.38,-0.92,-27.90,-0.83,-3.84,38.59,-6.12,0.50,36.97,3.99,0.37,20.00
16,-2,-639,-46,-514,3930,0.44,-0.84,-29.01,-0.46,-5.14,39.30,-6.14,0.48,37.08,3.68,0.05,20.00
13,0,-628,-37,-530,3875,0.48,-0.75,-29.94,-0.37,-5.30,38.75,-6.15,0.47,37.20,3.71,0.00,18.16
1,7,-613,72,-624,3900,0.44,-0.64,-30.68,0.72,-6.24,39.00,-6.17,0.44,37.32,3.88,-0.11,16.09
20,19,-676,18,-604,3924,0.51,-0.46,-31.74,0.18,-6.04,39.24,-6.19,0.42,37.45,3.63,-0.32,20.00
20,17,-899,-4,-601,3877,0.59,-0.31,-34.05,-0.04,-6.01,38.77,-6.20,0.40,37.58,3.62,-0.34,20.00
-2,-6,-967,-93,-616,3874,0.51,-0.31,-36.54,-0.93,-6.16,38.74,-6.22,0.39,37.73,3.92,-0.06,20.00
21,-17,-1177,-181,-474,3921,0.59,-0.39,-40.07,-1.81,-4.74,39.21,-6.22,0.39,37.89,3.61,0.10,20.00
17,-29,-1219,-129,-515,3906,0.64,-0.52,-43.50,-1.29,-5.15,39.06,-6.23,0.38,38.06,3.65,0.31,20.00
13,-20,-1369,-160,-439,3807,0.65,-0.59,-47.50,-1.60,-4.39,38.07,-6.24,0.38,38.25,3.69,0.23,20.00
14,-30,-1379,-249,-383,3842,0.67,-0.72,-51.16,-2.49,-3.83,38.42,-6.23,0.37,38.45,3.67,0.40,20.00
7,-18,-1183,-154,-177,3863,0.65,-0.75,-53.26,-1.54,-1.77,38.63,-6.21,0.36,38.66,3.75,0.29,20.00
18,10,-1087,-24,-138,3935,0.69,-0.62,-54.56,-0.24,-1.38,39.35,-6.19,0.33,38.88,3.59,-0.08,20.00
12,9,-701,60,-239,3934,0.70,-0.50,-53.38,0.60,-2.39,39.34,-6.18,0.30,39.09,3.65,-0.10,-0.66
9,8,-554,81,-297,3894,0.68,-0.40,-51.43,0.81,-2.97,38.94,-6.16,0.26,39.30,3.68,-0.10,-11.05
6,6,-388,20,-332,3915,0.65,-0.33,-48.65,0.20,-3.32,39.15,-6.14,0.23,39.49,3.71,-0.09,-20.00
9,2,-370,29,-328,3936,0.64,-0.28,-46.04,0.29,-3.28,39.36,-6.12,0.20,39.67,3.67,-0.04,-20.00
4,-6,-385,-61,-443,3907,0.60,-0.29,-43.79,-0.61,-4.43,39.07,-6.13,0.20,39.85,3.75,0.06,-17.33
-1,-9,-421,-71,-428,3889,0.53,-0.32,-41.98,-0.71,-4.28,38.89,-6.13,0.20,40.01,3.84,0.11,-12.38
13,-14,-628,-96,-360,3944,0.56,-0.37,-41.61,-0.96,-3.60,39.44,-6.12,0.19,40.18,3.65,0.19,5.53
2,-12,-686,-109,-321,3875,0.52,-0.41,-41.63,-1.09,-3.21,38.75,-6.10,0.19,40.34,3.79,0.19,10.40
18,-20,-803,-135,-231,3851,0.57,-0.49,-42.37,-1.35,-2.31,38.51,-6.09,0.18,40.51,3.57,0.32,19.52
8,-32,-781,-175,-200,3887,0.57,-0.63,-42.89,-1.75,-2.00,38.87,-6.07,0.17,40.68,3.68,0.53,17.09
23,-14,-640,-48,-249,3924,0.65,-0.66,-42.51,-0.48,-2.49,39.24,-6.05,0.15,40.85,3.45,0.34,5.53
26,-9,-571,54,-308,3930,0.74,-0.64,-41.74,0.54,-3.08,39.30,-6.03,0.12,41.02,3.37,0.29,0.49
14,-14,-451,12,-448,3937,0.75,-0.67,-40.32,0.12,-4.48,39.37,-6.05,0.09,41.18,3.51,0.38,-8.19
1,-18,-434,-61,-441,3925,0.68,-0.71,-38.93,-0.61,-4.41,39.25,-6.05,0.09,41.33,3.70,0.45,-8.18
11,-12,-401,-127,-498,3880,0.68,-0.71,-37.49,-1.27,-4.98,38.80,-6.06,0.09,41.48,3.59,0.38,-9.45
8,-16,-395,-181,-441,3868,0.66,-0.74,-36.15,-1.81,-4.41,38.68,-6.06,0.09,41.62,3.63,0.44,-8.56
5,-10,-421,-100,-471,3888,0.63,-0.73,-35.10,-1.00,-4.71,38.88,-6.07,0.08,41.76,3.69,0.36,-5.26
5,-20,-443,-78,-481,3935,0.60,-0.77,-34.29,-0.78,-4.81,39.35,-6.08,0.08,41.90,3.71,0.50,-2.55
6,-22,-556,-154,-539,3902,0.57,-0.83,-34.26,-1.54,-5.39,39.02,-6.09,0.08,42.04,3.71,0.55,7.05
1,-21,-591,-148,-581,3892,0.52,-0.88,-34.43,-1.48,-5.81,38.92,-6.10,0.07,42.17,3.80,0.56,9.81
8,-8,-696,-202,-519,3875,0.52,-0.84,-35.24,-2.02,-5.19,38.75,-6.10,0.07,42.31,3.72,0.39,17.85
18,-7,-750,-168,-413,3900,0.58,-0.80,-36.29,-1.68,-4.13,39.00,-6.10,0.07,42.46,3.58,0.37,20.00
9,-12,-764,-79,-298,3894,0.57,-0.79,-37.32,-0.79,-2.98,38.94,-6.08,0.06,42.60,3.67,0.43,20.00
15,-12,-756,-67,-293,3902,0.61,-0.78,-38.20,-0.67,-2.93,39.02,-6.07,0.05,42.76,3.58,0.43,19.75
2,-12,-710,-47,-303,3934,0.56,-0.78,-38.71,-0.47,-3.03,39.34,-6.05,0.04,42.91,3.74,0.44,15.30
12,-14,-682,-39,-243,3885,0.58,-0.79,-39.00,-0.39,-2.43,38.85,-6.03,0.02,43.06,3.60,0.48,12.61
15,-7,-706,-96,-402,3901,0.61,-0.75,-39.41,-0.96,-4.02,39.01,-6.02,0.02,43.22,3.55,0.38,14.20
6,-14,-730,-89,-376,3901,0.59,-0.76,-39.92,-0.89,-3.76,39.01,-6.01,0.02,43.38,3.66,0.47,15.67
10,-13,-838,-29,-400,3882,0.59,-0.76,-41.04,-0.29,-4.00,38.82,-6.01,0.01,43.54,3.60,0.46,20.00
14,-6,-866,-78,-433,3925,0.61,-0.72,-42.22,-0.78,-4.33,39.25,-6.01,0.01,43.71,3.55,0.36,20.00
15,-6,-932,-35,-529,3865,0.64,-0.69,-43.68,-0.35,-5.29,38.65,-6.02,-0.01,43.88,3.53,0.36,20.00
7,-14,-901,-40,-519,3887,0.62,-0.70,-44.81,-0.40,-5.19,38.87,-6.04,-0.02,44.06,3.65,0.47,20.00
17,4,-685,35,-476,3904,0.66,-0.61,-44.51,0.35,-4.76,39.04,-6.05,-0.05,44.24,3.52,0.24,6.93
9,-9,-608,84,-386,3914,0.65,-0.60,-43.76,0.84,-3.86,39.14,-6.04,-0.09,44.41,3.61,0.41,1.17
8,-2,-269,193,-367,3910,0.64,-0.56,-41.03,1.93,-3.67,39.10,-6.03,-0.13,44.57,3.63,0.34,-20.00
-1,-6,-189,59,-397,3920,0.57,-0.54,-38.08,0.59,-3.97,39.20,-6.03,-0.16,44.73,3.76,0.40,-20.00
5,-1,-95,-100,-419,3926,0.54,-0.49,-34.85,-1.00,-4.19,39.26,-6.02,-0.16,44.86,3.69,0.32,-20.00
3,-3,-87,-92,-411,3929,0.50,-0.46,-31.90,-0.92,-4.11,39.29,-6.02,-0.16,44.99,3.73,0.33,-20.00
-1,-4,-89,-125,-366,3891,0.45,-0.44,-29.25,-1.25,-3.66,38.91,-6.01,-0.15,45.11,3.80,0.33,-20.00
-1,-8,-103,-140,-331,3899,0.40,-0.44,-26.95,-1.40,-3.31,38.99,-6.00,-0.15,45.21,3.81,0.38,-20.00
3,-4,-247,-315,-224,3885,0.38,-0.42,-25.76,-3.15,-2.24,38.85,-5.99,-0.15,45.32,3.76,0.32,-10.43
5,-3,-334,-214,-271,3873,0.37,-0.40,-25.23,-2.14,-2.71,38.73,-5.98,-0.14,45.42,3.74,0.29,-2.50
8,1,-473,-79,-352,3914,0.38,-0.35,-25.59,-0.79,-3.52,39.14,-5.97,-0.14,45.52,3.69,0.23,8.88
17,-1,-487,-61,-365,3906,0.45,-0.32,-26.00,-0.61,-3.65,39.06,-5.96,-0.14,45.62,3.55,0.24,9.62
12,3,-512,81,-476,3914,0.47,-0.27,-26.52,0.81,-4.76,39.14,-5.97,-0.16,45.73,3.60,0.18,11.18
7,2,-511,69,-496,3901,0.47,-0.23,-26.99,0.69,-4.96,39.01,-5.98,-0.18,45.83,3.67,0.19,10.59
7,-6,-495,-47,-446,3879,0.47,-0.25,-27.31,-0.47,-4.46,38.79,-5.99,-0.18,45.94,3.68,0.29,8.89
0,-5,-474,-28,-447,3923,0.42,-0.25,-27.47,-0.28,-4.47,39.23,-6.00,-0.18,46.05,3.79,0.28,6.93
13,-4,-334,-129,-478,3922,0.46,-0.25,-26.76,-1.29,-4.78,39.22,-6.00,-0.18,46.16,3.62,0.27,-4.19
-2,-8,-300,-118,-460,3863,0.40,-0.28,-25.91,-1.18,-4.60,38.63,-6.01,-0.17,46.26,3.83,0.32,-6.19
0,-6,-257,-96,-397,3953,0.36,-0.28,-24.89,-0.96,-3.97,39.53,-6.00,-0.16,46.36,3.82,0.30,-8.75
-5,-12,-279,-125,-336,3927,0.29,-0.33,-24.10,-1.25,-3.36,39.27,-5.99,-0.16,46.46,3.89,0.38,-6.07
2,-14,-403,-103,-295,3884,0.28,-0.38,-24.15,-1.03,-2.95,38.84,-5.98,-0.16,46.55,3.81,0.43,4.38
0,-1,-440,-204,-299,3876,0.25,-0.35,-24.42,-2.04,-2.99,38.76,-5.97,-0.15,46.65,3.84,0.26,7.22
23,-9,-528,-66,-331,3975,0.36,-0.37,-25.20,-0.66,-3.31,39.75,-5.96,-0.15,46.75,3.51,0.36,13.84
-4,-30,-539,-4,-360,3901,0.30,-0.52,-25.97,-0.04,-3.60,39.01,-5.94,-0.16,46.85,3.84,0.67,13.95
0,-12,-572,-206,-244,3762,0.27,-0.54,-26.86,-2.06,-2.44,37.62,-5.92,-0.16,46.96,3.80,0.47,15.79
3,-15,-561,-124,-412,3952,0.26,-0.57,-27.60,-1.24,-4.12,39.52,-5.92,-0.15,47.07,3.77,0.52,14.07
10,-18,-611,54,-318,3969,0.30,-0.63,-28.56,0.54,-3.18,39.69,-5.91,-0.18,47.18,3.66,0.59,17.27
30,-14,-633,49,-392,3943,0.45,-0.65,-29.57,0.49,-3.92,39.43,-5.90,-0.21,47.30,3.35,0.57,18.06
11,-27,-766,-248,-619,3888,0.47,-0.75,-31.28,-2.48,-6.19,38.88,-5.91,-0.21,47.42,3.57,0.77,20.00
20,-33,-905,-137,-582,3866,0.55,-0.88,-33.68,-1.37,-5.82,38.66,-5.92,-0.21,47.56,3.44,0.89,20.00
5,-31,-1223,-108,-631,3911,0.52,-0.98,-37.77,-1.08,-6.31,39.11,-5.93,-0.23,47.71,3.64,0.92,20.00
17,-30,-1316,-72,-702,3965,0.57,-1.06,-42.02,-0.72,-7.02,39.65,-5.94,-0.24,47.87,3.49,0.95,20.00
10,-25,-1646,-211,-748,3901,0.58,-1.11,-47.86,-2.11,-7.48,39.01,-5.96,-0.26,48.06,3.57,0.92,20.00
26,-23,-1749,-283,-803,3924,0.68,-1.14,-53.74,-2.83,-8.03,39.24,-5.97,-0.27,48.28,3.35,0.92,20.00
6,-30,-2119,-363,-807,3893,0.65,-1.21,-61.29,-3.63,-8.07,38.93,-5.98,-0.29,48.52,3.61,1.04,20.00
25,-10,-2245,-323,-767,3878,0.74,-1.15,-68.86,-3.23,-7.67,38.78,-5.99,-0.31,48.79,3.35,0.80,20.00
44,-44,-2669,-62,-706,3834,0.93,-1.30,-78.25,-0.62,-7.06,38.34,-6.00,-0.34,49.10,3.05,1.28,20.00
44,-35,-2761,-74,-576,3770,1.11,-1.38,-87.27,-0.74,-5.76,37.70,-6.01,-0.38,49.45,2.99,1.23,20.00
65,-47,-2769,270,-224,3916,1.39,-1.53,-95.43,2.70,-2.24,39.16,-5.99,-0.44,49.83,2.61,1.48,20.00
50,-58,-2611,255,-131,3938,1.56,-1.73,-101.82,2.55,-1.31,39.38,-5.96,-0.50,50.23,2.70,1.73,20.00
20,-21,-1991,-46,-249,3862,1.52,-1.69,-103.78,-0.46,-2.49,38.62,-5.94,-0.54,50.65,3.05,1.30,20.00
24,-28,-1817,-12,-107,3950,1.52,-1.69,-104.49,-0.12,-1.07,39.50,-5.91,-0.59,51.06,2.99,1.41,20.00
-10,-19,-1292,-48,-335,3985,1.31,-1.64,-101.92,-0.48,-3.35,39.85,-5.89,-0.62,51.47,3.47,1.31,-3.09
4,-19,-1168,-29,-243,3984,1.20,-1.59,-98.85,-0.29,-2.43,39.84,-5.86,-0.66,51.86,3.33,1.31,-10.39
6,-20,-914,86,-319,3965,1.12,-1.55,-94.54,0.86,-3.19,39.65,-5.84,-0.71,52.24,3.32,1.35,-20.00
29,-14,-873,175,-326,3949,1.18,-1.48,-90.41,1.75,-3.26,39.49,-5.82,-0.77,52.59,3.01,1.28,-20.00
10,-16,-826,46,-331,3923,1.12,-1.43,-86.41,0.46,-3.31,39.23,-5.79,-0.81,52.94,3.24,1.31,-20.00
30,-2,-819,-46,-267,3918,1.19,-1.30,-82.77,-0.46,-2.67,39.18,-5.77,-0.84,53.27,2.96,1.11,-20.00
18,-19,-770,6,-275,3900,1.18,-1.29,-79.19,0.06,-2.75,39.00,-5.74,-0.87,53.58,3.09,1.33,-20.00
-3,-22,-715,88,-308,3883,1.05,-1.29,-75.63,0.88,-3.08,38.83,-5.71,-0.91,53.88,3.38,1.39,-20.00
17,-8,-487,83,-167,3901,1.05,-1.21,-71.04,0.83,-1.67,39.01,-5.69,-0.94,54.17,3.12,1.22,-20.00
4,-13,-391,148,-193,3922,0.97,-1.17,-66.32,1.48,-1.93,39.22,-5.66,-0.98,54.43,3.29,1.28,-20.00
11,-15,-152,-13,-360,3956,0.94,-1.14,-60.61,-0.13,-3.60,39.56,-5.65,-0.99,54.67,3.21,1.30,-20.00
5,-12,-134,-67,-370,3933,0.87,-1.10,-55.37,-0.67,-3.70,39.33,-5.64,-1.00,54.89,3.30,1.26,-20.00
3,-7,-85,-254,-351,3908,0.80,-1.04,-50.35,-2.54,-3.51,39.08,-5.63,-1.01,55.09,3.35,1.17,-20.00
2,-6,-66,-244,-351,3908,0.74,-0.97,-45.72,-2.44,-3.51,39.08,-5.62,-1.01,55.27,3.38,1.14,-20.00
-3,2,-15,-120,-380,3908,0.64,-0.86,-41.24,-1.20,-3.80,39.08,-5.62,-1.01,55.44,3.48,1.00,-20.00
-2,3,-12,-111,-367,3946,0.57,-0.76,-37.19,-1.11,-3.67,39.46,-5.61,-1.01,55.58,3.49,0.94,-20.00
-6,6,-60,-143,-318,3885,0.47,-0.64,-33.83,-1.43,-3.18,38.85,-5.60,-1.01,55.72,3.57,0.86,-20.00
3,8,-95,-92,-330,3868,0.45,-0.53,-31.03,-0.92,-3.30,38.68,-5.59,-1.00,55.84,3.47,0.79,-20.00
3,0,-175,-63,-400,3900,0.42,-0.48,-29.00,-0.63,-4.00,39.00,-5.59,-1.00,55.96,3.48,0.86,-20.00
-4,-5,-221,-63,-371,3895,0.35,-0.46,-27.44,-0.63,-3.71,38.95,-5.58,-0.99,56.07,3.59,0.90,-15.38
11,2,-309,-18,-122,3857,0.38,-0.40,-26.58,-0.18,-1.22,38.57,-5.56,-1.00,56.17,3.38,0.80,-7.03
-6,-16,-307,10,-186,3926,0.31,-0.46,-25.80,0.10,-1.86,39.26,-5.54,-1.01,56.27,3.60,1.04,-6.37
4,-10,-235,-168,-296,3868,0.30,-0.47,-24.65,-1.68,-2.96,38.68,-5.53,-1.00,56.37,3.48,0.97,-11.27
5,-8,-227,-285,-340,3901,0.30,-0.48,-23.57,-2.85,-3.40,39.01,-5.53,-0.99,56.47,3.46,0.95,-10.81
-4,-1,-218,-153,-386,3912,0.25,-0.43,-22.54,-1.53,-3.86,39.12,-5.53,-0.99,56.56,3.59,0.84,-10.49
-4,-2,-221,-96,-400,3920,0.20,-0.40,-21.64,-0.96,-4.00,39.20,-5.53,-0.98,56.64,3.61,0.83,-9.29
9,-6,-170,-29,-425,3890,0.23,-0.40,-20.51,-0.29,-4.25,38.90,-5.53,-0.97,56.72,3.45,0.88,-12.42
3,-5,-173,-86,-349,3902,0.23,-0.39,-19.52,-0.86,-3.49,39.02,-5.53,-0.96,56.80,3.52,0.85,-11.12
6,-7,-259,-157,-271,3887,0.24,-0.39,-19.14,-1.57,-2.71,38.87,-5.52,-0.95,56.88,3.47,0.87,-3.45
1,-14,-295,-136,-263,3933,0.22,-0.44,-19.03,-1.36,-2.63,39.33,-5.51,-0.95,56.95,3.53,0.97,-0.28
1,-11,-417,-97,-248,3899,0.21,-0.46,-19.67,-0.97,-2.48,38.99,-5.49,-0.94,57.03,3.53,0.94,9.37
6,-11,-438,-94,-301,3906,0.22,-0.48,-20.37,-0.94,-3.01,39.06,-5.48,-0.94,57.11,3.45,0.95,10.39
4,-5,-504,-68,-336,3923,0.23,-0.47,-21.41,-0.68,-3.36,39.23,-5.47,-0.93,57.20,3.47,0.86,14.88
14,-8,-522,-45,-351,3927,0.29,-0.47,-22.45,-0.45,-3.51,39.27,-5.47,-0.92,57.29,3.32,0.89,15.29
1,-6,-620,-87,-342,3868,0.27,-0.46,-23.99,-0.87,-3.42,38.68,-5.46,-0.91,57.38,3.48,0.86,20.00
3,-7,-640,-96,-405,3882,0.26,-0.45,-25.50,-0.96,-4.05,38.82,-5.46,-0.91,57.48,3.46,0.87,20.00
5,-9,-738,-2,-317,3887,0.26,-0.46,-27.45,-0.02,-3.17,38.87,-5.45,-0.91,57.59,3.43,0.90,20.00
4,-12,-765,-20,-310,3837,0.26,-0.49,-29.37,-0.20,-3.10,38.37,-5.44,-0.90,57.71,3.43,0.94,20.00
-1,-22,-749,-34,-310,3878,0.23,-0.58,-31.00,-0.34,-3.10,38.78,-5.42,-0.90,57.83,3.50,1.09,20.00
-6,-10,-726,-42,-290,3920,0.17,-0.58,-32.33,-0.42,-2.90,39.20,-5.41,-0.90,57.96,3.57,0.95,20.00
10,-10,-621,2,-392,3944,0.21,-0.58,-32.89,0.02,-3.92,39.44,-5.41,-0.90,58.09,3.37,0.95,12.56
13,-25,-596,-101,-360,3878,0.27,-0.68,-33.23,-1.01,-3.60,38.78,-5.41,-0.90,58.22,3.30,1.17,10.06
-3,-13,-555,-245,-292,3890,0.23,-0.69,-33.29,-2.45,-2.92,38.90,-5.40,-0.89,58.36,3.51,1.03,6.51
-5,-22,-562,-175,-327,3914,0.17,-0.75,-33.39,-1.75,-3.27,39.14,-5.39,-0.89,58.49,3.55,1.16,6.99
-6,-24,-602,-168,-414,3896,0.12,-0.82,-33.73,-1.68,-4.14,38.96,-5.39,-0.89,58.62,3.58,1.21,10.01
11,-4,-610,-114,-402,3916,0.17,-0.77,-34.07,-1.14,-4.02,39.16,-5.40,-0.89,58.76,3.36,0.95,10.31
-1,-10,-662,-89,-420,3855,0.15,-0.75,-34.71,-0.89,-4.20,38.55,-5.40,-0.89,58.90,3.51,1.01,14.04
5,-19,-677,-138,-381,3892,0.17,-0.79,-35.36,-1.38,-3.81,38.92,-5.40,-0.88,59.04,3.43,1.13,14.60
2,-27,-680,-2,-367,3943,0.16,-0.88,-35.98,-0.02,-3.67,39.43,-5.39,-0.88,59.18,3.47,1.26,14.19
6,-20,-677,52,-327,3933,0.18,-0.91,-36.51,0.52,-3.27,39.33,-5.37,-0.90,59.33,3.40,1.20,13.36
17,-17,-668,91,-349,3935,0.27,-0.92,-36.93,0.91,-3.49,39.35,-5.36,-0.93,59.47,3.22,1.19,12.13
11,-24,-656,20,-374,3908,0.31,-0.98,-37.24,0.20,-3.74,39.08,-5.36,-0.93,59.62,3.28,1.30,10.78
19,-25,-608,73,-509,4015,0.39,-1.03,-37.23,0.73,-5.09,40.15,-5.37,-0.95,59.77,3.16,1.35,6.71
14,-17,-572,106,-451,3990,0.44,-1.03,-36.99,1.06,-4.51,39.90,-5.38,-0.97,59.92,3.21,1.27,3.90
12,-7,-474,-216,-437,3950,0.47,-0.97,-36.18,-2.16,-4.37,39.50,-5.38,-0.97,60.06,3.22,1.13,-3.56
14,-13,-435,-232,-474,3947,0.51,-0.95,-35.22,-2.32,-4.74,39.47,-5.38,-0.97,60.20,3.18,1.19,-5.86
-1,-8,-446,-179,-413,3922,0.45,-0.91,-34.42,-1.79,-4.13,39.22,-5.38,-0.97,60.34,3.38,1.11,-4.09
4,-3,-490,-116,-360,3913,0.43,-0.84,-33.97,-1.16,-3.60,39.13,-5.38,-0.97,60.47,3.33,1.02,0.11
5,-2,-519,-61,-387,3952,0.42,-0.76,-33.73,-0.61,-3.87,39.52,-5.38,-0.97,60.60,3.32,0.98,2.80
-1,-8,-515,-20,-405,3849,0.37,-0.74,-33.50,-0.20,-4.05,38.49,-5.38,-0.97,60.74,3.41,1.04,2.69
7,-18,-559,-2,-385,3985,0.38,-0.77,-33.56,-0.02,-3.85,39.85,-5.38,-0.96,60.87,3.31,1.17,6.34
9,-11,-573,12,-364,3919,0.39,-0.76,-33.70,0.12,-3.64,39.19,-5.37,-0.96,61.00,3.28,1.08,7.37
19,-15,-639,-99,-327,3946,0.47,-0.78,-34.23,-0.99,-3.27,39.46,-5.37,-0.96,61.14,3.12,1.13,12.39
-4,-16,-672,-109,-363,3837,0.40,-0.80,-34.91,-1.09,-3.63,38.37,-5.36,-0.96,61.28,3.42,1.15,14.46
7,-12,-730,-188,-197,3923,0.40,-0.79,-35.87,-1.88,-1.97,39.23,-5.35,-0.96,61.42,3.28,1.10,18.34
13,-17,-741,-161,-223,3909,0.44,-0.82,-36.80,-1.61,-2.23,39.09,-5.33,-0.96,61.57,3.19,1.17,18.27
8,-15,-724,-9,-299,3904,0.44,-0.83,-37.54,-0.09,-2.99,39.04,-5.32,-0.96,61.72,3.23,1.15,16.04
1,-26,-674,109,-324,3893,0.41,-0.90,-37.90,1.09,-3.24,38.93,-5.30,-0.99,61.87,3.32,1.34,11.41
7,-23,-571,55,-469,3965,0.41,-0.95,-37.59,0.55,-4.69,39.65,-5.32,-1.01,62.02,3.26,1.33,2.99
15,-20,-534,55,-376,3865,0.46,-0.98,-37.09,0.55,-3.76,38.65,-5.33,-1.02,62.17,3.15,1.31,0.38
1,-22,-490,-46,-358,3859,0.42,-1.01,-36.37,-0.46,-3.58,38.59,-5.32,-1.01,62.31,3.33,1.35,-2.60
9,-11,-504,-44,-387,3889,0.43,-0.98,-35.81,-0.44,-3.87,38.89,-5.32,-1.01,62.45,3.23,1.20,-0.83
9,-19,-556,-70,-344,3868,0.44,-1.00,-35.62,-0.70,-3.44,38.68,-5.31,-1.01,62.59,3.22,1.30,3.76
1,-19,-558,-93,-367,3876,0.41,-1.01,-35.46,-0.93,-3.67,38.76,-5.31,-1.01,62.73,3.33,1.31,4.08
2,-15,-581,-89,-414,3879,0.38,-1.00,-35.46,-0.89,-4.14,38.79,-5.31,-1.01,62.88,3.33,1.26,6.02
16,-8,-603,-43,-366,3934,0.44,-0.95,-35.59,-0.43,-3.66,39.34,-5.31,-1.01,63.02,3.13,1.15,7.73
9,-7,-715,-15,-452,3876,0.45,-0.90,-36.39,-0.15,-4.52,38.76,-5.32,-1.02,63.16,3.22,1.12,16.36
26,-9,-710,-27,-354,3847,0.56,-0.87,-37.08,-0.27,-3.54,38.47,-5.31,-1.01,63.31,2.97,1.13,15.19
14,-7,-515,-114,-470,3919,0.59,-0.82,-36.52,-1.14,-4.70,39.19,-5.32,-1.01,63.45,3.10,1.09,-0.75
13,-7,-437,-77,-477,3863,0.61,-0.78,-35.53,-0.77,-4.77,38.63,-5.32,-1.02,63.59,3.11,1.08,-6.32
6,-8,-190,-57,-553,3946,0.59,-0.75,-33.14,-0.57,-5.53,39.46,-5.33,-1.02,63.73,3.21,1.08,-20.00
-2,-10,-123,18,-529,3902,0.52,-0.74,-30.57,0.18,-5.29,39.02,-5.35,-1.03,63.85,3.34,1.10,-20.00
-9,-13,-5,-135,-440,3912,0.41,-0.74,-27.55,-1.35,-4.40,39.12,-5.35,-1.03,63.96,3.47,1.14,-20.00
-9,-11,8,-136,-355,3916,0.31,-0.74,-24.74,-1.36,-3.55,39.16,-5.34,-1.02,64.05,3.51,1.11,-20.00
-7,-24,49,-261,-105,3806,0.24,-0.81,-21.97,-2.61,-1.05,38.06,-5.33,-1.02,64.14,3.50,1.29,-20.00
-4,-31,68,-156,-94,3865,0.19,-0.92,-19.36,-1.56,-0.94,38.65,-5.31,-1.02,64.22,3.48,1.42,-20.00
5,-85,24,-22,-279,4007,0.20,-1.34,-17.28,-0.22,-2.79,40.07,-5.30,-1.02,64.29,3.36,2.23,-20.00
-1,-90,-32,84,-372,3794,0.18,-1.76,-15.74,0.84,-3.72,37.94,-5.31,-1.04,64.35,3.45,2.48,-19.75
1,-18,-87,-11,-506,3825,0.16,-1.69,-14.70,-0.11,-5.06,38.25,-5.33,-1.04,64.41,3.44,1.60,-13.99
0,-11,-93,-51,-471,3838,0.15,-1.59,-13.80,-0.51,-4.71,38.38,-5.34,-1.04,64.46,3.46,1.47,-12.53
-1,-6,-133,-95,-346,3861,0.13,-1.47,-13.23,-0.95,-3.46,38.61,-5.33,-1.03,64.51,3.48,1.36,-8.55
11,-2,-155,-85,-345,3897,0.18,-1.33,-12.85,-0.85,-3.45,38.97,-5.33,-1.03,64.56,3.31,1.25,-6.29
11,10,-266,-78,-292,3874,0.23,-1.14,-13.19,-0.78,-2.92,38.74,-5.32,-1.02,64.62,3.29,1.02,2.76
12,4,-279,-109,-297,3927,0.28,-1.00,-13.57,-1.09,-2.97,39.27,-5.31,-1.01,64.67,3.25,1.03,3.45
14,22,-318,170,-281,3910,0.34,-0.77,-14.15,1.70,-2.81,39.10,-5.30,-1.03,64.73,3.19,0.74,6.13
4,3,-338,209,-325,3995,0.33,-0.67,-14.80,2.09,-3.25,39.95,-5.29,-1.06,64.79,3.31,0.94,7.13
-14,-7,-474,34,-347,3880,0.21,-0.65,-16.21,0.34,-3.47,38.80,-5.28,-1.05,64.85,3.57,1.04,17.16
-3,-6,-556,-18,-411,3886,0.17,-0.62,-17.98,-0.18,-4.11,38.86,-5.29,-1.04,64.92,3.46,1.01,20.00
7,-11,-750,-148,-351,3903,0.20,-0.62,-20.76,-1.48,-3.51,39.03,-5.29,-1.03,65.00,3.33,1.07,20.00
-3,-15,-810,-173,-425,3921,0.16,-0.65,-23.62,-1.73,-4.25,39.21,-5.29,-1.03,65.10,3.46,1.13,20.00
23,-19,-980,-50,-172,3860,0.28,-0.70,-27.24,-0.50,-1.72,38.60,-5.27,-1.03,65.21,3.09,1.20,20.00
24,-24,-1016,10,-237,3941,0.40,-0.78,-30.71,0.10,-2.37,39.41,-5.25,-1.04,65.33,3.02,1.29,20.00
1,-20,-1074,-28,-282,3874,0.37,-0.82,-34.19,-0.28,-2.82,38.74,-5.24,-1.04,65.46,3.29,1.26,20.00
18,-18,-1060,-34,-362,3879,0.44,-0.85,-37.24,-0.34,-3.62,38.79,-5.23,-1.04,65.61,3.06,1.25,20.00
11,-22,-992,-12,-352,3910,0.46,-0.90,-39.57,-0.12,-3.52,39.10,-5.23,-1.04,65.77,3.13,1.32,20.00
14,-21,-963,-13,-335,3916,0.50,-0.94,-41.48,-0.13,-3.35,39.16,-5.22,-1.04,65.93,3.07,1.32,20.00
6,-35,-918,92,-355,3885,0.49,-1.06,-42.94,0.92,-3.55,38.85,-5.21,-1.08,66.11,3.17,1.56,20.00
-3,-41,-890,38,-380,3917,0.42,-1.20,-44.07,0.38,-3.80,39.17,-5.22,-1.08,66.28,3.30,1.69,20.00
27,-32,-875,105,-276,3942,0.54,-1.28,-45.00,1.05,-2.76,39.42,-5.19,-1.11,66.46,2.88,1.64,20.00
28,-33,-888,121,-346,3843,0.66,-1.35,-45.92,1.21,-3.46,38.43,-5.19,-1.15,66.64,2.82,1.71,20.00
26,-27,-934,-41,-186,3859,0.75,-1.38,-47.02,-0.41,-1.86,38.59,-5.16,-1.16,66.83,2.79,1.65,20.00
25,-19,-948,-84,-317,3937,0.83,-1.36,-48.10,-0.84,-3.17,39.37,-5.15,-1.17,67.02,2.76,1.55,20.00
19,-12,-943,-120,-343,3914,0.86,-1.30,-49.05,-1.20,-3.43,39.14,-5.14,-1.17,67.22,2.81,1.45,20.00
25,-7,-946,-188,-309,3913,0.93,-1.21,-49.91,-1.88,-3.09,39.13,-5.13,-1.18,67.41,2.71,1.36,20.00
14,-12,-934,-104,-356,4007,0.92,-1.16,-50.62,-1.04,-3.56,40.07,-5.13,-1.18,67.62,2.84,1.40,19.45
2,-15,-923,-75,-338,3891,0.84,-1.14,-51.19,-0.75,-3.38,38.91,-5.12,-1.18,67.82,3.01,1.43,17.89
8,-8,-826,-77,-479,3829,0.81,-1.07,-51.11,-0.77,-4.79,38.29,-5.12,-1.19,68.02,2.95,1.32,9.74
16,-6,-763,-70,-420,3905,0.82,-1.00,-50.65,-0.70,-4.20,39.05,-5.12,-1.20,68.22,2.85,1.27,4.87
20,7,-554,-51,-406,3929,0.86,-0.86,-48.96,-0.51,-4.06,39.29,-5.12,-1.20,68.42,2.79,1.06,-11.07
-1,-1,-503,-58,-440,3852,0.77,-0.78,-47.14,-0.58,-4.40,38.52,-5.12,-1.21,68.61,3.08,1.13,-13.47
10,8,-347,19,-465,3931,0.75,-0.65,-44.54,0.19,-4.65,39.31,-5.13,-1.22,68.78,2.96,0.98,-20.00
1,3,-322,-53,-459,3904,0.69,-0.57,-42.05,-0.53,-4.59,39.04,-5.14,-1.22,68.95,3.10,1.00,-20.00
13,-24,-321,-28,-341,3940,0.70,-0.66,-39.80,-0.28,-3.41,39.40,-5.13,-1.22,69.11,2.94,1.36,-20.00
-9,-26,-324,24,-371,3910,0.57,-0.75,-37.80,0.24,-3.71,39.10,-5.13,-1.22,69.26,3.26,1.42,-18.81
8,-15,-316,-19,-320,3900,0.56,-0.77,-35.95,-0.19,-3.20,39.00,-5.12,-1.22,69.40,3.05,1.30,-17.54
7,-11,-303,-41,-361,3880,0.55,-0.76,-34.20,-0.41,-3.61,38.80,-5.12,-1.21,69.54,3.07,1.24,-16.80
2,-4,-249,-173,-366,3878,0.51,-0.71,-32.30,-1.73,-3.66,38.78,-5.11,-1.21,69.67,3.14,1.14,-19.38
4,-3,-217,-104,-391,3929,0.48,-0.65,-30.39,-1.04,-3.91,39.29,-5.11,-1.20,69.79,3.13,1.10,-20.00
-1,-4,-180,-110,-411,3864,0.43,-0.61,-28.45,-1.10,-4.11,38.64,-5.11,-1.20,69.90,3.21,1.09,-20.00
6,-11,-163,-95,-383,3939,0.42,-0.62,-26.60,-0.95,-3.83,39.39,-5.11,-1.19,70.00,3.13,1.17,-20.00
6,-7,-172,10,-324,3937,0.41,-0.60,-24.99,0.10,-3.24,39.37,-5.10,-1.19,70.10,3.13,1.11,-18.20
1,-3,-183,16,-322,3885,0.38,-0.56,-23.61,0.16,-3.22,38.85,-5.09,-1.18,70.20,3.19,1.04,-15.81
4,-9,-206,-15,-296,3870,0.37,-0.56,-22.50,-0.15,-2.96,38.70,-5.08,-1.17,70.29,3.16,1.11,-12.70
3,-10,-210,-30,-318,3902,0.35,-0.56,-21.53,-0.30,-3.18,39.02,-5.07,-1.17,70.37,3.17,1.12,-11.34
2,-8,-248,-104,-292,3876,0.33,-0.55,-20.89,-1.04,-2.92,38.76,-5.07,-1.16,70.46,3.19,1.09,-7.45
-2,-12,-254,-134,-327,3881,0.28,-0.57,-20.35,-1.34,-3.27,38.81,-5.06,-1.15,70.54,3.25,1.14,-6.38
10,-5,-258,-31,-397,3876,0.31,-0.55,-19.89,-0.31,-3.97,38.76,-5.07,-1.14,70.62,3.10,1.04,-5.56
9,-3,-251,-52,-377,3935,0.34,-0.51,-19.43,-0.52,-3.77,39.35,-5.07,-1.13,70.69,3.10,0.99,-5.68
3,-5,-248,-187,-355,3847,0.32,-0.49,-19.00,-1.87,-3.55,38.47,-5.07,-1.12,70.77,3.18,1.00,-5.48
9,-6,-268,-241,-364,3947,0.34,-0.48,-18.74,-2.41,-3.64,39.47,-5.06,-1.11,70.84,3.09,1.00,-3.51
23,-1,-362,-150,-282,3922,0.45,-0.44,-19.07,-1.50,-2.82,39.22,-5.06,-1.11,70.92,2.88,0.92,4.09
-8,-10,-392,-146,-299,3882,0.36,-0.45,-19.56,-1.46,-2.99,38.82,-5.05,-1.10,71.00,3.28,1.03,6.11
-1,-13,-502,-94,-230,3877,0.31,-0.49,-20.66,-0.94,-2.30,38.77,-5.04,-1.09,71.08,3.21,1.07,14.25
6,-22,-510,-43,-280,3946,0.32,-0.57,-21.71,-0.43,-2.80,39.46,-5.02,-1.08,71.17,3.11,1.21,13.82
-5,-7,-524,100,-334,3910,0.26,-0.56,-22.73,1.00,-3.34,39.10,-5.01,-1.11,71.26,3.26,1.05,13.91
11,-11,-518,96,-366,3933,0.30,-0.57,-23.62,0.96,-3.66,39.33,-5.03,-1.13,71.35,3.06,1.11,12.45
11,-12,-437,150,-393,3915,0.34,-0.59,-23.92,1.50,-3.93,39.15,-5.03,-1.16,71.45,3.05,1.15,5.26
7,-14,-398,136,-296,3891,0.34,-0.61,-23.96,1.36,-2.96,38.91,-5.02,-1.19,71.54,3.09,1.20,1.91
5,-12,-341,-27,-389,3905,0.34,-0.62,-23.64,-0.27,-3.89,39.05,-5.02,-1.18,71.64,3.11,1.18,-2.59
7,-6,-340,-35,-418,3887,0.35,-0.60,-23.35,-0.35,-4.18,38.87,-5.03,-1.17,71.73,3.09,1.09,-2.38
2,3,-335,-135,-358,3842,0.33,-0.52,-23.06,-1.35,-3.58,38.42,-5.03,-1.17,71.82,3.16,0.95,-2.50
20,3,-331,-107,-384,3985,0.42,-0.45,-22.77,-1.07,-3.84,39.85,-5.03,-1.16,71.91,2.91,0.91,-2.54
4,1,-296,-70,-358,3898,0.40,-0.40,-22.30,-0.70,-3.58,38.98,-5.02,-1.15,72.00,3.10,0.91,-5.02
5,1,-306,-37,-388,3954,0.39,-0.35,-21.94,-0.37,-3.88,39.54,-5.03,-1.14,72.09,3.10,0.89,-3.79
6,6,-380,-17,-281,3960,0.39,-0.28,-22.06,-0.17,-2.81,39.60,-5.01,-1.13,72.17,3.08,0.79,2.34
8,-2,-420,-31,-334,3891,0.40,-0.27,-22.42,-0.31,-3.34,38.91,-5.01,-1.13,72.26,3.05,0.88,5.34
9,8,-624,-235,-210,3887,0.41,-0.19,-23.98,-2.35,-2.10,38.87,-5.00,-1.12,72.36,3.02,0.72,20.00
19,16,-728,-220,-232,3863,0.49,-0.07,-26.03,-2.20,-2.32,38.63,-4.99,-1.11,72.46,2.87,0.57,20.00
19,44,-961,-219,-390,3891,0.55,0.20,-29.29,-2.19,-3.90,38.91,-4.99,-1.10,72.58,2.84,0.12,20.00
27,90,-1002,-226,-276,3885,0.66,0.73,-32.47,-2.26,-2.76,38.85,-4.98,-1.09,72.71,2.69,-0.65,20.00
18,14,-1054,-11,-392,3830,0.71,0.74,-35.65,-0.11,-3.92,38.30,-4.98,-1.09,72.85,2.78,0.24,20.00
21,-5,-1043,134,-514,3872,0.76,0.64,-38.45,1.34,-5.14,38.72,-4.99,-1.10,73.00,2.73,0.52,20.00
-11,-11,-880,-21,-387,3844,0.62,0.51,-39.97,-0.21,-3.87,38.44,-5.00,-1.10,73.16,3.17,0.65,20.00
6,-5,-821,11,-388,3880,0.60,0.43,-40.98,0.11,-3.88,38.80,-5.00,-1.10,73.33,2.99,0.61,19.56
6,-15,-560,112,-333,3864,0.57,0.29,-40.30,1.12,-3.33,38.64,-4.99,-1.13,73.49,2.99,0.80,-1.84
11,-7,-484,45,-408,3910,0.58,0.22,-39.22,0.45,-4.08,39.10,-5.01,-1.13,73.64,2.93,0.74,-7.15
1,0,-245,18,-422,3881,0.53,0.20,-36.79,0.18,-4.22,38.81,-5.02,-1.13,73.79,3.08,0.67,-20.00
2,1,-193,-2,-384,3938,0.49,0.18,-34.29,-0.02,-3.84,39.38,-5.02,-1.13,73.93,3.09,0.66,-20.00
0,-3,-125,104,-391,3926,0.44,0.15,-31.63,1.04,-3.91,39.26,-5.03,-1.15,74.05,3.14,0.73,-20.00
-4,-4,-118,107,-336,3888,0.37,0.11,-29.18,1.07,-3.36,38.88,-5.02,-1.18,74.17,3.21,0.78,-20.00
3,-6,-132,8,-316,3875,0.35,0.06,-27.07,0.08,-3.16,38.75,-5.01,-1.17,74.28,3.13,0.82,-20.00
4,-4,-131,-40,-320,3909,0.34,0.03,-25.16,-0.40,-3.20,39.09,-5.01,-1.16,74.38,3.12,0.80,-20.00
2,-7,-166,-148,-192,3908,0.32,-0.02,-23.66,-1.48,-1.92,39.08,-4.99,-1.15,74.47,3.14,0.85,-17.69
0,-6,-193,-181,-149,3862,0.29,-0.05,-22.47,-1.81,-1.49,38.62,-4.98,-1.14,74.56,3.17,0.85,-14.15
12,-4,-293,-108,-198,3905,0.33,-0.07,-22.01,-1.08,-1.98,39.05,-4.97,-1.14,74.65,3.00,0.83,-5.20
-1,-1,-302,-79,-263,3874,0.29,-0.07,-21.65,-0.79,-2.63,38.74,-4.95,-1.13,74.74,3.16,0.78,-4.07
7,3,-348,-36,-326,3887,0.31,-0.04,-21.61,-0.36,-3.26,38.87,-4.95,-1.12,74.82,3.06,0.72,-0.13
15,3,-372,-60,-361,3875,0.37,-0.02,-21.72,-0.60,-3.61,38.75,-4.95,-1.11,74.91,2.94,0.70,1.78
4,-12,-339,77,-437,3926,0.36,-0.09,-21.61,0.77,-4.37,39.26,-4.97,-1.12,74.99,3.08,0.92,-0.92
3,-14,-310,82,-464,3931,0.34,-0.17,-21.34,0.82,-4.64,39.31,-4.98,-1.12,75.08,3.11,0.98,-3.09
9,-5,-237,82,-417,3885,0.36,-0.18,-20.65,0.82,-4.17,38.85,-5.00,-1.13,75.16,3.04,0.88,-8.56
-2,-3,-218,6,-432,3937,0.31,-0.18,-19.92,0.06,-4.32,39.37,-5.01,-1.13,75.24,3.20,0.86,-9.39
2,-4,-157,-82,-376,3917,0.29,-0.19,-18.88,-0.82,-3.76,39.17,-5.01,-1.12,75.32,3.16,0.86,-13.47
5,-4,-152,-74,-345,3913,0.29,-0.19,-17.92,-0.74,-3.45,39.13,-5.01,-1.11,75.39,3.12,0.86,-12.89
3,-1,-171,-97,-361,3940,0.28,-0.18,-17.17,-0.97,-3.61,39.40,-5.00,-1.10,75.45,3.15,0.81,-10.49
0,1,-172,-68,-354,3895,0.25,-0.16,-16.51,-0.68,-3.54,38.95,-5.00,-1.08,75.52,3.20,0.77,-9.70
5,2,-166,-99,-331,3884,0.26,-0.13,-15.87,-0.99,-3.31,38.84,-5.00,-1.07,75.58,3.13,0.74,-9.54
2,-1,-174,-89,-268,3888,0.25,-0.12,-15.34,-0.89,-2.68,38.88,-4.99,-1.06,75.64,3.17,0.76,-8.31
4,-3,-263,-108,-249,3926,0.25,-0.13,-15.41,-1.08,-2.49,39.26,-4.98,-1.05,75.71,3.14,0.78,-0.85
4,-12,-303,-68,-230,3909,0.25,-0.19,-15.72,-0.68,-2.30,39.09,-4.97,-1.04,75.77,3.13,0.91,2.21
9,-10,-375,-14,-389,3933,0.28,-0.23,-16.44,-0.14,-3.89,39.33,-4.97,-1.03,75.83,3.06,0.90,7.54
4,-8,-372,39,-355,3858,0.27,-0.26,-17.06,0.39,-3.55,38.58,-4.98,-1.02,75.90,3.13,0.88,6.62
7,2,-314,18,-367,3887,0.29,-0.22,-17.27,0.18,-3.67,38.87,-4.99,-1.02,75.97,3.09,0.74,1.48
2,2,-301,31,-297,3894,0.27,-0.18,-17.38,0.31,-2.97,38.94,-4.97,-1.01,76.04,3.15,0.72,0.26
3,-3,-249,86,-376,3898,0.26,-0.18,-17.16,0.86,-3.76,38.98,-4.99,-1.02,76.11,3.15,0.79,-3.92
11,-2,-222,78,-374,3883,0.30,-0.18,-16.80,0.78,-3.74,38.83,-5.00,-1.03,76.17,3.05,0.78,-5.84
3,4,-165,-147,-405,3911,0.29,-0.14,-16.13,-1.47,-4.05,39.11,-5.00,-1.02,76.24,3.15,0.68,-9.96
-2,8,-204,-192,-271,3939,0.25,-0.07,-15.76,-1.92,-2.71,39.39,-5.00,-1.01,76.30,3.22,0.60,-6.27
10,-6,-328,-120,-229,3879,0.29,-0.10,-16.18,-1.20,-2.29,38.79,-4.99,-1.00,76.37,3.05,0.77,3.78
16,3,-349,-142,-234,3899,0.35,-0.07,-16.69,-1.42,-2.34,38.99,-4.97,-0.99,76.43,2.95,0.65,5.01
15,6,-364,-32,-330,3929,0.41,-0.03,-17.24,-0.32,-3.30,39.29,-4.97,-0.98,76.50,2.93,0.59,5.69
-2,-1,-389,17,-239,3921,0.36,-0.03,-17.89,0.17,-2.39,39.21,-4.95,-0.98,76.57,3.14,0.67,7.12
4,4,-420,67,-332,3931,0.35,-0.01,-18.67,0.67,-3.32,39.31,-4.93,-0.98,76.65,3.06,0.60,8.92
7,2,-416,74,-367,3910,0.35,0.01,-19.34,0.74,-3.67,39.10,-4.95,-0.99,76.73,3.03,0.63,7.86
6,0,-344,92,-381,3818,0.36,0.01,-19.50,0.92,-3.81,38.18,-4.96,-1.01,76.80,3.06,0.66,1.58
5,1,-319,53,-345,3940,0.35,0.01,-19.50,0.53,-3.45,39.40,-4.96,-1.00,76.88,3.07,0.64,-0.54
-2,-5,-318,-28,-356,3892,0.30,-0.02,-19.49,-0.28,-3.56,38.92,-4.96,-0.99,76.96,3.17,0.72,-0.62
3,-6,-309,-47,-371,3856,0.29,-0.05,-19.42,-0.47,-3.71,38.56,-4.96,-0.98,77.04,3.12,0.74,-1.32
5,-6,-194,-18,-480,3886,0.29,-0.09,-18.66,-0.18,-4.80,38.86,-4.98,-0.97,77.11,3.10,0.75,-10.27
-2,-6,-156,-64,-440,3875,0.25,-0.11,-17.75,-0.64,-4.40,38.75,-4.99,-0.97,77.18,3.21,0.76,-12.52
7,3,-113,-53,-324,3905,0.27,-0.08,-16.66,-0.53,-3.24,39.05,-4.98,-0.95,77.25,3.09,0.63,-15.02
5,6,-115,-57,-285,3915,0.27,-0.04,-15.70,-0.57,-2.85,39.15,-4.97,-0.94,77.31,3.11,0.57,-13.84
-1,-2,-240,-36,-128,3879,0.24,-0.05,-15.59,-0.36,-1.28,38.79,-4.95,-0.94,77.37,3.18,0.66,-3.14
0,-10,-290,7,-111,3931,0.22,-0.10,-15.80,0.07,-1.11,39.31,-4.93,-0.94,77.43,3.17,0.78,0.87
-6,-19,-429,136,-111,3916,0.16,-0.21,-16.84,1.36,-1.11,39.16,-4.91,-0.95,77.50,3.25,0.94,11.54
10,-20,-455,169,-159,3861,0.20,-0.31,-17.93,1.69,-1.59,38.61,-4.90,-0.97,77.57,3.03,1.01,12.58
-1,-26,-546,71,-362,3652,0.18,-0.44,-19.47,0.71,-3.62,36.52,-4.91,-0.98,77.65,3.18,1.14,18.65
-1,-26,-545,135,-413,3966,0.15,-0.55,-20.85,1.35,-4.13,39.66,-4.92,-1.00,77.73,3.20,1.20,17.10
6,-26,-559,-153,-453,3686,0.17,-0.66,-22.17,-1.53,-4.53,36.86,-4.93,-1.00,77.82,3.11,1.24,16.88
3,-6,-565,-57,-421,3777,0.17,-0.63,-23.40,-0.57,-4.21,37.77,-4.94,-0.99,77.91,3.15,0.99,16.08
