gyroADC_X,gyroADC_Y,gyroADC_Z,accADC_X,accADC_Y,accADC_Z,GyroX,GyroY,GyroZ,AccX,AccY,AccZ,roll_IMU,pitch_IMU,yaw_IMU,roll_PID,pitch_PID,yaw_PID
8,-61,36,23,-397,3942,-0.04,-0.47,1.33,0.23,-3.97,39.42,-4.90,-0.30,61.58,3.08,1.56,-13.64
-13,12,39,-13,-367,3774,-0.12,-0.35,1.44,-0.13,-3.67,37.74,-4.92,-0.29,61.57,3.54,0.04,-13.86
-8,14,14,-56,-404,4039,-0.15,-0.23,1.38,-0.56,-4.04,40.39,-4.93,-0.27,61.57,3.46,-0.04,-10.97
7,-12,8,-17,-382,4073,-0.10,-0.28,1.29,-0.17,-3.82,40.73,-4.94,-0.26,61.56,3.15,0.49,-10.37
13,-54,11,57,-406,3841,-0.01,-0.58,1.23,0.57,-4.06,38.41,-4.96,-0.27,61.56,3.01,1.43,-10.81
2,-22,7,44,-376,3731,0.01,-0.65,1.15,0.44,-3.76,37.31,-4.97,-0.28,61.55,3.24,0.81,-10.44
-14,56,54,30,-339,3952,-0.08,-0.25,1.36,0.30,-3.39,39.52,-4.97,-0.30,61.55,3.58,-0.88,-15.73
-16,43,61,27,-335,4020,-0.17,0.04,1.60,0.27,-3.35,40.20,-4.95,-0.30,61.54,3.64,-0.69,-16.26
8,-20,42,41,-174,3902,-0.10,-0.09,1.69,0.41,-1.74,39.02,-4.93,-0.30,61.53,3.12,0.63,-13.88
8,-13,27,30,-188,3827,-0.04,-0.16,1.69,0.30,-1.88,38.27,-4.91,-0.31,61.53,3.09,0.51,-12.11
6,21,3,74,-283,3827,-0.00,-0.01,1.54,0.74,-2.83,38.27,-4.90,-0.32,61.52,3.11,-0.21,-9.45
-3,3,12,12,-312,3890,-0.02,0.01,1.46,0.12,-3.12,38.90,-4.89,-0.31,61.51,3.29,0.14,-10.62
0,12,6,25,-320,3893,-0.02,0.08,1.35,0.25,-3.20,38.93,-4.87,-0.32,61.51,3.22,-0.06,-10.05
-7,15,13,-35,-337,3907,-0.06,0.16,1.29,-0.35,-3.37,39.07,-4.87,-0.30,61.50,3.37,-0.15,-10.95
-4,15,12,-43,-328,3928,-0.08,0.24,1.24,-0.43,-3.28,39.28,-4.87,-0.28,61.50,3.32,-0.19,-10.90
1,5,14,-16,-350,3897,-0.06,0.24,1.20,-0.16,-3.50,38.97,-4.88,-0.26,61.49,3.22,0.00,-11.19
0,14,11,-13,-361,3882,-0.06,0.31,1.15,-0.13,-3.61,38.82,-4.89,-0.24,61.49,3.24,-0.21,-10.90
-2,10,12,-53,-361,3914,-0.06,0.34,1.10,-0.53,-3.61,39.14,-4.90,-0.23,61.49,3.29,-0.15,-11.07
-2,10,13,-36,-360,3931,-0.07,0.36,1.07,-0.36,-3.60,39.31,-4.91,-0.21,61.48,3.30,-0.17,-11.23
0,8,11,8,-349,3898,-0.06,0.38,1.03,0.08,-3.49,38.98,-4.92,-0.20,61.48,3.27,-0.13,-11.04
0,7,11,9,-341,3902,-0.06,0.38,1.00,0.09,-3.41,39.02,-4.94,-0.18,61.47,3.27,-0.13,-11.09
1,2,14,17,-353,3888,-0.05,0.36,0.98,0.17,-3.53,38.88,-4.95,-0.19,61.47,3.26,-0.01,-11.46
1,1,12,5,-341,3900,-0.03,0.33,0.96,0.05,-3.41,39.00,-4.96,-0.17,61.47,3.26,0.00,-11.26
-1,-2,7,-19,-347,3919,-0.04,0.28,0.90,-0.19,-3.47,39.19,-4.96,-0.15,61.46,3.31,0.06,-10.73
-1,-5,5,-21,-345,3915,-0.04,0.22,0.84,-0.21,-3.45,39.15,-4.97,-0.13,61.46,3.31,0.13,-10.57
-1,-4,9,-3,-359,3899,-0.04,0.18,0.82,-0.03,-3.59,38.99,-4.98,-0.12,61.46,3.32,0.11,-11.08
-2,-4,9,-10,-350,3907,-0.05,0.13,0.79,-0.10,-3.50,39.07,-4.99,-0.10,61.45,3.35,0.11,-11.12
0,-3,9,-5,-345,3914,-0.04,0.10,0.76,-0.05,-3.45,39.14,-5.00,-0.08,61.45,3.31,0.09,-11.15
0,-2,10,4,-337,3908,-0.04,0.08,0.75,0.04,-3.37,39.08,-4.98,-0.08,61.45,3.30,0.07,-11.28
-4,2,41,71,-323,3862,-0.06,0.08,0.92,0.71,-3.23,38.62,-4.98,-0.09,61.44,3.38,-0.00,-14.74
-1,0,39,-3,-364,3893,-0.06,0.08,1.07,-0.03,-3.64,38.93,-4.99,-0.09,61.44,3.33,0.04,-14.31
1,-2,60,-12,-404,3864,-0.05,0.06,1.33,-0.12,-4.04,38.64,-5.01,-0.08,61.43,3.30,0.08,-16.47
1,-5,58,-25,-379,3897,-0.04,0.02,1.55,-0.25,-3.79,38.97,-5.03,-0.07,61.43,3.31,0.14,-15.95
1,2,33,-34,-345,3904,-0.03,0.03,1.60,-0.34,-3.45,39.04,-5.03,-0.05,61.42,3.30,-0.02,-12.92
0,7,25,-18,-358,3892,-0.02,0.07,1.59,-0.18,-3.58,38.92,-5.04,-0.03,61.41,3.33,-0.14,-11.98
-2,0,25,-8,-350,3879,-0.03,0.06,1.58,-0.08,-3.50,38.79,-5.05,-0.02,61.41,3.38,-0.00,-11.99
0,0,19,-23,-368,3903,-0.03,0.06,1.54,-0.23,-3.68,39.03,-5.06,-0.01,61.40,3.35,-0.01,-11.33
-2,-1,9,-22,-367,3896,-0.04,0.04,1.44,-0.22,-3.67,38.96,-5.07,0.01,61.40,3.40,0.00,-10.27
-2,-1,7,-14,-364,3899,-0.05,0.03,1.34,-0.14,-3.64,38.99,-5.09,0.02,61.39,3.41,-0.00,-10.16
0,0,4,-3,-356,3909,-0.04,0.03,1.23,-0.03,-3.56,39.09,-5.11,0.02,61.39,3.38,-0.02,-9.94
-1,1,5,9,-350,3908,-0.05,0.03,1.14,0.09,-3.50,39.08,-5.11,0.01,61.38,3.40,-0.03,-10.18
0,0,6,-3,-344,3901,-0.04,0.03,1.06,-0.03,-3.44,39.01,-5.09,0.02,61.38,3.37,-0.02,-10.40
0,0,6,1,-345,3901,-0.04,0.03,0.99,0.01,-3.45,39.01,-5.08,0.01,61.37,3.36,-0.01,-10.49
1,-2,8,-3,-356,3914,-0.03,0.01,0.94,-0.03,-3.56,39.14,-5.10,0.01,61.37,3.35,0.03,-10.79
1,-3,7,-12,-353,3907,-0.02,-0.01,0.89,-0.12,-3.53,39.07,-5.10,0.03,61.37,3.35,0.04,-10.73
0,-6,14,52,-308,3904,-0.02,-0.04,0.89,0.52,-3.08,39.04,-5.09,0.01,61.36,3.37,0.12,-11.57
-7,-3,32,25,-368,3926,-0.06,-0.06,0.99,0.25,-3.68,39.26,-5.10,-0.00,61.36,3.53,0.08,-13.57
0,-2,12,-40,-385,3893,-0.05,-0.06,0.97,-0.40,-3.85,38.93,-5.12,0.01,61.36,3.39,0.05,-11.23
0,-2,9,-24,-362,3911,-0.05,-0.07,0.92,-0.24,-3.62,39.11,-5.12,0.03,61.35,3.39,0.04,-10.92
2,0,5,7,-353,3885,-0.03,-0.06,0.86,0.07,-3.53,38.85,-5.13,0.01,61.35,3.35,0.01,-10.53
-1,-2,8,-1,-338,3899,-0.03,-0.07,0.83,-0.01,-3.38,38.99,-5.11,0.01,61.34,3.40,0.05,-10.93
0,2,9,9,-340,3899,-0.03,-0.05,0.80,0.09,-3.40,38.99,-5.10,-0.00,61.34,3.38,-0.03,-11.08
7,-4,12,54,-298,3923,0.02,-0.07,0.79,0.54,-2.98,39.23,-5.09,-0.01,61.34,3.21,0.11,-11.45
0,-3,35,-48,-367,3911,0.01,-0.08,0.93,-0.48,-3.67,39.11,-5.10,0.00,61.33,3.36,0.08,-14.00
0,0,28,-63,-383,3897,0.01,-0.07,1.00,-0.63,-3.83,38.97,-5.10,0.02,61.33,3.37,0.01,-13.07
0,4,22,-22,-369,3905,0.01,-0.04,1.04,-0.22,-3.69,39.05,-5.12,0.03,61.33,3.37,-0.09,-12.32
0,4,19,-23,-367,3912,0.01,-0.01,1.05,-0.23,-3.67,39.12,-5.13,0.05,61.32,3.38,-0.11,-11.94
1,3,7,-37,-375,3897,0.02,0.01,0.99,-0.37,-3.75,38.97,-5.14,0.06,61.32,3.37,-0.10,-10.60
1,1,9,-26,-372,3907,0.02,0.01,0.94,-0.26,-3.72,39.07,-5.15,0.08,61.31,3.37,-0.07,-10.89
-2,-2,1,4,-359,3882,0.01,-0.00,0.86,0.04,-3.59,38.82,-5.17,0.06,61.31,3.45,-0.00,-10.06
-2,-4,1,-10,-348,3888,-0.01,-0.03,0.78,-0.10,-3.48,38.88,-5.16,0.08,61.31,3.45,0.04,-10.16
-4,-4,-4,-6,-351,3912,-0.03,-0.05,0.67,-0.06,-3.51,39.12,-5.14,0.08,61.31,3.48,0.04,-9.69
1,-5,-5,-16,-366,3853,-0.02,-0.07,0.58,-0.16,-3.66,38.53,-5.15,0.09,61.30,3.39,0.06,-9.70
0,-3,-9,36,-327,3899,-0.02,-0.08,0.46,0.36,-3.27,38.99,-5.15,0.08,61.30,3.40,0.03,-9.37
-1,-3,-9,19,-313,3897,-0.02,-0.09,0.36,0.19,-3.13,38.97,-5.13,0.07,61.30,3.41,0.04,-9.50
3,6,-2,-12,-353,3927,-0.00,-0.05,0.31,-0.12,-3.53,39.27,-5.13,0.08,61.30,3.33,-0.17,-10.39
3,5,2,-10,-342,3915,0.02,-0.01,0.29,-0.10,-3.42,39.15,-5.11,0.09,61.30,3.31,-0.16,-10.89
5,7,7,2,-348,3910,0.04,0.03,0.31,0.02,-3.48,39.10,-5.11,0.07,61.30,3.26,-0.20,-11.47
5,6,8,2,-366,3911,0.07,0.06,0.33,0.02,-3.66,39.11,-5.13,0.07,61.29,3.26,-0.18,-11.56
1,-3,-3,-2,-334,3897,0.07,0.04,0.27,-0.02,-3.34,38.97,-5.11,0.06,61.29,3.33,0.01,-10.32
-1,-3,0,13,-366,3896,0.06,0.02,0.25,0.13,-3.66,38.96,-5.12,0.05,61.29,3.38,0.02,-10.71
0,-4,12,-6,-377,3897,0.05,-0.01,0.30,-0.06,-3.77,38.97,-5.14,0.05,61.29,3.38,0.05,-12.08
-9,-9,3,-13,-380,3885,-0.01,-0.06,0.28,-0.13,-3.80,38.85,-5.16,0.06,61.29,3.59,0.16,-11.02
0,-1,6,-27,-326,3912,-0.01,-0.06,0.29,-0.27,-3.26,39.12,-5.14,0.07,61.29,3.40,-0.01,-11.37
0,-2,4,-27,-342,3909,-0.01,-0.07,0.29,-0.27,-3.42,39.09,-5.14,0.09,61.29,3.39,0.00,-11.14
0,-2,1,-14,-351,3900,-0.01,-0.07,0.27,-0.14,-3.51,39.00,-5.14,0.11,61.29,3.39,-0.01,-10.81
-1,-1,2,-6,-349,3909,-0.01,-0.07,0.25,-0.06,-3.49,39.09,-5.12,0.10,61.29,3.40,-0.02,-10.95
0,0,2,0,-345,3897,-0.01,-0.07,0.24,0.00,-3.45,38.97,-5.11,0.08,61.28,3.38,-0.04,-10.96
0,0,4,5,-337,3910,-0.01,-0.06,0.24,0.05,-3.37,39.10,-5.10,0.07,61.28,3.37,-0.03,-11.20
2,3,10,-13,-332,3916,0.00,-0.03,0.28,-0.13,-3.32,39.16,-5.08,0.08,61.28,3.31,-0.10,-11.86
4,5,10,-11,-334,3895,0.03,-0.00,0.31,-0.11,-3.34,38.95,-5.06,0.09,61.28,3.25,-0.16,-11.82
3,4,11,-2,-338,3886,0.04,0.02,0.35,-0.02,-3.38,38.86,-5.05,0.08,61.28,3.26,-0.14,-11.89
2,2,12,-10,-347,3900,0.05,0.03,0.38,-0.10,-3.47,39.00,-5.06,0.09,61.28,3.28,-0.11,-11.96
-6,-4,7,15,-306,3867,0.01,0.01,0.39,0.15,-3.06,38.67,-5.04,0.08,61.28,3.45,0.02,-11.36
-1,4,5,-2,-363,3903,0.00,0.03,0.38,-0.02,-3.63,39.03,-5.06,0.08,61.28,3.36,-0.14,-11.13
-2,-2,3,-14,-365,3897,-0.01,0.01,0.36,-0.14,-3.65,38.97,-5.07,0.09,61.27,3.39,-0.02,-10.92
-1,-2,5,1,-353,3910,-0.02,0.00,0.35,0.01,-3.53,39.10,-5.09,0.07,61.27,3.38,-0.01,-11.17
2,1,6,-3,-358,3910,-0.00,0.01,0.36,-0.03,-3.58,39.10,-5.10,0.07,61.27,3.33,-0.07,-11.28
1,2,7,-14,-352,3903,0.00,0.02,0.36,-0.14,-3.52,39.03,-5.11,0.09,61.27,3.35,-0.10,-11.39
1,4,6,-11,-352,3904,0.01,0.04,0.36,-0.11,-3.52,39.04,-5.12,0.10,61.27,3.36,-0.16,-11.27
2,4,8,-3,-348,3901,0.02,0.06,0.38,-0.03,-3.48,39.01,-5.11,0.09,61.27,3.33,-0.16,-11.49
-5,5,14,22,-284,3930,-0.01,0.09,0.42,0.22,-2.84,39.30,-5.10,0.08,61.27,3.47,-0.18,-12.14
-1,8,12,9,-277,3921,-0.02,0.13,0.45,0.09,-2.77,39.21,-5.08,0.08,61.26,3.38,-0.25,-11.87
-3,2,41,42,-370,3890,-0.03,0.13,0.66,0.42,-3.70,38.90,-5.09,0.06,61.26,3.43,-0.12,-15.04
-1,7,34,-51,-355,3913,-0.04,0.16,0.80,-0.51,-3.55,39.13,-5.09,0.08,61.26,3.39,-0.24,-14.03
-1,2,20,-39,-355,3886,-0.04,0.15,0.84,-0.39,-3.55,38.86,-5.09,0.10,61.25,3.39,-0.15,-12.32
-1,4,22,-15,-369,3904,-0.04,0.16,0.89,-0.15,-3.69,39.04,-5.11,0.11,61.25,3.41,-0.20,-12.49
-1,4,8,-13,-408,3892,-0.04,0.17,0.85,-0.13,-4.08,38.92,-5.13,0.11,61.25,3.42,-0.20,-10.88
-2,2,6,-11,-376,3897,-0.05,0.16,0.80,-0.11,-3.76,38.97,-5.15,0.11,61.24,3.45,-0.16,-10.70
0,3,3,-9,-357,3902,-0.05,0.17,0.74,-0.09,-3.57,39.02,-5.17,0.12,61.24,3.42,-0.18,-10.43
0,4,0,1,-339,3903,-0.04,0.17,0.67,0.01,-3.39,39.03,-5.15,0.11,61.24,3.41,-0.20,-10.17
1,2,2,1,-340,3903,-0.03,0.17,0.61,0.01,-3.40,39.03,-5.14,0.10,61.24,3.38,-0.15,-10.47
0,4,2,-4,-338,3894,-0.03,0.18,0.56,-0.04,-3.38,38.94,-5.12,0.10,61.23,3.39,-0.19,-10.54
4,13,-5,7,-334,3925,-0.00,0.24,0.48,0.07,-3.34,39.25,-5.10,0.09,61.23,3.29,-0.39,-9.82
3,7,-8,2,-376,3932,0.02,0.26,0.38,0.02,-3.76,39.32,-5.12,0.08,61.23,3.31,-0.27,-9.58
4,8,-1,-8,-354,3911,0.04,0.28,0.34,-0.08,-3.54,39.11,-5.14,0.09,61.23,3.30,-0.30,-10.47
3,6,-3,-10,-356,3908,0.05,0.29,0.28,-0.10,-3.56,39.08,-5.15,0.11,61.23,3.32,-0.27,-10.30
6,9,-7,26,-378,3912,0.09,0.31,0.21,0.26,-3.78,39.12,-5.16,0.09,61.23,3.26,-0.33,-9.92
6,9,-7,29,-368,3904,0.11,0.34,0.15,0.29,-3.68,39.04,-5.17,0.08,61.23,3.26,-0.33,-10.00
2,8,-2,7,-371,3894,0.11,0.35,0.12,0.07,-3.71,38.94,-5.18,0.07,61.23,3.35,-0.30,-10.63
1,6,2,7,-374,3884,0.11,0.35,0.12,0.07,-3.74,38.84,-5.20,0.06,61.23,3.38,-0.26,-11.10
-1,7,14,-40,-318,3896,0.09,0.36,0.20,-0.40,-3.18,38.96,-5.19,0.08,61.23,3.42,-0.29,-12.43
0,8,17,-68,-337,3916,0.08,0.37,0.28,-0.68,-3.37,39.16,-5.18,0.09,61.23,3.40,-0.33,-12.68
2,6,3,-45,-331,3895,0.09,0.37,0.27,-0.45,-3.31,38.95,-5.17,0.11,61.22,3.35,-0.30,-11.03
1,6,3,-47,-339,3897,0.08,0.37,0.26,-0.47,-3.39,38.97,-5.16,0.13,61.22,3.37,-0.31,-11.04
0,3,5,-5,-327,3900,0.08,0.35,0.27,-0.05,-3.27,39.00,-5.15,0.13,61.22,3.38,-0.24,-11.27
0,4,4,-12,-333,3898,0.07,0.34,0.26,-0.12,-3.33,38.98,-5.13,0.13,61.22,3.37,-0.26,-11.16
2,5,5,-14,-349,3903,0.07,0.34,0.27,-0.14,-3.49,39.03,-5.12,0.15,61.22,3.32,-0.30,-11.27
1,6,5,-10,-337,3899,0.07,0.34,0.27,-0.10,-3.37,38.99,-5.10,0.15,61.22,3.33,-0.32,-11.26
3,6,11,10,-341,3912,0.08,0.34,0.31,0.10,-3.41,39.12,-5.10,0.14,61.22,3.28,-0.31,-11.92
2,5,13,-13,-337,3878,0.09,0.34,0.36,-0.13,-3.37,38.78,-5.08,0.15,61.22,3.29,-0.29,-12.10
1,5,12,-15,-348,3902,0.08,0.34,0.40,-0.15,-3.48,39.02,-5.08,0.17,61.22,3.31,-0.30,-11.93
1,5,11,-27,-360,3911,0.08,0.33,0.42,-0.27,-3.60,39.11,-5.09,0.18,61.21,3.32,-0.31,-11.78
-1,2,1,-36,-354,3894,0.07,0.31,0.39,-0.36,-3.54,38.94,-5.10,0.20,61.21,3.37,-0.26,-10.64
-1,2,1,-25,-352,3902,0.06,0.29,0.36,-0.25,-3.52,39.02,-5.10,0.22,61.21,3.37,-0.27,-10.68
-2,0,-1,-13,-345,3908,0.04,0.26,0.31,-0.13,-3.45,39.08,-5.09,0.21,61.21,3.39,-0.21,-10.50
-2,-1,-1,-20,-346,3909,0.02,0.23,0.28,-0.20,-3.46,39.09,-5.08,0.23,61.21,3.39,-0.20,-10.54
-3,-1,1,-17,-348,3889,0.00,0.20,0.25,-0.17,-3.48,38.89,-5.10,0.24,61.21,3.43,-0.19,-10.81
-2,-2,1,-6,-342,3892,-0.01,0.17,0.24,-0.06,-3.42,38.92,-5.09,0.23,61.21,3.40,-0.15,-10.83
0,0,6,-25,-339,3899,-0.01,0.15,0.25,-0.25,-3.39,38.99,-5.08,0.24,61.21,3.35,-0.20,-11.41
0,1,5,-15,-340,3908,-0.01,0.14,0.25,-0.15,-3.40,39.08,-5.06,0.24,61.21,3.34,-0.22,-11.28
0,2,3,-19,-352,3890,-0.01,0.14,0.25,-0.19,-3.52,38.90,-5.08,0.24,61.20,3.35,-0.24,-11.06
0,2,1,-17,-349,3897,-0.01,0.14,0.23,-0.17,-3.49,38.97,-5.10,0.25,61.20,3.36,-0.24,-10.84
-3,-2,0,-23,-350,3898,-0.02,0.11,0.21,-0.23,-3.50,38.98,-5.10,0.26,61.20,3.44,-0.16,-10.75
-2,-2,-1,-11,-343,3905,-0.03,0.09,0.18,-0.11,-3.43,39.05,-5.09,0.25,61.20,3.41,-0.15,-10.67
-1,-1,-1,-22,-348,3903,-0.04,0.07,0.15,-0.22,-3.48,39.03,-5.09,0.27,61.20,3.39,-0.18,-10.70
0,0,0,-20,-348,3895,-0.03,0.07,0.14,-0.20,-3.48,38.95,-5.10,0.29,61.20,3.38,-0.21,-10.84
4,2,4,-3,-322,3882,-0.01,0.07,0.15,-0.03,-3.22,38.82,-5.09,0.28,61.20,3.28,-0.24,-11.30
3,3,3,1,-323,3918,0.01,0.08,0.15,0.01,-3.23,39.18,-5.07,0.26,61.20,3.28,-0.26,-11.18
1,5,10,-12,-340,3895,0.02,0.11,0.20,-0.12,-3.40,38.95,-5.06,0.25,61.20,3.31,-0.30,-11.95
1,5,12,-12,-341,3910,0.02,0.13,0.25,-0.12,-3.41,39.10,-5.05,0.24,61.20,3.30,-0.29,-12.12
3,7,15,-10,-346,3907,0.04,0.16,0.32,-0.10,-3.46,39.07,-5.05,0.22,61.20,3.26,-0.33,-12.39
2,7,14,-15,-344,3896,0.05,0.18,0.37,-0.15,-3.44,38.96,-5.03,0.21,61.20,3.27,-0.33,-12.20
4,2,10,-62,-362,3868,0.07,0.18,0.40,-0.62,-3.62,38.68,-5.04,0.23,61.19,3.23,-0.24,-11.69
5,9,14,-26,-372,3920,0.09,0.21,0.44,-0.26,-3.72,39.20,-5.06,0.24,61.19,3.21,-0.40,-12.11
0,5,14,-17,-356,3915,0.08,0.22,0.48,-0.17,-3.56,39.15,-5.08,0.24,61.19,3.33,-0.32,-12.05
-2,1,11,-6,-355,3886,0.06,0.21,0.50,-0.06,-3.55,38.86,-5.09,0.23,61.19,3.38,-0.23,-11.67
0,1,3,-4,-345,3915,0.05,0.19,0.47,-0.04,-3.45,39.15,-5.08,0.21,61.19,3.34,-0.21,-10.77
-1,1,0,-14,-345,3910,0.04,0.18,0.42,-0.14,-3.45,39.10,-5.06,0.21,61.19,3.35,-0.21,-10.47
-1,5,-3,-7,-412,3872,0.03,0.19,0.36,-0.07,-4.12,38.72,-5.08,0.21,61.18,3.37,-0.29,-10.19
-2,3,1,-28,-322,3914,0.02,0.19,0.33,-0.28,-3.22,39.14,-5.07,0.22,61.18,3.38,-0.26,-10.70
5,6,-6,-40,-435,3916,0.05,0.21,0.26,-0.40,-4.35,39.16,-5.08,0.22,61.18,3.24,-0.33,-9.96
3,5,-5,-51,-428,3887,0.06,0.22,0.21,-0.51,-4.28,38.87,-5.10,0.23,61.18,3.29,-0.31,-10.16
0,5,14,-7,-377,3890,0.05,0.23,0.27,-0.07,-3.77,38.90,-5.12,0.23,61.18,3.36,-0.31,-12.33
0,4,18,5,-339,3911,0.05,0.23,0.35,0.05,-3.39,39.11,-5.11,0.21,61.18,3.36,-0.28,-12.69
-1,1,18,-4,-312,3918,0.04,0.21,0.43,-0.04,-3.12,39.18,-5.09,0.21,61.18,3.37,-0.22,-12.60
-1,2,16,0,-319,3907,0.03,0.20,0.48,0.00,-3.19,39.07,-5.07,0.20,61.18,3.36,-0.23,-12.29
1,6,16,-7,-341,3909,0.03,0.22,0.53,-0.07,-3.41,39.09,-5.06,0.19,61.17,3.31,-0.31,-12.23
0,5,22,-11,-347,3914,0.03,0.23,0.61,-0.11,-3.47,39.14,-5.06,0.17,61.17,3.34,-0.28,-12.83
-1,5,33,-23,-298,3905,0.02,0.24,0.75,-0.23,-2.98,39.05,-5.05,0.18,61.17,3.35,-0.28,-13.96
0,7,28,-20,-259,3902,0.02,0.25,0.85,-0.20,-2.59,39.02,-5.03,0.18,61.16,3.31,-0.33,-13.24
4,9,10,-28,-332,3916,0.04,0.28,0.82,-0.28,-3.32,39.16,-5.02,0.20,61.16,3.22,-0.39,-11.14
5,9,11,-25,-335,3895,0.07,0.31,0.81,-0.25,-3.35,38.95,-5.01,0.21,61.16,3.19,-0.41,-11.27
3,10,5,-15,-345,3923,0.08,0.34,0.76,-0.15,-3.45,39.23,-5.02,0.22,61.16,3.23,-0.44,-10.63
3,11,5,-12,-363,3903,0.09,0.37,0.71,-0.12,-3.63,39.03,-5.04,0.22,61.15,3.24,-0.47,-10.68
0,7,4,-35,-350,3919,0.08,0.38,0.67,-0.35,-3.50,39.19,-5.05,0.24,61.15,3.31,-0.40,-10.63
0,8,3,-35,-359,3917,0.07,0.39,0.62,-0.35,-3.59,39.17,-5.06,0.25,61.15,3.32,-0.44,-10.57
5,6,11,-343,-531,3851,0.09,0.39,0.62,-3.43,-5.31,38.51,-5.06,0.27,61.15,3.22,-0.41,-11.51
6,8,35,-295,-590,3856,0.12,0.40,0.77,-2.95,-5.90,38.56,-5.08,0.29,61.14,3.20,-0.46,-14.16
1,3,66,-55,-540,3946,0.12,0.38,1.10,-0.55,-5.40,39.46,-5.09,0.29,61.14,3.31,-0.36,-17.42
-1,7,96,-97,-553,3803,0.10,0.38,1.58,-0.97,-5.53,38.03,-5.11,0.30,61.13,3.37,-0.45,-20.00
-4,16,180,107,-475,3872,0.06,0.44,2.52,1.07,-4.75,38.72,-5.12,0.29,61.12,3.45,-0.64,-20.00
-3,14,189,247,-539,3927,0.04,0.48,3.42,2.47,-5.39,39.27,-5.13,0.28,61.11,3.44,-0.60,-20.00
-6,-7,317,-137,-600,4016,-0.00,0.39,5.01,-1.37,-6.00,40.16,-5.15,0.29,61.09,3.52,-0.16,-20.00
2,-3,336,-193,-562,3826,0.01,0.33,6.56,-1.93,-5.62,38.26,-5.16,0.31,61.06,3.36,-0.23,-20.00
3,10,355,-263,-469,3960,0.03,0.36,8.07,-2.63,-4.69,39.60,-5.17,0.33,61.03,3.34,-0.52,-20.00
-7,-4,351,-169,-584,3943,-0.02,0.30,9.40,-1.69,-5.84,39.43,-5.19,0.34,60.99,3.57,-0.23,-20.00
-10,6,384,-92,-603,3924,-0.08,0.31,10.80,-0.92,-6.03,39.24,-5.20,0.35,60.95,3.66,-0.44,-20.00
-5,10,395,-69,-580,3802,-0.10,0.34,12.13,-0.69,-5.80,38.02,-5.22,0.36,60.90,3.58,-0.53,-20.00
-10,18,462,5,-379,3844,-0.15,0.41,13.74,0.05,-3.79,38.44,-5.23,0.35,60.85,3.70,-0.71,-20.00
-9,16,502,104,-277,4019,-0.19,0.47,15.43,1.04,-2.77,40.19,-5.22,0.35,60.79,3.68,-0.68,-20.00
-4,23,598,190,-49,3994,-0.20,0.56,17.53,1.90,-0.49,39.94,-5.21,0.35,60.72,3.57,-0.85,-20.00
-17,7,615,193,-86,3989,-0.28,0.55,19.53,1.93,-0.86,39.89,-5.20,0.34,60.64,3.85,-0.52,-20.00
-4,26,617,-9,-52,3884,-0.28,0.65,21.34,-0.09,-0.52,38.84,-5.18,0.35,60.56,3.57,-0.94,-20.00
-13,8,600,22,-147,3932,-0.33,0.64,22.87,0.22,-1.47,39.32,-5.16,0.36,60.46,3.76,-0.57,-20.00
-12,9,502,1,-179,3953,-0.37,0.63,23.64,0.01,-1.79,39.53,-5.14,0.37,60.37,3.74,-0.60,-20.00
0,14,468,-60,-225,3860,-0.33,0.65,24.13,-0.60,-2.25,38.60,-5.13,0.38,60.27,3.47,-0.72,-20.00
-5,8,382,-149,-214,3907,-0.33,0.63,24.05,-1.49,-2.14,39.07,-5.11,0.41,60.18,3.57,-0.60,-20.00
-4,-4,356,-105,-229,3969,-0.32,0.55,23.82,-1.05,-2.29,39.69,-5.10,0.43,60.08,3.53,-0.35,-20.00
0,15,296,-38,-297,3950,-0.29,0.58,23.24,-0.38,-2.97,39.50,-5.08,0.44,59.99,3.43,-0.75,-16.06
-7,9,265,62,-370,3881,-0.30,0.58,22.53,0.62,-3.70,38.81,-5.09,0.43,59.90,3.58,-0.63,-13.27
-10,3,268,-43,-321,3874,-0.33,0.54,21.91,-0.43,-3.21,38.74,-5.07,0.45,59.81,3.64,-0.51,-14.41
-8,20,274,-26,-354,3793,-0.35,0.61,21.39,-0.26,-3.54,37.93,-5.09,0.46,59.73,3.62,-0.87,-15.77
10,9,245,-41,-335,3848,-0.25,0.60,20.75,-0.41,-3.35,38.48,-5.08,0.48,59.65,3.22,-0.67,-13.14
-11,-6,255,-77,-342,3969,-0.29,0.51,20.23,-0.77,-3.42,39.69,-5.08,0.51,59.57,3.65,-0.35,-14.98
-6,-11,276,-66,-310,3937,-0.30,0.39,19.89,-0.66,-3.10,39.37,-5.06,0.53,59.49,3.55,-0.23,-17.90
-8,-6,275,-51,-350,3885,-0.32,0.31,19.58,-0.51,-3.50,38.85,-5.07,0.55,59.41,3.60,-0.33,-18.16
-8,1,292,-18,-319,3939,-0.34,0.29,19.40,-0.18,-3.19,39.39,-5.05,0.55,59.33,3.59,-0.46,-20.00
-7,9,299,-63,-304,3864,-0.35,0.31,19.29,-0.63,-3.04,38.64,-5.04,0.57,59.26,3.56,-0.65,-20.00
-6,6,311,8,-301,3878,-0.35,0.32,19.25,0.08,-3.01,38.78,-5.03,0.56,59.18,3.54,-0.58,-20.00
-2,13,313,-23,-252,3905,-0.33,0.37,19.24,-0.23,-2.52,39.05,-5.01,0.57,59.10,3.44,-0.74,-20.00
6,12,266,5,-301,3933,-0.26,0.40,18.94,0.05,-3.01,39.33,-5.00,0.57,59.03,3.25,-0.73,-17.85
-6,6,246,0,-327,3899,-0.27,0.40,18.54,0.00,-3.27,38.99,-4.99,0.56,58.95,3.49,-0.60,-15.97
-5,12,231,-7,-339,3854,-0.27,0.43,18.10,-0.07,-3.39,38.54,-4.99,0.55,58.88,3.47,-0.72,-14.75
3,17,227,-60,-362,3887,-0.23,0.49,17.67,-0.60,-3.62,38.87,-5.01,0.57,58.81,3.31,-0.85,-14.81
-6,7,219,45,-283,3927,-0.24,0.49,17.24,0.45,-2.83,39.27,-5.00,0.56,58.74,3.49,-0.64,-14.40
-6,3,213,-1,-291,3914,-0.25,0.46,16.82,-0.01,-2.91,39.14,-4.98,0.56,58.67,3.48,-0.55,-14.22
-3,4,215,-26,-328,3879,-0.25,0.43,16.45,-0.26,-3.28,38.79,-4.97,0.55,58.61,3.41,-0.56,-14.93
0,3,215,-27,-356,3872,-0.22,0.41,16.11,-0.27,-3.56,38.72,-4.99,0.55,58.55,3.35,-0.54,-15.34
-6,6,207,31,-331,3876,-0.24,0.41,15.77,0.31,-3.31,38.76,-4.99,0.54,58.48,3.48,-0.59,-14.83
-4,4,217,100,-301,3928,-0.24,0.39,15.51,1.00,-3.01,39.28,-4.98,0.53,58.42,3.43,-0.54,-16.33
-8,5,245,-13,-305,3914,-0.26,0.38,15.46,-0.13,-3.05,39.14,-4.97,0.52,58.36,3.51,-0.55,-19.71
-3,6,243,39,-328,3928,-0.25,0.38,15.39,0.39,-3.28,39.28,-4.96,0.51,58.30,3.41,-0.56,-19.55
-7,5,244,22,-352,3901,-0.27,0.37,15.34,0.22,-3.52,39.01,-4.97,0.50,58.24,3.50,-0.53,-19.72
-5,5,241,-11,-314,3877,-0.27,0.37,15.28,-0.11,-3.14,38.77,-4.96,0.50,58.18,3.45,-0.53,-19.43
0,5,207,-77,-460,3910,-0.25,0.36,15.01,-0.77,-4.60,39.10,-4.97,0.51,58.12,3.35,-0.54,-15.73
-5,0,199,-90,-449,3894,-0.25,0.32,14.73,-0.90,-4.49,38.94,-4.99,0.52,58.06,3.46,-0.43,-15.14
-1,-3,196,-160,-615,3892,-0.23,0.27,14.45,-1.60,-6.15,38.92,-5.01,0.54,58.00,3.39,-0.37,-15.13
6,-4,200,-188,-643,3907,-0.17,0.22,14.22,-1.88,-6.43,39.07,-5.02,0.55,57.94,3.24,-0.34,-15.88
-10,1,231,-37,-576,3932,-0.22,0.20,14.21,-0.37,-5.76,39.32,-5.04,0.56,57.89,3.59,-0.44,-19.57
-9,11,294,123,-403,3907,-0.25,0.25,14.58,1.23,-4.03,39.07,-5.05,0.55,57.83,3.58,-0.65,-20.00
-9,8,382,144,-547,3918,-0.28,0.28,15.45,1.44,-5.47,39.18,-5.06,0.54,57.77,3.60,-0.59,-20.00
-15,-4,384,104,-517,3949,-0.34,0.22,16.25,1.04,-5.17,39.49,-5.08,0.53,57.70,3.75,-0.33,-20.00
-4,-2,361,-41,-514,3949,-0.33,0.19,16.83,-0.41,-5.14,39.49,-5.10,0.54,57.64,3.54,-0.37,-20.00
-11,-9,367,-70,-515,3946,-0.37,0.11,17.38,-0.70,-5.15,39.46,-5.12,0.55,57.57,3.70,-0.21,-20.00
-16,-15,347,10,-513,3933,-0.43,0.01,17.76,0.10,-5.13,39.33,-5.13,0.55,57.50,3.83,-0.06,-20.00
-22,17,362,44,-523,3758,-0.52,0.11,18.19,0.44,-5.23,37.58,-5.15,0.55,57.43,3.99,-0.74,-20.00
-7,15,449,52,-361,3811,-0.51,0.19,19.11,0.52,-3.61,38.11,-5.16,0.54,57.35,3.68,-0.72,-20.00
-5,9,480,38,-434,4030,-0.49,0.23,20.13,0.38,-4.34,40.30,-5.17,0.54,57.27,3.65,-0.60,-20.00
2,18,494,-18,-102,3882,-0.43,0.32,21.13,-0.18,-1.02,38.82,-5.15,0.54,57.19,3.48,-0.81,-20.00
-64,7,503,149,144,4145,-0.78,0.33,22.09,1.49,1.44,41.45,-5.14,0.55,57.10,4.90,-0.59,-20.00
29,9,505,-371,-278,3881,-0.52,0.35,22.96,-3.71,-2.78,38.81,-5.14,0.58,57.01,2.94,-0.66,-20.00
-8,4,502,-207,-412,3710,-0.52,0.34,23.72,-2.07,-4.12,37.10,-5.14,0.60,56.91,3.70,-0.57,-20.00
6,22,470,-174,-260,3788,-0.43,0.44,24.22,-1.74,-2.60,37.88,-5.14,0.63,56.82,3.38,-0.98,-20.00
7,19,463,-167,-217,4146,-0.34,0.51,24.62,-1.67,-2.17,41.46,-5.12,0.65,56.72,3.33,-0.95,-20.00
-26,1,518,-63,-95,4000,-0.47,0.47,25.32,-0.63,-0.95,40.00,-5.10,0.66,56.62,4.03,-0.58,-20.00
-10,4,527,-72,-91,3944,-0.48,0.44,26.00,-0.72,-0.91,39.44,-5.09,0.67,56.51,3.69,-0.65,-20.00
-13,10,517,-81,-236,3912,-0.51,0.46,26.56,-0.81,-2.36,39.12,-5.07,0.69,56.41,3.75,-0.79,-20.00
-11,-1,502,-85,-186,3976,-0.53,0.41,26.96,-0.85,-1.86,39.76,-5.05,0.71,56.30,3.70,-0.56,-20.00
-3,1,506,56,-245,3926,-0.49,0.37,27.35,0.56,-2.45,39.26,-5.04,0.70,56.19,3.52,-0.59,-20.00
-4,11,470,-3,-148,3911,-0.47,0.40,27.48,-0.03,-1.48,39.11,-5.02,0.71,56.08,3.52,-0.80,-20.00
5,8,526,4,-362,3906,-0.39,0.41,27.94,0.04,-3.62,39.06,-5.03,0.71,55.97,3.32,-0.74,-20.00
-1,23,546,37,-429,3885,-0.36,0.51,28.48,0.37,-4.29,38.85,-5.04,0.71,55.86,3.45,-1.07,-20.00
-22,11,537,-69,-251,3972,-0.46,0.53,28.91,-0.69,-2.51,39.72,-5.03,0.72,55.74,3.89,-0.84,-20.00
-1,21,518,-6,-192,3840,-0.42,0.60,29.18,-0.06,-1.92,38.40,-5.01,0.73,55.62,3.44,-1.07,-20.00
5,18,432,14,-281,3844,-0.35,0.65,28.89,0.14,-2.81,38.44,-5.00,0.73,55.51,3.29,-1.02,-20.00
-12,7,410,53,-214,3914,-0.38,0.63,28.51,0.53,-2.14,39.14,-4.98,0.73,55.40,3.64,-0.79,-20.00
-2,18,313,38,-337,3840,-0.36,0.68,27.56,0.38,-3.37,38.40,-4.98,0.72,55.29,3.43,-1.03,-11.67
-5,15,295,6,-361,3884,-0.35,0.70,26.61,0.06,-3.61,38.84,-4.99,0.72,55.18,3.49,-0.97,-10.75
7,18,209,-47,-407,3946,-0.27,0.74,25.22,-0.47,-4.07,39.46,-5.01,0.73,55.08,3.24,-1.05,-2.31
3,8,180,7,-357,3918,-0.23,0.71,23.80,0.07,-3.57,39.18,-5.01,0.72,54.99,3.31,-0.83,-0.68
-1,9,142,-41,-412,3884,-0.21,0.70,22.28,-0.41,-4.12,38.84,-5.03,0.73,54.90,3.40,-0.86,1.90
-3,9,132,-24,-405,3896,-0.21,0.68,20.86,-0.24,-4.05,38.96,-5.05,0.73,54.82,3.45,-0.85,1.27
-7,8,111,-33,-438,3898,-0.23,0.66,19.45,-0.33,-4.38,38.98,-5.06,0.74,54.74,3.55,-0.83,1.97
5,7,105,-53,-421,3911,-0.18,0.64,18.15,-0.53,-4.21,39.11,-5.08,0.75,54.67,3.30,-0.81,1.02
1,3,102,-24,-397,3881,-0.15,0.59,16.95,-0.24,-3.97,38.81,-5.10,0.75,54.60,3.39,-0.72,-0.15
-2,6,111,-7,-431,3883,-0.15,0.57,15.94,-0.07,-4.31,38.83,-5.11,0.75,54.54,3.46,-0.77,-2.51
-4,3,159,-63,-468,3926,-0.16,0.53,15.31,-0.63,-4.68,39.26,-5.13,0.76,54.48,3.51,-0.71,-9.00
-6,11,181,-103,-419,3844,-0.18,0.55,14.89,-1.03,-4.19,38.44,-5.15,0.78,54.42,3.57,-0.88,-12.14
2,6,200,-83,-352,3848,-0.15,0.53,14.62,-0.83,-3.52,38.48,-5.15,0.80,54.36,3.40,-0.79,-14.73
-1,7,218,-116,-375,3944,-0.14,0.52,14.49,-1.16,-3.75,39.44,-5.15,0.83,54.30,3.46,-0.83,-17.03
0,6,294,-122,-336,3921,-0.13,0.50,14.83,-1.22,-3.36,39.21,-5.15,0.85,54.24,3.43,-0.82,-20.00
-7,4,327,-67,-409,3889,-0.16,0.48,15.34,-0.67,-4.09,38.89,-5.17,0.86,54.18,3.60,-0.78,-20.00
-6,6,384,-67,-321,3894,-0.18,0.47,16.15,-0.67,-3.21,38.94,-5.15,0.87,54.12,3.57,-0.83,-20.00
-7,11,396,44,-363,3854,-0.20,0.49,16.95,0.44,-3.63,38.54,-5.15,0.86,54.05,3.60,-0.93,-20.00
8,9,421,-57,-252,3877,-0.13,0.49,17.82,-0.57,-2.52,38.77,-5.13,0.87,53.98,3.26,-0.89,-20.00
-5,2,422,32,-308,3860,-0.15,0.46,18.62,0.32,-3.08,38.60,-5.13,0.86,53.90,3.53,-0.73,-20.00
-18,9,379,26,-335,3835,-0.25,0.47,19.07,0.26,-3.35,38.35,-5.12,0.85,53.83,3.81,-0.87,-20.00
-5,7,363,-42,-370,4050,-0.25,0.46,19.37,-0.42,-3.70,40.50,-5.13,0.85,53.75,3.56,-0.83,-20.00
-8,4,314,-193,-397,4019,-0.28,0.44,19.35,-1.93,-3.97,40.19,-5.13,0.87,53.67,3.63,-0.78,-20.00
-7,-2,281,-178,-390,3838,-0.29,0.38,19.13,-1.78,-3.90,38.38,-5.14,0.90,53.60,3.61,-0.66,-18.41
-2,4,227,-31,-418,3846,-0.27,0.37,18.60,-0.31,-4.18,38.46,-5.16,0.90,53.53,3.52,-0.77,-12.67
-6,-1,212,-50,-418,3939,-0.28,0.33,18.04,-0.50,-4.18,39.39,-5.18,0.90,53.45,3.62,-0.66,-11.60
-6,-3,222,-110,-455,3922,-0.29,0.28,17.59,-1.10,-4.55,39.22,-5.19,0.92,53.38,3.63,-0.62,-13.35
-9,-4,217,-59,-484,3906,-0.32,0.22,17.15,-0.59,-4.84,39.06,-5.21,0.92,53.32,3.71,-0.59,-13.31
-4,-1,206,-86,-389,3918,-0.31,0.20,16.69,-0.86,-3.89,39.18,-5.23,0.94,53.25,3.61,-0.65,-12.58
-3,5,207,-86,-387,3867,-0.30,0.21,16.29,-0.86,-3.87,38.67,-5.24,0.96,53.19,3.60,-0.79,-13.21
-6,3,228,-35,-349,3934,-0.30,0.20,16.05,-0.35,-3.49,39.34,-5.23,0.95,53.12,3.66,-0.74,-15.99
-6,2,235,1,-393,3924,-0.31,0.20,15.88,0.01,-3.93,39.24,-5.24,0.94,53.06,3.67,-0.71,-17.03
-8,-2,249,-18,-378,3882,-0.33,0.16,15.81,-0.18,-3.78,38.82,-5.25,0.93,53.00,3.72,-0.62,-18.77
-2,7,249,19,-375,3919,-0.31,0.19,15.75,0.19,-3.75,39.19,-5.25,0.92,52.93,3.59,-0.80,-18.84
-5,3,263,41,-435,3916,-0.31,0.19,15.78,0.41,-4.35,39.16,-5.27,0.91,52.87,3.66,-0.71,-20.00
-12,-2,269,-9,-400,3921,-0.35,0.16,15.84,-0.09,-4.00,39.21,-5.28,0.90,52.81,3.82,-0.60,-20.00
-17,23,164,150,179,3969,-0.42,0.28,15.26,1.50,1.79,39.69,-5.26,0.90,52.75,3.93,-1.14,-9.35
8,1,47,-12,161,3963,-0.33,0.26,14.02,-0.12,1.61,39.63,-5.24,0.90,52.69,3.39,-0.69,2.94
0,-6,-58,38,-388,3885,-0.29,0.20,12.26,0.38,-3.88,38.85,-5.25,0.89,52.64,3.54,-0.52,13.15
0,-4,-56,46,-420,3917,-0.27,0.15,10.69,0.46,-4.20,39.17,-5.26,0.88,52.60,3.54,-0.54,10.91
-7,-8,4,-6,-389,3904,-0.28,0.09,9.65,-0.06,-3.89,39.04,-5.27,0.87,52.56,3.70,-0.44,2.46
-6,-10,19,-53,-390,3950,-0.29,0.02,8.80,-0.53,-3.90,39.50,-5.29,0.87,52.53,3.69,-0.37,-0.41
10,-15,85,3,-486,3897,-0.20,-0.07,8.44,0.03,-4.86,38.97,-5.30,0.86,52.49,3.35,-0.24,-8.69
-1,-17,196,51,-690,3877,-0.19,-0.17,8.79,0.51,-6.90,38.77,-5.32,0.86,52.46,3.58,-0.17,-20.00
-13,-4,517,122,-665,3734,-0.25,-0.18,11.06,1.22,-6.65,37.34,-5.34,0.85,52.41,3.85,-0.43,-20.00
-12,16,584,32,-616,3866,-0.30,-0.06,13.52,0.32,-6.16,38.66,-5.35,0.85,52.36,3.86,-0.87,-20.00
-16,29,719,46,-383,3933,-0.36,0.12,16.55,0.46,-3.83,39.33,-5.36,0.84,52.29,3.96,-1.18,-20.00
-13,12,746,-8,-425,4038,-0.41,0.18,19.45,-0.08,-4.25,40.38,-5.37,0.83,52.22,3.92,-0.84,-20.00
-14,12,847,-18,-409,3887,-0.45,0.24,22.67,-0.18,-4.09,38.87,-5.38,0.83,52.13,3.96,-0.86,-20.00
4,29,875,-2,-401,3873,-0.38,0.39,25.74,-0.02,-4.01,38.73,-5.39,0.83,52.03,3.58,-1.24,-20.00
-19,35,977,-39,-398,3830,-0.46,0.56,29.13,-0.39,-3.98,38.30,-5.41,0.83,51.91,4.08,-1.42,-20.00
-23,21,995,56,-333,3987,-0.55,0.64,32.28,0.56,-3.33,39.87,-5.40,0.83,51.78,4.19,-1.15,-20.00
-11,21,1042,41,-268,3816,-0.57,0.70,35.41,0.41,-2.68,38.16,-5.39,0.83,51.64,3.94,-1.17,-20.00
-12,33,1058,-19,-250,3964,-0.58,0.83,38.32,-0.19,-2.50,39.64,-5.37,0.85,51.49,3.95,-1.46,-20.00
5,27,1133,21,-318,3892,-0.49,0.91,41.40,0.21,-3.18,38.92,-5.36,0.85,51.32,3.57,-1.36,-20.00
-34,29,1162,26,-412,3881,-0.65,1.00,44.35,0.26,-4.12,38.81,-5.37,0.85,51.15,4.42,-1.43,-20.00
-16,55,1252,-4,-256,3753,-0.68,1.23,47.55,-0.04,-2.56,37.53,-5.36,0.87,50.96,4.05,-2.03,-20.00
-23,33,1275,-19,-249,3994,-0.76,1.31,50.58,-0.19,-2.49,39.94,-5.34,0.89,50.76,4.20,-1.61,-20.00
-24,34,1301,1,-118,3930,-0.83,1.39,53.45,0.01,-1.18,39.30,-5.32,0.91,50.54,4.23,-1.67,-20.00
-5,29,1298,-4,-77,3989,-0.77,1.43,56.03,-0.04,-0.77,39.89,-5.30,0.93,50.32,3.81,-1.59,-20.00
-14,24,1321,-54,-175,4057,-0.78,1.43,58.48,-0.54,-1.75,40.57,-5.28,0.96,50.09,3.99,-1.51,-20.00
-14,22,1342,-10,-277,3794,-0.79,1.42,60.82,-0.10,-2.77,37.94,-5.27,0.97,49.85,3.98,-1.48,-20.00
-40,25,1471,24,-422,3732,-0.95,1.43,63.71,0.24,-4.22,37.32,-5.28,0.99,49.59,4.56,-1.55,-20.00
-14,31,1491,-15,-366,3988,-0.94,1.48,66.43,-0.15,-3.66,39.88,-5.28,1.00,49.33,4.03,-1.69,-20.00
-55,23,1457,-91,-333,3849,-1.19,1.47,68.68,-0.91,-3.33,38.49,-5.27,1.05,49.06,4.92,-1.56,-20.00
-25,22,1425,-109,-254,3955,-1.22,1.46,70.50,-1.09,-2.54,39.55,-5.25,1.08,48.77,4.30,-1.56,-20.00
-13,15,1337,-151,-145,3934,-1.18,1.40,71.61,-1.51,-1.45,39.34,-5.23,1.12,48.49,4.04,-1.43,-20.00
-19,28,1319,-171,-135,3802,-1.18,1.43,72.49,-1.71,-1.35,38.02,-5.21,1.16,48.20,4.15,-1.73,-20.00
-29,16,1311,-118,-117,3869,-1.23,1.39,73.24,-1.18,-1.17,38.69,-5.19,1.20,47.91,4.35,-1.49,-20.00
-5,23,1320,-111,-143,3935,-1.14,1.39,73.97,-1.11,-1.43,39.35,-5.17,1.23,47.61,3.83,-1.66,-20.00
-28,43,1469,-120,-272,3861,-1.20,1.51,75.53,-1.20,-2.72,38.61,-5.16,1.27,47.31,4.30,-2.13,-20.00
-35,38,1504,-115,-198,3900,-1.29,1.59,77.15,-1.15,-1.98,39.00,-5.14,1.31,47.01,4.45,-2.07,-20.00
-25,24,1607,30,-324,3911,-1.32,1.58,79.24,0.30,-3.24,39.11,-5.13,1.33,46.69,4.25,-1.79,-20.00
-36,47,1637,-133,-502,3965,-1.40,1.71,81.30,-1.33,-5.02,39.65,-5.15,1.37,46.37,4.51,-2.32,-20.00
-20,38,1598,14,-773,3973,-1.38,1.77,82.92,0.14,-7.73,39.73,-5.16,1.40,46.04,4.19,-2.18,-20.00
-29,24,1532,92,-851,3738,-1.42,1.74,83.97,0.92,-8.51,37.38,-5.18,1.43,45.71,4.39,-1.91,-20.00
-32,21,1323,-78,-607,3778,-1.48,1.69,83.65,-0.78,-6.07,37.78,-5.19,1.47,45.37,4.48,-1.86,-20.00
-38,19,1281,-42,-493,3845,-1.56,1.64,83.10,-0.42,-4.93,38.45,-5.21,1.50,45.04,4.63,-1.82,-20.00
-11,24,1163,24,-413,3863,-1.47,1.62,81.88,0.24,-4.13,38.63,-5.21,1.51,44.72,4.06,-1.93,-20.00
-13,34,1132,-139,-481,3990,-1.40,1.67,80.60,-1.39,-4.81,39.90,-5.23,1.56,44.40,4.10,-2.17,-20.00
-32,28,1082,-157,-470,3939,-1.46,1.67,79.14,-1.57,-4.70,39.39,-5.24,1.60,44.08,4.51,-2.08,-20.00
-19,10,1070,85,-291,3829,-1.43,1.57,77.75,0.85,-2.91,38.29,-5.23,1.62,43.77,4.23,-1.70,-20.00
3,20,924,-129,-311,3965,-1.27,1.53,75.61,-1.29,-3.11,39.65,-5.21,1.66,43.47,3.72,-1.92,-20.00
-29,22,848,-114,-518,3771,-1.32,1.51,73.22,-1.14,-5.18,37.71,-5.23,1.69,43.18,4.40,-1.97,-14.30
-2,9,720,3,-357,3656,-1.20,1.42,70.29,0.03,-3.57,36.56,-5.23,1.70,42.90,3.82,-1.69,-2.83
-7,10,648,14,-633,4182,-1.12,1.34,67.22,0.14,-6.33,41.82,-5.24,1.72,42.64,3.90,-1.70,1.80
-7,24,632,-271,-747,4130,-1.05,1.35,64.35,-2.71,-7.47,41.30,-5.25,1.76,42.38,3.89,-2.02,0.06
-22,0,665,-175,-667,3983,-1.08,1.21,61.97,-1.75,-6.67,39.83,-5.27,1.79,42.13,4.22,-1.51,-6.86
-3,6,594,-3,-503,3917,-0.99,1.13,59.40,-0.03,-5.03,39.17,-5.28,1.80,41.90,3.81,-1.62,-1.70
-22,7,570,-90,-541,3773,-1.03,1.06,56.94,-0.90,-5.41,37.73,-5.29,1.83,41.67,4.22,-1.64,-1.98
-8,4,541,-64,-447,3843,-0.97,0.98,54.54,-0.64,-4.47,38.43,-5.30,1.84,41.46,3.93,-1.56,-1.57
6,9,505,55,-403,3874,-0.84,0.93,52.17,0.55,-4.03,38.74,-5.30,1.84,41.25,3.61,-1.66,-0.32
-8,7,458,-29,-392,3892,-0.80,0.88,49.75,-0.29,-3.92,38.92,-5.31,1.85,41.05,3.88,-1.60,2.18
-8,11,434,-65,-264,3926,-0.77,0.86,47.42,-0.65,-2.64,39.26,-5.29,1.86,40.86,3.86,-1.69,2.07
7,12,388,-114,-212,4053,-0.65,0.85,45.04,-1.14,-2.12,40.53,-5.27,1.88,40.68,3.51,-1.72,4.51
-2,-8,378,-42,-197,3948,-0.60,0.72,42.84,-0.42,-1.97,39.48,-5.25,1.89,40.51,3.67,-1.28,2.90
-9,-19,276,-170,-402,3951,-0.59,0.53,40.24,-1.70,-4.02,39.51,-5.26,1.92,40.35,3.81,-1.02,11.69
-6,-5,311,-75,-491,3785,-0.57,0.44,38.12,-0.75,-4.91,37.85,-5.27,1.93,40.20,3.76,-1.29,4.83
-34,0,417,-52,-533,3786,-0.72,0.40,36.85,-0.52,-5.33,37.86,-5.29,1.94,40.05,4.38,-1.39,-9.34
-2,22,440,-65,-429,4008,-0.66,0.49,35.85,-0.65,-4.29,40.08,-5.30,1.94,39.91,3.72,-1.86,-13.33
-5,11,453,197,-310,3827,-0.63,0.51,35.03,1.97,-3.10,38.27,-5.29,1.93,39.77,3.76,-1.64,-15.90
2,-10,386,11,-214,4080,-0.55,0.40,33.88,0.11,-2.14,40.80,-5.28,1.94,39.64,3.59,-1.18,-9.40
1,-9,367,-37,-460,3857,-0.49,0.30,32.73,-0.37,-4.60,38.57,-5.29,1.94,39.51,3.60,-1.18,-8.60
-6,-16,389,-6,-429,3925,-0.48,0.18,31.83,-0.06,-4.29,39.25,-5.29,1.93,39.38,3.75,-1.00,-12.35
-11,25,570,-156,-554,3824,-0.50,0.31,32.12,-1.56,-5.54,38.24,-5.31,1.95,39.25,3.86,-1.88,-20.00
-12,46,587,-56,-419,3824,-0.52,0.56,32.49,-0.56,-4.19,38.24,-5.32,1.95,39.12,3.90,-2.37,-20.00
1,11,441,-204,-225,3856,-0.46,0.57,31.93,-2.04,-2.25,38.56,-5.30,1.97,39.00,3.60,-1.68,-18.31
-8,9,428,-234,-385,3929,-0.46,0.57,31.35,-2.34,-3.85,39.29,-5.30,2.00,38.87,3.79,-1.66,-17.50
-4,15,480,52,-388,3934,-0.44,0.60,31.14,0.52,-3.88,39.34,-5.30,2.00,38.75,3.70,-1.79,-20.00
-17,11,474,-51,-385,3860,-0.50,0.61,30.92,-0.51,-3.85,38.60,-5.30,2.00,38.63,3.98,-1.71,-20.00
-10,14,456,-26,-464,3902,-0.51,0.64,30.61,-0.26,-4.64,39.02,-5.31,2.00,38.50,3.85,-1.77,-20.00
-13,13,465,-70,-495,3932,-0.54,0.65,30.39,-0.70,-4.95,39.32,-5.33,2.00,38.38,3.93,-1.76,-20.00
-6,-1,463,-8,-404,3848,-0.52,0.58,30.17,-0.08,-4.04,38.48,-5.33,2.00,38.26,3.78,-1.46,-20.00
0,0,412,57,-359,3871,-0.47,0.52,29.67,0.57,-3.59,38.71,-5.33,1.99,38.15,3.65,-1.46,-17.63
-7,22,505,-178,-592,3866,-0.47,0.60,29.78,-1.78,-5.92,38.66,-5.35,2.01,38.03,3.80,-1.94,-20.00
2,16,514,97,-312,3914,-0.41,0.64,29.94,0.97,-3.12,39.14,-5.34,2.00,37.91,3.59,-1.82,-20.00
-11,-6,319,-177,-398,3995,-0.43,0.54,28.89,-1.77,-3.98,39.95,-5.35,2.03,37.79,3.87,-1.37,-7.53
0,-12,314,-67,-394,3844,-0.39,0.41,27.92,-0.67,-3.94,38.44,-5.35,2.03,37.68,3.64,-1.21,-8.17
-5,34,511,77,-526,3815,-0.38,0.58,28.24,0.77,-5.26,38.15,-5.36,2.03,37.57,3.74,-2.19,-20.00
-2,27,516,106,-258,4037,-0.36,0.69,28.57,1.06,-2.58,40.37,-5.35,2.02,37.46,3.67,-2.07,-20.00
-4,-5,451,-128,-262,4016,-0.34,0.59,28.46,-1.28,-2.62,40.16,-5.33,2.03,37.34,3.69,-1.40,-20.00
-6,-8,439,-114,-296,3864,-0.35,0.48,28.29,-1.14,-2.96,38.64,-5.31,2.04,37.23,3.72,-1.31,-20.00
-8,12,511,37,-531,3872,-0.36,0.50,28.58,0.37,-5.31,38.72,-5.32,2.04,37.12,3.77,-1.73,-20.00
-10,14,503,-14,-318,3946,-0.39,0.54,28.79,-0.14,-3.18,39.46,-5.31,2.04,37.00,3.81,-1.78,-20.00
-17,14,446,9,-393,3926,-0.45,0.57,28.63,0.09,-3.93,39.26,-5.31,2.03,36.89,3.97,-1.78,-20.00
-8,11,431,-124,-489,3948,-0.45,0.58,28.40,-1.24,-4.89,39.48,-5.33,2.04,36.78,3.80,-1.73,-20.00
-7,24,500,-21,-543,3891,-0.45,0.67,28.61,-0.21,-5.43,38.91,-5.34,2.04,36.66,3.79,-2.02,-20.00
9,11,470,348,-269,3848,-0.35,0.67,28.61,3.48,-2.69,38.48,-5.34,2.04,36.55,3.43,-1.75,-20.00
-3,-3,351,-59,-350,3894,-0.34,0.58,27.89,-0.59,-3.50,38.94,-5.33,2.03,36.44,3.67,-1.44,-12.36
5,5,354,-64,-384,3877,-0.27,0.56,27.26,-0.64,-3.84,38.77,-5.33,2.03,36.33,3.49,-1.59,-13.51
-4,34,524,-40,-536,3704,-0.27,0.71,27.73,-0.40,-5.36,37.04,-5.35,2.03,36.22,3.68,-2.23,-20.00
-22,31,521,-83,-343,3923,-0.38,0.83,28.14,-0.83,-3.43,39.23,-5.34,2.03,36.11,4.07,-2.20,-20.00
-1,5,439,63,-176,3939,-0.34,0.77,28.00,0.63,-1.76,39.39,-5.32,2.03,36.00,3.63,-1.65,-20.00
-5,-9,370,4,-223,3998,-0.34,0.64,27.46,0.04,-2.23,39.98,-5.31,2.03,35.89,3.70,-1.33,-15.08
2,-15,272,7,-414,3832,-0.29,0.49,26.37,0.07,-4.14,38.32,-5.31,2.03,35.78,3.54,-1.16,-4.83
-5,3,277,-56,-609,3983,-0.30,0.46,25.43,-0.56,-6.09,39.83,-5.32,2.03,35.68,3.70,-1.53,-6.62
-6,4,535,316,-187,3972,-0.30,0.43,26.15,3.16,-1.87,39.72,-5.32,2.02,35.58,3.71,-1.54,-20.00
7,20,423,175,-32,3758,-0.23,0.51,26.11,1.75,-0.32,37.58,-5.30,2.02,35.47,3.42,-1.88,-20.00
-2,4,318,-207,-520,3822,-0.22,0.49,25.44,-2.07,-5.20,38.22,-5.31,2.04,35.37,3.61,-1.56,-11.41
-1,24,380,-221,-620,3904,-0.20,0.58,25.21,-2.21,-6.20,39.04,-5.33,2.06,35.27,3.59,-2.01,-19.03
-1,23,428,6,-313,4018,-0.19,0.67,25.30,0.06,-3.13,40.18,-5.32,2.05,35.17,3.58,-2.01,-20.00
-4,20,402,-47,-290,3824,-0.19,0.72,25.23,-0.47,-2.90,38.24,-5.30,2.05,35.07,3.64,-1.96,-20.00
-2,7,316,-94,-441,3950,-0.19,0.69,24.63,-0.94,-4.41,39.50,-5.32,2.05,34.97,3.60,-1.69,-12.14
-3,7,339,-31,-499,3796,-0.19,0.67,24.24,-0.31,-4.99,37.96,-5.33,2.05,34.88,3.63,-1.68,-15.36
-4,14,357,-81,-435,3874,-0.19,0.68,23.99,-0.81,-4.35,38.74,-5.34,2.05,34.78,3.66,-1.83,-17.79
0,10,365,-172,-329,4026,-0.17,0.68,23.82,-1.72,-3.29,40.26,-5.32,2.08,34.69,3.56,-1.76,-18.95
1,1,339,-100,-322,4046,-0.15,0.62,23.50,-1.00,-3.22,40.46,-5.31,2.07,34.59,3.52,-1.56,-16.25
0,6,365,-135,-304,3899,-0.13,0.59,23.38,-1.35,-3.04,38.99,-5.28,2.08,34.50,3.52,-1.66,-19.47
-3,13,379,14,-444,3902,-0.14,0.61,23.35,0.14,-4.44,39.02,-5.29,2.08,34.41,3.59,-1.80,-20.00
-1,17,374,-8,-351,3911,-0.13,0.65,23.30,-0.08,-3.51,39.11,-5.29,2.07,34.32,3.55,-1.89,-20.00
6,37,380,-129,-457,3843,-0.08,0.81,23.29,-1.29,-4.57,38.43,-5.30,2.08,34.22,3.40,-2.35,-20.00
-5,44,369,27,-334,3890,-0.10,1.00,23.21,0.27,-3.34,38.90,-5.30,2.08,34.13,3.63,-2.54,-20.00
1,33,346,-67,-329,3819,-0.09,1.10,23.00,-0.67,-3.29,38.19,-5.29,2.07,34.04,3.49,-2.34,-17.63
1,39,370,-153,-438,3901,-0.07,1.23,22.96,-1.53,-4.38,39.01,-5.30,2.09,33.95,3.50,-2.51,-20.00
-5,34,416,-27,-313,3980,-0.10,1.31,23.20,-0.27,-3.13,39.80,-5.29,2.08,33.86,3.62,-2.43,-20.00
-11,36,409,-132,-347,3869,-0.15,1.40,23.37,-1.32,-3.47,38.69,-5.27,2.09,33.76,3.75,-2.49,-20.00
-3,0,408,292,-383,3859,-0.16,1.26,23.52,2.92,-3.83,38.59,-5.27,2.08,33.67,3.58,-1.72,-20.00
-4,3,348,185,-652,3835,-0.17,1.15,23.30,1.85,-6.52,38.35,-5.28,2.08,33.58,3.61,-1.75,-17.40
-5,-45,328,-611,-589,3909,-0.18,0.76,22.97,-6.11,-5.89,39.09,-5.29,2.11,33.49,3.64,-0.69,-15.43
-2,-26,363,-285,-441,3764,-0.17,0.53,22.88,-2.85,-4.41,37.64,-5.29,2.14,33.40,3.58,-1.03,-19.67
-17,-12,355,-74,-463,3766,-0.26,0.40,22.76,-0.74,-4.63,37.66,-5.31,2.14,33.31,3.92,-1.28,-18.87
1,-17,368,35,-432,3970,-0.23,0.26,22.73,0.35,-4.32,39.70,-5.31,2.13,33.22,3.55,-1.13,-20.00
-12,-48,370,81,-379,3910,-0.28,-0.06,22.71,0.81,-3.79,39.10,-5.31,2.12,33.13,3.82,-0.41,-20.00
1,-11,376,-10,-370,3887,-0.24,-0.12,22.74,-0.10,-3.70,38.87,-5.31,2.11,33.04,3.55,-1.13,-20.00
-1,-9,424,-69,-210,4023,-0.23,-0.16,23.05,-0.69,-2.10,40.23,-5.29,2.11,32.94,3.57,-1.16,-20.00
-3,4,433,-129,-326,3833,-0.22,-0.12,23.39,-1.29,-3.26,38.33,-5.27,2.11,32.85,3.60,-1.44,-20.00
-3,7,512,-2,-536,3900,-0.22,-0.07,24.17,-0.02,-5.36,39.00,-5.28,2.11,32.75,3.61,-1.51,-20.00
-4,9,521,4,-523,3881,-0.22,-0.01,24.93,0.04,-5.23,38.81,-5.29,2.10,32.65,3.64,-1.57,-20.00
-14,15,513,-149,-482,3896,-0.28,0.09,25.57,-1.49,-4.82,38.96,-5.31,2.11,32.55,3.87,-1.72,-20.00
-2,17,562,-51,-395,3903,-0.27,0.18,26.44,-0.51,-3.95,39.03,-5.31,2.11,32.45,3.62,-1.79,-20.00
-2,-29,537,15,-330,4233,-0.25,-0.01,27.07,0.15,-3.30,42.33,-5.30,2.10,32.34,3.61,-0.79,-20.00
-6,8,535,-185,-403,3678,-0.26,0.04,27.63,-1.85,-4.03,36.78,-5.31,2.12,32.23,3.70,-1.57,-20.00
-9,22,641,-236,-475,3782,-0.29,0.17,28.77,-2.36,-4.75,37.82,-5.33,2.14,32.12,3.78,-1.91,-20.00
-26,24,666,-52,-328,3930,-0.42,0.30,29.96,-0.52,-3.28,39.30,-5.32,2.14,32.00,4.15,-1.98,-20.00
-15,26,711,-44,-430,3853,-0.47,0.43,31.30,-0.44,-4.30,38.53,-5.32,2.14,31.87,3.95,-2.06,-20.00
-20,10,733,-103,-359,3994,-0.55,0.44,32.64,-1.03,-3.59,39.94,-5.32,2.13,31.74,4.06,-1.73,-20.00
-12,4,801,-32,-317,3966,-0.56,0.42,34.26,-0.32,-3.17,39.66,-5.31,2.13,31.61,3.90,-1.60,-20.00
-35,15,793,-46,-455,3811,-0.72,0.47,35.67,-0.46,-4.55,38.11,-5.32,2.13,31.46,4.42,-1.84,-20.00
-13,7,792,67,-487,3804,-0.73,0.47,36.94,0.67,-4.87,38.04,-5.32,2.13,31.32,3.98,-1.68,-20.00
-31,-8,794,76,-607,3940,-0.85,0.37,38.09,0.76,-6.07,39.40,-5.34,2.14,31.17,4.38,-1.35,-20.00
-20,-10,705,399,-591,3910,-0.88,0.27,38.58,3.99,-5.91,39.10,-5.34,2.14,31.01,4.17,-1.28,-20.00
-16,-22,660,344,-643,3968,-0.89,0.11,38.75,3.44,-6.43,39.68,-5.35,2.13,30.86,4.10,-0.99,-20.00
-10,-10,659,16,-548,3833,-0.86,0.04,38.89,0.16,-5.48,38.33,-5.36,2.14,30.70,3.98,-1.22,-20.00
-24,-12,681,-17,-438,3976,-0.92,-0.04,39.16,-0.17,-4.38,39.76,-5.36,2.14,30.55,4.28,-1.16,-20.00
16,16,653,24,-331,4030,-0.73,0.06,39.23,0.24,-3.31,40.30,-5.36,2.13,30.39,3.41,-1.75,-20.00
4,21,667,-260,-561,3825,-0.64,0.19,39.37,-2.60,-5.61,38.25,-5.37,2.16,30.24,3.64,-1.90,-20.00
-19,27,751,-81,-354,3920,-0.69,0.33,40.02,-0.81,-3.54,39.20,-5.36,2.16,30.08,4.11,-2.06,-20.00
-10,13,771,-162,-345,4175,-0.68,0.38,40.72,-1.62,-3.45,41.75,-5.34,2.17,29.91,3.91,-1.80,-20.00
0,0,766,-289,-244,3970,-0.61,0.34,41.32,-2.89,-2.44,39.70,-5.32,2.20,29.75,3.68,-1.55,-20.00
3,38,748,-271,-191,3850,-0.53,0.54,41.75,-2.71,-1.91,38.50,-5.31,2.23,29.58,3.59,-2.39,-20.00
-24,-10,733,-33,-332,3895,-0.63,0.42,42.05,-0.33,-3.32,38.95,-5.30,2.23,29.41,4.15,-1.39,-20.00
6,33,730,-181,-227,3862,-0.53,0.58,42.29,-1.81,-2.27,38.62,-5.27,2.25,29.25,3.50,-2.32,-20.00
-17,3,745,-126,-210,4092,-0.58,0.54,42.61,-1.26,-2.10,40.92,-5.25,2.27,29.08,3.97,-1.71,-20.00
-16,29,736,-107,-301,3850,-0.62,0.67,42.84,-1.07,-3.01,38.50,-5.23,2.27,28.90,3.95,-2.27,-20.00
-14,19,650,-118,-285,3971,-0.64,0.71,42.52,-1.18,-2.85,39.71,-5.21,2.28,28.73,3.90,-2.09,-20.00
-4,-5,638,-168,-310,4017,-0.60,0.61,42.16,-1.68,-3.10,40.17,-5.19,2.30,28.57,3.67,-1.59,-20.00
-9,4,618,-92,-379,3925,-0.60,0.58,41.71,-0.92,-3.79,39.25,-5.19,2.30,28.40,3.77,-1.76,-20.00
-26,5,623,-76,-437,3800,-0.70,0.55,41.34,-0.76,-4.37,38.00,-5.20,2.31,28.24,4.15,-1.78,-20.00
-9,3,565,-25,-320,3771,-0.68,0.51,40.65,-0.25,-3.20,37.71,-5.20,2.31,28.07,3.80,-1.72,-19.85
-10,9,582,-31,-430,3829,-0.67,0.52,40.14,-0.31,-4.30,38.29,-5.20,2.31,27.91,3.82,-1.85,-20.00
-29,29,654,-213,-389,3937,-0.78,0.64,40.11,-2.13,-3.89,39.37,-5.21,2.34,27.75,4.24,-2.31,-20.00
2,-7,702,21,-239,3995,-0.69,0.53,40.39,0.21,-2.39,39.95,-5.19,2.34,27.59,3.58,-1.55,-20.00
-3,-13,722,-119,-86,3730,-0.64,0.40,40.75,-1.19,-0.86,37.30,-5.17,2.36,27.43,3.65,-1.40,-20.00
-12,-2,787,-58,-605,4043,-0.65,0.35,41.48,-0.58,-6.05,40.43,-5.18,2.37,27.27,3.84,-1.62,-20.00
9,34,868,-149,-528,3988,-0.53,0.52,42.62,-1.49,-5.28,39.88,-5.20,2.38,27.10,3.39,-2.41,-20.00
-54,8,851,-153,-610,3940,-0.81,0.52,43.55,-1.53,-6.10,39.40,-5.21,2.40,26.92,4.76,-1.89,-20.00
-11,2,726,-122,-475,4009,-0.79,0.48,43.63,-1.22,-4.75,40.09,-5.22,2.41,26.75,3.89,-1.76,-20.00
-10,17,699,-125,-685,3810,-0.78,0.53,43.53,-1.25,-6.85,38.10,-5.24,2.43,26.58,3.87,-2.09,-20.00
-4,22,581,62,-576,3853,-0.72,0.62,42.72,0.62,-5.76,38.53,-5.25,2.43,26.41,3.74,-2.22,-18.80
2,21,541,39,-571,3913,-0.64,0.68,41.75,0.39,-5.71,39.13,-5.26,2.44,26.24,3.60,-2.22,-15.27
-5,41,451,-325,-371,3876,-0.60,0.86,40.32,-3.25,-3.71,38.76,-5.25,2.47,26.08,3.73,-2.70,-6.40
6,26,452,-163,-375,3930,-0.51,0.94,39.05,-1.63,-3.75,39.30,-5.26,2.48,25.93,3.49,-2.42,-8.12
-12,22,503,28,-448,3937,-0.53,0.98,38.21,0.28,-4.48,39.37,-5.27,2.48,25.78,3.86,-2.35,-15.22
-16,9,549,-58,-383,3861,-0.57,0.93,37.74,-0.58,-3.83,38.61,-5.27,2.48,25.63,3.96,-2.08,-20.00
-2,29,586,-34,-373,3820,-0.53,1.02,37.54,-0.34,-3.73,38.20,-5.27,2.48,25.48,3.66,-2.51,-20.00
-7,-19,571,35,-196,4196,-0.52,0.80,37.27,0.35,-1.96,41.96,-5.25,2.49,25.33,3.75,-1.47,-20.00
-7,4,464,-52,-402,4047,-0.51,0.74,36.37,-0.52,-4.02,40.47,-5.25,2.48,25.18,3.75,-1.92,-12.85
-2,21,444,-250,-455,3998,-0.47,0.80,35.44,-2.50,-4.55,39.98,-5.26,2.51,25.04,3.64,-2.30,-11.65
-9,11,320,-262,-411,3797,-0.48,0.79,33.85,-2.62,-4.11,37.97,-5.26,2.54,24.91,3.79,-2.12,1.04
-8,11,326,-116,-617,3979,-0.48,0.77,32.45,-1.16,-6.17,39.79,-5.28,2.55,24.78,3.78,-2.12,-1.44
2,30,438,73,-554,3964,-0.42,0.88,31.88,0.73,-5.54,39.64,-5.29,2.55,24.66,3.56,-2.54,-15.44
4,23,461,29,-633,3879,-0.35,0.93,31.51,0.29,-6.33,38.79,-5.30,2.56,24.53,3.51,-2.41,-18.63
7,24,440,139,-303,3794,-0.28,0.98,31.04,1.39,-3.03,37.94,-5.29,2.56,24.41,3.42,-2.44,-16.71
-10,6,450,-106,-427,3883,-0.31,0.92,30.68,-1.06,-4.27,38.83,-5.30,2.56,24.29,3.78,-2.06,-18.34
6,7,457,-250,-275,3817,-0.24,0.87,30.40,-2.50,-2.75,38.17,-5.28,2.59,24.16,3.43,-2.09,-19.51
-19,31,457,-282,-432,3875,-0.33,0.98,30.15,-2.82,-4.32,38.75,-5.29,2.62,24.04,3.97,-2.62,-19.81
-11,37,478,-126,-302,4093,-0.37,1.10,30.05,-1.26,-3.02,40.93,-5.27,2.62,23.92,3.80,-2.78,-20.00
-14,-2,468,-13,-275,3993,-0.42,0.98,29.90,-0.13,-2.75,39.93,-5.26,2.62,23.81,3.87,-1.95,-20.00
-13,-2,433,-90,-405,3825,-0.45,0.87,29.55,-0.90,-4.05,38.25,-5.26,2.62,23.69,3.86,-1.92,-17.67
-3,8,428,-54,-413,3923,-0.43,0.83,29.21,-0.54,-4.13,39.23,-5.26,2.61,23.57,3.65,-2.11,-17.50
-15,13,465,-120,-604,3853,-0.48,0.83,29.12,-1.20,-6.04,38.53,-5.28,2.62,23.46,3.92,-2.22,-20.00
-14,5,477,82,-461,3978,-0.51,0.78,29.12,0.82,-4.61,39.78,-5.28,2.62,23.34,3.91,-2.04,-20.00
-8,6,522,-159,-375,4071,-0.51,0.74,29.39,-1.59,-3.75,40.71,-5.28,2.62,23.22,3.79,-2.05,-20.00
-3,-2,540,-393,-298,3936,-0.48,0.65,29.75,-3.93,-2.98,39.36,-5.27,2.65,23.11,3.67,-1.88,-20.00
-10,1,496,-461,-572,3897,-0.49,0.59,29.80,-4.61,-5.72,38.97,-5.28,2.67,22.99,3.82,-1.95,-20.00
-19,-9,481,-236,-448,3986,-0.56,0.48,29.75,-2.36,-4.48,39.86,-5.29,2.70,22.87,4.03,-1.73,-20.00
-11,-7,414,-183,-302,4116,-0.57,0.39,29.30,-1.83,-3.02,41.16,-5.27,2.71,22.75,3.86,-1.75,-15.56
-13,-6,381,-237,-419,3869,-0.59,0.31,28.70,-2.37,-4.19,38.69,-5.28,2.73,22.64,3.91,-1.76,-12.41
-27,-9,328,144,-488,3906,-0.70,0.22,27.83,1.44,-4.88,39.06,-5.28,2.72,22.53,4.23,-1.68,-7.22
-11,6,323,119,-427,3755,-0.69,0.24,27.01,1.19,-4.27,37.55,-5.28,2.72,22.42,3.90,-1.98,-7.65
-8,-9,470,1521,106,3760,-0.67,0.16,27.18,15.21,1.06,37.60,-5.28,2.71,22.31,3.83,-1.65,-20.00
1,2,516,1345,-135,3913,-0.60,0.16,27.61,13.45,-1.35,39.13,-5.27,2.70,22.20,3.62,-1.87,-20.00
-3,31,645,31,-548,3977,-0.56,0.33,28.78,0.31,-5.48,39.77,-5.28,2.70,22.09,3.70,-2.50,-20.00
0,34,686,-222,-591,3885,-0.50,0.50,30.09,-2.22,-5.91,38.85,-5.29,2.72,21.97,3.63,-2.62,-20.00
-9,29,700,-116,-230,3784,-0.51,0.63,31.35,-1.16,-2.30,37.84,-5.27,2.72,21.84,3.80,-2.56,-20.00
-15,34,713,-102,-329,3962,-0.55,0.78,32.56,-1.02,-3.29,39.62,-5.26,2.72,21.71,3.93,-2.70,-20.00
5,35,738,-77,-346,3998,-0.46,0.91,33.81,-0.77,-3.46,39.98,-5.26,2.72,21.58,3.49,-2.75,-20.00
-9,21,723,-269,-435,4065,-0.47,0.95,34.84,-2.69,-4.35,40.65,-5.26,2.75,21.44,3.78,-2.50,-20.00
-20,3,695,-44,-519,3870,-0.55,0.87,35.59,-0.44,-5.19,38.70,-5.27,2.75,21.30,4.03,-2.12,-20.00
-16,13,671,54,-495,3846,-0.59,0.86,36.13,0.54,-4.95,38.46,-5.28,2.75,21.16,3.97,-2.32,-20.00
-14,-22,614,162,-188,3960,-0.62,0.64,36.26,1.62,-1.88,39.60,-5.26,2.75,21.01,3.93,-1.55,-20.00
-20,-12,574,-38,-425,3829,-0.68,0.51,36.14,-0.38,-4.25,38.29,-5.27,2.75,20.87,4.07,-1.71,-20.00
-6,0,650,157,-580,3998,-0.65,0.46,36.49,1.57,-5.80,39.98,-5.27,2.75,20.72,3.78,-1.94,-20.00
-18,1,636,-77,-502,3816,-0.69,0.42,36.72,-0.77,-5.02,38.16,-5.28,2.76,20.58,4.04,-1.95,-20.00
-23,14,585,-216,-726,3890,-0.76,0.46,36.62,-2.16,-7.26,38.90,-5.30,2.77,20.43,4.17,-2.24,-20.00
-19,19,605,-139,-532,3969,-0.80,0.53,36.64,-1.39,-5.32,39.69,-5.31,2.78,20.29,4.11,-2.37,-20.00
-15,17,488,-242,-549,4024,-0.81,0.58,35.96,-2.42,-5.49,40.24,-5.32,2.80,20.15,4.04,-2.35,-15.32
-9,18,476,-151,-545,3923,-0.79,0.63,35.26,-1.51,-5.45,39.23,-5.34,2.82,20.01,3.92,-2.40,-14.76
-11,-2,378,-173,-420,3933,-0.77,0.56,34.04,-1.73,-4.20,39.33,-5.35,2.82,19.87,3.97,-1.97,-4.68
6,16,334,-271,-643,3741,-0.66,0.60,32.68,-2.71,-6.43,37.41,-5.37,2.84,19.74,3.60,-2.36,-1.20
4,9,304,-21,-362,3765,-0.57,0.59,31.26,-0.21,-3.62,37.65,-5.36,2.84,19.62,3.61,-2.22,0.57
-12,15,301,-62,-402,3807,-0.59,0.63,29.97,-0.62,-4.02,38.07,-5.37,2.83,19.50,3.95,-2.35,-0.71
-2,12,304,3,-328,3889,-0.54,0.64,28.83,0.03,-3.28,38.89,-5.36,2.83,19.38,3.72,-2.29,-2.52
1,11,344,-24,-411,3867,-0.48,0.64,28.05,-0.24,-4.11,38.67,-5.36,2.83,19.27,3.65,-2.26,-8.25
-7,10,412,-174,-334,3942,-0.47,0.64,27.75,-1.74,-3.34,39.42,-5.34,2.83,19.16,3.80,-2.24,-16.67
-12,0,415,-145,-248,3929,-0.50,0.57,27.51,-1.45,-2.48,39.29,-5.32,2.83,19.05,3.89,-2.03,-17.32
-4,3,348,-166,-373,3768,-0.47,0.53,26.88,-1.66,-3.73,37.68,-5.33,2.83,18.95,3.73,-2.08,-10.16
-11,9,365,-138,-491,3861,-0.49,0.54,26.42,-1.38,-4.91,38.61,-5.34,2.84,18.84,3.89,-2.20,-12.75
-9,-6,342,-183,-272,3876,-0.50,0.45,25.86,-1.83,-2.72,38.76,-5.32,2.85,18.74,3.83,-1.88,-10.72
-8,-1,332,-167,-424,3941,-0.50,0.39,25.30,-1.67,-4.24,39.41,-5.34,2.85,18.64,3.82,-1.97,-10.23
2,-1,320,-88,-316,3942,-0.44,0.35,24.73,-0.88,-3.16,39.42,-5.32,2.84,18.54,3.59,-1.95,-9.53
-8,-4,299,-195,-438,3838,-0.44,0.29,24.08,-1.95,-4.38,38.38,-5.34,2.86,18.44,3.81,-1.88,-7.86
-5,6,301,-48,-553,3791,-0.43,0.30,23.50,-0.48,-5.53,37.91,-5.35,2.85,18.35,3.75,-2.09,-8.81
6,-17,282,141,-233,4087,-0.35,0.16,22.87,1.41,-2.33,40.87,-5.34,2.85,18.26,3.50,-1.58,-7.35
-12,15,401,-159,-562,3833,-0.39,0.24,23.03,-1.59,-5.62,38.33,-5.36,2.85,18.17,3.88,-2.25,-20.00
-4,23,441,-224,-433,3880,-0.37,0.36,23.42,-2.24,-4.33,38.80,-5.37,2.87,18.08,3.73,-2.46,-20.00
-5,19,482,-104,-474,3930,-0.37,0.44,24.02,-1.04,-4.74,39.30,-5.38,2.87,17.98,3.75,-2.40,-20.00
-1,10,494,44,-485,3869,-0.34,0.45,24.63,0.44,-4.85,38.69,-5.39,2.86,17.88,3.67,-2.22,-20.00
0,25,555,-114,-591,3813,-0.30,0.56,25.55,-1.14,-5.91,38.13,-5.40,2.87,17.78,3.65,-2.56,-20.00
2,26,583,-32,-500,3948,-0.26,0.66,26.55,-0.32,-5.00,39.48,-5.41,2.87,17.68,3.60,-2.60,-20.00
-4,34,606,-51,-519,3791,-0.26,0.80,27.59,-0.51,-5.19,37.91,-5.41,2.87,17.57,3.73,-2.80,-20.00
4,-7,558,102,-59,4119,-0.21,0.68,28.24,1.02,-0.59,41.19,-5.40,2.87,17.46,3.54,-1.94,-20.00
-21,-3,623,22,-517,3977,-0.32,0.59,29.22,0.22,-5.17,39.77,-5.40,2.87,17.34,4.08,-1.99,-20.00
-17,13,664,-137,-730,3791,-0.39,0.61,30.34,-1.37,-7.30,37.91,-5.42,2.88,17.22,4.03,-2.33,-20.00
3,27,638,-44,-365,3935,-0.33,0.72,31.20,-0.44,-3.65,39.35,-5.41,2.88,17.10,3.60,-2.64,-20.00
-8,17,644,72,-499,3922,-0.35,0.75,32.01,0.72,-4.99,39.22,-5.41,2.87,16.97,3.83,-2.45,-20.00
-18,12,633,178,-557,3824,-0.42,0.75,32.67,1.78,-5.57,38.24,-5.42,2.87,16.84,4.06,-2.34,-20.00
-6,13,636,120,-511,3887,-0.42,0.75,33.28,1.20,-5.11,38.87,-5.42,2.87,16.71,3.81,-2.37,-20.00
-8,12,644,-67,-454,3991,-0.42,0.75,33.88,-0.67,-4.54,39.91,-5.42,2.87,16.57,3.86,-2.34,-20.00
-6,15,657,-176,-453,3888,-0.42,0.77,34.50,-1.76,-4.53,38.88,-5.44,2.88,16.44,3.82,-2.42,-20.00
-17,-1,670,-27,-398,3928,-0.48,0.68,35.14,-0.27,-3.98,39.28,-5.43,2.88,16.30,4.06,-2.07,-20.00
-11,13,666,21,-245,3851,-0.50,0.69,35.69,0.21,-2.45,38.51,-5.42,2.88,16.15,3.94,-2.36,-20.00
-14,13,627,-74,-458,4011,-0.53,0.70,35.94,-0.74,-4.58,40.11,-5.42,2.88,16.01,4.01,-2.36,-20.00
-11,18,668,12,-513,3829,-0.55,0.74,36.42,0.12,-5.13,38.29,-5.43,2.88,15.87,3.96,-2.47,-20.00
-4,22,648,57,-444,3918,-0.52,0.80,36.73,0.57,-4.44,39.18,-5.43,2.88,15.72,3.80,-2.57,-20.00
1,16,626,24,-463,4016,-0.46,0.82,36.88,0.24,-4.63,40.16,-5.43,2.88,15.57,3.69,-2.45,-20.00
-9,29,604,-48,-418,3881,-0.47,0.92,36.88,-0.48,-4.18,38.81,-5.43,2.88,15.43,3.89,-2.74,-20.00
-13,-7,584,90,-236,4035,-0.50,0.78,36.75,0.90,-2.36,40.35,-5.42,2.88,15.28,3.98,-1.97,-20.00
-15,9,576,-132,-546,3951,-0.54,0.76,36.59,-1.32,-5.46,39.51,-5.43,2.89,15.14,4.03,-2.30,-20.00
8,12,587,-84,-253,3896,-0.44,0.76,36.51,-0.84,-2.53,38.96,-5.41,2.90,14.99,3.53,-2.36,-20.00
-6,20,638,-21,-488,3873,-0.43,0.80,36.75,-0.21,-4.88,38.73,-5.41,2.90,14.85,3.81,-2.54,-20.00
-3,39,662,-139,-461,3907,-0.41,0.96,37.11,-1.39,-4.61,39.07,-5.42,2.91,14.70,3.75,-2.97,-20.00
-28,20,712,18,-414,3930,-0.54,0.99,37.75,0.18,-4.14,39.30,-5.42,2.91,14.55,4.29,-2.60,-20.00
-7,19,676,24,-396,3869,-0.53,1.00,38.10,0.24,-3.96,38.69,-5.42,2.91,14.40,3.86,-2.58,-20.00
-17,25,634,48,-584,3890,-0.58,1.06,38.15,0.48,-5.84,38.90,-5.42,2.91,14.25,4.08,-2.72,-20.00
4,11,599,52,-522,4009,-0.50,1.02,37.99,0.52,-5.22,40.09,-5.43,2.92,14.10,3.64,-2.43,-20.00
6,25,643,-58,-610,3955,-0.41,1.07,38.12,-0.58,-6.10,39.55,-5.44,2.93,13.94,3.58,-2.73,-20.00
2,7,660,17,-470,3928,-0.36,1.00,38.33,0.17,-4.70,39.28,-5.44,2.93,13.79,3.65,-2.35,-20.00
-24,27,676,-56,-504,3928,-0.47,1.07,38.62,-0.56,-5.04,39.28,-5.44,2.93,13.64,4.21,-2.78,-20.00
-13,7,676,-10,-437,4115,-0.50,1.00,38.88,-0.10,-4.37,41.15,-5.44,2.93,13.48,3.99,-2.35,-20.00
-1,9,666,41,-439,3988,-0.46,0.96,39.06,0.41,-4.39,39.88,-5.44,2.93,13.33,3.73,-2.38,-20.00
-17,8,663,22,-536,3735,-0.51,0.91,39.19,0.22,-5.36,37.35,-5.45,2.94,13.17,4.08,-2.35,-20.00
-3,17,630,-57,-557,3704,-0.48,0.92,39.12,-0.57,-5.57,37.04,-5.45,2.95,13.02,3.79,-2.54,-20.00
-8,-11,609,113,-457,4008,-0.48,0.76,38.92,1.13,-4.57,40.08,-5.45,2.95,12.86,3.89,-1.93,-20.00
-8,20,617,17,-460,3735,-0.48,0.81,38.79,0.17,-4.60,37.35,-5.46,2.95,12.71,3.89,-2.57,-20.00
-2,24,623,-89,-534,3788,-0.45,0.88,38.71,-0.89,-5.34,37.88,-5.46,2.96,12.56,3.77,-2.68,-20.00
-19,-4,583,-104,-294,3774,-0.52,0.76,38.40,-1.04,-2.94,37.74,-5.45,2.96,12.40,4.12,-2.08,-20.00
-5,20,607,-106,-275,3918,-0.50,0.81,38.26,-1.06,-2.75,39.18,-5.43,2.96,12.25,3.82,-2.58,-20.00
-22,-14,605,88,-326,3795,-0.58,0.64,38.13,0.88,-3.26,37.95,-5.42,2.96,12.10,4.18,-1.85,-20.00
-17,-7,595,56,-328,4062,-0.63,0.54,37.94,0.56,-3.28,40.62,-5.41,2.96,11.95,4.09,-1.96,-20.00
-5,10,660,-84,-419,4164,-0.59,0.54,38.17,-0.84,-4.19,41.64,-5.41,2.96,11.80,3.83,-2.31,-20.00
-13,22,676,-212,-510,3678,-0.61,0.62,38.48,-2.12,-5.10,36.78,-5.42,2.98,11.64,4.01,-2.58,-20.00
-11,15,699,-210,-375,3784,-0.62,0.65,38.90,-2.10,-3.75,37.84,-5.43,3.01,11.49,3.98,-2.47,-20.00
-14,17,687,-154,-436,3916,-0.64,0.69,39.20,-1.54,-4.36,39.16,-5.44,3.01,11.33,4.05,-2.52,-20.00
-6,20,726,-70,-525,3910,-0.62,0.74,39.71,-0.70,-5.25,39.10,-5.45,3.02,11.18,3.89,-2.60,-20.00
-4,25,737,-32,-537,3860,-0.58,0.82,40.23,-0.32,-5.37,38.60,-5.45,3.02,11.02,3.84,-2.73,-20.00
-2,28,763,-26,-354,3861,-0.53,0.91,40.86,-0.26,-3.54,38.61,-5.45,3.03,10.86,3.78,-2.81,-20.00
-24,13,725,-25,-505,3908,-0.63,0.90,41.20,-0.25,-5.05,39.08,-5.45,3.03,10.69,4.26,-2.51,-20.00
-14,22,651,-104,-477,3922,-0.65,0.94,41.05,-1.04,-4.77,39.22,-5.46,3.04,10.53,4.06,-2.71,-20.00
-7,17,645,71,-498,3993,-0.63,0.95,40.88,0.71,-4.98,39.93,-5.46,3.04,10.37,3.92,-2.61,-20.00
-15,4,578,23,-469,3838,-0.66,0.88,40.32,0.23,-4.69,38.38,-5.46,3.04,10.21,4.09,-2.33,-18.61
-13,1,573,67,-407,3920,-0.67,0.80,39.78,0.67,-4.07,39.20,-5.46,3.04,10.05,4.05,-2.25,-18.68
6,-5,566,101,-388,4047,-0.57,0.69,39.26,1.01,-3.88,40.47,-5.45,3.04,9.89,3.63,-2.09,-18.49
-6,3,585,168,-416,3883,-0.55,0.64,38.90,1.68,-4.16,38.83,-5.45,3.04,9.74,3.87,-2.24,-20.00
-3,0,610,-56,-362,3857,-0.51,0.57,38.73,-0.56,-3.62,38.57,-5.44,3.04,9.58,3.79,-2.16,-20.00
-10,17,641,-111,-508,3721,-0.52,0.62,38.77,-1.11,-5.08,37.21,-5.45,3.05,9.43,3.94,-2.53,-20.00
-19,12,672,-59,-489,3838,-0.58,0.63,38.99,-0.59,-4.89,38.38,-5.46,3.05,9.28,4.15,-2.43,-20.00
-18,0,677,-18,-388,4052,-0.63,0.57,39.22,-0.18,-3.88,40.52,-5.45,3.05,9.12,4.14,-2.17,-20.00
1,1,641,62,-520,3901,-0.57,0.52,39.21,0.62,-5.20,39.01,-5.45,3.05,8.96,3.73,-2.17,-20.00
-21,11,646,136,-446,3793,-0.64,0.53,39.23,1.36,-4.46,37.93,-5.45,3.05,8.81,4.20,-2.38,-20.00
-7,6,638,14,-479,3890,-0.62,0.52,39.20,0.14,-4.79,38.90,-5.45,3.05,8.65,3.91,-2.28,-20.00
-11,-1,642,-107,-498,3980,-0.62,0.46,39.19,-1.07,-4.98,39.80,-5.46,3.05,8.50,4.00,-2.12,-20.00
-11,22,680,-196,-493,3910,-0.63,0.55,39.42,-1.96,-4.93,39.10,-5.47,3.07,8.34,4.01,-2.62,-20.00
-9,18,659,-19,-508,3924,-0.62,0.60,39.50,-0.19,-5.08,39.24,-5.48,3.07,8.18,3.97,-2.56,-20.00
-6,19,691,-36,-463,3836,-0.59,0.66,39.76,-0.36,-4.63,38.36,-5.48,3.07,8.03,3.90,-2.59,-20.00
-10,32,691,42,-521,3820,-0.60,0.79,40.00,0.42,-5.21,38.20,-5.48,3.08,7.87,3.99,-2.90,-20.00
-14,9,707,-114,-389,3950,-0.62,0.76,40.32,-1.14,-3.89,39.50,-5.48,3.08,7.71,4.07,-2.42,-20.00
-16,15,710,-164,-566,3819,-0.66,0.78,40.62,-1.64,-5.66,38.19,-5.49,3.09,7.55,4.13,-2.56,-20.00
-12,3,706,-55,-434,3820,-0.66,0.72,40.86,-0.55,-4.34,38.20,-5.49,3.09,7.38,4.05,-2.30,-20.00
-13,7,701,-125,-532,3811,-0.68,0.69,41.05,-1.25,-5.32,38.11,-5.50,3.10,7.22,4.08,-2.38,-20.00
-12,12,670,-122,-517,3852,-0.68,0.69,41.03,-1.22,-5.17,38.52,-5.51,3.11,7.06,4.07,-2.49,-20.00
-9,4,676,-123,-451,4095,-0.67,0.65,41.05,-1.23,-4.51,40.95,-5.52,3.11,6.90,4.01,-2.31,-20.00
-7,4,697,107,-322,4064,-0.64,0.61,41.20,1.07,-3.22,40.64,-5.51,3.11,6.73,3.95,-2.30,-20.00
-19,11,687,34,-555,3771,-0.70,0.61,41.27,0.34,-5.55,37.71,-5.51,3.12,6.57,4.21,-2.45,-20.00
-9,11,701,104,-556,3992,-0.68,0.62,41.42,1.04,-5.56,39.92,-5.51,3.12,6.40,4.01,-2.45,-20.00
-5,3,703,51,-469,3910,-0.64,0.58,41.57,0.51,-4.69,39.10,-5.51,3.12,6.24,3.92,-2.28,-20.00
4,5,709,38,-611,3990,-0.56,0.55,41.73,0.38,-6.11,39.90,-5.52,3.13,6.07,3.71,-2.31,-20.00
-15,1,696,-77,-473,3782,-0.59,0.50,41.81,-0.77,-4.73,37.82,-5.52,3.13,5.91,4.11,-2.22,-20.00
-7,26,728,-120,-503,3816,-0.57,0.61,42.07,-1.20,-5.03,38.16,-5.53,3.14,5.74,3.95,-2.77,-20.00
-12,36,733,-162,-601,3961,-0.59,0.77,42.33,-1.62,-6.01,39.61,-5.54,3.15,5.57,4.06,-3.02,-20.00
-16,14,730,-313,-559,3708,-0.63,0.78,42.55,-3.13,-5.59,37.08,-5.55,3.18,5.40,4.16,-2.60,-20.00
-12,26,750,-172,-608,3814,-0.64,0.86,42.87,-1.72,-6.08,38.14,-5.56,3.20,5.23,4.09,-2.87,-20.00
-2,44,786,-114,-329,3796,-0.59,1.04,43.38,-1.14,-3.29,37.96,-5.55,3.20,5.06,3.86,-3.29,-20.00
-18,41,753,-40,-389,3980,-0.64,1.19,43.63,-0.40,-3.89,39.80,-5.54,3.20,4.89,4.20,-3.27,-20.00
-8,40,727,87,-382,3880,-0.62,1.31,43.71,0.87,-3.82,38.80,-5.53,3.21,4.71,3.99,-3.29,-20.00
-8,20,706,106,-473,3948,-0.61,1.30,43.64,1.06,-4.73,39.48,-5.53,3.21,4.54,3.98,-2.88,-20.00
1,24,778,71,-529,3953,-0.54,1.32,44.02,0.71,-5.29,39.53,-5.53,3.22,4.37,3.78,-2.97,-20.00
4,21,792,94,-489,3874,-0.46,1.31,44.45,0.94,-4.89,38.74,-5.53,3.22,4.19,3.70,-2.91,-20.00
-26,-5,845,-199,-400,4010,-0.58,1.15,45.16,-1.99,-4.00,40.10,-5.53,3.23,4.01,4.34,-2.34,-20.00
-14,14,863,-232,-448,3759,-0.60,1.12,45.91,-2.32,-4.48,37.59,-5.54,3.25,3.83,4.11,-2.74,-20.00
-5,18,875,29,-415,3827,-0.57,1.12,46.66,0.29,-4.15,38.27,-5.53,3.26,3.64,3.91,-2.82,-20.00
-31,22,875,29,-484,4029,-0.71,1.14,47.33,0.29,-4.84,40.29,-5.53,3.26,3.46,4.47,-2.91,-20.00
-15,17,898,-174,-499,3883,-0.73,1.13,48.07,-1.74,-4.99,38.83,-5.54,3.28,3.27,4.16,-2.82,-20.00
-18,16,904,-178,-451,3879,-0.76,1.12,48.78,-1.78,-4.51,38.79,-5.55,3.29,3.07,4.24,-2.80,-20.00
-15,21,841,-85,-535,3779,-0.78,1.13,49.03,-0.85,-5.35,37.79,-5.56,3.31,2.88,4.18,-2.92,-20.00
-31,15,845,122,-555,3877,-0.89,1.11,49.28,1.22,-5.55,38.77,-5.56,3.31,2.68,4.54,-2.80,-20.00
-4,20,856,152,-548,3959,-0.83,1.12,49.58,1.52,-5.48,39.59,-5.55,3.32,2.49,3.97,-2.90,-20.00
2,22,865,88,-453,3879,-0.73,1.14,49.90,0.88,-4.53,38.79,-5.55,3.33,2.29,3.82,-2.96,-20.00
-7,11,886,180,-483,3917,-0.70,1.10,50.31,1.80,-4.83,39.17,-5.55,3.33,2.09,3.99,-2.72,-20.00
-9,8,914,145,-437,3982,-0.69,1.04,50.85,1.45,-4.37,39.82,-5.54,3.34,1.89,4.03,-2.65,-20.00
-4,17,953,80,-418,3942,-0.64,1.04,51.58,0.80,-4.18,39.42,-5.53,3.34,1.68,3.91,-2.84,-20.00
-8,5,954,4,-435,3908,-0.63,0.96,52.24,0.04,-4.35,39.08,-5.53,3.35,1.47,3.98,-2.58,-20.00
-24,-11,948,-69,-437,4081,-0.71,0.80,52.80,-0.69,-4.37,40.81,-5.52,3.36,1.26,4.33,-2.21,-20.00
-17,9,943,-91,-482,3904,-0.74,0.77,53.27,-0.91,-4.82,39.04,-5.52,3.37,1.05,4.19,-2.62,-20.00
-17,16,858,-118,-464,3806,-0.77,0.79,53.18,-1.18,-4.64,38.06,-5.53,3.38,0.84,4.20,-2.77,-20.00
-9,18,846,-163,-482,3979,-0.75,0.82,53.02,-1.63,-4.82,39.79,-5.53,3.39,0.63,4.04,-2.83,-20.00
-11,18,781,-47,-431,3854,-0.74,0.85,52.48,-0.47,-4.31,38.54,-5.53,3.39,0.42,4.07,-2.84,-20.00
-10,32,766,-38,-420,3913,-0.73,0.96,51.91,-0.38,-4.20,39.13,-5.52,3.40,0.21,4.05,-3.16,-20.00
-12,31,729,-58,-424,3967,-0.73,1.06,51.17,-0.58,-4.24,39.67,-5.52,3.41,0.01,4.08,-3.17,-20.00
-13,20,726,-64,-337,3890,-0.74,1.07,50.48,-0.64,-3.37,38.90,-5.50,3.41,-0.19,4.10,-2.95,-20.00
-14,21,646,-80,-354,3843,-0.75,1.09,49.37,-0.80,-3.54,38.43,-5.49,3.42,-0.39,4.11,-2.98,-13.14
-15,27,629,-109,-421,3737,-0.76,1.15,48.27,-1.09,-4.21,37.37,-5.49,3.42,-0.58,4.14,-3.12,-12.50
-3,14,539,74,-329,3903,-0.71,1.12,46.73,0.74,-3.29,39.03,-5.48,3.43,-0.76,3.87,-2.85,-3.77
3,31,487,-89,-367,3829,-0.62,1.20,45.03,-0.89,-3.67,38.29,-5.47,3.43,-0.94,3.72,-3.22,0.24
-12,16,433,-32,-257,3964,-0.63,1.17,43.17,-0.32,-2.57,39.64,-5.46,3.44,-1.12,4.02,-2.91,4.29
-2,12,421,-126,-400,3957,-0.58,1.13,41.42,-1.26,-4.00,39.57,-5.45,3.44,-1.28,3.80,-2.82,3.49
-7,26,420,41,-499,3902,-0.56,1.18,39.84,0.41,-4.99,39.02,-5.45,3.44,-1.44,3.89,-3.12,1.61
8,34,414,15,-483,3842,-0.46,1.27,38.38,0.15,-4.83,38.42,-5.45,3.45,-1.59,3.56,-3.31,0.48
5,23,357,-21,-379,3918,-0.38,1.28,36.72,-0.21,-3.79,39.18,-5.45,3.45,-1.74,3.60,-3.09,5.13
-9,-5,342,-15,-394,3904,-0.40,1.12,35.13,-0.15,-3.94,39.04,-5.44,3.45,-1.88,3.88,-2.48,4.90
2,2,309,-98,-387,3853,-0.35,1.02,33.51,-0.98,-3.87,38.53,-5.44,3.44,-2.01,3.64,-2.59,6.75
6,15,317,-46,-510,3783,-0.27,1.01,32.09,-0.46,-5.10,37.83,-5.44,3.45,-2.14,3.55,-2.86,4.00
-12,-7,315,-62,-459,3802,-0.32,0.87,30.80,-0.62,-4.59,38.02,-5.45,3.45,-2.26,3.93,-2.37,2.61
-5,8,339,60,-573,3908,-0.32,0.83,29.79,0.60,-5.73,39.08,-5.45,3.44,-2.38,3.79,-2.66,-1.52
-7,10,366,-45,-458,3956,-0.33,0.81,29.04,-0.45,-4.58,39.56,-5.45,3.44,-2.49,3.83,-2.70,-5.66
-3,11,364,-78,-423,3941,-0.32,0.79,28.36,-0.78,-4.23,39.41,-5.45,3.44,-2.60,3.74,-2.71,-6.28
-10,-4,315,-93,-376,4022,-0.34,0.69,27.44,-0.93,-3.76,40.22,-5.45,3.43,-2.71,3.89,-2.37,-1.62
-3,3,304,-125,-399,3821,-0.33,0.64,26.55,-1.25,-3.99,38.21,-5.45,3.43,-2.82,3.74,-2.50,-1.44
-13,0,297,-47,-514,3717,-0.37,0.57,25.71,-0.47,-5.14,37.17,-5.45,3.43,-2.92,3.97,-2.42,-1.68
-3,11,296,-15,-507,3959,-0.36,0.58,24.95,-0.15,-5.07,39.59,-5.46,3.42,-3.02,3.76,-2.64,-2.52
0,9,268,-37,-423,3884,-0.32,0.58,24.09,-0.37,-4.23,38.84,-5.46,3.42,-3.11,3.69,-2.60,-0.29
-8,-1,260,4,-492,3914,-0.34,0.52,23.26,0.04,-4.92,39.14,-5.46,3.41,-3.21,3.86,-2.37,-0.38
-2,1,266,25,-465,3933,-0.32,0.47,22.56,0.25,-4.65,39.33,-5.46,3.40,-3.30,3.73,-2.40,-1.98
-6,4,270,-21,-482,3892,-0.32,0.45,21.95,-0.21,-4.82,38.92,-5.47,3.40,-3.38,3.82,-2.45,-3.22
0,3,228,-127,-368,3823,-0.29,0.42,21.15,-1.27,-3.68,38.23,-5.47,3.39,-3.47,3.69,-2.41,0.74
-7,5,227,-145,-433,3902,-0.30,0.41,20.42,-1.45,-4.33,39.02,-5.47,3.38,-3.55,3.84,-2.45,-0.06
-7,-8,211,-61,-303,4008,-0.31,0.32,19.66,-0.61,-3.03,40.08,-5.46,3.38,-3.63,3.83,-2.15,0.88
-6,-1,198,-112,-457,3782,-0.32,0.28,18.90,-1.12,-4.57,37.82,-5.47,3.37,-3.70,3.82,-2.28,1.46
-9,-18,228,33,-427,3785,-0.34,0.14,18.40,0.33,-4.27,37.85,-5.47,3.36,-3.77,3.89,-1.89,-2.73
-8,7,231,32,-506,3754,-0.36,0.17,17.97,0.32,-5.06,37.54,-5.48,3.35,-3.85,3.88,-2.40,-3.62
-4,-3,193,-104,-327,3864,-0.35,0.14,17.35,-1.04,-3.27,38.64,-5.47,3.34,-3.92,3.79,-2.18,0.10
-6,-3,166,-122,-371,3895,-0.35,0.10,16.63,-1.22,-3.71,38.95,-5.47,3.33,-3.98,3.82,-2.17,2.39
-7,2,169,-35,-446,3944,-0.36,0.11,16.00,-0.35,-4.46,39.44,-5.47,3.32,-4.04,3.85,-2.26,1.23
-6,-3,156,6,-422,3887,-0.36,0.08,15.35,0.06,-4.22,38.87,-5.47,3.31,-4.11,3.83,-2.14,1.95
-3,1,144,-34,-498,3890,-0.34,0.08,14.69,-0.34,-4.98,38.90,-5.48,3.30,-4.16,3.77,-2.22,2.54
-4,2,145,9,-491,3891,-0.33,0.08,14.11,0.09,-4.91,38.91,-5.49,3.29,-4.22,3.79,-2.23,1.68
-2,-3,106,-13,-439,3854,-0.31,0.05,13.34,-0.13,-4.39,38.54,-5.49,3.28,-4.27,3.75,-2.12,5.34
-2,-2,103,-1,-459,3917,-0.29,0.04,12.64,-0.01,-4.59,39.17,-5.49,3.26,-4.32,3.75,-2.12,4.79
-4,0,118,39,-521,3918,-0.29,0.03,12.09,0.39,-5.21,39.18,-5.50,3.25,-4.37,3.79,-2.16,2.32
-1,-2,119,52,-463,3935,-0.26,0.02,11.61,0.52,-4.63,39.35,-5.51,3.24,-4.42,3.73,-2.10,1.59
0,6,133,17,-520,3916,-0.24,0.05,11.26,0.17,-5.20,39.16,-5.51,3.23,-4.46,3.70,-2.27,-0.51
-3,5,144,-3,-463,3946,-0.23,0.08,11.01,-0.03,-4.63,39.46,-5.52,3.21,-4.50,3.77,-2.24,-2.12
-4,5,154,-30,-493,3928,-0.23,0.10,10.85,-0.30,-4.93,39.28,-5.53,3.20,-4.55,3.79,-2.24,-3.51
-6,-3,151,0,-438,3883,-0.25,0.07,10.69,0.00,-4.38,38.83,-5.53,3.19,-4.59,3.84,-2.06,-3.36
-6,-1,143,11,-442,3940,-0.26,0.06,10.49,0.11,-4.42,39.40,-5.53,3.18,-4.63,3.84,-2.09,-2.65
-7,-8,141,-2,-383,3932,-0.28,0.00,10.30,-0.02,-3.83,39.32,-5.53,3.16,-4.67,3.87,-1.93,-2.65
-7,3,126,-82,-473,3910,-0.29,0.02,10.04,-0.82,-4.73,39.10,-5.54,3.15,-4.71,3.88,-2.15,-1.20
-6,1,126,-49,-450,3918,-0.30,0.03,9.80,-0.49,-4.50,39.18,-5.55,3.14,-4.75,3.86,-2.10,-1.50
-7,1,100,-105,-447,3906,-0.31,0.03,9.43,-1.05,-4.47,39.06,-5.56,3.13,-4.79,3.89,-2.09,1.12
-5,-1,101,-88,-440,3933,-0.31,0.02,9.11,-0.88,-4.40,39.33,-5.56,3.11,-4.82,3.86,-2.04,0.59
-6,-3,93,-11,-480,3862,-0.32,-0.00,8.76,-0.11,-4.80,38.62,-5.57,3.10,-4.86,3.88,-1.99,1.10
-6,-2,101,15,-471,3921,-0.32,-0.01,8.50,0.15,-4.71,39.21,-5.58,3.09,-4.89,3.89,-1.99,-0.18
-2,-4,95,54,-428,3923,-0.30,-0.04,8.23,0.54,-4.28,39.23,-5.58,3.07,-4.92,3.80,-1.94,0.19
0,-2,82,32,-442,3885,-0.27,-0.04,7.91,0.32,-4.42,38.85,-5.58,3.06,-4.95,3.76,-1.96,1.32
-3,6,119,113,-564,3860,-0.26,-0.00,7.84,1.13,-5.64,38.60,-5.59,3.04,-4.99,3.82,-2.13,-3.14
-2,6,131,128,-549,3921,-0.25,0.03,7.86,1.28,-5.49,39.21,-5.60,3.03,-5.02,3.80,-2.13,-4.54
-3,3,163,13,-453,3863,-0.24,0.05,8.07,0.13,-4.53,38.63,-5.60,3.02,-5.05,3.83,-2.07,-8.06
-7,0,155,-13,-409,3937,-0.26,0.04,8.21,-0.13,-4.09,39.37,-5.61,3.00,-5.08,3.91,-1.99,-6.93
-3,2,121,-14,-463,3924,-0.25,0.05,8.12,-0.14,-4.63,39.24,-5.61,2.99,-5.11,3.83,-2.03,-3.00
-6,0,123,29,-514,3892,-0.26,0.05,8.06,0.29,-5.14,38.92,-5.62,2.98,-5.14,3.90,-1.98,-3.31
0,10,155,73,-579,3903,-0.24,0.10,8.20,0.73,-5.79,39.03,-5.63,2.96,-5.18,3.78,-2.19,-6.92
1,11,170,70,-543,3923,-0.21,0.16,8.42,0.70,-5.43,39.23,-5.64,2.95,-5.21,3.76,-2.22,-8.41
2,-4,174,-27,-495,3911,-0.17,0.12,8.64,-0.27,-4.95,39.11,-5.65,2.94,-5.24,3.73,-1.89,-8.60
-11,-2,184,-13,-483,3855,-0.22,0.10,8.90,-0.13,-4.83,38.55,-5.65,2.93,-5.28,4.02,-1.92,-9.45
-5,11,186,1,-498,3883,-0.23,0.15,9.14,0.01,-4.98,38.83,-5.66,2.92,-5.31,3.90,-2.19,-9.36
0,2,185,3,-417,4009,-0.21,0.15,9.36,0.03,-4.17,40.09,-5.66,2.90,-5.35,3.79,-2.00,-8.96
3,6,196,179,-481,3865,-0.17,0.17,9.62,1.79,-4.81,38.65,-5.67,2.89,-5.39,3.73,-2.08,-9.93
3,17,213,237,-414,3932,-0.13,0.26,9.95,2.37,-4.14,39.32,-5.67,2.88,-5.43,3.72,-2.31,-11.50
-9,-5,244,-139,-477,3943,-0.18,0.20,10.45,-1.39,-4.77,39.43,-5.68,2.87,-5.47,3.98,-1.85,-14.54
-4,-8,228,-131,-421,3922,-0.18,0.13,10.79,-1.31,-4.21,39.22,-5.69,2.86,-5.51,3.88,-1.76,-12.19
2,-5,177,-28,-461,3883,-0.15,0.09,10.79,-0.28,-4.61,38.83,-5.69,2.85,-5.56,3.76,-1.80,-6.13
-4,-9,177,-32,-477,3901,-0.16,0.03,10.79,-0.32,-4.77,39.01,-5.70,2.83,-5.60,3.89,-1.69,-6.12
-3,-2,181,-34,-441,3978,-0.16,0.01,10.82,-0.34,-4.41,39.78,-5.70,2.82,-5.64,3.87,-1.82,-6.56
-2,2,176,-24,-412,3874,-0.16,0.02,10.81,-0.24,-4.12,38.74,-5.70,2.81,-5.68,3.85,-1.90,-5.97
-2,1,188,20,-451,4022,-0.16,0.03,10.88,0.20,-4.51,40.22,-5.71,2.79,-5.73,3.85,-1.87,-7.30
-8,-11,191,30,-432,3960,-0.19,-0.04,10.95,0.30,-4.32,39.60,-5.71,2.78,-5.77,3.98,-1.60,-7.55
-6,4,134,-90,-399,3947,-0.21,-0.02,10.68,-0.90,-3.99,39.47,-5.71,2.77,-5.81,3.95,-1.90,-1.14
-2,1,120,-60,-440,3927,-0.20,-0.01,10.34,-0.60,-4.40,39.27,-5.71,2.75,-5.85,3.86,-1.84,0.10
-5,1,94,52,-474,3879,-0.21,-0.00,9.88,0.52,-4.74,38.79,-5.72,2.74,-5.89,3.93,-1.83,2.60
-9,2,96,51,-521,3892,-0.24,0.01,9.48,0.51,-5.21,38.92,-5.73,2.73,-5.93,4.03,-1.84,1.85
-6,-2,58,-76,-375,3887,-0.26,-0.00,8.88,-0.76,-3.75,38.87,-5.72,2.71,-5.97,3.97,-1.75,5.60
-6,-1,37,-88,-384,3923,-0.27,-0.01,8.22,-0.88,-3.84,39.23,-5.72,2.70,-6.00,3.97,-1.76,7.25
-1,0,-17,-6,-406,3911,-0.25,-0.01,7.29,-0.06,-4.06,39.11,-5.72,2.68,-6.03,3.86,-1.77,12.47
2,1,-37,-1,-358,3924,-0.21,-0.00,6.34,-0.01,-3.58,39.24,-5.72,2.67,-6.05,3.79,-1.78,13.62
7,-4,-71,61,-373,3884,-0.15,-0.02,5.27,0.61,-3.73,38.84,-5.72,2.65,-6.07,3.67,-1.66,16.29
7,-3,-79,-12,-412,3899,-0.09,-0.04,4.26,-0.12,-4.12,38.99,-5.72,2.63,-6.09,3.66,-1.67,15.94
-3,-9,-48,-9,-460,3855,-0.10,-0.09,3.54,-0.09,-4.60,38.55,-5.72,2.62,-6.10,3.87,-1.52,11.34
-1,-9,-53,15,-416,3892,-0.09,-0.14,2.87,0.15,-4.16,38.92,-5.73,2.60,-6.12,3.83,-1.50,11.07
-2,-1,-48,-7,-532,3933,-0.10,-0.13,2.29,-0.07,-5.32,39.33,-5.74,2.59,-6.12,3.85,-1.65,9.73
-3,-12,-50,-3,-459,3950,-0.11,-0.19,1.75,-0.03,-4.59,39.50,-5.74,2.57,-6.13,3.88,-1.40,9.29
-6,-4,-39,-3,-521,3937,-0.13,-0.20,1.34,-0.03,-5.21,39.37,-5.76,2.55,-6.14,3.96,-1.55,7.45
-3,-5,-33,-22,-501,3897,-0.14,-0.21,1.00,-0.22,-5.01,38.97,-5.77,2.54,-6.14,3.90,-1.52,6.31
-2,-1,-21,-21,-476,3911,-0.14,-0.19,0.78,-0.21,-4.76,39.11,-5.78,2.52,-6.14,3.89,-1.59,4.59
2,3,-21,-23,-484,3898,-0.11,-0.15,0.57,-0.23,-4.84,38.98,-5.78,2.51,-6.14,3.81,-1.67,4.33
3,0,-20,-29,-478,3891,-0.08,-0.14,0.39,-0.29,-4.78,38.91,-5.79,2.49,-6.15,3.79,-1.61,3.98
1,-2,-19,-10,-484,3913,-0.07,-0.14,0.24,-0.10,-4.84,39.13,-5.80,2.47,-6.15,3.83,-1.55,3.66
-2,-3,-8,19,-503,3893,-0.07,-0.14,0.16,0.19,-5.03,38.93,-5.81,2.46,-6.15,3.90,-1.52,2.27
-3,-4,0,5,-498,3893,-0.08,-0.15,0.15,0.05,-4.98,38.93,-5.82,2.44,-6.15,3.93,-1.49,1.30
-9,-9,13,6,-475,3906,-0.13,-0.19,0.21,0.06,-4.75,39.06,-5.83,2.42,-6.15,4.07,-1.36,-0.16
-2,-6,14,20,-484,3919,-0.13,-0.21,0.28,0.20,-4.84,39.19,-5.84,2.41,-6.15,3.93,-1.41,-0.20
-3,-6,27,25,-432,3943,-0.13,-0.22,0.41,0.25,-4.32,39.43,-5.84,2.39,-6.15,3.95,-1.39,-1.56
3,-16,26,5,-454,3907,-0.10,-0.30,0.53,0.05,-4.54,39.07,-5.85,2.37,-6.15,3.83,-1.16,-1.29
7,-39,30,-5,-464,3905,-0.05,-0.51,0.66,-0.05,-4.64,39.05,-5.85,2.35,-6.15,3.73,-0.62,-1.60
8,-37,27,-8,-449,3888,0.00,-0.68,0.76,-0.08,-4.49,38.88,-5.86,2.33,-6.16,3.70,-0.60,-1.12
3,-26,23,1,-465,3874,0.02,-0.77,0.82,0.01,-4.65,38.74,-5.87,2.31,-6.16,3.80,-0.79,-0.56
3,-24,23,11,-463,3900,0.04,-0.84,0.88,0.11,-4.63,39.00,-5.87,2.29,-6.16,3.80,-0.79,-0.49
3,-23,22,10,-471,3920,0.05,-0.90,0.93,0.10,-4.71,39.20,-5.88,2.27,-6.17,3.80,-0.79,-0.31
2,-25,25,26,-485,3916,0.06,-0.96,0.99,0.26,-4.85,39.16,-5.89,2.25,-6.17,3.83,-0.71,-0.59
-2,-20,52,24,-517,3840,0.04,-0.99,1.21,0.24,-5.17,38.40,-5.90,2.23,-6.18,3.92,-0.80,-3.51
-5,-2,60,35,-501,3841,0.01,-0.90,1.45,0.35,-5.01,38.41,-5.90,2.21,-6.18,4.00,-1.17,-4.14
-11,28,75,71,-468,3920,-0.06,-0.64,1.76,0.71,-4.68,39.20,-5.91,2.19,-6.19,4.14,-1.84,-5.52
-6,16,78,70,-505,3951,-0.09,-0.48,2.06,0.70,-5.05,39.51,-5.92,2.17,-6.20,4.05,-1.63,-5.49
3,-7,110,132,-512,3841,-0.06,-0.47,2.53,1.32,-5.12,38.41,-5.92,2.16,-6.21,3.87,-1.15,-8.68
-3,0,116,-122,-383,3940,-0.08,-0.43,2.98,-1.22,-3.83,39.40,-5.91,2.14,-6.22,3.98,-1.30,-8.81
3,-44,62,-116,-437,3940,-0.05,-0.65,3.06,-1.16,-4.37,39.40,-5.92,2.13,-6.23,3.86,-0.33,-2.30
14,-51,52,-130,-492,3878,0.04,-0.90,3.07,-1.30,-4.92,38.78,-5.94,2.12,-6.24,3.62,-0.12,-1.10
3,-35,58,-1,-504,3887,0.05,-1.02,3.12,-0.01,-5.04,38.87,-5.95,2.10,-6.26,3.85,-0.40,-1.75
5,-30,55,58,-475,3885,0.08,-1.10,3.14,0.58,-4.75,38.85,-5.96,2.08,-6.27,3.81,-0.47,-1.36
6,-37,22,51,-438,3902,0.11,-1.22,2.96,0.51,-4.38,39.02,-5.96,2.06,-6.28,3.78,-0.28,2.33
5,-34,18,44,-409,3880,0.13,-1.30,2.78,0.44,-4.09,38.80,-5.96,2.04,-6.29,3.79,-0.30,2.56
4,-17,-2,43,-455,3871,0.14,-1.28,2.49,0.43,-4.55,38.71,-5.96,2.02,-6.30,3.81,-0.64,4.57
2,-7,-7,34,-447,3879,0.14,-1.19,2.20,0.34,-4.47,38.79,-5.96,2.00,-6.31,3.86,-0.85,4.79
2,2,-10,41,-450,3904,0.14,-1.06,1.91,0.41,-4.50,39.04,-5.97,1.98,-6.32,3.86,-1.06,4.78
3,2,-12,37,-456,3889,0.14,-0.94,1.65,0.37,-4.56,38.89,-5.97,1.95,-6.33,3.84,-1.07,4.68
-6,15,-15,76,-427,3981,0.09,-0.76,1.39,0.76,-4.27,39.81,-5.97,1.93,-6.33,4.04,-1.38,4.71
-15,2,-22,97,-434,3828,-0.01,-0.67,1.12,0.97,-4.34,38.28,-5.97,1.91,-6.34,4.25,-1.12,5.19
-9,22,-18,27,-452,3939,-0.06,-0.47,0.90,0.27,-4.52,39.39,-5.98,1.89,-6.34,4.15,-1.57,4.43
-12,16,-17,25,-462,3894,-0.13,-0.32,0.70,0.25,-4.62,38.94,-5.99,1.88,-6.34,4.23,-1.48,4.06
-6,7,-26,25,-447,3898,-0.15,-0.25,0.48,0.25,-4.47,38.98,-5.99,1.86,-6.35,4.12,-1.30,4.84
-6,9,-26,12,-454,3887,-0.18,-0.17,0.27,0.12,-4.54,38.87,-6.00,1.84,-6.35,4.13,-1.35,4.57
2,-15,-41,50,-439,3928,-0.15,-0.24,-0.01,0.50,-4.39,39.28,-6.00,1.82,-6.35,3.96,-0.83,6.00
7,-23,-51,65,-427,3919,-0.09,-0.36,-0.32,0.65,-4.27,39.19,-6.00,1.80,-6.35,3.84,-0.62,6.78
3,-16,-32,-10,-511,3862,-0.06,-0.42,-0.48,-0.10,-5.11,38.62,-6.02,1.79,-6.34,3.93,-0.74,4.32
-4,14,-9,-18,-496,3858,-0.08,-0.29,-0.49,-0.18,-4.96,38.58,-6.03,1.77,-6.34,4.08,-1.37,1.58
-3,1,6,-24,-485,3921,-0.09,-0.26,-0.40,-0.24,-4.85,39.21,-6.04,1.75,-6.34,4.07,-1.11,-0.09
0,4,9,-11,-482,3908,-0.08,-0.21,-0.31,-0.11,-4.82,39.08,-6.05,1.74,-6.34,4.01,-1.17,-0.32
-3,12,15,1,-484,3922,-0.09,-0.11,-0.19,0.01,-4.84,39.22,-6.06,1.72,-6.34,4.08,-1.35,-0.88
-2,2,17,11,-480,3916,-0.09,-0.09,-0.06,0.11,-4.80,39.16,-6.07,1.70,-6.34,4.07,-1.14,-0.96
-1,-1,22,-11,-476,3920,-0.09,-0.09,0.08,-0.11,-4.76,39.20,-6.08,1.69,-6.34,4.06,-1.07,-1.37
-1,1,24,16,-477,3916,-0.09,-0.07,0.22,0.16,-4.77,39.16,-6.08,1.67,-6.34,4.06,-1.10,-1.43
3,-10,20,-4,-499,3897,-0.06,-0.13,0.32,-0.04,-4.99,38.97,-6.09,1.66,-6.34,3.98,-0.86,-0.82
-1,-10,20,28,-491,3904,-0.06,-0.17,0.41,0.28,-4.91,39.04,-6.10,1.64,-6.34,4.07,-0.83,-0.71
11,-28,26,62,-496,3956,0.01,-0.33,0.52,0.62,-4.96,39.56,-6.11,1.62,-6.34,3.81,-0.41,-1.27
16,-44,29,36,-495,3909,0.11,-0.56,0.65,0.36,-4.95,39.09,-6.12,1.60,-6.35,3.68,-0.01,-1.46
8,-25,45,97,-510,3849,0.15,-0.66,0.86,0.97,-5.10,38.49,-6.13,1.58,-6.35,3.84,-0.36,-3.09
7,-14,50,93,-514,3850,0.17,-0.68,1.08,0.93,-5.14,38.50,-6.13,1.57,-6.35,3.86,-0.56,-3.40
3,-1,78,-7,-477,3910,0.18,-0.62,1.45,-0.07,-4.77,39.10,-6.14,1.55,-6.36,3.94,-0.83,-6.25
4,-7,73,-35,-377,3945,0.18,-0.60,1.75,-0.35,-3.77,39.45,-6.13,1.53,-6.37,3.91,-0.70,-5.27
7,-26,28,7,-439,3899,0.21,-0.70,1.74,0.07,-4.39,38.99,-6.13,1.51,-6.37,3.85,-0.28,0.06
7,-24,25,31,-454,3912,0.23,-0.77,1.72,0.31,-4.54,39.12,-6.14,1.49,-6.38,3.84,-0.28,0.39
-1,-13,66,121,-608,3810,0.20,-0.78,1.95,1.21,-6.08,38.10,-6.15,1.47,-6.39,4.02,-0.50,-4.17
-9,5,93,105,-546,3841,0.12,-0.67,2.32,1.05,-5.46,38.41,-6.16,1.46,-6.40,4.21,-0.88,-6.89
-24,62,81,-19,-352,3904,-0.03,-0.22,2.59,-0.19,-3.52,39.04,-6.14,1.44,-6.41,4.55,-2.15,-5.13
-6,24,47,-30,-380,4044,-0.07,-0.05,2.61,-0.30,-3.80,40.44,-6.13,1.43,-6.42,4.19,-1.42,-1.06
10,-30,23,20,-464,3859,0.00,-0.23,2.49,0.20,-4.64,38.59,-6.14,1.41,-6.43,3.85,-0.26,1.63
5,-17,20,34,-469,3844,0.03,-0.31,2.37,0.34,-4.69,38.44,-6.15,1.40,-6.44,3.95,-0.49,1.82
-6,13,13,26,-450,3924,-0.01,-0.20,2.21,0.26,-4.50,39.24,-6.15,1.38,-6.45,4.18,-1.12,2.45
-1,6,6,4,-447,3941,-0.01,-0.14,2.02,0.04,-4.47,39.41,-6.15,1.36,-6.45,4.09,-0.98,3.05
4,-18,-26,44,-481,3907,0.01,-0.24,1.66,0.44,-4.81,39.07,-6.16,1.34,-6.46,3.98,-0.46,6.38
3,-21,-27,56,-499,3902,0.03,-0.34,1.33,0.56,-4.99,39.02,-6.17,1.33,-6.47,4.00,-0.35,6.08
-1,-5,-36,60,-491,3867,0.02,-0.34,0.98,0.60,-4.91,38.67,-6.18,1.31,-6.47,4.09,-0.67,6.69
-1,0,-42,64,-504,3862,0.01,-0.31,0.62,0.64,-5.04,38.62,-6.19,1.29,-6.47,4.10,-0.77,6.95
-9,25,-50,63,-516,3856,-0.04,-0.12,0.26,0.63,-5.16,38.56,-6.20,1.28,-6.47,4.28,-1.32,7.43
-4,46,-29,111,-546,3925,-0.06,0.17,0.05,1.11,-5.46,39.25,-6.21,1.26,-6.47,4.19,-1.81,4.68
-20,49,-17,24,-403,3914,-0.18,0.45,-0.05,0.24,-4.03,39.14,-6.20,1.25,-6.47,4.55,-1.94,3.11
-13,41,-19,37,-483,3945,-0.24,0.66,-0.16,0.37,-4.83,39.45,-6.21,1.23,-6.47,4.43,-1.83,3.21
-1,41,30,-14,-492,3859,-0.22,0.84,0.03,-0.14,-4.92,38.59,-6.23,1.22,-6.47,4.19,-1.87,-2.35
-12,33,36,-49,-377,4011,-0.27,0.96,0.25,-0.49,-3.77,40.11,-6.21,1.22,-6.47,4.42,-1.74,-2.78
16,-65,31,-19,-424,3940,-0.15,0.47,0.41,-0.19,-4.24,39.40,-6.21,1.20,-6.47,3.81,0.40,-1.98
20,-75,6,118,-460,3898,-0.01,-0.04,0.41,1.18,-4.60,38.98,-6.21,1.18,-6.48,3.70,0.76,0.98
-8,5,-16,1,-373,3816,-0.06,-0.00,0.27,0.01,-3.73,38.16,-6.20,1.17,-6.48,4.27,-0.87,3.41
-9,19,-19,2,-422,3861,-0.11,0.11,0.13,0.02,-4.22,38.61,-6.21,1.15,-6.48,4.31,-1.17,3.58
-2,-3,-10,-1,-497,3969,-0.11,0.08,0.05,-0.01,-4.97,39.69,-6.22,1.13,-6.48,4.17,-0.71,2.42
0,-10,2,3,-463,3883,-0.10,0.01,0.06,0.03,-4.63,38.83,-6.23,1.12,-6.48,4.14,-0.54,1.01
-6,18,3,-13,-478,3882,-0.13,0.12,0.07,-0.13,-4.78,38.82,-6.24,1.10,-6.48,4.27,-1.13,0.90
-4,16,3,-10,-475,3910,-0.14,0.21,0.08,-0.10,-4.75,39.10,-6.25,1.09,-6.48,4.24,-1.10,0.92
3,-1,5,-2,-482,3914,-0.11,0.18,0.11,-0.02,-4.82,39.14,-6.26,1.08,-6.48,4.10,-0.74,0.71
2,-1,7,13,-477,3880,-0.08,0.16,0.14,0.13,-4.77,38.80,-6.27,1.06,-6.48,4.12,-0.72,0.51
1,2,6,14,-467,3909,-0.07,0.15,0.16,0.14,-4.67,39.09,-6.28,1.05,-6.48,4.14,-0.77,0.66
0,-1,8,14,-464,3923,-0.06,0.13,0.19,0.14,-4.64,39.23,-6.29,1.03,-6.48,4.16,-0.69,0.47
-5,0,9,22,-456,3907,-0.09,0.12,0.23,0.22,-4.56,39.07,-6.29,1.01,-6.48,4.28,-0.70,0.39
-1,1,9,26,-470,3923,-0.08,0.11,0.26,0.26,-4.70,39.23,-6.30,1.00,-6.48,4.20,-0.71,0.43
2,-16,14,41,-473,3917,-0.06,0.00,0.32,0.41,-4.73,39.17,-6.30,0.98,-6.48,4.14,-0.32,-0.08
2,-18,16,20,-469,3904,-0.04,-0.11,0.39,0.20,-4.69,39.04,-6.31,0.96,-6.48,4.14,-0.24,-0.23
1,-11,10,34,-456,3874,-0.03,-0.16,0.41,0.34,-4.56,38.74,-6.32,0.94,-6.48,4.16,-0.35,0.51
2,-6,9,36,-455,3886,-0.02,-0.18,0.42,0.36,-4.55,38.86,-6.32,0.92,-6.49,4.14,-0.44,0.64
8,6,-5,79,-430,3863,0.03,-0.13,0.35,0.79,-4.30,38.63,-6.32,0.91,-6.49,4.00,-0.68,2.21
9,17,-9,23,-458,3871,0.08,-0.01,0.26,0.23,-4.58,38.71,-6.33,0.89,-6.49,3.97,-0.93,2.57
13,19,-28,89,-391,4044,0.15,0.11,0.06,0.89,-3.91,40.44,-6.32,0.87,-6.49,3.86,-0.99,4.57
1,-4,-51,124,-291,3947,0.15,0.07,-0.25,1.24,-2.91,39.47,-6.31,0.86,-6.49,4.10,-0.50,6.89
21,-36,-95,21,-543,3877,0.26,-0.16,-0.81,0.21,-5.43,38.77,-6.32,0.85,-6.49,3.67,0.22,11.40
4,-23,-76,2,-551,3796,0.26,-0.28,-1.19,0.02,-5.51,37.96,-6.34,0.84,-6.48,4.03,-0.01,8.65
-7,19,-80,72,-420,3947,0.19,-0.14,-1.56,0.72,-4.20,39.47,-6.33,0.82,-6.47,4.27,-0.89,8.65
0,-8,-103,38,-416,3954,0.17,-0.17,-2.03,0.38,-4.16,39.54,-6.33,0.80,-6.47,4.13,-0.32,10.77
8,-35,-149,-79,-432,3940,0.20,-0.37,-2.74,-0.79,-4.32,39.40,-6.32,0.81,-6.46,3.96,0.28,15.32
17,-45,-179,-14,-433,3919,0.29,-0.61,-3.56,-0.14,-4.33,39.19,-6.32,0.79,-6.44,3.75,0.56,17.82
-14,35,-163,150,-442,3808,0.17,-0.33,-4.19,1.50,-4.42,38.08,-6.32,0.77,-6.43,4.41,-1.13,15.10
-15,57,-177,158,-367,3857,0.06,0.05,-4.85,1.58,-3.67,38.57,-6.32,0.75,-6.41,4.46,-1.67,15.91
19,-34,-256,53,-382,4046,0.17,-0.16,-5.93,0.53,-3.82,40.46,-6.31,0.73,-6.38,3.73,0.25,20.00
23,-59,-279,77,-286,3969,0.30,-0.51,-7.04,0.77,-2.86,39.69,-6.29,0.71,-6.35,3.61,0.87,20.00
25,-46,-375,90,-451,3832,0.42,-0.74,-8.62,0.90,-4.51,38.32,-6.30,0.69,-6.32,3.53,0.68,20.00
-8,20,-369,22,-557,3567,0.33,-0.54,-10.01,0.22,-5.57,35.67,-6.31,0.68,-6.28,4.24,-0.71,20.00
-23,145,-391,165,-335,3973,0.15,0.40,-11.40,1.65,-3.35,39.73,-6.30,0.66,-6.24,4.59,-3.49,20.00
-4,77,-433,-5,-254,4299,0.11,0.83,-12.90,-0.05,-2.54,42.99,-6.29,0.65,-6.18,4.20,-2.22,20.00
36,-105,-529,-96,-279,3976,0.32,0.10,-14.83,-0.96,-2.79,39.76,-6.27,0.65,-6.13,3.32,1.68,20.00
21,-121,-574,-56,-423,3689,0.42,-0.64,-16.85,-0.56,-4.23,36.89,-6.28,0.65,-6.06,3.61,2.21,20.00
-1,18,-585,98,-540,3775,0.37,-0.47,-18.74,0.98,-5.40,37.75,-6.29,0.63,-5.98,4.07,-0.65,20.00
1,56,-595,8,-496,3806,0.34,-0.08,-20.49,0.08,-4.96,38.06,-6.31,0.61,-5.90,4.05,-1.52,20.00
-12,16,-613,36,-389,4045,0.23,0.02,-22.18,0.36,-3.89,40.45,-6.30,0.58,-5.81,4.34,-0.72,20.00
-13,-31,-636,-102,-89,4236,0.13,-0.17,-23.84,-1.02,-0.89,42.36,-6.28,0.58,-5.72,4.37,0.30,20.00
30,-56,-746,-100,-496,3797,0.30,-0.49,-26.01,-1.00,-4.96,37.97,-6.29,0.57,-5.62,3.46,0.89,20.00
8,-26,-756,-80,-655,3654,0.32,-0.60,-28.02,-0.80,-6.55,36.54,-6.31,0.56,-5.51,3.92,0.32,20.00
-1,49,-850,-161,-423,4081,0.28,-0.24,-30.40,-1.61,-4.23,40.81,-6.31,0.57,-5.38,4.11,-1.30,20.00
24,-14,-897,-36,-329,4013,0.40,-0.30,-32.83,-0.36,-3.29,40.13,-6.29,0.55,-5.25,3.55,0.00,20.00
32,-68,-941,59,-585,3858,0.55,-0.69,-35.29,0.59,-5.85,38.58,-6.30,0.52,-5.11,3.36,1.23,20.00
25,-45,-981,-85,-548,3732,0.65,-0.89,-37.75,-0.85,-5.48,37.32,-6.32,0.51,-4.96,3.49,0.82,20.00
3,7,-911,86,-333,3927,0.60,-0.76,-39.53,0.86,-3.33,39.27,-6.31,0.47,-4.81,3.94,-0.25,20.00
-7,-7,-849,78,-310,4055,0.50,-0.73,-40.75,0.78,-3.10,40.55,-6.29,0.44,-4.65,4.16,0.05,20.00
25,-45,-765,140,-317,3845,0.60,-0.93,-41.35,1.40,-3.17,38.45,-6.28,0.40,-4.48,3.47,0.90,20.00
32,-23,-758,62,-431,3884,0.74,-0.98,-41.83,0.62,-4.31,38.84,-6.28,0.36,-4.32,3.29,0.49,20.00
6,17,-683,20,-462,3873,0.70,-0.78,-41.82,0.20,-4.62,38.73,-6.29,0.33,-4.15,3.84,-0.35,20.00
-9,33,-668,35,-566,3896,0.58,-0.50,-41.71,0.35,-5.66,38.96,-6.31,0.30,-3.98,4.19,-0.73,20.00
50,-46,-722,-119,-412,4000,0.82,-0.73,-41.94,-1.19,-4.12,40.00,-6.30,0.30,-3.82,2.92,0.94,20.00
52,-54,-675,-7,-411,3877,1.06,-0.98,-41.87,-0.07,-4.11,38.77,-6.28,0.26,-3.65,2.80,1.19,20.00
-11,27,-702,-16,-642,3837,0.89,-0.72,-41.96,-0.16,-6.42,38.37,-6.30,0.24,-3.49,4.14,-0.51,20.00
11,60,-699,-26,-364,3894,0.86,-0.28,-42.03,-0.26,-3.64,38.94,-6.27,0.22,-3.32,3.68,-1.29,20.00
10,-29,-712,-34,-407,4110,0.84,-0.43,-42.17,-0.34,-4.07,41.10,-6.25,0.21,-3.15,3.70,0.57,20.00
34,-61,-711,4,-345,4098,0.96,-0.76,-42.29,0.04,-3.45,40.98,-6.23,0.19,-2.98,3.16,1.32,20.00
10,-13,-697,-50,-454,3797,0.93,-0.76,-42.31,-0.50,-4.54,37.97,-6.24,0.18,-2.82,3.66,0.36,20.00
-3,15,-719,39,-421,3768,0.82,-0.60,-42.47,0.39,-4.21,37.68,-6.24,0.14,-2.65,3.96,-0.23,20.00
7,1,-731,-33,-570,4004,0.78,-0.53,-42.68,-0.33,-5.70,40.04,-6.26,0.12,-2.48,3.78,0.04,20.00
30,-13,-723,35,-436,4027,0.88,-0.56,-42.82,0.35,-4.36,40.27,-6.25,0.08,-2.31,3.28,0.36,20.00
28,-33,-718,-19,-743,3718,0.96,-0.70,-42.92,-0.19,-7.43,37.18,-6.27,0.06,-2.14,3.30,0.82,20.00
-5,-25,-674,16,-525,3858,0.84,-0.78,-42.74,0.16,-5.25,38.58,-6.28,0.04,-1.97,4.02,0.70,20.00
12,19,-623,-121,-470,3850,0.83,-0.59,-42.27,-1.21,-4.70,38.50,-6.29,0.03,-1.80,3.68,-0.25,19.93
8,7,-600,-64,-550,4171,0.79,-0.49,-41.70,-0.64,-5.50,41.71,-6.30,0.02,-1.63,3.78,-0.02,17.90
42,-59,-585,-89,-487,3896,0.97,-0.80,-41.10,-0.89,-4.87,38.96,-6.30,0.02,-1.47,3.04,1.41,16.86
18,-55,-560,-23,-588,3868,0.98,-1.06,-40.40,-0.23,-5.88,38.68,-6.32,-0.00,-1.31,3.54,1.41,14.76
-2,4,-545,159,-428,3900,0.87,-0.93,-39.69,1.59,-4.28,39.00,-6.31,-0.04,-1.15,3.97,0.20,13.87
11,32,-525,-71,-762,3788,0.85,-0.64,-38.92,-0.71,-7.62,37.88,-6.33,-0.06,-1.00,3.72,-0.44,12.46
-3,-2,-374,40,-609,3978,0.75,-0.59,-37.31,0.40,-6.09,39.78,-6.34,-0.08,-0.85,4.04,0.25,-3.41
7,1,-353,94,-477,3832,0.72,-0.52,-35.73,0.94,-4.77,38.32,-6.35,-0.11,-0.71,3.85,0.20,-3.90
18,-40,-365,-76,-511,3844,0.75,-0.71,-34.39,-0.76,-5.11,38.44,-6.36,-0.12,-0.57,3.63,1.09,-0.77
12,-31,-345,64,-542,3682,0.75,-0.83,-33.05,0.64,-5.42,36.82,-6.37,-0.14,-0.44,3.76,0.95,-1.45
-4,13,-269,-51,-700,3858,0.65,-0.67,-31.39,-0.51,-7.00,38.58,-6.39,-0.16,-0.32,4.12,0.02,-8.35
-10,24,-240,43,-552,3871,0.53,-0.46,-29.71,0.43,-5.52,38.71,-6.40,-0.18,-0.20,4.29,-0.25,-9.66
22,-10,-231,-70,-586,3939,0.61,-0.47,-28.15,-0.70,-5.86,39.39,-6.42,-0.18,-0.09,3.62,0.45,-8.74
14,-26,-209,-41,-490,3948,0.63,-0.58,-26.61,-0.41,-4.90,39.48,-6.42,-0.18,0.02,3.78,0.81,-9.39
0,15,-186,-15,-496,3814,0.57,-0.43,-25.08,-0.15,-4.96,38.14,-6.44,-0.19,0.12,4.09,-0.06,-10.18
-1,24,-177,51,-462,3870,0.51,-0.24,-23.66,0.51,-4.62,38.70,-6.45,-0.22,0.21,4.14,-0.28,-9.43
0,26,-242,46,-333,3924,0.46,-0.06,-22.77,0.46,-3.33,39.24,-6.43,-0.23,0.30,4.12,-0.36,-0.59
6,7,-267,27,-352,3994,0.45,-0.01,-22.12,0.27,-3.52,39.94,-6.41,-0.24,0.39,3.98,0.02,3.19
13,7,-269,45,-604,3791,0.48,0.03,-21.55,0.45,-6.04,37.91,-6.42,-0.26,0.48,3.84,0.02,4.14
1,36,-244,32,-609,3756,0.44,0.25,-20.88,0.32,-6.09,37.56,-6.44,-0.27,0.56,4.11,-0.62,2.02
-2,3,-246,-86,-399,4046,0.38,0.24,-20.29,-0.86,-3.99,40.46,-6.43,-0.26,0.64,4.18,0.04,3.00
4,-2,-246,-92,-467,3918,0.37,0.21,-19.76,-0.92,-4.67,39.18,-6.43,-0.25,0.72,4.06,0.15,3.66
1,24,-258,56,-393,3928,0.34,0.33,-19.36,0.56,-3.93,39.28,-6.41,-0.27,0.80,4.12,-0.40,5.59
17,7,-266,11,-399,4069,0.41,0.34,-19.05,0.11,-3.99,40.69,-6.39,-0.27,0.87,3.76,-0.06,6.93
5,24,-280,3,-437,3817,0.40,0.45,-18.85,0.03,-4.37,38.17,-6.40,-0.26,0.95,4.01,-0.44,8.83
7,-9,-316,89,-323,4146,0.40,0.35,-18.89,0.89,-3.23,41.46,-6.38,-0.28,1.02,3.96,0.27,13.03
14,14,-336,-31,-493,3741,0.45,0.40,-19.05,-0.31,-4.93,37.41,-6.40,-0.27,1.10,3.81,-0.21,15.18
15,4,-354,53,-413,4163,0.49,0.39,-19.31,0.53,-4.13,41.63,-6.38,-0.29,1.17,3.77,0.00,16.98
24,-6,-433,-202,-475,3915,0.59,0.31,-20.02,-2.02,-4.75,39.15,-6.38,-0.28,1.25,3.56,0.22,20.00
9,4,-448,-62,-410,3893,0.59,0.31,-20.75,-0.62,-4.10,38.93,-6.37,-0.27,1.34,3.86,0.01,20.00
22,-9,-517,-63,-430,3870,0.66,0.22,-21.83,-0.63,-4.30,38.70,-6.37,-0.26,1.42,3.57,0.30,20.00
9,2,-490,-156,-657,3833,0.65,0.21,-22.63,-1.56,-6.57,38.33,-6.38,-0.26,1.51,3.85,0.07,20.00
6,-8,-494,32,-386,3983,0.62,0.14,-23.38,0.32,-3.86,39.83,-6.36,-0.27,1.61,3.90,0.30,20.00
-2,-11,-505,-18,-543,3916,0.55,0.06,-24.13,-0.18,-5.43,39.16,-6.37,-0.28,1.70,4.10,0.39,20.00
7,-20,-520,32,-392,3973,0.54,-0.07,-24.89,0.32,-3.92,39.73,-6.35,-0.29,1.80,3.90,0.62,20.00
11,-18,-539,53,-439,3859,0.55,-0.17,-25.69,0.53,-4.39,38.59,-6.35,-0.32,1.90,3.82,0.63,20.00
19,-2,-599,58,-403,3886,0.61,-0.17,-26.77,0.58,-4.03,38.86,-6.34,-0.35,2.01,3.63,0.32,20.00
0,-9,-602,111,-413,3922,0.55,-0.20,-27.77,1.11,-4.13,39.22,-6.33,-0.38,2.12,4.03,0.49,20.00
3,-14,-612,-77,-604,3896,0.51,-0.27,-28.72,-0.77,-6.04,38.96,-6.34,-0.38,2.23,3.99,0.61,20.00
21,-20,-630,-35,-301,4038,0.59,-0.36,-29.69,-0.35,-3.01,40.38,-6.32,-0.39,2.35,3.59,0.76,20.00
10,-23,-594,-100,-418,4008,0.59,-0.47,-30.35,-1.00,-4.18,40.08,-6.32,-0.39,2.47,3.81,0.85,20.00
-2,-13,-601,14,-465,3712,0.52,-0.50,-30.98,0.14,-4.65,37.12,-6.33,-0.40,2.60,4.08,0.67,20.00
12,-17,-571,40,-497,3923,0.54,-0.55,-31.36,0.40,-4.97,39.23,-6.35,-0.42,2.72,3.80,0.77,20.00
10,-9,-572,9,-461,3871,0.55,-0.55,-31.72,0.09,-4.61,38.71,-6.36,-0.43,2.85,3.84,0.62,20.00
-8,-29,-575,20,-349,3912,0.44,-0.68,-32.05,0.20,-3.49,39.12,-6.34,-0.44,2.97,4.23,1.07,20.00
24,-13,-589,20,-422,3719,0.55,-0.69,-32.44,0.20,-4.22,37.19,-6.35,-0.45,3.10,3.55,0.75,20.00
3,-23,-608,-75,-369,4108,0.51,-0.76,-32.90,-0.75,-3.69,41.08,-6.33,-0.45,3.23,3.98,0.97,20.00
1,-33,-618,-100,-382,3864,0.47,-0.88,-33.38,-1.00,-3.82,38.64,-6.32,-0.45,3.36,4.03,1.21,20.00
7,-8,-639,-35,-488,3783,0.46,-0.84,-33.94,-0.35,-4.88,37.83,-6.34,-0.46,3.50,3.91,0.69,20.00
9,-10,-634,-49,-417,3905,0.47,-0.82,-34.42,-0.49,-4.17,39.05,-6.33,-0.46,3.64,3.87,0.73,20.00
17,-2,-588,-57,-515,3967,0.53,-0.75,-34.56,-0.57,-5.15,39.67,-6.34,-0.46,3.77,3.69,0.55,20.00
12,-15,-579,-28,-397,3855,0.55,-0.77,-34.64,-0.28,-3.97,38.55,-6.33,-0.46,3.91,3.78,0.82,20.00
12,-8,-537,-69,-461,3874,0.57,-0.74,-34.45,-0.69,-4.61,38.74,-6.33,-0.46,4.05,3.78,0.67,18.72
12,-2,-539,-9,-395,3885,0.58,-0.68,-34.29,-0.09,-3.95,38.85,-6.31,-0.47,4.18,3.76,0.53,19.13
16,-18,-555,-19,-286,4043,0.62,-0.72,-34.25,-0.19,-2.86,40.43,-6.29,-0.48,4.32,3.66,0.88,20.00
5,-22,-571,-67,-238,3876,0.59,-0.78,-34.31,-0.67,-2.38,38.76,-6.27,-0.49,4.45,3.88,0.98,20.00
24,-20,-642,-59,-376,3870,0.68,-0.83,-34.79,-0.59,-3.76,38.70,-6.26,-0.49,4.59,3.46,0.96,20.00
24,-14,-649,-91,-319,3862,0.76,-0.83,-35.27,-0.91,-3.19,38.62,-6.24,-0.50,4.73,3.43,0.84,20.00
18,-10,-669,-11,-407,3917,0.79,-0.81,-35.83,-0.11,-4.07,39.17,-6.23,-0.50,4.87,3.53,0.75,20.00
20,-19,-683,-180,-464,3854,0.83,-0.84,-36.41,-1.80,-4.64,38.54,-6.23,-0.50,5.02,3.48,0.95,20.00
38,-6,-718,94,-429,3819,0.98,-0.79,-37.15,0.94,-4.29,38.19,-6.23,-0.54,5.17,3.07,0.69,20.00
7,-16,-727,66,-594,3893,0.93,-0.81,-37.87,0.66,-5.94,38.93,-6.24,-0.56,5.32,3.72,0.92,20.00
4,-31,-784,-16,-466,4019,0.86,-0.92,-38.86,-0.16,-4.66,40.19,-6.24,-0.56,5.47,3.81,1.25,20.00
1,-29,-786,-65,-447,3916,0.78,-1.01,-39.77,-0.65,-4.47,39.16,-6.24,-0.57,5.63,3.89,1.24,20.00
-1,-27,-875,-97,-408,3850,0.69,-1.07,-41.13,-0.97,-4.08,38.50,-6.24,-0.57,5.79,3.95,1.22,20.00
6,-31,-918,-122,-352,3920,0.66,-1.15,-42.62,-1.22,-3.52,39.20,-6.22,-0.58,5.96,3.81,1.33,20.00
10,-11,-1026,-141,-420,3909,0.66,-1.10,-44.62,-1.41,-4.20,39.09,-6.22,-0.58,6.14,3.72,0.91,20.00
18,-37,-1039,-117,-393,3987,0.70,-1.22,-46.49,-1.17,-3.93,39.87,-6.21,-0.59,6.32,3.54,1.47,20.00
26,-32,-1149,32,-311,3843,0.79,-1.29,-48.85,0.32,-3.11,38.43,-6.19,-0.62,6.52,3.34,1.41,20.00
11,-15,-1162,66,-411,4011,0.78,-1.25,-51.05,0.66,-4.11,40.11,-6.17,-0.65,6.72,3.64,1.08,20.00
39,-9,-1152,31,-421,3951,0.94,-1.18,-52.98,0.31,-4.21,39.51,-6.15,-0.67,6.93,3.01,0.95,20.00
23,-7,-1166,-101,-485,3805,0.98,-1.11,-54.79,-1.01,-4.85,38.05,-6.16,-0.68,7.15,3.33,0.89,20.00
18,-10,-1193,47,-287,3938,1.00,-1.06,-56.59,0.47,-2.87,39.38,-6.13,-0.71,7.37,3.41,0.96,20.00
7,-42,-1198,38,-499,3963,0.94,-1.21,-58.24,0.38,-4.99,39.63,-6.14,-0.73,7.60,3.66,1.67,20.00
-3,-28,-1217,88,-503,3730,0.83,-1.26,-59.84,0.88,-5.03,37.30,-6.15,-0.77,7.84,3.90,1.42,20.00
17,-18,-1212,130,-570,3926,0.85,-1.24,-61.25,1.30,-5.70,39.26,-6.16,-0.81,8.08,3.49,1.24,20.00
11,-13,-1196,0,-687,3897,0.83,-1.20,-62.42,0.00,-6.87,38.97,-6.17,-0.84,8.33,3.62,1.14,20.00
-9,-37,-1173,119,-578,3852,0.69,-1.30,-63.33,1.19,-5.78,38.52,-6.18,-0.88,8.58,4.08,1.69,20.00
19,-25,-1117,33,-595,3806,0.74,-1.33,-63.81,0.33,-5.95,38.06,-6.20,-0.91,8.83,3.50,1.47,20.00
1,-12,-1072,88,-634,3947,0.67,-1.27,-63.97,0.88,-6.34,39.47,-6.21,-0.94,9.09,3.89,1.21,20.00
-1,0,-1009,-188,-291,3911,0.60,-1.14,-63.73,-1.88,-2.91,39.11,-6.19,-0.96,9.34,3.94,0.94,20.00
6,-32,-1013,-63,-209,3972,0.57,-1.22,-63.53,-0.63,-2.09,39.72,-6.17,-0.98,9.59,3.79,1.63,20.00
7,-13,-998,-12,-307,3875,0.56,-1.18,-63.27,-0.12,-3.07,38.75,-6.15,-1.00,9.84,3.76,1.25,20.00
30,-6,-986,-162,-542,3946,0.69,-1.10,-62.96,-1.62,-5.42,39.46,-6.15,-1.02,10.09,3.26,1.09,20.00
19,-31,-923,-26,-342,4018,0.73,-1.18,-62.29,-0.26,-3.42,40.18,-6.13,-1.03,10.34,3.46,1.63,20.00
12,-5,-904,-103,-507,3738,0.73,-1.09,-61.58,-1.03,-5.07,37.38,-6.13,-1.05,10.59,3.60,1.09,20.00
64,-26,-937,-143,-554,3772,1.05,-1.14,-61.13,-1.43,-5.54,37.72,-6.13,-1.07,10.83,2.46,1.54,20.00
0,-6,-925,-126,-521,3817,0.95,-1.06,-60.66,-1.26,-5.21,38.17,-6.13,-1.08,11.07,3.79,1.12,20.00
27,-21,-920,-173,-673,3591,1.02,-1.08,-60.21,-1.73,-6.73,35.91,-6.14,-1.10,11.31,3.23,1.45,20.00
4,-13,-895,-56,-577,4206,0.94,-1.05,-59.65,-0.56,-5.77,42.06,-6.14,-1.11,11.54,3.72,1.29,20.00
13,-41,-891,-6,-371,3857,0.92,-1.20,-59.12,-0.06,-3.71,38.57,-6.13,-1.13,11.78,3.53,1.90,20.00
18,3,-889,-136,-466,3764,0.94,-1.06,-58.63,-1.36,-4.66,37.64,-6.12,-1.14,12.01,3.42,0.98,20.00
20,-10,-880,-246,-411,3904,0.97,-1.02,-58.13,-2.46,-4.11,39.04,-6.11,-1.15,12.24,3.36,1.24,20.00
4,-20,-849,-140,-328,3983,0.90,-1.04,-57.50,-1.40,-3.28,39.83,-6.10,-1.16,12.47,3.70,1.46,20.00
-8,-23,-808,-76,-521,3744,0.76,-1.07,-56.68,-0.76,-5.21,37.44,-6.10,-1.18,12.70,3.98,1.54,20.00
31,3,-802,-104,-562,4033,0.87,-0.95,-55.90,-1.04,-5.62,40.33,-6.10,-1.19,12.92,3.16,0.98,20.00
11,-22,-798,-69,-319,3936,0.85,-0.99,-55.18,-0.69,-3.19,39.36,-6.09,-1.20,13.14,3.56,1.51,20.00
31,0,-791,-50,-582,3835,0.96,-0.89,-54.49,-0.50,-5.82,38.35,-6.09,-1.22,13.35,3.13,1.04,20.00
14,-8,-773,-23,-408,3866,0.95,-0.85,-53.75,-0.23,-4.08,38.66,-6.08,-1.22,13.57,3.47,1.20,20.00
14,16,-745,18,-520,3886,0.94,-0.67,-52.92,0.18,-5.20,38.86,-6.09,-1.24,13.78,3.48,0.67,17.91
24,21,-744,-55,-446,3989,0.99,-0.47,-52.17,-0.55,-4.46,39.89,-6.08,-1.25,13.98,3.26,0.52,18.72
45,10,-710,12,-262,4003,1.16,-0.36,-51.28,0.12,-2.62,40.03,-6.06,-1.26,14.19,2.77,0.73,15.79
21,-8,-677,-173,-414,3738,1.18,-0.38,-50.28,-1.73,-4.14,37.38,-6.05,-1.27,14.39,3.25,1.10,13.12
13,-1,-705,-154,-543,3944,1.14,-0.34,-49.56,-1.54,-5.43,39.44,-6.05,-1.27,14.58,3.42,0.95,17.34
8,-19,-694,67,-339,3963,1.07,-0.43,-48.83,0.67,-3.39,39.63,-6.02,-1.29,14.78,3.52,1.35,16.93
29,-29,-691,-41,-474,3694,1.14,-0.56,-48.17,-0.41,-4.74,36.94,-6.03,-1.30,14.97,3.08,1.60,17.40
4,-18,-721,101,-230,3889,1.05,-0.61,-47.75,1.01,-2.30,38.89,-6.00,-1.32,15.16,3.59,1.40,20.00
7,-16,-708,117,-254,3907,0.99,-0.65,-47.29,1.17,-2.54,39.07,-5.97,-1.34,15.35,3.53,1.39,20.00
14,17,-701,-110,-745,3781,0.98,-0.48,-46.84,-1.10,-7.45,37.81,-5.98,-1.36,15.53,3.40,0.68,20.00
32,9,-701,-26,-518,3925,1.07,-0.38,-46.43,-0.26,-5.18,39.25,-5.98,-1.36,15.72,3.01,0.82,20.00
3,-9,-743,135,-375,3873,0.98,-0.40,-46.32,1.35,-3.75,38.73,-5.96,-1.40,15.90,3.61,1.21,20.00
21,-5,-698,23,-426,3855,1.01,-0.39,-45.95,0.23,-4.26,38.55,-5.96,-1.40,16.09,3.23,1.13,20.00
13,-9,-668,-10,-451,3830,0.99,-0.40,-45.43,-0.10,-4.51,38.30,-5.96,-1.41,16.27,3.40,1.22,17.96
15,3,-654,-48,-566,3915,0.98,-0.34,-44.87,-0.48,-5.66,39.15,-5.97,-1.41,16.44,3.36,0.97,16.98
9,15,-570,-45,-442,3949,0.94,-0.22,-43.86,-0.45,-4.42,39.49,-5.96,-1.42,16.62,3.50,0.69,8.28
6,5,-561,-67,-404,3956,0.88,-0.17,-42.90,-0.67,-4.04,39.56,-5.95,-1.42,16.79,3.57,0.88,8.42
6,4,-537,25,-650,3928,0.83,-0.12,-41.88,0.25,-6.50,39.28,-5.96,-1.43,16.96,3.59,0.90,6.84
13,9,-498,3,-498,3806,0.83,-0.06,-40.73,0.03,-4.98,38.06,-5.97,-1.43,17.12,3.45,0.78,3.67
10,-13,-518,41,-437,4116,0.81,-0.13,-39.82,0.41,-4.37,41.16,-5.96,-1.43,17.28,3.51,1.25,7.18
-9,-31,-523,38,-280,3783,0.67,-0.31,-39.03,0.38,-2.80,37.83,-5.94,-1.44,17.43,3.92,1.67,8.77
-4,-21,-583,-80,-451,3901,0.58,-0.40,-38.68,-0.80,-4.51,39.01,-5.94,-1.44,17.58,3.84,1.49,16.30
10,-33,-612,-43,-516,4000,0.58,-0.57,-38.55,-0.43,-5.16,40.00,-5.94,-1.44,17.74,3.56,1.78,19.89
16,-18,-656,9,-444,4018,0.62,-0.62,-38.69,0.09,-4.44,40.18,-5.94,-1.45,17.89,3.43,1.49,20.00
24,-11,-677,88,-341,3923,0.71,-0.62,-38.95,0.88,-3.41,39.23,-5.92,-1.46,18.05,3.22,1.36,20.00
44,-7,-656,-90,-332,3871,0.90,-0.60,-39.06,-0.90,-3.32,38.71,-5.90,-1.46,18.20,2.76,1.27,20.00
-3,-3,-649,-135,-403,4023,0.80,-0.56,-39.11,-1.35,-4.03,40.23,-5.90,-1.46,18.36,3.74,1.18,20.00
21,15,-611,-30,-282,3894,0.84,-0.41,-38.93,-0.30,-2.82,38.94,-5.88,-1.47,18.51,3.22,0.78,19.14
14,3,-601,-64,-301,3899,0.84,-0.35,-38.70,-0.64,-3.01,38.99,-5.86,-1.47,18.67,3.35,1.00,18.21
16,-19,-626,-79,-456,3937,0.86,-0.43,-38.65,-0.79,-4.56,39.37,-5.86,-1.47,18.82,3.31,1.47,20.00
15,-15,-612,-134,-558,3897,0.86,-0.48,-38.52,-1.34,-5.58,38.97,-5.86,-1.47,18.97,3.33,1.41,19.70
18,-11,-619,-180,-217,3735,0.89,-0.50,-38.44,-1.80,-2.17,37.35,-5.84,-1.47,19.13,3.25,1.33,20.00
-9,-14,-661,-126,-233,3890,0.74,-0.54,-38.63,-1.26,-2.33,38.90,-5.82,-1.48,19.28,3.82,1.40,20.00
-2,-15,-720,-160,-548,4016,0.66,-0.57,-39.16,-1.60,-5.48,40.16,-5.83,-1.48,19.44,3.71,1.44,20.00
-6,-25,-720,-163,-449,3894,0.55,-0.67,-39.64,-1.63,-4.49,38.94,-5.82,-1.48,19.59,3.81,1.67,20.00
2,-34,-769,-95,-532,3804,0.51,-0.81,-40.36,-0.95,-5.32,38.04,-5.83,-1.48,19.75,3.67,1.89,20.00
10,-16,-790,-112,-566,3865,0.52,-0.83,-41.15,-1.12,-5.66,38.65,-5.83,-1.49,19.92,3.50,1.53,20.00
8,-35,-825,-199,-421,3881,0.52,-0.96,-42.06,-1.99,-4.21,38.81,-5.83,-1.49,20.08,3.54,1.96,20.00
0,-13,-829,-191,-523,3893,0.47,-0.94,-42.91,-1.91,-5.23,38.93,-5.83,-1.50,20.25,3.72,1.51,20.00
12,-17,-848,-208,-529,3964,0.49,-0.95,-43.80,-2.08,-5.29,39.64,-5.83,-1.50,20.43,3.47,1.59,20.00
7,-7,-862,-78,-270,3780,0.49,-0.90,-44.67,-0.78,-2.70,37.80,-5.81,-1.51,20.60,3.56,1.38,20.00
17,-30,-867,-225,-272,3934,0.54,-0.99,-45.50,-2.25,-2.72,39.34,-5.80,-1.51,20.79,3.33,1.88,20.00
19,-34,-903,-200,-327,3868,0.60,-1.10,-46.45,-2.00,-3.27,38.68,-5.79,-1.52,20.97,3.27,1.99,20.00
5,-19,-809,-145,-434,3802,0.57,-1.11,-46.74,-1.45,-4.34,38.02,-5.78,-1.52,21.16,3.56,1.69,20.00
2,-23,-777,-67,-289,3735,0.53,-1.14,-46.81,-0.67,-2.89,37.35,-5.77,-1.53,21.34,3.62,1.79,20.00
10,-30,-792,-175,-463,3695,0.54,-1.20,-46.96,-1.75,-4.63,36.95,-5.77,-1.54,21.53,3.46,1.95,20.00
9,-24,-780,-100,-589,3975,0.54,-1.23,-47.02,-1.00,-5.89,39.75,-5.77,-1.55,21.71,3.48,1.84,20.00
34,-2,-716,-34,-271,3915,0.69,-1.12,-46.69,-0.34,-2.71,39.15,-5.75,-1.56,21.90,2.92,1.37,20.00
19,-14,-723,-168,-327,4018,0.74,-1.09,-46.43,-1.68,-3.27,40.18,-5.74,-1.56,22.09,3.20,1.61,20.00
17,-11,-723,-111,-429,3957,0.77,-1.05,-46.20,-1.11,-4.29,39.57,-5.73,-1.57,22.27,3.23,1.54,20.00
14,-14,-733,-59,-471,3786,0.78,-1.03,-46.05,-0.59,-4.71,37.86,-5.74,-1.57,22.45,3.29,1.60,20.00
26,2,-800,18,-380,3819,0.86,-0.92,-46.32,0.18,-3.80,38.19,-5.73,-1.58,22.64,3.02,1.25,20.00
20,-1,-802,-120,-362,3941,0.89,-0.83,-46.58,-1.20,-3.62,39.41,-5.71,-1.58,22.82,3.12,1.29,20.00
7,-22,-838,-171,-346,3923,0.85,-0.88,-47.04,-1.71,-3.46,39.23,-5.70,-1.58,23.01,3.39,1.73,20.00
30,-7,-841,-195,-336,3931,0.95,-0.84,-47.46,-1.95,-3.36,39.31,-5.69,-1.59,23.20,2.89,1.42,20.00
-9,-38,-890,-269,-446,3918,0.80,-0.98,-48.15,-2.69,-4.46,39.18,-5.68,-1.59,23.39,3.72,2.09,20.00
4,-34,-909,-145,-370,3841,0.74,-1.09,-48.88,-1.45,-3.70,38.41,-5.68,-1.60,23.58,3.46,2.04,20.00
10,-39,-897,29,-478,3789,0.73,-1.22,-49.46,0.29,-4.78,37.89,-5.68,-1.61,23.78,3.35,2.19,20.00
-1,-40,-905,-78,-500,3889,0.65,-1.34,-50.03,-0.78,-5.00,38.89,-5.68,-1.62,23.98,3.59,2.25,20.00
12,-20,-817,-100,-321,4108,0.66,-1.33,-50.01,-1.00,-3.21,41.08,-5.67,-1.63,24.17,3.32,1.84,20.00
19,-26,-801,137,-152,3906,0.71,-1.36,-49.90,1.37,-1.52,39.06,-5.64,-1.66,24.37,3.14,1.99,20.00
6,-7,-728,-55,-524,4133,0.67,-1.26,-49.35,-0.55,-5.24,41.33,-5.64,-1.66,24.57,3.42,1.59,18.54
-9,-14,-701,23,-373,3730,0.55,-1.22,-48.69,0.23,-3.73,37.30,-5.64,-1.67,24.76,3.75,1.72,16.15
30,0,-676,-41,-425,3928,0.68,-1.10,-47.95,-0.41,-4.25,39.28,-5.63,-1.68,24.95,2.92,1.41,14.11
22,9,-654,-19,-532,3992,0.75,-0.94,-47.14,-0.19,-5.32,39.92,-5.64,-1.69,25.14,3.07,1.18,12.50
16,22,-623,-165,-589,4039,0.77,-0.71,-46.23,-1.65,-5.89,40.39,-5.64,-1.69,25.32,3.19,0.86,9.96
3,-3,-613,30,-414,3996,0.71,-0.66,-45.34,0.30,-4.14,39.96,-5.63,-1.69,25.50,3.46,1.36,9.88
13,-2,-626,-53,-386,3891,0.72,-0.60,-44.63,-0.53,-3.86,38.91,-5.63,-1.70,25.68,3.25,1.32,12.31
15,7,-649,31,-344,3812,0.74,-0.50,-44.12,0.31,-3.44,38.12,-5.61,-1.70,25.86,3.20,1.11,15.65
9,-20,-633,-27,-397,3853,0.72,-0.57,-43.57,-0.27,-3.97,38.53,-5.61,-1.70,26.03,3.32,1.68,14.43
-12,-37,-663,81,-640,3880,0.57,-0.74,-43.26,0.81,-6.40,38.80,-5.62,-1.72,26.20,3.79,2.09,18.36
8,-12,-723,-136,-405,3900,0.57,-0.74,-43.34,-1.36,-4.05,39.00,-5.61,-1.72,26.37,3.39,1.58,20.00
8,-16,-699,-2,-380,4004,0.56,-0.76,-43.27,-0.02,-3.80,40.04,-5.60,-1.72,26.55,3.38,1.67,20.00
9,-2,-653,16,-391,3812,0.56,-0.70,-42.93,0.16,-3.91,38.12,-5.60,-1.72,26.72,3.36,1.37,17.50
6,-2,-638,108,-466,3917,0.54,-0.64,-42.53,1.08,-4.66,39.17,-5.61,-1.74,26.89,3.43,1.36,16.21
22,-9,-584,1,-500,3823,0.62,-0.63,-41.84,0.01,-5.00,38.23,-5.61,-1.74,27.05,3.09,1.51,10.66
8,-12,-578,-158,-551,3878,0.61,-0.64,-41.18,-1.58,-5.51,38.78,-5.62,-1.75,27.21,3.38,1.57,10.77
-8,-28,-592,-339,-288,3865,0.50,-0.75,-40.67,-3.39,-2.88,38.65,-5.61,-1.75,27.38,3.73,1.93,13.05
0,-33,-582,-234,-281,4023,0.45,-0.87,-40.16,-2.34,-2.81,40.23,-5.59,-1.75,27.54,3.57,2.06,12.50
-3,-40,-592,254,-659,3812,0.38,-1.03,-39.75,2.54,-6.59,38.12,-5.60,-1.78,27.69,3.65,2.27,14.17
11,-22,-527,164,-539,3959,0.41,-1.06,-38.99,1.64,-5.39,39.59,-5.61,-1.80,27.85,3.37,1.93,7.41
2,-13,-471,-40,-226,3879,0.38,-1.04,-37.97,-0.40,-2.26,38.79,-5.60,-1.81,28.00,3.55,1.74,2.06
20,16,-502,221,-268,4028,0.47,-0.83,-37.23,2.21,-2.68,40.28,-5.57,-1.84,28.15,3.14,1.11,6.66
-4,-21,-418,-111,-471,4092,0.40,-0.88,-36.06,-1.11,-4.71,40.92,-5.57,-1.84,28.29,3.65,1.88,-1.83
5,-20,-421,-182,-393,3812,0.39,-0.91,-35.02,-1.82,-3.93,38.12,-5.57,-1.83,28.43,3.47,1.87,-0.16
6,-20,-427,-99,-328,3863,0.38,-0.94,-34.12,-0.99,-3.28,38.63,-5.56,-1.83,28.57,3.44,1.87,1.68
15,-11,-432,-95,-331,3880,0.44,-0.92,-33.35,-0.95,-3.31,38.80,-5.55,-1.83,28.70,3.24,1.68,3.24
4,-36,-487,-60,-501,3911,0.42,-1.04,-32.98,-0.60,-5.01,39.11,-5.55,-1.83,28.83,3.47,2.23,10.21
8,-22,-492,-55,-519,3854,0.43,-1.07,-32.68,-0.55,-5.19,38.54,-5.56,-1.84,28.96,3.39,1.95,11.16
19,-19,-512,-207,-475,3938,0.50,-1.08,-32.54,-2.07,-4.75,39.38,-5.56,-1.84,29.09,3.15,1.89,13.70
9,-30,-467,-357,-308,3874,0.50,-1.16,-32.13,-3.57,-3.08,38.74,-5.55,-1.83,29.21,3.34,2.14,8.86
-8,-17,-504,-336,-378,3909,0.40,-1.15,-32.00,-3.36,-3.78,39.09,-5.54,-1.83,29.34,3.71,1.87,13.40
-3,-20,-493,-151,-291,3903,0.35,-1.15,-31.80,-1.51,-2.91,39.03,-5.53,-1.83,29.47,3.62,1.93,12.32
19,-3,-517,15,-495,3814,0.43,-1.06,-31.78,0.15,-4.95,38.14,-5.54,-1.84,29.59,3.15,1.56,15.18
8,5,-503,-231,-459,3954,0.43,-0.92,-31.67,-2.31,-4.59,39.54,-5.54,-1.84,29.72,3.37,1.36,13.64
-2,-27,-427,-411,-276,3906,0.38,-0.99,-31.11,-4.11,-2.76,39.06,-5.53,-1.83,29.84,3.59,2.03,5.32
3,-25,-428,-394,-195,3825,0.36,-1.05,-30.61,-3.94,-1.95,38.25,-5.52,-1.83,29.97,3.48,2.00,6.06
1,-23,-458,-166,-211,3887,0.33,-1.08,-30.34,-1.66,-2.11,38.87,-5.50,-1.83,30.09,3.52,1.97,9.94
-7,-28,-474,-110,-151,3909,0.25,-1.14,-30.20,-1.10,-1.51,39.09,-5.49,-1.83,30.21,3.69,2.09,12.00
24,4,-609,7,-272,3764,0.37,-1.01,-30.89,0.07,-2.72,37.64,-5.47,-1.84,30.33,3.02,1.40,20.00
7,-20,-671,-297,-433,3962,0.38,-1.03,-31.90,-2.97,-4.33,39.62,-5.47,-1.83,30.46,3.36,1.90,20.00
14,12,-688,-190,-419,3907,0.43,-0.85,-32.90,-1.90,-4.19,39.07,-5.46,-1.83,30.59,3.20,1.20,20.00
8,-13,-686,20,-414,4029,0.43,-0.85,-33.80,0.20,-4.14,40.29,-5.46,-1.83,30.72,3.32,1.70,20.00
24,-4,-726,-77,-436,3930,0.54,-0.79,-34.85,-0.77,-4.36,39.30,-5.46,-1.83,30.86,2.97,1.50,20.00
23,-12,-744,-82,-391,3925,0.62,-0.78,-35.90,-0.82,-3.91,39.25,-5.45,-1.83,31.00,2.96,1.66,20.00
15,-12,-730,-268,-383,4094,0.65,-0.77,-36.76,-2.68,-3.83,40.94,-5.45,-1.83,31.15,3.11,1.66,20.00
25,-9,-718,-299,-380,3873,0.74,-0.75,-37.47,-2.99,-3.80,38.73,-5.44,-1.83,31.30,2.88,1.59,20.00
15,-13,-747,-139,-398,3855,0.76,-0.76,-38.28,-1.39,-3.98,38.55,-5.43,-1.82,31.45,3.08,1.67,20.00
12,0,-756,-76,-395,3784,0.75,-0.68,-39.06,-0.76,-3.95,37.84,-5.43,-1.82,31.60,3.13,1.39,20.00
25,-1,-796,10,-310,3805,0.83,-0.62,-40.01,0.10,-3.10,38.05,-5.41,-1.83,31.76,2.84,1.39,20.00
30,-1,-818,68,-325,4063,0.93,-0.56,-41.00,0.68,-3.25,40.63,-5.39,-1.83,31.93,2.69,1.38,20.00
29,-9,-919,-4,-370,3975,1.02,-0.56,-42.50,-0.04,-3.70,39.75,-5.38,-1.83,32.10,2.69,1.54,20.00
9,-12,-940,-72,-351,3801,0.97,-0.58,-43.99,-0.72,-3.51,38.01,-5.37,-1.83,32.27,3.10,1.61,20.00
31,-14,-997,-29,-302,3879,1.06,-0.61,-45.67,-0.29,-3.02,38.79,-5.35,-1.83,32.45,2.61,1.66,20.00
33,-9,-1011,-67,-363,3918,1.16,-0.60,-47.27,-0.67,-3.63,39.18,-5.34,-1.83,32.64,2.54,1.56,20.00
3,-8,-1019,32,-282,3764,1.06,-0.59,-48.76,0.32,-2.82,37.64,-5.32,-1.84,32.84,3.16,1.54,20.00
-5,0,-1026,-25,-362,3419,0.92,-0.53,-50.14,-0.25,-3.62,34.19,-5.32,-1.84,33.04,3.36,1.36,20.00
42,26,-941,-194,-302,3470,1.09,-0.32,-50.87,-1.94,-3.02,34.70,-5.30,-1.85,33.24,2.35,0.78,20.00
32,7,-895,-126,-262,4164,1.17,-0.24,-51.24,-1.26,-2.62,41.64,-5.29,-1.85,33.44,2.52,1.14,20.00
13,5,-822,-101,-133,3949,1.13,-0.19,-51.13,-1.01,-1.33,39.49,-5.26,-1.86,33.65,2.90,1.17,20.00
23,-25,-852,-324,-126,4016,1.16,-0.32,-51.22,-3.24,-1.26,40.16,-5.24,-1.86,33.85,2.68,1.82,20.00
4,-8,-762,-192,-372,4023,1.07,-0.34,-50.74,-1.92,-3.72,40.23,-5.23,-1.86,34.05,3.08,1.48,19.08
12,-35,-784,18,-380,3669,1.04,-0.52,-50.45,0.18,-3.80,36.69,-5.23,-1.86,34.25,2.92,2.08,20.00
5,-31,-922,-57,-485,3842,0.96,-0.66,-51.03,-0.57,-4.85,38.42,-5.23,-1.87,34.46,3.09,2.04,20.00
0,-17,-946,-39,-401,3796,0.87,-0.69,-51.70,-0.39,-4.01,37.96,-5.22,-1.88,34.66,3.21,1.77,20.00
23,2,-980,17,-438,3793,0.92,-0.61,-52.51,0.17,-4.38,37.93,-5.22,-1.88,34.87,2.73,1.37,20.00
30,3,-989,4,-431,3956,1.01,-0.53,-53.29,0.04,-4.31,39.56,-5.22,-1.89,35.08,2.56,1.33,20.00
19,2,-1018,-38,-551,3874,1.03,-0.47,-54.17,-0.38,-5.51,38.74,-5.23,-1.90,35.30,2.78,1.34,20.00
25,-7,-1023,-56,-492,3996,1.08,-0.46,-54.99,-0.56,-4.92,39.96,-5.22,-1.90,35.52,2.65,1.53,20.00
14,-16,-1011,-387,-559,3941,1.05,-0.51,-55.66,-3.87,-5.59,39.41,-5.22,-1.91,35.74,2.87,1.73,20.00
8,-9,-977,-267,-512,3786,1.00,-0.52,-56.05,-2.67,-5.12,37.86,-5.21,-1.92,35.96,3.01,1.59,20.00
11,-36,-926,5,-557,3835,0.96,-0.69,-56.10,0.05,-5.57,38.35,-5.22,-1.93,36.18,2.96,2.19,20.00
11,-2,-907,-49,-534,3772,0.94,-0.63,-56.02,-0.49,-5.34,37.72,-5.22,-1.94,36.41,2.97,1.49,20.00
15,-1,-808,315,-536,3871,0.93,-0.57,-55.35,3.15,-5.36,38.71,-5.22,-1.97,36.63,2.89,1.48,18.16
28,24,-768,586,-429,4170,1.01,-0.37,-54.50,5.86,-4.29,41.70,-5.21,-2.01,36.84,2.60,0.94,14.46
24,-6,-828,-286,-638,4160,1.06,-0.37,-54.10,-2.86,-6.38,41.60,-5.21,-2.02,37.06,2.66,1.56,20.00
5,-35,-774,-311,-466,3863,0.98,-0.55,-53.41,-3.11,-4.66,38.63,-5.20,-2.02,37.27,3.07,2.20,16.49
-3,-24,-587,92,-554,3863,0.86,-0.64,-51.65,0.92,-5.54,38.63,-5.21,-2.04,37.48,3.26,2.01,-3.46
1,-7,-552,198,-521,3747,0.78,-0.62,-49.85,1.98,-5.21,37.47,-5.22,-2.07,37.67,3.21,1.67,-5.34
8,-6,-447,19,-505,3815,0.75,-0.59,-47.59,0.19,-5.05,38.15,-5.22,-2.08,37.86,3.08,1.65,-14.93
4,-9,-395,-16,-538,3946,0.70,-0.59,-45.24,-0.16,-5.38,39.46,-5.23,-2.08,38.04,3.18,1.72,-18.11
-3,-17,-332,-291,-507,3934,0.61,-0.63,-42.74,-2.91,-5.07,39.34,-5.22,-2.08,38.21,3.34,1.89,-20.00
0,-22,-313,-280,-484,3945,0.55,-0.70,-40.38,-2.80,-4.84,39.45,-5.22,-2.08,38.37,3.29,2.01,-20.00
3,-8,-253,30,-360,3903,0.52,-0.68,-37.88,0.30,-3.60,39.03,-5.21,-2.08,38.52,3.24,1.72,-20.00
1,-11,-247,10,-370,3905,0.47,-0.68,-35.60,0.10,-3.70,39.05,-5.21,-2.08,38.67,3.29,1.78,-20.00
-4,-3,-290,385,-503,3595,0.40,-0.63,-33.81,3.85,-5.03,35.95,-5.21,-2.11,38.80,3.41,1.62,-16.02
4,37,-339,-277,-467,3875,0.38,-0.34,-32.50,-2.77,-4.67,38.75,-5.21,-2.10,38.93,3.25,0.73,-8.54
-5,-15,-279,-283,-327,3820,0.31,-0.40,-30.95,-2.83,-3.27,38.20,-5.20,-2.10,39.05,3.45,1.80,-13.69
9,-3,-290,-197,-297,3937,0.34,-0.38,-29.62,-1.97,-2.97,39.37,-5.20,-2.09,39.17,3.15,1.54,-10.70
6,-1,-287,64,-398,3875,0.34,-0.35,-28.41,0.64,-3.98,38.75,-5.20,-2.09,39.28,3.22,1.49,-9.52
8,-13,-283,70,-472,3967,0.36,-0.39,-27.30,0.70,-4.72,39.67,-5.21,-2.09,39.39,3.18,1.75,-8.59
1,-20,-318,-218,-387,3971,0.33,-0.47,-26.51,-2.18,-3.87,39.71,-5.20,-2.08,39.50,3.33,1.91,-3.44
-2,-16,-333,-175,-332,3849,0.28,-0.52,-25.89,-1.75,-3.32,38.49,-5.20,-2.08,39.60,3.40,1.84,-0.88
9,4,-352,-80,-483,3618,0.31,-0.45,-25.45,-0.80,-4.83,36.18,-5.20,-2.07,39.70,3.17,1.41,1.92
-1,15,-390,-400,-578,3897,0.27,-0.31,-25.28,-4.00,-5.78,38.97,-5.21,-2.07,39.80,3.38,1.14,6.62
-2,-29,-357,-411,-339,3825,0.23,-0.46,-24.93,-4.11,-3.39,38.25,-5.20,-2.06,39.90,3.41,2.07,3.14
11,-15,-363,-238,-292,4085,0.28,-0.50,-24.65,-2.38,-2.92,40.85,-5.19,-2.05,40.00,3.13,1.80,4.19
3,23,-327,677,-384,3757,0.27,-0.31,-24.18,6.77,-3.84,37.57,-5.19,-2.08,40.09,3.29,0.99,0.51
4,35,-398,27,-551,3760,0.26,-0.07,-24.19,0.27,-5.51,37.60,-5.20,-2.08,40.19,3.28,0.68,8.90
4,42,-468,-446,-281,3811,0.26,0.20,-24.63,-4.46,-2.81,38.11,-5.20,-2.07,40.29,3.28,0.46,16.63
8,-24,-548,-183,-222,4039,0.28,0.03,-25.51,-1.83,-2.22,40.39,-5.18,-2.06,40.39,3.18,1.84,20.00
5,23,-528,974,-370,3732,0.29,0.17,-26.18,9.74,-3.70,37.32,-5.18,-2.09,40.49,3.24,0.87,20.00
14,37,-594,705,-507,3796,0.34,0.38,-27.18,7.05,-5.07,37.96,-5.18,-2.12,40.60,3.04,0.54,20.00
13,-25,-730,-755,-398,3763,0.39,0.19,-28.92,-7.55,-3.98,37.63,-5.17,-2.11,40.72,3.04,1.85,20.00
21,-44,-700,-377,-283,3958,0.48,-0.10,-30.30,-3.77,-2.83,39.58,-5.17,-2.10,40.84,2.85,2.31,20.00
7,-55,-690,-154,-241,3788,0.47,-0.43,-31.48,-1.54,-2.41,37.88,-5.15,-2.10,40.96,3.13,2.62,20.00
-3,-43,-663,-192,-346,4086,0.41,-0.65,-32.37,-1.92,-3.46,40.86,-5.15,-2.09,41.09,3.35,2.43,20.00
21,37,-633,887,120,4110,0.49,-0.36,-33.00,8.87,1.20,41.10,-5.13,-2.12,41.23,2.82,0.74,20.00
5,-12,-582,452,-562,4025,0.48,-0.39,-33.25,4.52,-5.62,40.25,-5.13,-2.15,41.36,3.16,1.77,18.88
17,-15,-609,-722,-467,3945,0.53,-0.45,-33.64,-7.22,-4.67,39.45,-5.13,-2.14,41.49,2.89,1.84,20.00
11,-13,-564,-422,-365,3861,0.55,-0.48,-33.71,-4.22,-3.65,38.61,-5.12,-2.14,41.63,3.01,1.81,16.10
12,-5,-524,14,-319,3819,0.56,-0.46,-33.54,0.14,-3.19,38.19,-5.11,-2.14,41.76,2.97,1.64,11.56
9,-14,-503,123,-369,4007,0.56,-0.50,-33.25,1.23,-3.69,40.07,-5.11,-2.13,41.89,3.04,1.83,9.41
0,-17,-473,-15,-501,3979,0.51,-0.56,-32.81,-0.15,-5.01,39.79,-5.11,-2.13,42.02,3.24,1.90,6.39
10,-7,-488,-46,-537,3873,0.52,-0.54,-32.51,-0.46,-5.37,38.73,-5.12,-2.13,42.15,3.04,1.70,8.54
18,25,-485,558,-237,4024,0.57,-0.34,-32.22,5.58,-2.37,40.24,-5.11,-2.16,42.28,2.85,1.01,8.54
3,-3,-448,496,-339,3984,0.54,-0.32,-31.73,4.96,-3.39,39.84,-5.10,-2.19,42.41,3.16,1.60,4.75
4,-12,-486,-932,-692,3960,0.51,-0.36,-31.52,-9.32,-6.92,39.60,-5.10,-2.19,42.53,3.15,1.79,9.50
11,-11,-465,-742,-483,3949,0.52,-0.39,-31.20,-7.42,-4.83,39.49,-5.09,-2.18,42.65,3.00,1.77,7.40
11,-8,-502,-140,-501,3904,0.54,-0.40,-31.15,-1.40,-5.01,39.04,-5.10,-2.18,42.78,2.99,1.71,11.84
4,-8,-532,-30,-460,3936,0.51,-0.41,-31.28,-0.30,-4.60,39.36,-5.10,-2.18,42.90,3.15,1.71,15.21
6,-14,-486,-12,-368,3868,0.49,-0.46,-31.11,-0.12,-3.68,38.68,-5.10,-2.17,43.03,3.11,1.84,9.94
11,1,-475,17,-378,3780,0.51,-0.40,-30.90,0.17,-3.78,37.80,-5.09,-2.17,43.15,3.00,1.52,8.88
8,-12,-459,-16,-403,3859,0.51,-0.44,-30.61,-0.16,-4.03,38.59,-5.09,-2.16,43.27,3.06,1.79,7.34
0,-4,-454,-42,-325,3999,0.46,-0.42,-30.32,-0.42,-3.25,39.99,-5.08,-2.16,43.39,3.23,1.62,7.10
20,46,-439,37,-500,3730,0.53,-0.09,-29.96,0.37,-5.00,37.30,-5.09,-2.16,43.51,2.81,0.52,5.75
25,54,-443,-312,-505,4102,0.63,0.24,-29.67,-3.12,-5.05,41.02,-5.09,-2.15,43.63,2.68,0.25,6.58
0,-25,-394,-557,-207,3870,0.57,0.07,-29.11,-5.57,-2.07,38.70,-5.08,-2.14,43.74,3.20,1.90,1.47
3,-17,-394,-432,-252,3925,0.53,-0.04,-28.60,-4.32,-2.52,39.25,-5.07,-2.13,43.86,3.14,1.77,2.10
4,-45,-461,-126,-282,3929,0.50,-0.31,-28.55,-1.26,-2.82,39.29,-5.06,-2.13,43.97,3.12,2.41,10.09
-3,-32,-488,-93,-289,3854,0.43,-0.48,-28.67,-0.93,-2.89,38.54,-5.05,-2.12,44.09,3.28,2.18,13.12
12,-29,-540,-61,-289,4050,0.46,-0.61,-29.10,-0.61,-2.89,40.50,-5.04,-2.12,44.20,2.96,2.15,18.72
6,0,-553,-133,-285,3748,0.45,-0.55,-29.56,-1.33,-2.85,37.48,-5.03,-2.11,44.32,3.07,1.54,19.64
9,-13,-600,-67,-409,3847,0.46,-0.57,-30.27,-0.67,-4.09,38.47,-5.03,-2.11,44.44,3.01,1.81,20.00
8,-12,-614,-47,-381,3972,0.47,-0.59,-30.99,-0.47,-3.81,39.72,-5.03,-2.10,44.56,3.03,1.79,20.00
18,66,-667,569,-376,3893,0.53,-0.13,-31.96,5.69,-3.76,38.93,-5.02,-2.13,44.69,2.80,0.10,20.00
12,19,-693,300,-479,3791,0.55,0.00,-32.99,3.00,-4.79,37.91,-5.03,-2.16,44.82,2.92,1.04,20.00
-4,19,-681,-356,-272,3934,0.47,0.12,-33.84,-3.56,-2.72,39.34,-5.02,-2.15,44.96,3.26,1.00,20.00
-4,10,-649,-242,-246,3881,0.40,0.17,-34.42,-2.42,-2.46,38.81,-5.01,-2.14,45.10,3.28,1.17,20.00
-3,-42,-561,-24,-261,3938,0.34,-0.11,-34.40,-0.24,-2.61,39.38,-4.99,-2.14,45.23,3.26,2.30,14.22
-2,-92,-541,-136,-342,3917,0.29,-0.66,-34.26,-1.36,-3.42,39.17,-4.98,-2.14,45.37,3.25,3.46,12.00
-2,-64,-522,93,-281,4088,0.25,-0.98,-34.02,0.93,-2.81,40.88,-4.96,-2.14,45.51,3.25,2.98,10.03
-6,-40,-506,183,-380,3821,0.19,-1.13,-33.70,1.83,-3.80,38.21,-4.97,-2.17,45.64,3.35,2.55,8.51
-1,-15,-409,116,-282,3792,0.17,-1.11,-32.83,1.16,-2.82,37.92,-4.95,-2.18,45.77,3.24,2.04,-1.89
22,-6,-390,100,-450,3979,0.28,-1.03,-31.92,1.00,-4.50,39.79,-4.96,-2.18,45.90,2.75,1.84,-3.01
4,1,-350,-94,-454,3973,0.28,-0.92,-30.87,-0.94,-4.54,39.73,-4.96,-2.18,46.02,3.12,1.67,-6.41
-2,-15,-347,-77,-437,3972,0.24,-0.92,-29.90,-0.77,-4.37,39.72,-4.96,-2.18,46.14,3.25,1.99,-5.55
0,-6,-339,-5,-453,3941,0.22,-0.87,-28.97,-0.05,-4.53,39.41,-4.97,-2.18,46.25,3.22,1.79,-5.33
19,5,-339,-44,-433,3846,0.31,-0.75,-28.14,-0.44,-4.33,38.46,-4.97,-2.17,46.36,2.81,1.54,-4.29
21,44,-311,637,-167,4078,0.41,-0.41,-27.23,6.37,-1.67,40.78,-4.96,-2.20,46.47,2.74,0.67,-6.45
12,17,-298,485,-399,3713,0.44,-0.26,-26.32,4.85,-3.99,37.13,-4.96,-2.23,46.58,2.91,1.20,-6.85
3,-15,-259,-634,-360,3762,0.41,-0.33,-25.27,-6.34,-3.60,37.62,-4.95,-2.22,46.68,3.10,1.86,-10.14
4,-21,-247,-553,-385,3905,0.40,-0.42,-24.25,-5.53,-3.85,39.05,-4.95,-2.21,46.77,3.08,2.00,-10.27
0,-16,-242,-18,-345,3860,0.36,-0.48,-23.30,-0.18,-3.45,38.60,-4.95,-2.20,46.87,3.17,1.91,-9.66
-3,-17,-252,53,-337,3945,0.30,-0.53,-22.51,0.53,-3.37,39.45,-4.94,-2.19,46.96,3.24,1.94,-7.47
-6,-18,-286,-63,-363,3890,0.24,-0.59,-22.00,-0.63,-3.63,38.90,-4.94,-2.19,47.04,3.32,1.97,-2.81
0,-18,-293,-80,-368,3992,0.21,-0.64,-21.59,-0.80,-3.68,39.92,-4.94,-2.18,47.13,3.20,1.98,-1.46
8,-14,-313,-82,-431,3970,0.24,-0.66,-21.34,-0.82,-4.31,39.70,-4.94,-2.17,47.21,3.03,1.90,1.22
2,-13,-317,-45,-452,3939,0.23,-0.68,-21.14,-0.45,-4.52,39.39,-4.94,-2.17,47.30,3.16,1.88,1.93
-8,-33,-292,-146,-408,3948,0.16,-0.81,-20.81,-1.46,-4.08,39.48,-4.94,-2.16,47.38,3.38,2.32,-0.62
2,-18,-258,-132,-360,3856,0.15,-0.84,-20.30,-1.32,-3.60,38.56,-4.94,-2.15,47.46,3.18,2.01,-4.01
-3,6,-169,921,-135,3963,0.12,-0.72,-19.30,9.21,-1.35,39.63,-4.93,-2.18,47.54,3.28,1.51,-13.30
2,13,-164,280,-209,3645,0.12,-0.57,-18.37,2.80,-2.09,36.45,-4.92,-2.20,47.61,3.17,1.34,-12.71
-4,-17,-204,-659,-459,3841,0.08,-0.61,-17.78,-6.59,-4.59,38.41,-4.92,-2.19,47.68,3.31,1.96,-7.22
7,-4,-211,-565,-411,3939,0.12,-0.58,-17.29,-5.65,-4.11,39.39,-4.92,-2.18,47.75,3.07,1.68,-5.77
6,-8,-262,-80,-394,3884,0.14,-0.57,-17.16,-0.80,-3.94,38.84,-4.92,-2.17,47.82,3.09,1.75,0.43
0,12,-307,-53,-316,3759,0.13,-0.44,-17.31,-0.53,-3.16,37.59,-4.92,-2.16,47.89,3.21,1.30,5.56
27,13,-333,24,-365,3723,0.28,-0.31,-17.61,0.24,-3.65,37.23,-4.92,-2.15,47.96,2.62,1.24,8.24
-11,-12,-341,136,-388,4020,0.19,-0.36,-17.93,1.36,-3.88,40.20,-4.93,-2.15,48.03,3.43,1.76,8.77
-1,-10,-336,-56,-331,4014,0.16,-0.38,-18.19,-0.56,-3.31,40.14,-4.93,-2.14,48.10,3.23,1.72,7.83
-8,-21,-325,-79,-350,3879,0.10,-0.47,-18.35,-0.79,-3.50,38.79,-4.93,-2.13,48.17,3.39,1.96,6.30
3,-16,-282,22,-329,3933,0.10,-0.52,-18.24,0.22,-3.29,39.33,-4.92,-2.12,48.25,3.16,1.87,1.34
-1,-20,-271,69,-354,3846,0.09,-0.59,-18.07,0.69,-3.54,38.46,-4.92,-2.11,48.32,3.25,1.96,0.24
2,-6,-226,-30,-288,3875,0.09,-0.57,-17.64,-0.30,-2.88,38.75,-4.92,-2.10,48.39,3.18,1.67,-4.56
-1,-1,-212,-50,-294,3986,0.08,-0.52,-17.17,-0.50,-2.94,39.86,-4.91,-2.09,48.46,3.24,1.54,-5.63
3,15,-142,30,-106,3932,0.09,-0.38,-16.32,0.30,-1.06,39.32,-4.89,-2.09,48.52,3.14,1.18,-12.85
10,16,-146,-3,-141,3973,0.14,-0.24,-15.58,-0.03,-1.41,39.73,-4.87,-2.09,48.59,2.97,1.12,-11.43
11,12,-229,-105,-235,3930,0.19,-0.14,-15.42,-1.05,-2.35,39.30,-4.86,-2.08,48.65,2.93,1.17,-1.39
16,17,-253,-141,-190,3926,0.27,-0.02,-15.42,-1.41,-1.90,39.26,-4.85,-2.07,48.71,2.80,1.02,1.44
8,1,-309,-144,-75,3995,0.29,-0.02,-15.76,-1.44,-0.75,39.95,-4.84,-2.06,48.77,2.95,1.34,7.63
10,6,-324,-114,-66,3783,0.32,0.02,-16.16,-1.14,-0.66,37.83,-4.82,-2.05,48.84,2.89,1.22,8.88
21,4,-407,-71,-204,3885,0.42,0.04,-17.03,-0.71,-2.04,38.85,-4.81,-2.04,48.91,2.63,1.25,17.60
7,0,-445,-88,-214,3847,0.42,0.04,-18.04,-0.88,-2.14,38.47,-4.79,-2.03,48.98,2.91,1.33,20.00
11,-9,-537,-72,-117,3960,0.45,-0.02,-19.51,-0.72,-1.17,39.60,-4.78,-2.02,49.06,2.81,1.52,20.00
0,-22,-558,-126,-170,3875,0.40,-0.15,-20.96,-1.26,-1.70,38.75,-4.76,-2.01,49.14,3.03,1.82,20.00
3,-41,-651,-210,-209,3859,0.38,-0.39,-22.84,-2.10,-2.09,38.59,-4.75,-2.01,49.23,2.97,2.26,20.00
27,-12,-676,-156,-296,3777,0.51,-0.42,-24.68,-1.56,-2.96,37.77,-4.74,-2.00,49.33,2.44,1.68,20.00
15,-33,-770,-93,-261,3873,0.55,-0.58,-26.91,-0.93,-2.61,38.73,-4.73,-1.99,49.44,2.67,2.14,20.00
12,-31,-790,-109,-282,3911,0.57,-0.71,-29.04,-1.09,-2.82,39.11,-4.72,-1.99,49.55,2.72,2.13,20.00
-6,-14,-820,-132,-307,3899,0.47,-0.73,-31.13,-1.32,-3.07,38.99,-4.72,-1.98,49.68,3.11,1.79,20.00
7,-27,-838,67,-238,3841,0.47,-0.82,-33.13,0.67,-2.38,38.41,-4.70,-1.98,49.81,2.83,2.08,20.00
15,-20,-875,-32,-344,3840,0.51,-0.86,-35.16,-0.32,-3.44,38.40,-4.69,-1.98,49.95,2.65,1.95,20.00
0,-25,-876,-68,-296,3885,0.46,-0.92,-36.98,-0.68,-2.96,38.85,-4.68,-1.98,50.10,2.97,2.07,20.00
9,-14,-887,-69,-473,3814,0.47,-0.92,-38.70,-0.69,-4.73,38.14,-4.69,-1.98,50.25,2.78,1.84,20.00
37,-3,-887,-61,-468,3923,0.65,-0.84,-40.24,-0.61,-4.68,39.23,-4.69,-1.98,50.41,2.17,1.60,20.00
23,-25,-864,-34,-592,3939,0.72,-0.91,-41.48,-0.34,-5.92,39.39,-4.70,-1.99,50.57,2.44,2.07,20.00
9,-19,-863,-28,-563,3919,0.71,-0.94,-42.60,-0.28,-5.63,39.19,-4.70,-2.00,50.74,2.73,1.96,20.00
15,-25,-858,-50,-616,3926,0.73,-1.00,-43.57,-0.50,-6.16,39.26,-4.71,-2.00,50.92,2.61,2.10,20.00
15,-15,-860,-10,-593,3834,0.75,-0.99,-44.46,-0.10,-5.93,38.34,-4.72,-2.01,51.09,2.61,1.90,20.00
2,-21,-803,-17,-618,3811,0.68,-1.02,-44.91,-0.17,-6.18,38.11,-4.73,-2.02,51.27,2.89,2.04,20.00
25,-3,-753,-11,-645,4015,0.77,-0.93,-45.02,-0.11,-6.45,40.15,-4.73,-2.04,51.45,2.41,1.66,20.00
5,-10,-628,85,-529,4020,0.72,-0.90,-44.35,0.85,-5.29,40.20,-4.74,-2.05,51.63,2.83,1.80,8.24
1,-14,-585,57,-561,3867,0.66,-0.90,-43.48,0.57,-5.61,38.67,-4.75,-2.06,51.80,2.94,1.89,4.22
6,1,-473,-122,-597,3928,0.63,-0.80,-42.02,-1.22,-5.97,39.28,-4.75,-2.06,51.96,2.84,1.56,-7.22
9,-5,-455,-101,-614,3954,0.62,-0.75,-40.59,-1.01,-6.14,39.54,-4.76,-2.07,52.13,2.79,1.67,-7.55
2,-12,-334,80,-723,3770,0.57,-0.75,-38.57,0.80,-7.23,37.70,-4.77,-2.08,52.28,2.95,1.82,-19.33
10,2,-287,96,-766,3891,0.57,-0.66,-36.46,0.96,-7.66,38.91,-4.78,-2.09,52.42,2.80,1.52,-20.00
-4,1,-79,18,-620,3913,0.49,-0.59,-33.30,0.18,-6.20,39.13,-4.79,-2.10,52.56,3.11,1.53,-20.00
-4,1,-53,29,-556,3921,0.42,-0.52,-30.29,0.29,-5.56,39.21,-4.80,-2.11,52.68,3.14,1.51,-20.00
2,2,-28,-101,-285,3905,0.39,-0.46,-27.43,-1.01,-2.85,39.05,-4.79,-2.10,52.78,3.02,1.47,-20.00
2,1,-25,-90,-309,3914,0.36,-0.41,-24.84,-0.90,-3.09,39.14,-4.78,-2.09,52.88,3.02,1.47,-20.00
0,0,-4,-53,-339,3900,0.33,-0.37,-22.38,-0.53,-3.39,39.00,-4.78,-2.08,52.97,3.07,1.47,-20.00
-1,0,-2,-48,-342,3908,0.29,-0.33,-20.16,-0.48,-3.42,39.08,-4.78,-2.07,53.05,3.10,1.46,-20.00
2,2,10,-39,-329,3897,0.27,-0.29,-18.08,-0.39,-3.29,38.97,-4.78,-2.06,53.12,3.04,1.40,-20.00
2,2,13,-36,-347,3900,0.26,-0.24,-16.19,-0.36,-3.47,39.00,-4.77,-2.05,53.19,3.04,1.38,-20.00
-1,1,9,-10,-311,3903,0.22,-0.21,-14.52,-0.10,-3.11,39.03,-4.77,-2.03,53.25,3.11,1.38,-20.00
0,6,4,27,-319,3890,0.20,-0.16,-13.04,0.27,-3.19,38.90,-4.77,-2.02,53.30,3.09,1.25,-20.00
-1,15,18,227,-168,3849,0.18,-0.05,-11.63,2.27,-1.68,38.49,-4.75,-2.03,53.35,3.11,1.05,-20.00
15,10,-1,-146,-247,3887,0.25,0.02,-10.47,-1.46,-2.47,38.87,-4.74,-2.02,53.39,2.76,1.13,-20.00
5,-2,-42,-224,-555,3892,0.25,0.00,-9.68,-2.24,-5.55,38.92,-4.75,-2.01,53.43,2.96,1.37,-17.07
-3,-5,-19,-111,-544,3901,0.21,-0.03,-8.83,-1.11,-5.44,39.01,-4.76,-2.00,53.46,3.14,1.43,-18.71
0,0,-11,-42,-387,3908,0.19,-0.02,-8.01,-0.42,-3.87,39.08,-4.76,-1.98,53.49,3.09,1.32,-18.62
-1,1,-4,-36,-348,3908,0.16,-0.02,-7.24,-0.36,-3.48,39.08,-4.76,-1.97,53.52,3.12,1.28,-18.45
0,2,-7,-36,-329,3895,0.15,-0.00,-6.55,-0.36,-3.29,38.95,-4.76,-1.95,53.55,3.10,1.25,-17.23
2,4,-11,-50,-344,3910,0.15,0.02,-5.97,-0.50,-3.44,39.10,-4.76,-1.93,53.57,3.06,1.19,-16.00
-1,2,2,-34,-360,3904,0.13,0.03,-5.36,-0.34,-3.60,39.04,-4.77,-1.92,53.59,3.13,1.22,-16.77
-3,1,-1,-33,-342,3898,0.09,0.04,-4.83,-0.33,-3.42,38.98,-4.77,-1.90,53.61,3.18,1.23,-15.73
2,-3,-4,-33,-345,3893,0.10,0.01,-4.37,-0.33,-3.45,38.93,-4.77,-1.88,53.63,3.08,1.30,-14.79
-6,-12,2,-78,-323,3854,0.05,-0.06,-3.92,-0.78,-3.23,38.54,-4.77,-1.87,53.65,3.25,1.49,-14.93
-8,-13,90,6,-13,3875,-0.00,-0.13,-2.98,0.06,-0.13,38.75,-4.75,-1.86,53.66,3.30,1.53,-20.00
-6,-6,106,98,-102,3948,-0.04,-0.16,-2.03,0.98,-1.02,39.48,-4.73,-1.86,53.67,3.26,1.39,-20.00
1,-1,66,-14,-249,3978,-0.03,-0.15,-1.43,-0.14,-2.49,39.78,-4.72,-1.85,53.67,3.10,1.28,-19.32
8,2,58,7,-313,3885,0.02,-0.12,-0.93,0.07,-3.13,38.85,-4.72,-1.83,53.68,2.95,1.20,-17.74
7,4,-5,0,-453,3928,0.06,-0.08,-0.87,0.00,-4.53,39.28,-4.73,-1.82,53.68,2.96,1.14,-10.19
3,5,-15,-11,-460,3852,0.07,-0.05,-0.87,-0.11,-4.60,38.52,-4.75,-1.80,53.68,3.05,1.10,-9.01
0,3,-23,28,-442,3864,0.07,-0.02,-0.93,0.28,-4.42,38.64,-4.76,-1.79,53.69,3.12,1.13,-8.13
-1,-3,-1,20,-391,3927,0.05,-0.04,-0.84,0.20,-3.91,39.27,-4.77,-1.78,53.69,3.15,1.25,-10.62
-3,-3,7,-38,-417,3866,0.03,-0.05,-0.71,-0.38,-4.17,38.66,-4.78,-1.76,53.69,3.21,1.24,-11.41
-1,-11,20,28,-344,3877,0.02,-0.11,-0.52,0.28,-3.44,38.77,-4.78,-1.75,53.69,3.17,1.41,-12.71
-2,-4,10,-14,-360,3855,0.01,-0.13,-0.41,-0.14,-3.60,38.55,-4.79,-1.73,53.69,3.20,1.26,-11.37
0,-6,-4,-52,-355,3951,0.01,-0.15,-0.39,-0.52,-3.55,39.51,-4.79,-1.71,53.70,3.16,1.29,-9.69
-3,-2,-42,-53,-454,3941,-0.01,-0.15,-0.61,-0.53,-4.54,39.41,-4.80,-1.70,53.70,3.23,1.20,-5.46
0,-2,-53,-16,-431,3889,-0.01,-0.15,-0.87,-0.16,-4.31,38.89,-4.81,-1.68,53.70,3.18,1.19,-4.50
-2,0,-72,-70,-449,3891,-0.02,-0.13,-1.22,-0.70,-4.49,38.91,-4.82,-1.67,53.71,3.23,1.14,-2.70
1,-1,-93,-56,-471,3952,-0.01,-0.12,-1.67,-0.56,-4.71,39.52,-4.83,-1.66,53.71,3.17,1.15,-0.78
6,5,-93,-80,-339,3928,0.02,-0.08,-2.07,-0.80,-3.39,39.28,-4.83,-1.64,53.72,3.06,1.00,-1.30
1,4,-74,-2,-370,3865,0.03,-0.05,-2.31,-0.02,-3.70,38.65,-4.84,-1.62,53.73,3.17,1.00,-3.86
0,0,-87,-5,-390,3856,0.02,-0.04,-2.61,-0.05,-3.90,38.56,-4.85,-1.61,53.74,3.19,1.07,-2.71
2,-3,-95,-21,-395,3944,0.03,-0.06,-2.93,-0.21,-3.95,39.44,-4.86,-1.59,53.75,3.15,1.13,-2.17
3,5,-101,-118,-383,3924,0.05,-0.02,-3.25,-1.18,-3.83,39.24,-4.86,-1.58,53.76,3.13,0.94,-1.88
4,3,-103,-133,-429,3890,0.07,-0.00,-3.56,-1.33,-4.29,38.90,-4.86,-1.56,53.78,3.11,0.97,-2.03
0,3,-101,-123,-344,3920,0.06,0.02,-3.82,-1.23,-3.44,39.20,-4.87,-1.54,53.79,3.19,0.95,-2.61
4,7,-87,-117,-331,3876,0.08,0.06,-3.97,-1.17,-3.31,38.76,-4.86,-1.53,53.81,3.11,0.85,-4.46
3,6,-114,-63,-479,3929,0.09,0.09,-4.26,-0.63,-4.79,39.29,-4.88,-1.51,53.82,3.13,0.85,-1.64
3,4,-124,-64,-448,3894,0.10,0.10,-4.59,-0.64,-4.48,38.94,-4.89,-1.50,53.84,3.14,0.88,-0.89
3,6,-131,-72,-410,3870,0.11,0.13,-4.93,-0.72,-4.10,38.70,-4.89,-1.48,53.86,3.14,0.82,-0.50
2,2,-144,-43,-454,3892,0.11,0.13,-5.32,-0.43,-4.54,38.92,-4.90,-1.47,53.88,3.17,0.89,0.55
3,7,-169,-113,-358,3903,0.12,0.16,-5.82,-1.13,-3.58,39.03,-4.90,-1.45,53.91,3.14,0.77,2.87
3,0,-162,-125,-333,3937,0.12,0.14,-6.22,-1.25,-3.33,39.37,-4.90,-1.44,53.93,3.14,0.91,1.51
4,9,-133,-201,-159,3881,0.14,0.18,-6.41,-2.01,-1.59,38.81,-4.89,-1.42,53.96,3.11,0.71,-2.17
2,9,-127,-167,-131,3923,0.13,0.22,-6.55,-1.67,-1.31,39.23,-4.88,-1.41,53.98,3.14,0.69,-3.06
6,-7,-88,101,-272,3914,0.16,0.16,-6.43,1.01,-2.72,39.14,-4.86,-1.41,54.01,3.04,1.03,-7.54
2,-7,-76,153,-263,3855,0.15,0.10,-6.25,1.53,-2.63,38.55,-4.84,-1.43,54.04,3.11,1.06,-8.74
-3,-7,-4,85,-302,3904,0.12,0.05,-5.65,0.85,-3.02,39.04,-4.83,-1.42,54.06,3.21,1.07,-16.51
