gyroADC_X,gyroADC_Y,gyroADC_Z,accADC_X,accADC_Y,accADC_Z,GyroX,GyroY,GyroZ,AccX,AccY,AccZ,roll_IMU,pitch_IMU,yaw_IMU,roll_PID,pitch_PID,yaw_PID
-1,0,0,-67,-387,3892,0.01,0.01,-0.02,-0.67,-3.87,38.92,-5.67,0.96,1.65,2.50,-0.43,-0.11
0,-1,0,-77,-382,3912,0.01,0.01,-0.02,-0.77,-3.82,39.12,-5.66,0.98,1.65,2.49,-0.42,-0.11
0,1,0,-80,-379,3912,0.01,0.01,-0.01,-0.80,-3.79,39.12,-5.65,0.99,1.65,2.48,-0.46,-0.11
-1,2,-1,-74,-399,3906,0.00,0.02,-0.02,-0.74,-3.99,39.06,-5.66,1.00,1.65,2.51,-0.48,-0.10
-1,0,0,-73,-397,3913,-0.00,0.02,-0.02,-0.73,-3.97,39.13,-5.68,1.01,1.65,2.52,-0.45,-0.11
-1,1,0,-79,-390,3903,-0.01,0.02,-0.02,-0.79,-3.90,39.03,-5.68,1.03,1.65,2.52,-0.47,-0.11
0,1,-1,-69,-394,3904,-0.01,0.03,-0.02,-0.69,-3.94,39.04,-5.70,1.02,1.65,2.51,-0.47,-0.10
1,0,0,-65,-394,3911,-0.00,0.03,-0.02,-0.65,-3.94,39.11,-5.71,1.01,1.65,2.50,-0.45,-0.11
2,-1,-1,-57,-389,3900,0.01,0.02,-0.02,-0.57,-3.89,39.00,-5.71,0.99,1.65,2.48,-0.43,-0.10
1,-1,-1,-65,-382,3893,0.02,0.01,-0.03,-0.65,-3.82,38.93,-5.69,0.98,1.65,2.48,-0.42,-0.10
1,0,-1,-63,-387,3911,0.02,0.01,-0.03,-0.63,-3.87,39.11,-5.68,0.97,1.65,2.48,-0.43,-0.10
2,0,-1,-57,-388,3914,0.03,0.01,-0.03,-0.57,-3.88,39.14,-5.68,0.95,1.65,2.46,-0.42,-0.10
1,0,0,-73,-385,3912,0.03,0.01,-0.03,-0.73,-3.85,39.12,-5.67,0.97,1.65,2.47,-0.43,-0.11
1,1,0,-74,-395,3912,0.04,0.01,-0.03,-0.74,-3.95,39.12,-5.68,0.98,1.65,2.47,-0.45,-0.11
0,0,0,-66,-404,3894,0.03,0.01,-0.02,-0.66,-4.04,38.94,-5.70,0.98,1.66,2.50,-0.43,-0.11
0,0,0,-64,-392,3891,0.03,0.01,-0.02,-0.64,-3.92,38.91,-5.72,0.97,1.66,2.51,-0.43,-0.11
-1,0,0,-61,-382,3899,0.02,0.01,-0.02,-0.61,-3.82,38.99,-5.70,0.96,1.66,2.52,-0.42,-0.11
0,0,0,-67,-390,3902,0.02,0.01,-0.02,-0.67,-3.90,39.02,-5.71,0.97,1.66,2.51,-0.43,-0.11
1,0,-1,-58,-382,3908,0.02,0.01,-0.02,-0.58,-3.82,39.08,-5.69,0.96,1.66,2.48,-0.43,-0.10
1,0,0,-61,-388,3900,0.03,0.01,-0.02,-0.61,-3.88,39.00,-5.69,0.94,1.66,2.48,-0.42,-0.11
0,0,0,-60,-386,3889,0.02,0.01,-0.02,-0.60,-3.86,38.89,-5.68,0.93,1.66,2.49,-0.41,-0.11
0,1,0,-57,-383,3900,0.02,0.01,-0.02,-0.57,-3.83,39.00,-5.67,0.91,1.66,2.49,-0.42,-0.11
0,0,0,-70,-390,3913,0.02,0.01,-0.01,-0.70,-3.90,39.13,-5.68,0.93,1.66,2.49,-0.41,-0.11
1,0,0,-71,-393,3898,0.02,0.01,-0.01,-0.71,-3.93,38.98,-5.69,0.94,1.66,2.48,-0.42,-0.11
-1,0,1,-74,-388,3902,0.01,0.01,-0.01,-0.74,-3.88,39.02,-5.69,0.96,1.66,2.51,-0.43,-0.12
0,0,0,-70,-390,3911,0.01,0.01,-0.00,-0.70,-3.90,39.11,-5.69,0.98,1.66,2.50,-0.43,-0.11
1,1,0,-71,-386,3903,0.02,0.01,-0.00,-0.71,-3.86,39.03,-5.68,1.00,1.66,2.48,-0.46,-0.11
0,0,0,-66,-378,3906,0.02,0.01,-0.00,-0.66,-3.78,39.06,-5.66,0.99,1.66,2.49,-0.44,-0.11
0,0,-1,-57,-377,3903,0.01,0.01,-0.01,-0.57,-3.77,39.03,-5.65,0.98,1.66,2.48,-0.43,-0.11
-1,0,0,-51,-372,3906,0.01,0.01,-0.01,-0.51,-3.72,39.06,-5.64,0.97,1.65,2.49,-0.43,-0.11
0,1,0,-61,-380,3913,0.01,0.01,-0.01,-0.61,-3.80,39.13,-5.62,0.95,1.65,2.47,-0.44,-0.11
0,0,0,-55,-386,3900,0.01,0.01,-0.01,-0.55,-3.86,39.00,-5.63,0.94,1.65,2.47,-0.42,-0.11
1,0,0,-75,-386,3900,0.01,0.01,-0.01,-0.75,-3.86,39.00,-5.63,0.95,1.65,2.46,-0.42,-0.11
1,0,0,-69,-383,3910,0.02,0.01,-0.01,-0.69,-3.83,39.10,-5.62,0.97,1.65,2.45,-0.43,-0.11
1,1,0,-65,-390,3903,0.02,0.02,-0.01,-0.65,-3.90,39.03,-5.64,0.97,1.66,2.46,-0.44,-0.11
1,1,0,-68,-390,3902,0.02,0.02,-0.00,-0.68,-3.90,39.02,-5.65,0.97,1.66,2.46,-0.45,-0.11
1,1,-1,-69,-390,3909,0.03,0.02,-0.01,-0.69,-3.90,39.09,-5.67,0.98,1.66,2.47,-0.46,-0.10
0,1,-1,-72,-384,3889,0.03,0.03,-0.02,-0.72,-3.84,38.89,-5.66,1.00,1.66,2.48,-0.46,-0.10
0,0,0,-66,-386,3898,0.02,0.03,-0.01,-0.66,-3.86,38.98,-5.66,0.98,1.66,2.48,-0.44,-0.11
1,0,0,-66,-391,3913,0.03,0.02,-0.01,-0.66,-3.91,39.13,-5.67,0.98,1.66,2.47,-0.44,-0.11
0,1,-1,-76,-385,3905,0.02,0.03,-0.02,-0.76,-3.85,39.05,-5.67,0.99,1.66,2.49,-0.46,-0.10
0,0,0,-61,-383,3892,0.02,0.02,-0.02,-0.61,-3.83,38.92,-5.66,0.98,1.66,2.48,-0.44,-0.11
1,-1,0,-72,-379,3889,0.03,0.02,-0.01,-0.72,-3.79,38.89,-5.65,0.99,1.66,2.46,-0.42,-0.11
2,-6,0,46,-366,3831,0.04,-0.02,-0.01,0.46,-3.66,38.31,-5.64,0.97,1.66,2.44,-0.33,-0.11
0,-31,-19,-223,-379,4007,0.03,-0.21,-0.13,-2.23,-3.79,40.07,-5.64,0.99,1.66,2.47,0.10,0.08
-1,-25,14,-59,-285,3988,0.02,-0.34,-0.03,-0.59,-2.85,39.88,-5.62,0.98,1.66,2.48,0.05,-0.23
-11,-44,52,-54,-329,3932,-0.05,-0.58,0.29,-0.54,-3.29,39.32,-5.61,0.98,1.65,2.65,0.42,-0.63
-5,-32,44,-106,-346,3972,-0.07,-0.71,0.53,-1.06,-3.46,39.72,-5.59,0.99,1.65,2.56,0.27,-0.62
4,-28,12,-88,-544,3930,-0.04,-0.81,0.55,-0.88,-5.44,39.30,-5.61,0.99,1.65,2.42,0.24,-0.35
-32,-23,13,-35,-327,4145,-0.23,-0.87,0.57,-0.35,-3.27,41.45,-5.60,0.98,1.65,3.02,0.19,-0.36
-4,11,-14,227,-205,3973,-0.23,-0.72,0.43,2.27,-2.05,39.73,-5.59,0.96,1.64,2.59,-0.37,-0.10
5,19,-34,15,-268,3980,-0.18,-0.53,0.18,0.15,-2.68,39.80,-5.57,0.95,1.64,2.43,-0.54,0.13
12,35,-77,-383,-561,3927,-0.09,-0.26,-0.31,-3.83,-5.61,39.27,-5.58,0.96,1.64,2.30,-0.88,0.61
17,37,-87,-420,-632,3972,0.02,-0.01,-0.81,-4.20,-6.32,39.72,-5.59,0.97,1.65,2.19,-0.99,0.81
-3,17,-21,-151,-526,3922,0.00,0.09,-0.85,-1.51,-5.26,39.22,-5.61,0.98,1.65,2.51,-0.72,0.27
1,17,-6,-77,-489,3800,0.01,0.19,-0.81,-0.77,-4.89,38.00,-5.63,0.99,1.65,2.46,-0.75,0.13
1,9,-8,-7,-395,3903,0.01,0.22,-0.77,-0.07,-3.95,39.03,-5.63,0.97,1.66,2.46,-0.63,0.14
3,9,-8,-1,-373,3915,0.03,0.26,-0.74,-0.01,-3.73,39.15,-5.63,0.95,1.66,2.42,-0.63,0.13
2,1,0,-35,-387,3910,0.04,0.24,-0.67,-0.35,-3.87,39.10,-5.63,0.93,1.66,2.43,-0.50,0.04
1,-1,0,-67,-395,3894,0.04,0.21,-0.60,-0.67,-3.95,38.94,-5.64,0.94,1.67,2.45,-0.46,0.03
0,1,-2,-71,-389,3912,0.04,0.19,-0.56,-0.71,-3.89,39.12,-5.65,0.96,1.67,2.47,-0.50,0.03
0,3,1,-69,-390,3923,0.03,0.19,-0.49,-0.69,-3.90,39.23,-5.66,0.97,1.67,2.48,-0.53,-0.01
2,8,-16,-102,-383,3900,0.04,0.22,-0.54,-1.02,-3.83,39.00,-5.66,0.99,1.67,2.45,-0.63,0.15
2,8,-22,-9,-372,3894,0.05,0.25,-0.62,-0.09,-3.72,38.94,-5.65,0.98,1.68,2.44,-0.63,0.22
0,3,-4,-60,-384,3924,0.05,0.24,-0.58,-0.60,-3.84,39.24,-5.64,0.96,1.68,2.47,-0.54,0.06
2,4,-5,-75,-390,3905,0.05,0.24,-0.56,-0.75,-3.90,39.05,-5.65,0.98,1.68,2.44,-0.57,0.06
2,9,-32,-58,-389,3896,0.06,0.27,-0.70,-0.58,-3.89,38.96,-5.66,0.96,1.68,2.44,-0.64,0.32
1,6,-29,-32,-388,3907,0.06,0.28,-0.80,-0.32,-3.88,39.07,-5.66,0.94,1.69,2.46,-0.59,0.32
1,2,-7,-54,-379,3908,0.06,0.27,-0.77,-0.54,-3.79,39.08,-5.65,0.93,1.69,2.45,-0.52,0.12
0,2,-3,-60,-377,3921,0.05,0.25,-0.71,-0.60,-3.77,39.21,-5.63,0.92,1.69,2.46,-0.51,0.08
1,1,-1,-67,-381,3902,0.06,0.23,-0.64,-0.67,-3.81,39.02,-5.62,0.94,1.70,2.44,-0.50,0.04
7,27,3,-127,-428,3814,0.09,0.37,-0.56,-1.27,-4.28,38.14,-5.63,0.95,1.70,2.34,-0.95,-0.01
14,81,2,-8,-338,3934,0.17,0.83,-0.49,-0.08,-3.38,39.34,-5.61,0.94,1.70,2.21,-1.90,-0.02
12,57,10,-58,-337,3978,0.22,1.10,-0.38,-0.58,-3.37,39.78,-5.60,0.94,1.70,2.21,-1.62,-0.11
14,26,5,-66,-377,3900,0.29,1.14,-0.31,-0.66,-3.77,39.00,-5.58,0.95,1.70,2.15,-1.17,-0.09
13,27,10,-77,-421,3895,0.34,1.19,-0.22,-0.77,-4.21,38.95,-5.59,0.96,1.70,2.16,-1.20,-0.15
1,18,-3,-99,-395,3932,0.31,1.18,-0.22,-0.99,-3.95,39.32,-5.60,0.99,1.71,2.35,-1.07,-0.04
7,14,-11,-47,-322,3892,0.32,1.15,-0.26,-0.47,-3.22,38.92,-5.58,0.98,1.71,2.25,-1.00,0.04
-3,-2,-6,-62,-349,3903,0.27,1.02,-0.27,-0.62,-3.49,39.03,-5.56,0.99,1.71,2.41,-0.72,-0.00
-4,-3,-4,-123,-380,3941,0.22,0.90,-0.27,-1.23,-3.80,39.41,-5.56,1.01,1.71,2.44,-0.67,-0.02
-4,-8,-4,-80,-360,3902,0.17,0.76,-0.27,-0.80,-3.60,39.02,-5.54,1.02,1.71,2.45,-0.56,-0.02
-9,-11,0,-88,-393,3936,0.10,0.62,-0.24,-0.88,-3.93,39.36,-5.55,1.04,1.71,2.55,-0.48,-0.06
-4,-8,1,-60,-401,3888,0.07,0.51,-0.21,-0.60,-4.01,38.88,-5.57,1.03,1.71,2.49,-0.49,-0.08
-4,-8,0,-78,-371,3905,0.04,0.41,-0.19,-0.78,-3.71,39.05,-5.55,1.04,1.71,2.49,-0.46,-0.07
-5,-6,2,-61,-378,3906,0.00,0.33,-0.16,-0.61,-3.78,39.06,-5.55,1.03,1.71,2.52,-0.46,-0.10
-2,-7,0,-63,-372,3878,-0.01,0.26,-0.14,-0.63,-3.72,38.78,-5.54,1.01,1.72,2.47,-0.42,-0.09
1,2,1,-70,-388,3899,-0.00,0.24,-0.12,-0.70,-3.88,38.99,-5.56,1.02,1.72,2.43,-0.55,-0.10
3,6,1,-69,-396,3909,0.02,0.26,-0.10,-0.69,-3.96,39.09,-5.58,1.02,1.72,2.40,-0.62,-0.10
6,11,-2,-85,-385,3909,0.05,0.30,-0.11,-0.85,-3.85,39.09,-5.58,1.03,1.72,2.35,-0.71,-0.08
4,9,-1,-71,-382,3929,0.07,0.32,-0.10,-0.71,-3.82,39.29,-5.56,1.03,1.72,2.36,-0.69,-0.09
5,10,9,-111,-440,3813,0.09,0.35,-0.04,-1.11,-4.40,38.13,-5.58,1.04,1.72,2.35,-0.72,-0.19
8,19,20,-118,-426,3848,0.13,0.43,0.09,-1.18,-4.26,38.48,-5.59,1.06,1.72,2.30,-0.89,-0.31
6,16,-6,-39,-339,3922,0.16,0.49,0.04,-0.39,-3.39,39.22,-5.57,1.05,1.72,2.31,-0.85,-0.08
10,16,-3,-22,-319,3956,0.20,0.54,0.02,-0.22,-3.19,39.56,-5.56,1.04,1.72,2.23,-0.87,-0.10
-5,2,-10,-103,-354,3923,0.15,0.49,-0.04,-1.03,-3.54,39.23,-5.55,1.06,1.72,2.47,-0.65,-0.03
-4,2,-11,-114,-331,3908,0.11,0.46,-0.10,-1.14,-3.31,39.08,-5.53,1.07,1.72,2.46,-0.64,-0.00
7,6,-43,-149,-376,3923,0.14,0.45,-0.36,-1.49,-3.76,39.23,-5.53,1.09,1.72,2.28,-0.71,0.33
2,2,-42,-193,-367,3952,0.14,0.42,-0.58,-1.93,-3.67,39.52,-5.53,1.11,1.72,2.36,-0.65,0.37
-7,-9,-52,-242,-385,3916,0.08,0.32,-0.84,-2.42,-3.85,39.16,-5.53,1.13,1.73,2.51,-0.46,0.52
-9,-18,-43,-270,-402,3887,0.02,0.18,-1.02,-2.70,-4.02,38.87,-5.53,1.15,1.73,2.56,-0.28,0.49
3,-11,-42,-205,-424,3866,0.04,0.09,-1.17,-2.05,-4.24,38.66,-5.54,1.16,1.73,2.38,-0.37,0.51
2,-10,-82,-7,-538,3926,0.05,0.02,-1.55,-0.07,-5.38,39.26,-5.55,1.16,1.74,2.40,-0.36,0.94
3,-4,-148,79,-350,3929,0.06,-0.00,-2.30,0.79,-3.50,39.29,-5.55,1.14,1.75,2.38,-0.44,1.68
3,-9,-157,62,-308,3949,0.07,-0.06,-3.03,0.62,-3.08,39.49,-5.54,1.12,1.76,2.37,-0.34,1.93
-1,-11,-122,10,-309,3951,0.06,-0.12,-3.47,0.10,-3.09,39.51,-5.53,1.10,1.78,2.43,-0.28,1.74
-2,-11,-111,-8,-307,3915,0.04,-0.18,-3.80,-0.08,-3.07,39.15,-5.52,1.09,1.79,2.45,-0.26,1.72
-2,-7,-75,-23,-433,3907,0.02,-0.20,-3.88,-0.23,-4.33,39.07,-5.53,1.07,1.81,2.46,-0.30,1.44
-1,-9,-67,0,-409,3878,0.02,-0.24,-3.90,0.00,-4.09,38.78,-5.54,1.05,1.82,2.45,-0.26,1.37
-4,-4,-59,-116,-425,3924,-0.01,-0.24,-3.87,-1.16,-4.25,39.24,-5.55,1.07,1.84,2.51,-0.34,1.30
-3,-3,-58,-122,-385,3884,-0.03,-0.23,-3.84,-1.22,-3.85,38.84,-5.55,1.08,1.85,2.50,-0.36,1.28
-7,-5,-83,-209,-311,3932,-0.07,-0.24,-3.96,-2.09,-3.11,39.32,-5.55,1.09,1.87,2.57,-0.33,1.52
-11,-9,-111,-223,-287,3889,-0.13,-0.27,-4.24,-2.23,-2.87,38.89,-5.54,1.11,1.88,2.64,-0.27,1.82
-8,-16,-204,-293,-274,3914,-0.16,-0.34,-5.06,-2.93,-2.74,39.14,-5.53,1.12,1.90,2.61,-0.15,2.80
-3,-12,-241,-312,-229,3922,-0.17,-0.38,-6.02,-3.12,-2.29,39.22,-5.52,1.13,1.93,2.53,-0.20,3.35
5,-20,-356,-176,-135,3885,-0.12,-0.46,-7.59,-1.76,-1.35,38.85,-5.51,1.13,1.96,2.38,-0.05,4.69
8,-9,-383,-114,-158,3881,-0.06,-0.47,-9.17,-1.14,-1.58,38.81,-5.49,1.13,1.99,2.31,-0.22,5.30
1,-19,-481,-79,-228,3882,-0.05,-0.54,-11.19,-0.79,-2.28,38.82,-5.47,1.13,2.04,2.41,-0.04,6.61
9,-13,-496,-71,-289,3901,0.01,-0.57,-13.09,-0.71,-2.89,39.01,-5.45,1.12,2.09,2.26,-0.12,7.19
7,-12,-558,-45,-325,3927,0.05,-0.58,-15.19,-0.45,-3.25,39.27,-5.44,1.10,2.15,2.27,-0.12,8.21
15,1,-565,17,-336,3944,0.14,-0.52,-17.12,0.17,-3.36,39.44,-5.43,1.07,2.22,2.12,-0.33,8.72
10,7,-528,-26,-462,3890,0.19,-0.42,-18.63,-0.26,-4.62,38.90,-5.45,1.06,2.29,2.19,-0.44,8.77
6,-3,-511,-32,-531,3898,0.21,-0.40,-19.88,-0.32,-5.31,38.98,-5.47,1.04,2.37,2.25,-0.29,8.92
15,1,-503,-4,-516,3916,0.28,-0.35,-20.96,-0.04,-5.16,39.16,-5.49,1.03,2.45,2.10,-0.36,9.10
8,-2,-500,44,-482,3855,0.30,-0.33,-21.91,0.44,-4.82,38.55,-5.50,1.00,2.54,2.21,-0.31,9.30
8,-11,-531,76,-472,3925,0.32,-0.36,-22.96,0.76,-4.72,39.25,-5.51,0.98,2.63,2.21,-0.15,9.80
-2,-17,-557,78,-415,3915,0.27,-0.43,-24.06,0.78,-4.15,39.15,-5.51,0.95,2.73,2.37,-0.03,10.28
13,-11,-706,20,-394,3918,0.32,-0.46,-25.96,0.20,-3.94,39.18,-5.52,0.92,2.83,2.13,-0.10,11.99
3,-26,-755,-12,-405,3894,0.31,-0.57,-27.97,-0.12,-4.05,38.94,-5.53,0.89,2.94,2.29,0.18,12.88
14,-24,-967,-36,-562,3918,0.36,-0.66,-31.07,-0.36,-5.62,39.18,-5.55,0.87,3.07,2.11,0.18,15.41
14,-16,-1030,-126,-557,3845,0.41,-0.69,-34.25,-1.26,-5.57,38.45,-5.56,0.86,3.20,2.11,0.07,16.69
21,-16,-1187,-218,-557,3909,0.50,-0.72,-38.07,-2.18,-5.57,39.09,-5.58,0.86,3.36,1.98,0.09,18.92
12,-17,-1190,-271,-546,3910,0.52,-0.75,-41.52,-2.71,-5.46,39.10,-5.59,0.85,3.52,2.12,0.11,19.76
10,-31,-1116,-121,-517,3894,0.53,-0.86,-44.17,-1.21,-5.17,38.94,-5.61,0.84,3.70,2.15,0.37,19.76
18,-18,-1077,-119,-456,3913,0.59,-0.89,-46.33,-1.19,-4.56,39.13,-5.62,0.83,3.88,2.02,0.18,19.93
-2,-26,-919,27,-333,3992,0.52,-0.96,-47.30,0.27,-3.33,39.92,-5.61,0.79,4.07,2.34,0.34,18.81
4,-26,-871,32,-325,3913,0.49,-1.02,-47.88,0.32,-3.25,39.13,-5.60,0.76,4.26,2.25,0.38,18.53
4,-23,-725,37,-252,3945,0.47,-1.06,-47.52,0.37,-2.52,39.45,-5.59,0.72,4.45,2.25,0.36,17.19
-4,-38,-688,22,-215,3932,0.39,-1.18,-46.96,0.22,-2.15,39.32,-5.57,0.69,4.63,2.39,0.64,16.73
29,-58,-619,-72,-223,3949,0.53,-1.42,-46.04,-0.72,-2.23,39.49,-5.55,0.67,4.82,1.84,1.02,15.92
5,-80,-607,-34,-263,3880,0.51,-1.77,-45.14,-0.34,-2.63,38.80,-5.53,0.65,4.99,2.20,1.48,15.59
11,-42,-554,-32,-280,3885,0.53,-1.85,-44.01,-0.32,-2.80,38.85,-5.51,0.62,5.17,2.10,0.93,14.85
-6,-34,-554,-68,-309,3841,0.44,-1.87,-42.98,-0.68,-3.09,38.41,-5.50,0.60,5.34,2.38,0.82,14.60
13,-25,-609,-136,-286,3945,0.47,-1.83,-42.40,-1.36,-2.86,39.45,-5.49,0.59,5.51,2.07,0.68,14.91
12,-21,-626,-151,-326,3918,0.50,-1.78,-41.98,-1.51,-3.26,39.18,-5.48,0.59,5.67,2.07,0.61,14.94
9,-11,-604,-100,-306,3928,0.50,-1.67,-41.47,-1.00,-3.06,39.28,-5.46,0.57,5.84,2.11,0.42,14.62
14,-8,-583,-66,-336,3878,0.54,-1.55,-40.88,-0.66,-3.36,38.78,-5.45,0.56,6.00,2.02,0.35,14.29
10,-4,-472,44,-390,3871,0.55,-1.42,-39.67,0.44,-3.90,38.71,-5.45,0.53,6.16,2.08,0.26,13.05
12,-10,-428,79,-376,3917,0.56,-1.34,-38.31,0.79,-3.76,39.17,-5.45,0.49,6.31,2.04,0.35,12.35
8,-8,-293,76,-402,3926,0.56,-1.25,-36.27,0.76,-4.02,39.26,-5.45,0.45,6.45,2.11,0.31,10.70
9,-2,-269,73,-403,3942,0.56,-1.14,-34.28,0.73,-4.03,39.42,-5.46,0.42,6.59,2.09,0.20,10.01
7,-7,-235,16,-364,3937,0.54,-1.07,-32.29,0.16,-3.64,39.37,-5.45,0.38,6.72,2.13,0.27,9.24
3,-13,-228,-72,-412,3877,0.51,-1.04,-30.45,-0.72,-4.12,38.77,-5.46,0.38,6.84,2.20,0.35,8.73
0,-8,-211,-107,-381,3895,0.46,-0.99,-28.69,-1.07,-3.81,38.95,-5.46,0.38,6.95,2.26,0.26,8.16
-3,-7,-208,-118,-377,3908,0.39,-0.93,-27.09,-1.18,-3.77,39.08,-5.46,0.39,7.06,2.33,0.22,7.75
-1,-4,-239,-190,-361,3914,0.35,-0.86,-25.84,-1.90,-3.61,39.14,-5.46,0.39,7.16,2.31,0.15,7.70
12,1,-248,-145,-351,3935,0.39,-0.77,-24.77,-1.45,-3.51,39.35,-5.46,0.40,7.26,2.10,0.05,7.52
5,-1,-274,-147,-356,3880,0.38,-0.70,-23.96,-1.47,-3.56,38.80,-5.45,0.40,7.36,2.21,0.05,7.54
12,2,-296,-132,-346,3886,0.41,-0.62,-23.37,-1.32,-3.46,38.86,-5.45,0.41,7.45,2.09,-0.02,7.57
15,-6,-365,-9,-337,3923,0.46,-0.59,-23.26,-0.09,-3.37,39.23,-5.43,0.39,7.54,2.02,0.10,8.13
4,2,-384,6,-306,3870,0.44,-0.52,-23.28,0.06,-3.06,38.70,-5.41,0.37,7.63,2.19,-0.03,8.28
7,-7,-416,-12,-346,3871,0.44,-0.51,-23.49,-0.12,-3.46,38.71,-5.40,0.35,7.73,2.13,0.11,8.60
2,-8,-411,80,-387,3874,0.41,-0.51,-23.65,0.80,-3.87,38.74,-5.40,0.32,7.82,2.22,0.14,8.59
20,-7,-449,-219,-444,3865,0.49,-0.50,-24.02,-2.19,-4.44,38.65,-5.40,0.33,7.92,1.92,0.12,8.99
3,1,-481,-273,-490,3909,0.46,-0.44,-24.55,-2.73,-4.90,39.09,-5.41,0.33,8.01,2.20,-0.03,9.38
-6,5,-509,-282,-462,3885,0.38,-0.37,-25.20,-2.82,-4.62,38.85,-5.42,0.34,8.11,2.36,-0.11,9.77
-1,9,-528,-242,-518,3945,0.33,-0.28,-25.90,-2.42,-5.18,39.45,-5.43,0.34,8.22,2.30,-0.20,10.09
4,10,-602,-82,-551,3907,0.32,-0.19,-26.98,-0.82,-5.51,39.07,-5.44,0.34,8.33,2.23,-0.24,10.97
13,10,-624,-13,-462,3999,0.37,-0.11,-28.09,-0.13,-4.62,39.99,-5.46,0.32,8.44,2.09,-0.26,11.41
15,30,-662,-2,-364,3992,0.42,0.09,-29.32,-0.02,-3.64,39.92,-5.45,0.30,8.55,2.04,-0.62,12.02
-2,24,-654,-60,-323,3810,0.37,0.22,-30.38,-0.60,-3.23,38.10,-5.43,0.30,8.67,2.31,-0.57,12.20
20,-7,-677,-29,-416,3898,0.46,0.16,-31.47,-0.29,-4.16,38.98,-5.45,0.29,8.80,1.95,-0.07,12.64
13,-2,-702,-60,-364,4009,0.49,0.13,-32.61,-0.60,-3.64,40.09,-5.44,0.30,8.93,2.05,-0.14,13.12
14,3,-742,-87,-367,3911,0.53,0.14,-33.87,-0.87,-3.67,39.11,-5.44,0.30,9.06,2.02,-0.22,13.75
5,-6,-744,-111,-356,3858,0.50,0.09,-35.02,-1.11,-3.56,38.58,-5.43,0.31,9.20,2.16,-0.07,14.03
2,-5,-753,-123,-388,3881,0.47,0.05,-36.11,-1.23,-3.88,38.81,-5.44,0.31,9.35,2.22,-0.08,14.36
2,-9,-741,-143,-371,3909,0.43,-0.01,-37.02,-1.43,-3.71,39.09,-5.44,0.32,9.50,2.23,0.00,14.47
7,7,-705,-53,-335,3920,0.43,0.03,-37.62,-0.53,-3.35,39.20,-5.42,0.32,9.65,2.15,-0.26,14.29
16,10,-692,-28,-389,3907,0.49,0.09,-38.08,-0.28,-3.89,39.07,-5.44,0.31,9.80,2.00,-0.32,14.28
8,-6,-656,-23,-365,3924,0.49,0.04,-38.27,-0.23,-3.65,39.24,-5.42,0.30,9.95,2.11,-0.05,14.01
10,3,-644,15,-376,3906,0.50,0.06,-38.37,0.15,-3.76,39.06,-5.42,0.27,10.10,2.08,-0.18,13.92
10,-9,-602,35,-365,3914,0.51,-0.00,-38.21,0.35,-3.65,39.14,-5.42,0.23,10.25,2.08,0.04,13.52
5,3,-609,-72,-406,3919,0.49,0.02,-38.10,-0.72,-4.06,39.19,-5.42,0.23,10.41,2.16,-0.15,13.54
12,-1,-582,-32,-382,3877,0.51,0.01,-37.84,-0.32,-3.82,38.77,-5.43,0.23,10.56,2.05,-0.09,13.24
18,-2,-578,-57,-422,3893,0.57,-0.01,-37.58,-0.57,-4.22,38.93,-5.45,0.23,10.71,1.95,-0.07,13.13
10,-1,-575,-165,-465,3881,0.58,-0.01,-37.33,-1.65,-4.65,38.81,-5.46,0.23,10.86,2.07,-0.08,13.04
3,6,-563,-218,-417,3880,0.54,0.03,-37.03,-2.18,-4.17,38.80,-5.46,0.24,11.00,2.19,-0.20,12.86
20,0,-553,-6,-197,3959,0.60,0.02,-36.70,-0.06,-1.97,39.59,-5.44,0.22,11.15,1.90,-0.10,12.68
9,0,-551,-30,-203,3925,0.60,0.02,-36.40,-0.30,-2.03,39.25,-5.42,0.21,11.29,2.06,-0.10,12.58
1,-9,-515,1,-219,3892,0.55,-0.04,-35.90,0.01,-2.19,38.92,-5.40,0.19,11.44,2.19,0.06,12.15
4,-10,-525,-12,-261,3884,0.52,-0.09,-35.51,-0.12,-2.61,38.84,-5.38,0.18,11.58,2.15,0.10,12.13
9,-10,-559,-6,-276,3879,0.52,-0.14,-35.37,-0.06,-2.76,38.79,-5.36,0.16,11.72,2.06,0.12,12.37
7,-11,-603,28,-238,3938,0.51,-0.20,-35.51,0.28,-2.38,39.38,-5.34,0.15,11.86,2.09,0.16,12.77
3,-9,-674,2,-292,3911,0.48,-0.23,-36.07,0.02,-2.92,39.11,-5.32,0.13,12.00,2.15,0.15,13.49
2,-8,-710,-88,-331,3860,0.44,-0.26,-36.79,-0.88,-3.31,38.60,-5.31,0.13,12.15,2.17,0.14,13.96
16,-10,-795,-178,-217,3918,0.49,-0.29,-37.96,-1.78,-2.17,39.18,-5.30,0.13,12.30,1.94,0.19,14.95
12,-6,-798,-193,-215,3889,0.52,-0.30,-39.04,-1.93,-2.15,38.89,-5.29,0.13,12.46,1.98,0.13,15.22
16,-12,-755,-89,-288,3933,0.56,-0.34,-39.74,-0.89,-2.88,39.33,-5.27,0.13,12.61,1.90,0.23,15.02
12,-7,-736,-105,-286,3896,0.58,-0.35,-40.25,-1.05,-2.86,38.96,-5.26,0.12,12.77,1.95,0.16,14.97
13,-9,-651,-44,-354,3938,0.60,-0.37,-40.20,-0.44,-3.54,39.38,-5.25,0.13,12.93,1.93,0.20,14.22
11,-8,-621,-9,-410,3903,0.61,-0.38,-39.97,-0.09,-4.10,39.03,-5.27,0.11,13.09,1.96,0.19,13.90
7,-2,-537,-35,-396,3880,0.59,-0.36,-39.25,-0.35,-3.96,38.80,-5.28,0.10,13.25,2.04,0.09,13.01
-1,-4,-506,-83,-418,3869,0.53,-0.35,-38.41,-0.83,-4.18,38.69,-5.29,0.10,13.40,2.18,0.12,12.53
14,-6,-481,-140,-329,3893,0.56,-0.35,-37.50,-1.40,-3.29,38.93,-5.28,0.11,13.55,1.94,0.15,12.09
3,-2,-484,-115,-364,3949,0.52,-0.33,-36.70,-1.15,-3.64,39.49,-5.28,0.11,13.70,2.12,0.08,11.92
10,-5,-518,-144,-313,3943,0.53,-0.32,-36.19,-1.44,-3.13,39.43,-5.27,0.11,13.84,2.01,0.13,12.07
7,-6,-529,-145,-421,3946,0.52,-0.33,-35.80,-1.45,-4.21,39.46,-5.28,0.11,13.98,2.06,0.14,12.06
8,-7,-560,-223,-274,3953,0.52,-0.34,-35.64,-2.23,-2.74,39.53,-5.27,0.12,14.13,2.04,0.16,12.28
8,-5,-566,-165,-275,3884,0.51,-0.33,-35.53,-1.65,-2.75,38.84,-5.26,0.12,14.27,2.04,0.13,12.29
5,-10,-598,-61,-332,3922,0.49,-0.36,-35.62,-0.61,-3.32,39.22,-5.25,0.12,14.41,2.08,0.21,12.58
4,-20,-618,-111,-311,3915,0.47,-0.45,-35.83,-1.11,-3.11,39.15,-5.24,0.12,14.55,2.10,0.39,12.78
-4,-23,-647,59,-461,3930,0.40,-0.54,-36.19,0.59,-4.61,39.30,-5.25,0.10,14.70,2.25,0.47,13.11
11,-25,-641,69,-372,3898,0.42,-0.64,-36.48,0.69,-3.72,38.98,-5.26,0.06,14.84,2.01,0.55,13.12
1,-34,-622,74,-321,3893,0.39,-0.78,-36.63,0.74,-3.21,38.93,-5.25,0.03,14.99,2.17,0.75,12.98
0,-48,-614,67,-408,4020,0.35,-1.00,-36.71,0.67,-4.08,40.20,-5.25,-0.00,15.13,2.20,1.04,12.92
-1,-93,-592,60,-397,3900,0.31,-1.47,-36.65,0.60,-3.97,39.00,-5.26,-0.04,15.28,2.24,1.88,12.71
5,-68,-562,123,-509,3886,0.31,-1.73,-36.41,1.23,-5.09,38.86,-5.28,-0.07,15.42,2.15,1.60,12.39
5,-11,-393,28,-553,3860,0.31,-1.63,-35.17,0.28,-5.53,38.60,-5.29,-0.09,15.56,2.16,0.71,10.65
6,-6,-334,37,-523,3892,0.31,-1.50,-33.69,0.37,-5.23,38.92,-5.31,-0.11,15.70,2.15,0.60,9.79
4,1,-160,51,-451,3912,0.31,-1.35,-31.30,0.51,-4.51,39.12,-5.32,-0.14,15.82,2.19,0.46,7.73
6,0,-131,65,-384,3896,0.31,-1.21,-28.97,0.65,-3.84,38.96,-5.33,-0.17,15.93,2.16,0.45,6.92
5,3,-108,27,-336,3881,0.31,-1.07,-26.73,0.27,-3.36,38.81,-5.31,-0.20,16.04,2.17,0.37,6.18
12,4,-126,47,-249,3911,0.35,-0.94,-24.82,0.47,-2.49,39.11,-5.29,-0.21,16.14,2.04,0.32,5.87
3,62,-207,16,-188,3917,0.34,-0.47,-23.61,0.16,-1.88,39.17,-5.27,-0.22,16.23,2.17,-0.70,6.26
9,71,-229,14,-158,3923,0.36,0.01,-22.64,0.14,-1.58,39.23,-5.25,-0.23,16.32,2.06,-0.98,6.21
15,27,-304,-48,-153,3994,0.41,0.18,-22.23,-0.48,-1.53,39.94,-5.23,-0.23,16.41,1.95,-0.36,6.74
4,26,-312,-80,-201,3947,0.40,0.32,-21.91,-0.80,-2.01,39.47,-5.21,-0.23,16.50,2.11,-0.39,6.73
7,3,-319,-86,-331,3955,0.40,0.30,-21.67,-0.86,-3.31,39.55,-5.21,-0.22,16.59,2.06,-0.04,6.72
5,0,-318,-64,-363,3879,0.39,0.27,-21.44,-0.64,-3.63,38.79,-5.21,-0.21,16.67,2.10,0.01,6.65
2,-11,-340,-33,-393,3932,0.36,0.18,-21.37,-0.33,-3.93,39.32,-5.22,-0.20,16.76,2.15,0.20,6.82
10,0,-347,-55,-369,3906,0.39,0.16,-21.35,-0.55,-3.69,39.06,-5.22,-0.19,16.84,2.02,0.03,6.87
10,-9,-363,-6,-290,3940,0.41,0.09,-21.43,-0.06,-2.90,39.40,-5.20,-0.19,16.93,2.01,0.19,7.01
3,-11,-374,-62,-336,3923,0.39,0.01,-21.57,-0.62,-3.36,39.23,-5.19,-0.18,17.01,2.12,0.24,7.13
4,-26,-436,-158,-298,3914,0.37,-0.15,-22.07,-1.58,-2.98,39.14,-5.18,-0.17,17.10,2.11,0.52,7.77
9,-28,-462,-211,-268,3929,0.39,-0.30,-22.68,-2.11,-2.68,39.29,-5.18,-0.17,17.19,2.02,0.59,8.13
4,-10,-547,-321,-291,3881,0.38,-0.33,-23.75,-3.21,-2.91,38.81,-5.17,-0.16,17.29,2.10,0.32,9.10
12,-4,-576,-295,-316,3905,0.41,-0.32,-24.89,-2.95,-3.16,39.05,-5.17,-0.15,17.39,1.96,0.23,9.61
4,12,-690,-316,-413,3882,0.39,-0.22,-26.61,-3.16,-4.13,38.82,-5.17,-0.14,17.49,2.09,-0.05,10.98
15,23,-720,-320,-324,3927,0.45,-0.06,-28.34,-3.20,-3.24,39.27,-5.16,-0.14,17.60,1.91,-0.27,11.64
0,6,-806,-281,-346,3873,0.40,-0.01,-30.42,-2.81,-3.46,38.73,-5.16,-0.13,17.73,2.15,-0.03,12.86
11,-5,-837,-228,-339,3936,0.43,-0.04,-32.49,-2.28,-3.39,39.36,-5.16,-0.12,17.85,1.97,0.14,13.61
16,-4,-846,-176,-301,3938,0.48,-0.06,-34.40,-1.76,-3.01,39.38,-5.15,-0.12,17.99,1.87,0.13,14.13
5,-22,-832,-64,-326,4008,0.47,-0.19,-36.03,-0.64,-3.26,40.08,-5.14,-0.11,18.13,2.04,0.44,14.40
4,-20,-806,-70,-218,3923,0.44,-0.29,-37.35,-0.70,-2.18,39.23,-5.12,-0.12,18.28,2.06,0.45,14.48
17,-3,-805,42,-325,3905,0.50,-0.28,-38.52,0.42,-3.25,39.05,-5.11,-0.15,18.44,1.84,0.20,14.74
9,-11,-852,-71,-201,3906,0.51,-0.32,-39.87,-0.71,-2.01,39.06,-5.09,-0.16,18.60,1.95,0.33,15.45
15,-18,-872,-99,-237,3911,0.55,-0.40,-41.20,-0.99,-2.37,39.11,-5.08,-0.16,18.76,1.84,0.47,15.93
6,-14,-891,-100,-301,3880,0.53,-0.44,-42.51,-1.00,-3.01,38.80,-5.07,-0.16,18.93,1.98,0.42,16.39
6,-14,-887,-112,-264,3903,0.51,-0.49,-43.67,-1.12,-2.64,39.03,-5.05,-0.16,19.10,1.98,0.43,16.62
1,-5,-882,-124,-363,3867,0.47,-0.47,-44.69,-1.24,-3.63,38.67,-5.05,-0.16,19.28,2.07,0.29,16.81
21,-10,-874,2,-346,3986,0.55,-0.48,-45.55,0.02,-3.46,39.86,-5.04,-0.16,19.46,1.73,0.37,16.93
-1,-14,-759,59,-384,3919,0.49,-0.52,-45.62,0.59,-3.84,39.19,-5.05,-0.20,19.64,2.09,0.46,15.96
5,-11,-715,63,-393,3908,0.47,-0.53,-45.42,0.63,-3.93,39.08,-5.06,-0.23,19.82,2.01,0.43,15.53
1,-22,-658,60,-398,3940,0.43,-0.62,-44.90,0.60,-3.98,39.40,-5.07,-0.26,20.00,2.08,0.64,14.91
13,-15,-642,62,-405,3899,0.47,-0.65,-44.32,0.62,-4.05,38.99,-5.08,-0.29,20.18,1.90,0.55,14.62
14,-6,-552,-15,-393,3861,0.50,-0.62,-43.26,-0.15,-3.93,38.61,-5.10,-0.29,20.35,1.87,0.41,13.60
3,-13,-523,-29,-427,3914,0.47,-0.63,-42.12,-0.29,-4.27,39.14,-5.11,-0.30,20.52,2.06,0.53,13.07
4,-19,-528,-144,-467,3816,0.45,-0.69,-41.13,-1.44,-4.67,38.16,-5.12,-0.30,20.68,2.05,0.63,12.86
-8,-21,-552,-46,-496,3939,0.36,-0.75,-40.38,-0.46,-4.96,39.39,-5.13,-0.31,20.84,2.27,0.69,12.87
5,-2,-557,-123,-371,3871,0.35,-0.68,-39.74,-1.23,-3.71,38.71,-5.13,-0.31,21.00,2.07,0.38,12.75
12,8,-533,-102,-311,3847,0.39,-0.57,-39.02,-1.02,-3.11,38.47,-5.12,-0.31,21.16,1.95,0.19,12.36
17,0,-481,-8,-394,3931,0.45,-0.51,-38.05,-0.08,-3.94,39.31,-5.14,-0.32,21.31,1.86,0.30,11.68
9,3,-456,-2,-456,3878,0.46,-0.44,-37.03,-0.02,-4.56,38.78,-5.15,-0.33,21.46,1.99,0.23,11.22
16,1,-439,86,-468,3943,0.51,-0.39,-36.00,0.86,-4.68,39.43,-5.16,-0.35,21.60,1.87,0.26,10.82
1,-7,-448,14,-398,3906,0.47,-0.39,-35.14,0.14,-3.98,39.06,-5.18,-0.36,21.74,2.12,0.39,10.68
-1,-15,-436,87,-459,3904,0.42,-0.45,-34.28,0.87,-4.59,39.04,-5.19,-0.39,21.87,2.17,0.53,10.36
21,-8,-431,49,-373,3906,0.50,-0.45,-33.48,0.49,-3.73,39.06,-5.20,-0.41,22.01,1.81,0.44,10.12
-4,-3,-270,-50,-365,3928,0.43,-0.42,-31.78,-0.50,-3.65,39.28,-5.20,-0.41,22.13,2.22,0.35,8.34
-3,-7,-253,-17,-401,3937,0.37,-0.42,-30.15,-0.17,-4.01,39.37,-5.21,-0.41,22.25,2.23,0.42,7.79
-4,-11,-280,118,-495,3950,0.31,-0.45,-28.84,1.18,-4.95,39.50,-5.22,-0.43,22.37,2.27,0.49,7.70
6,4,-274,54,-461,3931,0.31,-0.38,-27.63,0.54,-4.61,39.31,-5.24,-0.45,22.48,2.12,0.25,7.35
-10,-14,-306,-79,-353,3891,0.22,-0.43,-26.73,-0.79,-3.53,38.91,-5.24,-0.44,22.58,2.39,0.54,7.40
2,-6,-372,-185,-238,3896,0.21,-0.42,-26.33,-1.85,-2.38,38.96,-5.23,-0.43,22.69,2.20,0.41,7.86
11,6,-448,-196,-229,3941,0.26,-0.34,-26.43,-1.96,-2.29,39.41,-5.22,-0.43,22.79,2.05,0.20,8.52
15,-1,-469,-243,-93,4033,0.32,-0.31,-26.65,-2.43,-0.93,40.33,-5.20,-0.43,22.90,1.96,0.30,8.74
10,-13,-562,-232,-249,4137,0.35,-0.36,-27.41,-2.32,-2.49,41.37,-5.19,-0.42,23.01,2.02,0.49,9.70
53,36,-567,-202,-358,3934,0.64,-0.11,-28.13,-2.02,-3.58,39.34,-5.19,-0.41,23.12,1.28,-0.33,9.91
36,28,-632,-232,-292,4052,0.79,0.08,-29.17,-2.32,-2.92,40.52,-5.18,-0.41,23.24,1.49,-0.27,10.70
90,64,-630,-164,-346,3943,1.26,0.46,-30.10,-1.64,-3.46,39.43,-5.17,-0.40,23.36,0.52,-0.94,10.90
29,12,-636,26,-305,3956,1.31,0.49,-30.97,0.26,-3.05,39.56,-5.15,-0.41,23.48,1.42,-0.15,11.15
33,15,-634,-4,-196,3938,1.38,0.53,-31.74,-0.04,-1.96,39.38,-5.12,-0.41,23.61,1.33,-0.21,11.31
55,32,-663,70,-289,3698,1.58,0.67,-32.61,0.70,-2.89,36.98,-5.10,-0.43,23.74,0.92,-0.50,11.75
9,-20,-692,91,-285,3986,1.48,0.48,-33.57,0.91,-2.85,39.86,-5.08,-0.46,23.87,1.65,0.36,12.22
33,22,-751,-118,-206,4080,1.53,0.57,-34.79,-1.18,-2.06,40.80,-5.06,-0.45,24.01,1.26,-0.31,13.00
74,53,-791,-162,-434,3733,1.83,0.83,-36.14,-1.62,-4.34,37.33,-5.06,-0.45,24.16,0.54,-0.87,13.65
2,-6,-975,-276,-277,4044,1.66,0.71,-38.47,-2.76,-2.77,40.44,-5.05,-0.44,24.31,1.68,0.07,15.76
59,32,-1020,-285,-324,3988,1.85,0.84,-40.85,-2.85,-3.24,39.88,-5.04,-0.43,24.47,0.75,-0.55,16.70
65,55,-1133,-211,-309,4067,2.06,1.09,-43.67,-2.11,-3.09,40.67,-5.02,-0.43,24.65,0.59,-0.98,18.32
74,59,-1147,-207,-393,3821,2.31,1.34,-46.30,-2.07,-3.93,38.21,-5.02,-0.42,24.83,0.37,-1.13,19.05
0,13,-1182,-194,-418,3882,2.08,1.29,-48.88,-1.94,-4.18,38.82,-5.01,-0.41,25.03,1.57,-0.41,19.95
19,12,-1181,-117,-313,3992,1.99,1.23,-51.20,-1.17,-3.13,39.92,-5.00,-0.41,25.23,1.30,-0.38,20.48
15,9,-1126,59,-417,3970,1.88,1.16,-52.95,0.59,-4.17,39.70,-5.01,-0.43,25.44,1.40,-0.30,20.42
18,-3,-1050,193,-311,3994,1.80,1.03,-54.06,1.93,-3.11,39.94,-5.00,-0.46,25.66,1.37,-0.06,20.03
15,-12,-810,154,-151,3948,1.71,0.85,-53.59,1.54,-1.51,39.48,-4.97,-0.49,25.87,1.44,0.14,17.87
3,-3,-736,244,-308,3930,1.56,0.75,-52.72,2.44,-3.08,39.30,-4.96,-0.52,26.08,1.66,0.05,17.02
5,-3,-507,254,-374,3935,1.43,0.66,-50.54,2.54,-3.74,39.35,-4.96,-0.55,26.28,1.67,0.09,14.54
-1,1,-448,298,-375,3956,1.28,0.60,-48.22,2.98,-3.75,39.56,-4.95,-0.59,26.48,1.80,0.06,13.47
-4,-1,-325,237,-320,3834,1.13,0.53,-45.38,2.37,-3.20,38.34,-4.94,-0.62,26.66,1.89,0.13,11.74
-7,0,-320,118,-360,3971,0.98,0.48,-42.80,1.18,-3.60,39.71,-4.94,-0.65,26.83,1.98,0.14,11.07
6,13,-321,-183,-156,3928,0.91,0.51,-40.47,-1.83,-1.56,39.28,-4.92,-0.65,26.99,1.80,-0.07,10.51
-1,3,-315,-220,-101,3978,0.82,0.48,-38.35,-2.20,-1.01,39.78,-4.91,-0.64,27.14,1.92,0.09,9.94
-2,12,-293,-399,9,3995,0.72,0.50,-36.30,-3.99,0.09,39.95,-4.89,-0.64,27.29,1.96,-0.05,9.25
13,21,-327,-152,-9,3920,0.73,0.58,-34.67,-1.52,-0.09,39.20,-4.87,-0.64,27.43,1.72,-0.22,9.14
0,-7,-319,-194,-170,3853,0.66,0.48,-33.14,-1.94,-1.70,38.53,-4.86,-0.63,27.56,1.94,0.24,8.70
-4,-2,-310,-219,-246,3906,0.57,0.42,-31.72,-2.19,-2.46,39.06,-4.85,-0.63,27.69,2.02,0.18,8.27
3,-1,-289,-149,-307,3968,0.53,0.37,-30.31,-1.49,-3.07,39.68,-4.84,-0.62,27.81,1.92,0.17,7.75
17,-7,-295,-72,-322,3918,0.58,0.29,-29.08,-0.72,-3.22,39.18,-4.84,-0.61,27.92,1.69,0.28,7.50
1,-3,-269,-87,-350,3876,0.53,0.24,-27.81,-0.87,-3.50,38.76,-4.84,-0.60,28.03,1.95,0.23,6.97
-1,-9,-258,-127,-408,3921,0.47,0.16,-26.61,-1.27,-4.08,39.21,-4.84,-0.59,28.14,2.00,0.35,6.58
-1,-12,-278,-201,-414,3899,0.42,0.07,-25.64,-2.01,-4.14,38.99,-4.84,-0.58,28.24,2.02,0.42,6.51
-2,-21,-284,-194,-357,3959,0.36,-0.06,-24.81,-1.94,-3.57,39.59,-4.84,-0.57,28.34,2.05,0.59,6.35
3,-14,-315,-97,-342,3881,0.34,-0.14,-24.25,-0.97,-3.42,38.81,-4.84,-0.56,28.44,1.98,0.50,6.48
5,-10,-320,-29,-321,3910,0.34,-0.19,-23.78,-0.29,-3.21,39.10,-4.84,-0.55,28.53,1.95,0.45,6.40
5,-6,-300,111,-272,3885,0.34,-0.20,-23.23,1.11,-2.72,38.85,-4.82,-0.57,28.63,1.94,0.41,6.09
1,-4,-291,61,-260,3885,0.31,-0.21,-22.68,0.61,-2.60,38.85,-4.80,-0.59,28.72,2.00,0.38,5.88
4,-1,-284,-16,-287,3873,0.30,-0.19,-22.15,-0.16,-2.87,38.73,-4.79,-0.58,28.80,1.95,0.33,5.69
6,-14,-283,-47,-301,3890,0.31,-0.26,-21.66,-0.47,-3.01,38.90,-4.78,-0.57,28.89,1.92,0.54,5.55
-6,-14,-321,-36,-378,3904,0.24,-0.32,-21.45,-0.36,-3.78,39.04,-4.79,-0.57,28.98,2.13,0.56,5.82
20,-5,-306,4,-426,3988,0.34,-0.32,-21.17,0.04,-4.26,39.88,-4.81,-0.57,29.06,1.71,0.42,5.62
2,-7,-302,-20,-388,3919,0.32,-0.33,-20.90,-0.20,-3.88,39.19,-4.82,-0.56,29.14,1.99,0.45,5.52
4,0,-295,-29,-441,3905,0.31,-0.30,-20.61,-0.29,-4.41,39.05,-4.83,-0.56,29.22,1.97,0.34,5.38
-1,-6,-250,58,-398,3924,0.27,-0.30,-20.07,0.58,-3.98,39.24,-4.85,-0.57,29.30,2.06,0.44,4.87
1,-12,-230,19,-380,3924,0.25,-0.35,-19.47,0.19,-3.80,39.24,-4.86,-0.58,29.38,2.05,0.54,4.55
0,-15,-240,-97,-256,3915,0.23,-0.40,-18.98,-0.97,-2.56,39.15,-4.85,-0.57,29.46,2.07,0.60,4.51
-2,-12,-260,-115,-240,3925,0.19,-0.44,-18.67,-1.15,-2.40,39.25,-4.84,-0.56,29.53,2.10,0.56,4.60
2,-12,-354,-84,-217,3927,0.18,-0.47,-18.96,-0.84,-2.17,39.27,-4.83,-0.55,29.61,2.04,0.57,5.46
3,-11,-377,-92,-258,3943,0.18,-0.49,-19.37,-0.92,-2.58,39.43,-4.82,-0.55,29.68,2.02,0.56,5.75
3,-15,-419,-41,-232,3932,0.18,-0.53,-19.99,-0.41,-2.32,39.32,-4.80,-0.54,29.76,2.01,0.63,6.25
-1,-9,-432,-8,-236,3926,0.16,-0.53,-20.62,-0.08,-2.36,39.26,-4.78,-0.55,29.85,2.07,0.54,6.50
12,7,-471,-22,-295,3905,0.22,-0.44,-21.43,-0.22,-2.95,39.05,-4.77,-0.54,29.93,1.85,0.26,7.02
8,5,-483,-135,-315,3896,0.24,-0.36,-22.24,-1.35,-3.15,38.96,-4.77,-0.53,30.02,1.90,0.27,7.31
6,4,-480,-156,-370,3897,0.26,-0.30,-22.94,-1.56,-3.70,38.97,-4.77,-0.52,30.11,1.93,0.26,7.44
8,3,-467,-89,-393,3851,0.28,-0.25,-23.50,-0.89,-3.93,38.51,-4.78,-0.51,30.20,1.90,0.26,7.46
1,4,-437,-42,-450,3884,0.26,-0.20,-23.81,-0.42,-4.50,38.84,-4.79,-0.51,30.30,2.01,0.23,7.28
-2,7,-428,-33,-453,3937,0.22,-0.14,-24.04,-0.33,-4.53,39.37,-4.81,-0.51,30.40,2.08,0.16,7.25
4,4,-433,-46,-370,3912,0.22,-0.10,-24.28,-0.46,-3.70,39.12,-4.81,-0.50,30.49,1.99,0.19,7.34
12,-5,-437,-23,-330,3898,0.27,-0.12,-24.52,-0.23,-3.30,38.98,-4.81,-0.49,30.59,1.85,0.33,7.42
-2,-12,-477,17,-289,3968,0.23,-0.18,-24.97,0.17,-2.89,39.68,-4.79,-0.50,30.69,2.07,0.46,7.86
1,-5,-506,-70,-204,3883,0.22,-0.19,-25.56,-0.70,-2.04,38.83,-4.78,-0.49,30.79,2.02,0.35,8.24
15,-4,-593,-240,-176,3879,0.29,-0.20,-26.62,-2.40,-1.76,38.79,-4.77,-0.49,30.90,1.78,0.34,9.23
11,-11,-623,-258,-269,3962,0.32,-0.25,-27.76,-2.58,-2.69,39.62,-4.76,-0.48,31.01,1.83,0.45,9.75
13,-9,-663,-126,-188,3901,0.37,-0.28,-29.03,-1.26,-1.88,39.01,-4.75,-0.48,31.12,1.78,0.43,10.38
10,-1,-657,-140,-242,3893,0.40,-0.26,-30.14,-1.40,-2.42,38.93,-4.74,-0.47,31.24,1.81,0.30,10.58
6,-5,-556,-26,-394,3969,0.39,-0.26,-30.51,-0.26,-3.94,39.69,-4.75,-0.47,31.37,1.88,0.36,9.81
13,6,-517,-35,-415,3892,0.43,-0.20,-30.62,-0.35,-4.15,38.92,-4.76,-0.47,31.49,1.76,0.18,9.50
6,-6,-414,5,-334,3902,0.43,-0.21,-30.08,0.05,-3.34,39.02,-4.76,-0.46,31.61,1.87,0.36,8.49
5,4,-401,-4,-380,3888,0.41,-0.17,-29.52,-0.04,-3.80,38.88,-4.78,-0.46,31.72,1.90,0.19,8.23
4,-9,-371,-25,-256,3904,0.40,-0.21,-28.83,-0.25,-2.56,39.04,-4.76,-0.46,31.84,1.91,0.40,7.81
-5,2,-374,-23,-225,3850,0.33,-0.17,-28.23,-0.23,-2.25,38.50,-4.74,-0.46,31.95,2.06,0.23,7.68
1,-1,-425,-113,-214,3908,0.30,-0.16,-28.00,-1.13,-2.14,39.08,-4.73,-0.46,32.06,1.97,0.27,8.05
6,-7,-439,-148,-246,3934,0.31,-0.19,-27.88,-1.48,-2.46,39.34,-4.72,-0.45,32.17,1.89,0.36,8.13
9,7,-507,-102,-328,3870,0.33,-0.13,-28.18,-1.02,-3.28,38.70,-4.72,-0.44,32.29,1.84,0.13,8.77
6,-4,-540,-106,-339,3924,0.33,-0.14,-28.66,-1.06,-3.39,39.24,-4.72,-0.44,32.40,1.88,0.30,9.16
10,9,-611,-141,-376,3883,0.36,-0.07,-29.52,-1.41,-3.76,38.83,-4.72,-0.43,32.52,1.81,0.07,9.96
-20,-20,-618,-111,-375,3948,0.20,-0.19,-30.34,-1.11,-3.75,39.48,-4.72,-0.42,32.64,2.32,0.55,10.20
0,-7,-619,-105,-325,3903,0.18,-0.21,-31.08,-1.05,-3.25,39.03,-4.72,-0.41,32.76,2.02,0.35,10.38
2,-17,-611,7,-411,3933,0.18,-0.29,-31.70,0.07,-4.11,39.33,-4.74,-0.42,32.89,2.00,0.53,10.45
1,-8,-608,-52,-296,3884,0.17,-0.31,-32.24,-0.52,-2.96,38.84,-4.73,-0.42,33.02,2.02,0.40,10.55
9,-1,-590,-20,-274,3874,0.20,-0.29,-32.61,-0.20,-2.74,38.74,-4.72,-0.41,33.15,1.88,0.29,10.48
-6,-12,-536,5,-311,3927,0.15,-0.33,-32.62,0.05,-3.11,39.27,-4.71,-0.41,33.28,2.12,0.47,10.01
7,4,-521,67,-309,3948,0.17,-0.27,-32.54,0.67,-3.09,39.48,-4.70,-0.44,33.41,1.91,0.22,9.86
8,5,-502,48,-340,3882,0.21,-0.22,-32.34,0.48,-3.40,38.82,-4.71,-0.46,33.54,1.89,0.19,9.64
6,-10,-496,0,-280,3874,0.22,-0.26,-32.14,0.00,-2.80,38.74,-4.69,-0.46,33.66,1.91,0.43,9.53
8,-1,-547,-58,-404,3927,0.25,-0.24,-32.26,-0.58,-4.04,39.27,-4.70,-0.46,33.79,1.87,0.29,9.98
8,-2,-563,-21,-327,3916,0.27,-0.22,-32.47,-0.21,-3.27,39.16,-4.70,-0.45,33.92,1.86,0.30,10.16
5,6,-639,-58,-321,3907,0.28,-0.17,-33.12,-0.58,-3.21,39.07,-4.70,-0.45,34.05,1.91,0.16,10.95
11,-6,-658,-48,-401,3878,0.32,-0.19,-33.82,-0.48,-4.01,38.78,-4.71,-0.45,34.19,1.81,0.34,11.27
9,-8,-683,-31,-519,3880,0.34,-0.22,-34.60,-0.31,-5.19,38.80,-4.73,-0.45,34.33,1.84,0.39,11.66
10,9,-692,64,-396,3857,0.37,-0.14,-35.37,0.64,-3.96,38.57,-4.74,-0.47,34.47,1.82,0.11,11.91
13,3,-638,58,-331,3912,0.41,-0.11,-35.72,0.58,-3.31,39.12,-4.74,-0.50,34.61,1.76,0.21,11.52
4,-16,-623,-16,-339,3890,0.39,-0.19,-35.95,-0.16,-3.39,38.90,-4.75,-0.50,34.75,1.91,0.52,11.44
7,-5,-489,44,-410,3966,0.40,-0.21,-35.34,0.44,-4.10,39.66,-4.76,-0.51,34.89,1.87,0.36,10.15
8,8,-448,-6,-348,3929,0.40,-0.14,-34.54,-0.06,-3.48,39.29,-4.77,-0.51,35.03,1.85,0.14,9.60
9,-13,-490,-41,-199,3940,0.42,-0.20,-34.07,-0.41,-1.99,39.40,-4.75,-0.51,35.17,1.82,0.48,9.84
16,-16,-488,-92,-123,3935,0.47,-0.28,-33.64,-0.92,-1.23,39.35,-4.73,-0.51,35.30,1.69,0.56,9.71
11,0,-422,-20,-283,3914,0.49,-0.25,-32.85,-0.20,-2.83,39.14,-4.72,-0.51,35.43,1.76,0.30,8.95
8,2,-430,-42,-320,3916,0.49,-0.21,-32.19,-0.42,-3.20,39.16,-4.71,-0.50,35.56,1.80,0.26,8.85
1,-17,-384,-15,-214,3902,0.45,-0.30,-31.31,-0.15,-2.14,39.02,-4.69,-0.51,35.69,1.91,0.57,8.24
8,-6,-376,-72,-238,3864,0.45,-0.30,-30.47,-0.72,-2.38,38.64,-4.68,-0.50,35.81,1.80,0.41,7.97
6,0,-384,-54,-333,3919,0.45,-0.27,-29.77,-0.54,-3.33,39.19,-4.68,-0.50,35.93,1.83,0.30,7.86
-5,-13,-381,-90,-339,3882,0.37,-0.32,-29.12,-0.90,-3.39,38.82,-4.68,-0.49,36.04,2.02,0.51,7.67
13,-13,-364,-76,-302,3965,0.41,-0.37,-28.43,-0.76,-3.02,39.65,-4.67,-0.48,36.15,1.73,0.52,7.35
4,-8,-318,-39,-306,3877,0.40,-0.38,-27.52,-0.39,-3.06,38.77,-4.67,-0.47,36.26,1.87,0.45,6.74
-4,0,-204,15,-359,3912,0.33,-0.34,-26.02,0.15,-3.59,39.12,-4.68,-0.48,36.37,2.02,0.32,5.40
-5,0,-183,39,-359,3917,0.27,-0.31,-24.53,0.39,-3.59,39.17,-4.70,-0.49,36.47,2.06,0.31,4.86
-1,-7,-164,-32,-263,3907,0.24,-0.32,-23.08,-0.32,-2.63,39.07,-4.68,-0.48,36.56,2.00,0.42,4.35
0,-9,-172,-71,-265,3931,0.21,-0.34,-21.82,-0.71,-2.65,39.31,-4.67,-0.48,36.64,1.99,0.45,4.11
-1,-4,-192,-34,-238,3900,0.18,-0.33,-20.81,-0.34,-2.38,39.00,-4.66,-0.47,36.73,2.01,0.37,4.03
2,0,-205,-26,-217,3932,0.18,-0.30,-19.98,-0.26,-2.17,39.32,-4.64,-0.47,36.81,1.96,0.30,3.94
2,3,-297,-59,-237,3932,0.17,-0.25,-19.79,-0.59,-2.37,39.32,-4.63,-0.47,36.89,1.95,0.24,4.67
7,1,-316,-28,-280,3875,0.20,-0.22,-19.74,-0.28,-2.80,38.75,-4.62,-0.46,36.96,1.86,0.25,4.81
16,4,-334,-4,-394,3862,0.28,-0.17,-19.80,-0.04,-3.94,38.62,-4.63,-0.46,37.04,1.71,0.19,4.97
6,-1,-312,4,-422,3920,0.28,-0.16,-19.73,0.04,-4.22,39.20,-4.65,-0.46,37.12,1.87,0.27,4.76
0,-5,-273,-3,-322,3893,0.26,-0.18,-19.42,-0.03,-3.22,38.93,-4.65,-0.45,37.20,1.97,0.33,4.35
8,-7,-268,9,-319,3950,0.28,-0.20,-19.11,0.09,-3.19,39.50,-4.65,-0.44,37.28,1.84,0.36,4.23
5,-6,-259,-60,-275,3891,0.28,-0.22,-18.78,-0.60,-2.75,38.91,-4.64,-0.43,37.35,1.88,0.35,4.07
2,-1,-254,-92,-294,3916,0.27,-0.20,-18.45,-0.92,-2.94,39.16,-4.63,-0.42,37.42,1.93,0.26,3.94
7,3,-289,-165,-308,3908,0.28,-0.16,-18.37,-1.65,-3.08,39.08,-4.63,-0.40,37.50,1.84,0.18,4.22
5,-1,-301,-151,-306,3972,0.28,-0.15,-18.37,-1.51,-3.06,39.72,-4.63,-0.39,37.57,1.87,0.24,4.31
6,5,-340,-203,-292,3910,0.29,-0.11,-18.61,-2.03,-2.92,39.10,-4.62,-0.38,37.64,1.85,0.12,4.69
6,5,-363,-163,-294,3874,0.30,-0.07,-18.96,-1.63,-2.94,38.74,-4.62,-0.37,37.72,1.85,0.11,4.97
9,-1,-403,-44,-196,3882,0.32,-0.07,-19.52,-0.44,-1.96,38.82,-4.60,-0.37,37.80,1.79,0.20,5.44
13,-12,-418,-38,-239,3856,0.37,-0.13,-20.12,-0.38,-2.39,38.56,-4.59,-0.36,37.88,1.71,0.38,5.70
8,-5,-427,-58,-285,3924,0.38,-0.15,-20.71,-0.58,-2.85,39.24,-4.58,-0.35,37.96,1.77,0.28,5.91
6,-11,-418,6,-292,3867,0.38,-0.20,-21.19,0.06,-2.92,38.67,-4.56,-0.35,38.04,1.80,0.38,5.95
-5,-7,-405,-65,-342,3944,0.31,-0.22,-21.54,-0.65,-3.42,39.44,-4.57,-0.34,38.13,1.99,0.32,5.91
10,-1,-397,21,-381,3898,0.34,-0.21,-21.81,0.21,-3.81,38.98,-4.58,-0.34,38.22,1.76,0.23,5.90
2,0,-369,0,-359,3882,0.32,-0.19,-21.88,0.00,-3.59,38.82,-4.60,-0.34,38.30,1.89,0.21,5.68
3,2,-371,38,-326,3953,0.31,-0.16,-21.95,0.38,-3.26,39.53,-4.60,-0.37,38.39,1.89,0.18,5.71
9,8,-393,-2,-335,3910,0.33,-0.09,-22.16,-0.02,-3.35,39.10,-4.61,-0.36,38.48,1.79,0.06,5.93
1,1,-399,-57,-360,3847,0.30,-0.08,-22.37,-0.57,-3.60,38.47,-4.62,-0.35,38.57,1.93,0.16,6.03
0,-7,-415,-17,-326,3909,0.27,-0.11,-22.67,-0.17,-3.26,39.09,-4.62,-0.34,38.66,1.95,0.29,6.23
8,-2,-433,43,-343,3909,0.30,-0.11,-23.04,0.43,-3.43,39.09,-4.64,-0.36,38.75,1.83,0.22,6.47
-2,-8,-387,-58,-246,3893,0.25,-0.15,-23.10,-0.58,-2.46,38.93,-4.62,-0.35,38.84,1.99,0.32,6.08
-1,-6,-379,-33,-239,3904,0.22,-0.17,-23.10,-0.33,-2.39,39.04,-4.61,-0.35,38.94,1.97,0.30,6.01
3,-7,-409,-37,-232,3918,0.22,-0.20,-23.29,-0.37,-2.32,39.18,-4.59,-0.35,39.03,1.91,0.32,6.30
7,-3,-426,-42,-231,3911,0.24,-0.20,-23.56,-0.42,-2.31,39.11,-4.57,-0.35,39.12,1.83,0.26,6.50
5,3,-447,45,-278,3869,0.25,-0.16,-23.93,0.45,-2.78,38.69,-4.56,-0.36,39.22,1.85,0.16,6.76
2,1,-455,57,-318,3929,0.23,-0.14,-24.31,0.57,-3.18,39.29,-4.56,-0.39,39.31,1.90,0.20,6.92
12,-9,-368,57,-413,3806,0.28,-0.18,-24.12,0.57,-4.13,38.06,-4.58,-0.40,39.41,1.74,0.37,6.13
-7,1,-316,20,-374,3904,0.21,-0.15,-23.64,0.20,-3.74,39.04,-4.59,-0.41,39.51,2.06,0.21,5.56
1,-6,-231,-30,-285,3968,0.20,-0.17,-22.68,-0.30,-2.85,39.68,-4.58,-0.40,39.60,1.94,0.32,4.61
2,-1,-237,-92,-302,3926,0.19,-0.16,-21.86,-0.92,-3.02,39.26,-4.58,-0.39,39.68,1.93,0.24,4.46
3,-5,-304,-105,-235,3927,0.19,-0.18,-21.53,-1.05,-2.35,39.27,-4.57,-0.38,39.77,1.91,0.30,4.94
2,6,-330,-93,-229,3863,0.18,-0.12,-21.39,-0.93,-2.29,38.63,-4.56,-0.38,39.85,1.92,0.11,5.12
7,9,-358,20,-338,3858,0.21,-0.06,-21.43,0.20,-3.38,38.58,-4.57,-0.38,39.94,1.84,0.05,5.36
-1,5,-335,-14,-383,3898,0.18,-0.02,-21.33,-0.14,-3.83,38.98,-4.59,-0.38,40.02,1.98,0.10,5.14
-1,-1,-252,17,-393,3969,0.16,-0.02,-20.74,0.17,-3.93,39.69,-4.60,-0.38,40.11,1.99,0.19,4.29
3,3,-234,5,-379,3904,0.16,-0.00,-20.09,0.05,-3.79,39.04,-4.62,-0.38,40.19,1.94,0.12,3.97
1,-2,-193,-4,-357,3937,0.15,-0.02,-19.26,-0.04,-3.57,39.37,-4.63,-0.38,40.26,1.98,0.20,3.42
2,-9,-220,63,-269,3968,0.15,-0.07,-18.68,0.63,-2.69,39.68,-4.62,-0.39,40.34,1.96,0.33,3.51
6,3,-316,46,-200,3845,0.17,-0.04,-18.74,0.46,-2.00,38.45,-4.60,-0.40,40.41,1.88,0.15,4.33
1,3,-293,41,-232,3911,0.16,-0.02,-18.65,0.41,-2.32,39.11,-4.58,-0.41,40.49,1.95,0.14,4.11
6,1,-232,-58,-241,3926,0.18,-0.01,-18.20,-0.58,-2.41,39.26,-4.57,-0.40,40.56,1.86,0.17,3.48
4,0,-221,-71,-276,3883,0.18,-0.01,-17.73,-0.71,-2.76,38.83,-4.56,-0.39,40.63,1.89,0.18,3.27
-1,1,-232,-70,-210,3870,0.16,-0.00,-17.37,-0.70,-2.10,38.70,-4.54,-0.39,40.70,1.97,0.16,3.27
5,3,-240,-88,-239,3925,0.17,0.01,-17.10,-0.88,-2.39,39.25,-4.53,-0.38,40.77,1.87,0.11,3.27
14,-3,-209,-17,-341,3964,0.24,-0.01,-16.66,-0.17,-3.41,39.64,-4.54,-0.36,40.83,1.71,0.21,2.90
2,6,-176,21,-332,3805,0.23,0.03,-16.07,0.21,-3.32,38.05,-4.56,-0.37,40.90,1.90,0.06,2.47
0,-6,-97,21,-253,3920,0.21,-0.01,-15.05,0.21,-2.53,39.20,-4.54,-0.37,40.96,1.93,0.26,1.55
-5,1,-101,-40,-189,3878,0.16,-0.00,-14.17,-0.40,-1.89,38.78,-4.52,-0.37,41.02,2.02,0.15,1.37
4,11,-101,-17,-309,3883,0.17,0.07,-13.36,-0.17,-3.09,38.83,-4.52,-0.35,41.07,1.88,-0.03,1.18
-2,3,-90,7,-309,3945,0.14,0.08,-12.58,0.07,-3.09,39.45,-4.52,-0.34,41.12,1.98,0.08,0.89
-2,3,-99,-56,-199,3915,0.11,0.09,-11.92,-0.56,-1.99,39.15,-4.50,-0.33,41.17,1.98,0.07,0.81
6,2,-117,-49,-202,3900,0.14,0.09,-11.44,-0.49,-2.02,39.00,-4.49,-0.32,41.21,1.84,0.08,0.84
11,11,-203,-18,-287,3871,0.19,0.15,-11.54,-0.18,-2.87,38.71,-4.48,-0.31,41.26,1.74,-0.08,1.59
0,-1,-196,16,-283,3978,0.17,0.13,-11.58,0.16,-2.83,39.78,-4.46,-0.31,41.30,1.91,0.11,1.54
1,-5,-206,-25,-295,3920,0.16,0.09,-11.68,-0.25,-2.95,39.20,-4.45,-0.30,41.35,1.90,0.18,1.64
1,2,-205,-38,-316,3873,0.15,0.09,-11.76,-0.38,-3.16,38.73,-4.46,-0.28,41.40,1.90,0.07,1.65
1,1,-161,29,-375,3959,0.14,0.09,-11.57,0.29,-3.75,39.59,-4.48,-0.29,41.44,1.91,0.08,1.23
5,8,-136,-22,-421,3868,0.16,0.13,-11.24,-0.22,-4.21,38.68,-4.49,-0.28,41.49,1.85,-0.04,0.94
-4,-1,-63,-51,-402,3890,0.12,0.11,-10.50,-0.51,-4.02,38.90,-4.51,-0.28,41.53,2.01,0.10,0.14
1,-4,-43,-92,-409,3914,0.11,0.07,-9.71,-0.92,-4.09,39.14,-4.52,-0.26,41.57,1.94,0.16,-0.22
-2,-4,-25,-68,-346,3889,0.09,0.04,-8.89,-0.68,-3.46,38.89,-4.52,-0.25,41.60,1.99,0.16,-0.57
0,-7,-25,-45,-326,3889,0.08,-0.01,-8.16,-0.45,-3.26,38.89,-4.53,-0.24,41.64,1.97,0.21,-0.75
-2,-13,-48,-33,-221,3889,0.06,-0.08,-7.63,-0.33,-2.21,38.89,-4.51,-0.23,41.67,2.00,0.32,-0.68
4,-14,-63,-64,-253,3892,0.08,-0.16,-7.26,-0.64,-2.53,38.92,-4.50,-0.22,41.70,1.90,0.36,-0.65
-5,-15,-85,8,-238,3940,0.04,-0.24,-7.05,0.08,-2.38,39.40,-4.48,-0.22,41.72,2.04,0.40,-0.52
-2,-19,-97,-21,-243,3982,0.02,-0.33,-6.94,-0.21,-2.43,39.82,-4.47,-0.21,41.75,1.99,0.48,-0.44
0,-17,-117,-47,-292,3945,0.02,-0.40,-6.96,-0.47,-2.92,39.45,-4.46,-0.20,41.78,1.96,0.47,-0.27
4,-14,-112,-41,-315,3930,0.04,-0.45,-6.94,-0.41,-3.15,39.30,-4.47,-0.19,41.81,1.89,0.43,-0.32
-2,-13,-103,-31,-344,3866,0.03,-0.48,-6.88,-0.31,-3.44,38.66,-4.48,-0.18,41.83,1.99,0.42,-0.41
4,-11,-81,-32,-465,3884,0.05,-0.50,-6.68,-0.32,-4.65,38.84,-4.50,-0.18,41.86,1.90,0.40,-0.65
-2,-2,-19,-95,-404,3899,0.03,-0.46,-6.13,-0.95,-4.04,38.99,-4.51,-0.17,41.89,2.00,0.24,-1.31
-2,-3,-16,-74,-360,3899,0.02,-0.43,-5.62,-0.74,-3.60,38.99,-4.52,-0.15,41.91,2.01,0.25,-1.46
0,-4,-12,-52,-307,3910,0.01,-0.41,-5.13,-0.52,-3.07,39.10,-4.52,-0.14,41.93,1.98,0.25,-1.61
1,-2,-11,-37,-305,3907,0.02,-0.39,-4.68,-0.37,-3.05,39.07,-4.51,-0.12,41.95,1.97,0.20,-1.72
5,-4,-48,-151,-201,3914,0.05,-0.37,-4.51,-1.51,-2.01,39.14,-4.50,-0.11,41.96,1.89,0.22,-1.45
6,-4,-91,-174,-199,3923,0.08,-0.36,-4.61,-1.74,-1.99,39.23,-4.49,-0.10,41.98,1.86,0.21,-1.07
12,5,-183,-107,-216,3869,0.14,-0.29,-5.27,-1.07,-2.16,38.69,-4.48,-0.09,42.00,1.74,0.05,-0.13
7,1,-203,-92,-234,3936,0.17,-0.26,-5.98,-0.92,-2.34,39.36,-4.47,-0.07,42.03,1.81,0.10,0.21
8,-4,-236,-41,-240,3915,0.20,-0.26,-6.82,-0.41,-2.40,39.15,-4.45,-0.07,42.05,1.78,0.17,0.69
5,1,-248,-78,-286,3864,0.21,-0.22,-7.65,-0.78,-2.86,38.64,-4.45,-0.05,42.09,1.82,0.08,0.98
-6,-7,-205,-93,-328,3924,0.16,-0.24,-8.14,-0.93,-3.28,39.24,-4.45,-0.04,42.12,2.00,0.20,0.73
-3,-6,-203,-81,-365,3920,0.12,-0.26,-8.56,-0.81,-3.65,39.20,-4.46,-0.03,42.15,1.97,0.18,0.82
-5,-4,-193,-37,-306,3885,0.08,-0.26,-8.88,-0.37,-3.06,38.85,-4.47,-0.01,42.19,2.02,0.14,0.81
-3,4,-192,34,-311,3885,0.05,-0.21,-9.16,0.34,-3.11,38.85,-4.47,-0.03,42.22,2.00,0.02,0.86
0,-1,-152,91,-425,3933,0.05,-0.19,-9.18,0.91,-4.25,39.33,-4.48,-0.05,42.26,1.96,0.09,0.52
8,7,-122,121,-408,3885,0.09,-0.13,-9.00,1.21,-4.08,38.85,-4.49,-0.07,42.30,1.83,-0.04,0.23
-2,1,-43,77,-402,3911,0.07,-0.11,-8.36,0.77,-4.02,39.11,-4.51,-0.08,42.33,1.99,0.05,-0.60
-1,2,-25,47,-385,3875,0.06,-0.09,-7.68,0.47,-3.85,38.75,-4.53,-0.09,42.36,1.99,0.04,-0.92
-1,-4,-2,-39,-344,3889,0.05,-0.10,-6.92,-0.39,-3.44,38.89,-4.54,-0.08,42.39,2.00,0.13,-1.29
-2,-3,-3,-64,-342,3904,0.03,-0.11,-6.25,-0.64,-3.42,39.04,-4.54,-0.07,42.41,2.02,0.11,-1.45
-2,-4,-4,-38,-285,3903,0.01,-0.12,-5.65,-0.38,-2.85,39.03,-4.53,-0.05,42.43,2.02,0.12,-1.59
-2,0,1,-54,-308,3895,0.00,-0.11,-5.08,-0.54,-3.08,38.95,-4.53,-0.04,42.45,2.03,0.05,-1.77
-5,-1,24,-97,-286,3838,-0.03,-0.11,-4.42,-0.97,-2.86,38.38,-4.53,-0.02,42.47,2.08,0.06,-2.12
-6,4,43,-147,-324,3885,-0.06,-0.07,-3.72,-1.47,-3.24,38.85,-4.53,-0.00,42.49,2.11,-0.04,-2.45
-10,15,75,-118,-397,3913,-0.12,0.03,-2.89,-1.18,-3.97,39.13,-4.54,0.01,42.50,2.19,-0.24,-2.92
2,8,61,-32,-297,3935,-0.09,0.07,-2.23,-0.32,-2.97,39.35,-4.54,0.03,42.51,1.99,-0.16,-2.96
-2,7,57,-36,-300,3917,-0.10,0.11,-1.66,-0.36,-3.00,39.17,-4.53,0.04,42.51,2.05,-0.16,-3.06
-4,13,52,23,-282,3920,-0.11,0.18,-1.18,0.23,-2.82,39.20,-4.52,0.03,42.52,2.08,-0.27,-3.14
2,10,65,32,-292,3909,-0.09,0.22,-0.66,0.32,-2.92,39.09,-4.51,0.02,42.52,1.98,-0.23,-3.37
5,9,45,54,-261,3955,-0.05,0.25,-0.32,0.54,-2.61,39.55,-4.50,0.00,42.52,1.92,-0.22,-3.28
0,0,13,75,-214,3889,-0.04,0.23,-0.21,0.75,-2.14,38.89,-4.48,-0.01,42.52,1.99,-0.07,-3.04
2,-1,8,34,-240,3915,-0.03,0.20,-0.14,0.34,-2.40,39.15,-4.47,-0.01,42.52,1.94,-0.04,-3.01
4,3,1,-24,-286,3905,-0.00,0.20,-0.12,-0.24,-2.86,39.05,-4.46,0.00,42.53,1.90,-0.11,-2.96
4,3,0,-28,-299,3904,0.02,0.20,-0.11,-0.28,-2.99,39.04,-4.45,0.02,42.53,1.89,-0.11,-2.95
5,3,-4,-20,-295,3896,0.05,0.19,-0.12,-0.20,-2.95,38.96,-4.45,0.04,42.53,1.86,-0.12,-2.91
6,1,-5,-36,-306,3910,0.08,0.18,-0.14,-0.36,-3.06,39.10,-4.45,0.06,42.53,1.84,-0.10,-2.90
2,-1,-3,-31,-302,3898,0.09,0.16,-0.14,-0.31,-3.02,38.98,-4.45,0.08,42.53,1.90,-0.07,-2.92
2,-2,-2,-41,-304,3905,0.09,0.13,-0.14,-0.41,-3.04,39.05,-4.45,0.09,42.53,1.90,-0.05,-2.93
0,-1,-1,-34,-294,3936,0.08,0.11,-0.13,-0.34,-2.94,39.36,-4.44,0.11,42.53,1.93,-0.07,-2.94
0,-1,-1,-36,-312,3909,0.07,0.09,-0.13,-0.36,-3.12,39.09,-4.44,0.13,42.53,1.93,-0.07,-2.94
-3,-2,0,-36,-305,3896,0.05,0.07,-0.11,-0.36,-3.05,38.96,-4.44,0.15,42.53,1.99,-0.06,-2.95
-3,-3,-1,-34,-301,3894,0.02,0.05,-0.11,-0.34,-3.01,38.94,-4.44,0.17,42.53,1.99,-0.04,-2.94
0,-6,-9,-35,-310,3892,0.02,0.00,-0.15,-0.35,-3.10,38.92,-4.45,0.18,42.53,1.95,0.01,-2.86
0,-5,-8,-34,-307,3898,0.02,-0.03,-0.19,-0.34,-3.07,38.98,-4.45,0.20,42.53,1.95,-0.00,-2.86
-2,-3,-3,-33,-304,3904,0.01,-0.04,-0.19,-0.33,-3.04,39.04,-4.45,0.22,42.53,1.99,-0.04,-2.91
-3,-3,-1,-33,-305,3909,-0.01,-0.06,-0.17,-0.33,-3.05,39.09,-4.45,0.24,42.53,2.01,-0.04,-2.93
-3,-4,-2,-52,-312,3928,-0.03,-0.07,-0.17,-0.52,-3.12,39.28,-4.46,0.26,42.53,2.02,-0.03,-2.92
2,-5,-1,-22,-302,3897,-0.01,-0.10,-0.16,-0.22,-3.02,38.97,-4.45,0.27,42.53,1.93,-0.01,-2.93
-1,-3,2,-22,-277,3897,-0.02,-0.11,-0.13,-0.22,-2.77,38.97,-4.43,0.27,42.53,1.97,-0.04,-2.96
-5,-1,-8,-65,-309,3898,-0.05,-0.10,-0.17,-0.65,-3.09,38.98,-4.43,0.29,42.54,2.04,-0.08,-2.87
0,-2,-10,-10,-287,3894,-0.04,-0.10,-0.21,-0.10,-2.87,38.94,-4.42,0.28,42.54,1.96,-0.06,-2.84
0,0,-9,-5,-281,3906,-0.04,-0.09,-0.24,-0.05,-2.81,39.06,-4.40,0.27,42.54,1.95,-0.09,-2.84
1,2,-5,-14,-294,3913,-0.03,-0.07,-0.25,-0.14,-2.94,39.13,-4.39,0.26,42.54,1.92,-0.12,-2.88
1,2,-4,-12,-293,3914,-0.02,-0.05,-0.25,-0.12,-2.93,39.14,-4.37,0.25,42.54,1.92,-0.12,-2.88
4,3,-8,-26,-293,3913,0.01,-0.03,-0.27,-0.26,-2.93,39.13,-4.36,0.26,42.54,1.86,-0.15,-2.84
2,5,-11,-33,-274,3873,0.02,0.00,-0.31,-0.33,-2.74,38.73,-4.35,0.27,42.54,1.88,-0.20,-2.81
4,7,-23,-26,-293,3906,0.04,0.05,-0.42,-0.26,-2.93,39.06,-4.34,0.29,42.54,1.84,-0.25,-2.68
2,6,-22,-27,-292,3899,0.05,0.08,-0.51,-0.27,-2.92,38.99,-4.33,0.31,42.54,1.86,-0.25,-2.67
-1,5,-30,-14,-273,3902,0.04,0.10,-0.65,-0.14,-2.73,39.02,-4.31,0.30,42.55,1.90,-0.24,-2.57
-2,3,-34,-5,-280,3886,0.02,0.11,-0.79,-0.05,-2.80,38.86,-4.30,0.29,42.55,1.92,-0.21,-2.50
0,2,-50,10,-256,3913,0.02,0.11,-1.01,0.10,-2.56,39.13,-4.29,0.28,42.55,1.88,-0.19,-2.31
1,1,-55,29,-255,3903,0.02,0.11,-1.25,0.29,-2.55,39.03,-4.28,0.26,42.56,1.86,-0.16,-2.21
-6,7,-40,-3,-292,3901,-0.02,0.14,-1.37,-0.03,-2.92,39.01,-4.28,0.24,42.56,1.98,-0.26,-2.31
-6,4,-45,18,-283,3903,-0.05,0.15,-1.51,0.18,-2.83,39.03,-4.27,0.23,42.57,1.99,-0.21,-2.24
-4,-1,-9,-66,-368,3931,-0.07,0.13,-1.41,-0.66,-3.68,39.31,-4.29,0.24,42.58,1.97,-0.13,-2.57
-5,2,-5,-94,-351,3915,-0.09,0.13,-1.30,-0.94,-3.51,39.15,-4.30,0.25,42.58,2.00,-0.18,-2.63
1,5,-17,-15,-262,3895,-0.08,0.14,-1.27,-0.15,-2.62,38.95,-4.28,0.25,42.59,1.89,-0.23,-2.53
0,2,-21,3,-272,3884,-0.07,0.14,-1.27,0.03,-2.72,38.84,-4.27,0.24,42.59,1.90,-0.18,-2.50
-3,-5,-42,15,-289,3887,-0.08,0.10,-1.40,0.15,-2.89,38.87,-4.27,0.22,42.60,1.95,-0.05,-2.29
2,-7,-45,-33,-313,3934,-0.06,0.05,-1.54,-0.33,-3.13,39.34,-4.28,0.23,42.60,1.87,-0.01,-2.23
-2,-3,0,-123,-434,3943,-0.07,0.02,-1.38,-1.23,-4.34,39.43,-4.30,0.24,42.61,1.94,-0.07,-2.65
-5,-2,6,-157,-414,3926,-0.09,0.01,-1.21,-1.57,-4.14,39.26,-4.31,0.26,42.61,2.00,-0.08,-2.74
1,3,-7,-39,-322,3888,-0.08,0.03,-1.13,-0.39,-3.22,38.88,-4.32,0.27,42.62,1.91,-0.17,-2.65
2,1,-7,-32,-302,3904,-0.06,0.03,-1.06,-0.32,-3.02,39.04,-4.33,0.28,42.62,1.89,-0.15,-2.67
2,-5,-14,-54,-327,3880,-0.04,-0.00,-1.04,-0.54,-3.27,38.80,-4.34,0.30,42.63,1.89,-0.05,-2.62
1,-4,-17,-18,-284,3916,-0.03,-0.03,-1.04,-0.18,-2.84,39.16,-4.33,0.29,42.63,1.90,-0.06,-2.59
1,-2,-4,-43,-284,3906,-0.02,-0.04,-0.96,-0.43,-2.84,39.06,-4.32,0.31,42.63,1.89,-0.09,-2.72
-1,-1,-3,-34,-284,3912,-0.02,-0.04,-0.88,-0.34,-2.84,39.12,-4.31,0.32,42.64,1.92,-0.11,-2.75
5,-3,3,-35,-334,3959,0.01,-0.05,-0.78,-0.35,-3.34,39.59,-4.32,0.33,42.64,1.82,-0.08,-2.82
-1,-2,10,-18,-322,3907,0.00,-0.06,-0.64,-0.18,-3.22,39.07,-4.34,0.32,42.64,1.93,-0.09,-2.92
2,-4,5,-16,-301,3893,0.01,-0.08,-0.54,-0.16,-3.01,38.93,-4.35,0.31,42.65,1.88,-0.05,-2.90
2,-5,4,-11,-292,3888,0.03,-0.10,-0.46,-0.11,-2.92,38.88,-4.35,0.29,42.65,1.87,-0.02,-2.91
2,-4,-3,-25,-282,3896,0.03,-0.12,-0.44,-0.25,-2.82,38.96,-4.33,0.30,42.65,1.86,-0.03,-2.86
3,-3,-5,-14,-291,3905,0.05,-0.12,-0.42,-0.14,-2.91,39.05,-4.32,0.28,42.65,1.84,-0.04,-2.84
1,-2,-1,-32,-301,3908,0.05,-0.12,-0.39,-0.32,-3.01,39.08,-4.33,0.30,42.65,1.87,-0.06,-2.88
1,-1,0,-32,-305,3916,0.05,-0.12,-0.35,-0.32,-3.05,39.16,-4.34,0.31,42.65,1.88,-0.09,-2.90
4,0,6,-33,-334,3934,0.07,-0.10,-0.28,-0.33,-3.34,39.34,-4.35,0.32,42.66,1.83,-0.11,-2.97
-1,-3,8,-24,-322,3917,0.06,-0.11,-0.20,-0.24,-3.22,39.17,-4.37,0.32,42.66,1.92,-0.06,-3.01
-1,-4,10,-25,-307,3902,0.05,-0.13,-0.12,-0.25,-3.07,39.02,-4.39,0.32,42.66,1.93,-0.04,-3.04
-2,-3,10,-25,-303,3902,0.03,-0.13,-0.05,-0.25,-3.03,39.02,-4.40,0.34,42.66,1.96,-0.06,-3.06
-1,-1,4,-31,-290,3888,0.02,-0.12,-0.02,-0.31,-2.90,38.88,-4.39,0.35,42.66,1.94,-0.10,-3.02
-1,-1,2,-31,-289,3904,0.01,-0.12,-0.00,-0.31,-2.89,39.04,-4.37,0.36,42.66,1.94,-0.11,-3.00
8,2,-6,-24,-294,3904,0.06,-0.09,-0.04,-0.24,-2.94,39.04,-4.36,0.35,42.66,1.78,-0.16,-2.93
7,2,-5,-36,-283,3906,0.10,-0.07,-0.07,-0.36,-2.83,39.06,-4.34,0.37,42.66,1.77,-0.17,-2.93
4,3,-7,-17,-304,3918,0.11,-0.05,-0.10,-0.17,-3.04,39.18,-4.35,0.35,42.66,1.82,-0.19,-2.90
3,4,-5,-5,-309,3909,0.12,-0.02,-0.12,-0.05,-3.09,39.09,-4.36,0.34,42.66,1.84,-0.20,-2.91
-4,7,2,-9,-308,3904,0.08,0.03,-0.10,-0.09,-3.08,39.04,-4.37,0.32,42.66,1.96,-0.26,-2.98
-5,8,9,-29,-324,3903,0.04,0.07,-0.03,-0.29,-3.24,39.03,-4.39,0.33,42.66,1.99,-0.29,-3.05
-7,3,13,-39,-317,3897,-0.00,0.08,0.05,-0.39,-3.17,38.97,-4.40,0.34,42.66,2.05,-0.22,-3.11
-4,1,9,-44,-297,3908,-0.03,0.08,0.10,-0.44,-2.97,39.08,-4.40,0.36,42.66,2.01,-0.20,-3.09
3,1,-2,-30,-305,3895,-0.01,0.08,0.08,-0.30,-3.05,38.95,-4.41,0.37,42.66,1.90,-0.20,-2.99
-1,1,-3,-21,-297,3891,-0.01,0.08,0.05,-0.21,-2.97,38.91,-4.40,0.36,42.66,1.96,-0.20,-2.97
1,1,-6,-28,-280,3915,-0.00,0.08,0.01,-0.28,-2.80,39.15,-4.38,0.36,42.66,1.91,-0.20,-2.94
2,0,-6,-29,-304,3907,0.01,0.07,-0.03,-0.29,-3.04,39.07,-4.40,0.37,42.66,1.90,-0.19,-2.93
2,0,-3,-38,-297,3915,0.02,0.06,-0.04,-0.38,-2.97,39.15,-4.39,0.39,42.66,1.90,-0.19,-2.95
3,0,-4,-38,-292,3915,0.04,0.06,-0.06,-0.38,-2.92,39.15,-4.38,0.41,42.66,1.87,-0.20,-2.94
2,-2,-4,-27,-308,3900,0.04,0.04,-0.08,-0.27,-3.08,39.00,-4.40,0.40,42.66,1.89,-0.16,-2.93
1,-2,-3,-24,-306,3909,0.05,0.02,-0.09,-0.24,-3.06,39.09,-4.41,0.39,42.66,1.91,-0.15,-2.94
-1,-2,-1,-32,-301,3917,0.04,0.01,-0.09,-0.32,-3.01,39.17,-4.41,0.41,42.66,1.94,-0.15,-2.96
-3,-2,2,-29,-300,3918,0.01,-0.01,-0.07,-0.29,-3.00,39.18,-4.39,0.42,42.66,1.97,-0.15,-2.99
0,2,3,-37,-286,3906,0.01,0.01,-0.04,-0.37,-2.86,39.06,-4.37,0.43,42.66,1.92,-0.22,-3.00
0,1,4,-37,-299,3904,0.01,0.01,-0.01,-0.37,-2.99,39.04,-4.38,0.45,42.66,1.92,-0.22,-3.02
-1,1,2,-36,-308,3912,0.00,0.02,-0.00,-0.36,-3.08,39.12,-4.39,0.46,42.66,1.95,-0.22,-3.00
-1,1,2,-29,-304,3910,-0.00,0.02,0.01,-0.29,-3.04,39.10,-4.41,0.45,42.66,1.96,-0.22,-3.01
-1,2,1,-34,-302,3918,-0.01,0.03,0.02,-0.34,-3.02,39.18,-4.41,0.47,42.66,1.96,-0.24,-3.00
-1,2,1,-33,-305,3911,-0.01,0.04,0.02,-0.33,-3.05,39.11,-4.42,0.47,42.66,1.97,-0.25,-3.00
0,1,4,-23,-300,3904,-0.01,0.04,0.04,-0.23,-3.00,39.04,-4.42,0.45,42.66,1.95,-0.23,-3.03
1,1,6,7,-301,3914,-0.01,0.04,0.08,0.07,-3.01,39.14,-4.42,0.44,42.66,1.93,-0.22,-3.06
-2,-3,13,-28,-282,3903,-0.02,0.02,0.15,-0.28,-2.82,39.03,-4.40,0.43,42.66,1.97,-0.15,-3.13
-1,-1,9,-24,-286,3918,-0.02,0.01,0.19,-0.24,-2.86,39.18,-4.38,0.43,42.66,1.95,-0.18,-3.11
1,4,8,-32,-306,3909,-0.01,0.04,0.22,-0.32,-3.06,39.09,-4.40,0.44,42.66,1.93,-0.26,-3.11
2,5,7,-30,-304,3906,0.00,0.06,0.24,-0.30,-3.04,39.06,-4.42,0.44,42.66,1.91,-0.29,-3.10
5,11,10,25,-256,3948,0.03,0.12,0.28,0.25,-2.56,39.48,-4.41,0.42,42.66,1.85,-0.39,-3.14
10,10,17,35,-263,3906,0.09,0.17,0.35,0.35,-2.63,39.06,-4.40,0.41,42.65,1.76,-0.39,-3.21
10,13,64,53,-213,3918,0.14,0.23,0.71,0.53,-2.13,39.18,-4.38,0.40,42.65,1.73,-0.44,-3.70
8,17,69,43,-226,3900,0.18,0.32,1.06,0.43,-2.26,39.00,-4.37,0.39,42.65,1.75,-0.53,-3.82
9,22,94,94,-284,3881,0.21,0.42,1.52,0.94,-2.84,38.81,-4.37,0.37,42.64,1.72,-0.63,-4.15
-3,18,106,109,-320,3884,0.17,0.49,2.02,1.09,-3.20,38.84,-4.37,0.35,42.63,1.92,-0.58,-4.37
-2,0,129,-23,-341,3850,0.14,0.44,2.60,-0.23,-3.41,38.50,-4.39,0.36,42.62,1.92,-0.29,-4.70
-3,-8,128,-129,-308,3894,0.11,0.34,3.12,-1.29,-3.08,38.94,-4.39,0.38,42.61,1.94,-0.15,-4.81
1,3,83,-108,-321,3892,0.11,0.33,3.32,-1.08,-3.21,38.92,-4.39,0.40,42.60,1.88,-0.32,-4.48
-1,4,73,-117,-335,3928,0.09,0.32,3.43,-1.17,-3.35,39.28,-4.40,0.42,42.58,1.92,-0.34,-4.42
-2,-6,44,-186,-320,3877,0.07,0.25,3.36,-1.86,-3.20,38.77,-4.40,0.44,42.57,1.95,-0.18,-4.16
-3,-3,32,-117,-322,3929,0.04,0.21,3.22,-1.17,-3.22,39.29,-4.40,0.46,42.56,1.97,-0.22,-4.02
2,1,5,-62,-333,3923,0.05,0.19,2.93,-0.62,-3.33,39.23,-4.42,0.47,42.55,1.90,-0.28,-3.72
0,0,6,-68,-341,3923,0.05,0.17,2.67,-0.68,-3.41,39.23,-4.43,0.49,42.54,1.94,-0.27,-3.67
-3,1,3,-29,-324,3908,0.02,0.16,2.42,-0.29,-3.24,39.08,-4.45,0.48,42.53,2.00,-0.28,-3.58
-3,1,4,-25,-312,3904,0.00,0.15,2.20,-0.25,-3.12,39.04,-4.46,0.47,42.52,2.01,-0.27,-3.54
-6,0,7,-26,-303,3903,-0.03,0.14,2.03,-0.26,-3.03,39.03,-4.46,0.46,42.51,2.06,-0.24,-3.52
-3,1,8,-37,-302,3906,-0.05,0.13,1.87,-0.37,-3.02,39.06,-4.45,0.47,42.50,2.02,-0.26,-3.49
4,-2,21,-78,-330,3906,-0.02,0.10,1.81,-0.78,-3.30,39.06,-4.46,0.49,42.49,1.91,-0.22,-3.59
2,-1,31,-67,-333,3908,-0.01,0.09,1.82,-0.67,-3.33,39.08,-4.47,0.51,42.49,1.94,-0.23,-3.67
1,-2,93,-86,-393,3913,0.00,0.07,2.21,-0.86,-3.93,39.13,-4.49,0.52,42.48,1.96,-0.22,-4.29
-5,-2,117,-83,-338,3879,-0.03,0.05,2.70,-0.83,-3.38,38.79,-4.50,0.53,42.47,2.06,-0.22,-4.61
-3,-2,159,-71,-291,3916,-0.04,0.03,3.40,-0.71,-2.91,39.16,-4.49,0.55,42.45,2.03,-0.22,-5.13
0,-3,153,-26,-275,3919,-0.04,0.01,3.99,-0.26,-2.75,39.19,-4.47,0.54,42.44,1.98,-0.20,-5.22
-10,-2,139,-31,-277,3899,-0.10,-0.00,4.44,-0.31,-2.77,38.99,-4.45,0.54,42.42,2.14,-0.21,-5.21
-4,0,144,-30,-290,3898,-0.11,-0.00,4.88,-0.30,-2.90,38.98,-4.44,0.53,42.40,2.05,-0.23,-5.35
-8,5,176,-64,-296,3899,-0.15,0.03,5.46,-0.64,-2.96,38.99,-4.43,0.55,42.38,2.12,-0.33,-5.76
0,11,183,-135,-351,3903,-0.13,0.09,6.03,-1.35,-3.51,39.03,-4.44,0.57,42.36,2.00,-0.45,-5.96
-3,6,237,-46,-294,3864,-0.14,0.12,6.87,-0.46,-2.94,38.64,-4.43,0.59,42.33,2.04,-0.39,-6.61
-1,5,258,-44,-296,3891,-0.13,0.14,7.76,-0.44,-2.96,38.91,-4.42,0.60,42.30,2.00,-0.38,-7.00
-2,3,316,-27,-250,3897,-0.13,0.14,8.91,-0.27,-2.50,38.97,-4.40,0.60,42.26,2.01,-0.35,-7.77
-8,2,322,-68,-207,3871,-0.17,0.14,9.99,-0.68,-2.07,38.71,-4.38,0.61,42.22,2.10,-0.34,-8.07
-5,8,285,-21,-330,3908,-0.18,0.18,10.73,-0.21,-3.30,39.08,-4.40,0.60,42.18,2.07,-0.44,-7.93
-3,-2,279,-12,-337,3900,-0.18,0.15,11.35,-0.12,-3.37,39.00,-4.41,0.60,42.13,2.04,-0.28,-8.03
-4,3,298,-15,-284,3936,-0.19,0.15,12.04,-0.15,-2.84,39.36,-4.40,0.59,42.09,2.05,-0.35,-8.35
6,4,302,-86,-264,3890,-0.13,0.16,12.68,-0.86,-2.64,38.90,-4.39,0.61,42.04,1.88,-0.38,-8.53
-11,-6,296,29,-345,3900,-0.19,0.11,13.21,0.29,-3.45,39.00,-4.40,0.59,41.98,2.16,-0.20,-8.61
-2,7,309,-24,-334,3909,-0.18,0.14,13.78,-0.24,-3.34,39.09,-4.42,0.59,41.93,2.03,-0.41,-8.85
-2,-4,304,-27,-361,3945,-0.17,0.10,14.25,-0.27,-3.61,39.45,-4.43,0.59,41.87,2.03,-0.23,-8.91
-2,-3,298,11,-309,3888,-0.17,0.07,14.65,0.11,-3.09,38.88,-4.44,0.58,41.81,2.03,-0.23,-8.95
-2,-2,275,29,-356,3910,-0.16,0.05,14.86,0.29,-3.56,39.10,-4.45,0.57,41.75,2.04,-0.24,-8.81
0,9,265,-10,-382,3908,-0.15,0.10,14.99,-0.10,-3.82,39.08,-4.46,0.57,41.69,2.01,-0.42,-8.75
-18,-11,262,-67,-244,3915,-0.24,0.02,15.09,-0.67,-2.44,39.15,-4.45,0.58,41.63,2.31,-0.09,-8.74
-3,-2,276,-70,-287,3858,-0.24,0.01,15.26,-0.70,-2.87,38.58,-4.44,0.60,41.57,2.07,-0.24,-8.90
-3,2,333,58,-383,3906,-0.23,0.02,15.77,0.58,-3.83,39.06,-4.45,0.59,41.51,2.08,-0.30,-9.50
-12,15,353,0,-356,3872,-0.28,0.11,16.34,0.00,-3.56,38.72,-4.47,0.59,41.44,2.24,-0.52,-9.80
1,13,434,33,-470,3884,-0.25,0.18,17.36,0.33,-4.70,38.84,-4.49,0.59,41.38,2.03,-0.51,-10.72
-18,7,480,95,-473,3920,-0.33,0.20,18.55,0.95,-4.73,39.20,-4.50,0.58,41.30,2.36,-0.42,-11.39
-10,3,484,8,-416,3894,-0.36,0.20,19.65,0.08,-4.16,38.94,-4.52,0.58,41.22,2.25,-0.36,-11.68
-5,13,484,20,-408,3883,-0.35,0.26,20.64,0.20,-4.08,38.83,-4.53,0.58,41.14,2.18,-0.53,-11.91
-1,11,520,21,-324,3919,-0.33,0.30,21.74,0.21,-3.24,39.19,-4.54,0.57,41.06,2.11,-0.51,-12.48
-18,-11,524,-29,-294,3877,-0.40,0.20,22.77,-0.29,-2.94,38.77,-4.52,0.57,40.96,2.39,-0.14,-12.75
-8,0,509,-57,-213,3907,-0.41,0.18,23.59,-0.57,-2.13,39.07,-4.51,0.58,40.87,2.23,-0.31,-12.81
-5,2,501,-121,-296,3922,-0.40,0.18,24.29,-1.21,-2.96,39.22,-4.50,0.60,40.77,2.18,-0.35,-12.91
-18,2,486,-125,-300,3948,-0.47,0.17,24.83,-1.25,-3.00,39.48,-4.50,0.63,40.67,2.40,-0.36,-12.90
-4,12,484,-53,-255,3886,-0.45,0.23,25.30,-0.53,-2.55,38.86,-4.49,0.64,40.57,2.17,-0.54,-12.99
-10,0,480,22,-166,3828,-0.46,0.21,25.69,0.22,-1.66,38.28,-4.47,0.64,40.47,2.26,-0.35,-13.04
-2,-11,502,6,-189,3887,-0.43,0.12,26.19,0.06,-1.89,38.87,-4.45,0.65,40.37,2.12,-0.15,-13.34
-13,-2,495,29,-344,4024,-0.47,0.09,26.59,0.29,-3.44,40.24,-4.46,0.64,40.26,2.30,-0.28,-13.37
-12,6,470,-31,-288,3910,-0.49,0.12,26.80,-0.31,-2.88,39.10,-4.45,0.63,40.15,2.29,-0.41,-13.20
-17,5,428,0,-199,3877,-0.55,0.14,26.73,0.00,-1.99,38.77,-4.43,0.64,40.05,2.38,-0.40,-12.82
2,2,427,9,-212,3951,-0.48,0.14,26.66,0.09,-2.12,39.51,-4.42,0.64,39.94,2.06,-0.35,-12.79
-4,5,399,-35,-258,3911,-0.46,0.15,26.43,-0.35,-2.58,39.11,-4.40,0.64,39.83,2.14,-0.41,-12.49
-7,1,395,-40,-219,3910,-0.45,0.15,26.19,-0.40,-2.19,39.10,-4.38,0.65,39.73,2.17,-0.35,-12.39
-3,1,308,-87,-276,3942,-0.43,0.14,25.45,-0.87,-2.76,39.42,-4.37,0.67,39.63,2.10,-0.35,-11.47
2,6,287,-62,-263,3895,-0.37,0.16,24.66,-0.62,-2.63,38.95,-4.36,0.69,39.53,2.00,-0.44,-11.09
-9,5,214,-108,-307,3930,-0.39,0.17,23.50,-1.08,-3.07,39.30,-4.36,0.72,39.44,2.17,-0.44,-10.19
-5,11,145,-160,-292,3918,-0.38,0.22,22.03,-1.60,-2.92,39.18,-4.36,0.74,39.35,2.11,-0.56,-9.25
2,9,61,-65,-251,3897,-0.33,0.26,20.20,-0.65,-2.51,38.97,-4.34,0.75,39.27,1.98,-0.55,-8.10
0,3,55,-51,-287,3908,-0.30,0.25,18.52,-0.51,-2.87,39.08,-4.32,0.76,39.19,1.99,-0.46,-7.64
0,6,55,-27,-393,3928,-0.27,0.26,17.00,-0.27,-3.93,39.28,-4.34,0.76,39.13,1.99,-0.51,-7.27
0,7,62,-1,-402,3931,-0.24,0.28,15.68,-0.01,-4.02,39.31,-4.36,0.76,39.06,1.99,-0.53,-7.01
1,5,129,2,-474,3873,-0.21,0.28,14.90,0.02,-4.74,38.73,-4.38,0.76,39.00,1.97,-0.50,-7.39
-1,10,165,28,-504,3876,-0.20,0.31,14.41,0.28,-5.04,38.76,-4.39,0.76,38.95,2.01,-0.58,-7.57
-5,14,287,-31,-381,3872,-0.21,0.37,14.72,-0.31,-3.81,38.72,-4.41,0.76,38.89,2.08,-0.66,-8.67
-8,-3,295,-50,-332,3991,-0.23,0.31,15.05,-0.50,-3.32,39.91,-4.43,0.76,38.83,2.14,-0.39,-8.82
3,9,267,-55,-215,3908,-0.19,0.34,15.17,-0.55,-2.15,39.08,-4.41,0.77,38.77,1.95,-0.58,-8.60
-1,3,221,-19,-127,3878,-0.18,0.32,15.01,-0.19,-1.27,38.78,-4.39,0.77,38.71,2.00,-0.48,-8.17
6,1,108,-10,-171,3922,-0.13,0.29,14.16,-0.10,-1.71,39.22,-4.37,0.77,38.65,1.87,-0.44,-7.01
5,0,94,-22,-192,3876,-0.08,0.27,13.32,-0.22,-1.92,38.76,-4.36,0.77,38.60,1.87,-0.42,-6.68
-3,0,122,16,-371,3899,-0.09,0.24,12.73,0.16,-3.71,38.99,-4.37,0.76,38.55,2.00,-0.41,-6.78
-2,4,146,56,-421,3924,-0.10,0.24,12.35,0.56,-4.21,39.24,-4.38,0.76,38.50,1.99,-0.47,-6.88
-5,-2,290,14,-448,3932,-0.12,0.20,12.88,0.14,-4.48,39.32,-4.40,0.75,38.45,2.05,-0.36,-8.23
2,12,326,50,-548,3877,-0.09,0.26,13.58,0.50,-5.48,38.77,-4.42,0.75,38.39,1.94,-0.59,-8.70
-4,6,417,22,-427,3916,-0.11,0.27,14.77,0.22,-4.27,39.16,-4.43,0.75,38.34,2.04,-0.50,-9.75
-16,-1,449,51,-350,3929,-0.19,0.23,16.03,0.51,-3.50,39.29,-4.44,0.74,38.27,2.26,-0.38,-10.32
-8,7,476,-33,-231,3975,-0.22,0.25,17.33,-0.33,-2.31,39.75,-4.42,0.74,38.20,2.14,-0.51,-10.85
-4,9,482,-13,-222,3910,-0.23,0.28,18.54,-0.13,-2.22,39.10,-4.40,0.74,38.13,2.07,-0.55,-11.19
-7,5,560,-14,-248,3914,-0.25,0.29,20.10,-0.14,-2.48,39.14,-4.39,0.74,38.05,2.11,-0.49,-12.21
-6,-2,582,-45,-248,3909,-0.26,0.24,21.64,-0.45,-2.48,39.09,-4.37,0.74,37.96,2.09,-0.37,-12.76
-27,-27,647,-8,-399,3809,-0.40,0.06,23.42,-0.08,-3.99,38.09,-4.39,0.74,37.87,2.46,0.07,-13.73
-21,-7,621,-71,-474,4025,-0.49,0.01,24.87,-0.71,-4.74,40.25,-4.41,0.75,37.77,2.41,-0.23,-13.85
-4,9,511,-103,-322,3834,-0.46,0.06,25.50,-1.03,-3.22,38.34,-4.42,0.78,37.67,2.14,-0.50,-13.06
-11,2,501,-96,-255,3885,-0.48,0.07,26.01,-0.96,-2.55,38.85,-4.40,0.80,37.56,2.25,-0.40,-13.09
-11,3,440,-95,-353,3879,-0.50,0.08,26.09,-0.95,-3.53,38.79,-4.42,0.82,37.46,2.26,-0.43,-12.59
3,14,431,-137,-349,3891,-0.43,0.16,26.11,-1.37,-3.49,38.91,-4.43,0.84,37.36,2.03,-0.63,-12.51
-7,-6,412,-163,-336,3873,-0.43,0.10,26.01,-1.63,-3.36,38.73,-4.43,0.87,37.25,2.19,-0.32,-12.32
-3,0,419,-216,-363,3932,-0.41,0.09,25.97,-2.16,-3.63,39.32,-4.44,0.89,37.15,2.12,-0.42,-12.36
-9,6,392,-194,-319,3910,-0.42,0.12,25.76,-1.94,-3.19,39.10,-4.44,0.92,37.05,2.22,-0.53,-12.07
-3,4,381,-139,-293,3898,-0.40,0.13,25.51,-1.39,-2.93,38.98,-4.44,0.95,36.95,2.12,-0.52,-11.91
-6,7,370,-139,-167,3865,-0.39,0.16,25.22,-1.39,-1.67,38.65,-4.42,0.96,36.84,2.16,-0.58,-11.74
4,11,382,-178,-158,3940,-0.33,0.21,25.02,-1.78,-1.58,39.40,-4.41,0.98,36.74,1.98,-0.67,-11.79
-7,2,396,-96,-253,3922,-0.34,0.20,24.94,-0.96,-2.53,39.22,-4.39,1.00,36.64,2.14,-0.53,-11.88
-5,-1,391,-52,-244,3880,-0.34,0.18,24.83,-0.52,-2.44,38.80,-4.38,1.00,36.55,2.10,-0.48,-11.81
-12,17,370,38,-295,3871,-0.38,0.26,24.60,0.38,-2.95,38.71,-4.37,0.99,36.45,2.22,-0.78,-11.57
-2,3,377,51,-260,4002,-0.35,0.26,24.44,0.51,-2.60,40.02,-4.37,0.99,36.35,2.06,-0.56,-11.58
-2,6,397,22,-362,3862,-0.33,0.27,24.42,0.22,-3.62,38.62,-4.38,0.98,36.25,2.06,-0.60,-11.74
1,5,442,106,-322,3934,-0.29,0.27,24.67,1.06,-3.22,39.34,-4.38,0.97,36.15,2.00,-0.59,-12.18
-5,14,527,50,-498,3948,-0.29,0.33,25.42,0.50,-4.98,39.48,-4.40,0.97,36.05,2.10,-0.74,-13.07
-7,9,555,102,-462,3922,-0.30,0.35,26.26,1.02,-4.62,39.22,-4.41,0.97,35.95,2.14,-0.67,-13.50
1,3,625,-40,-306,3878,-0.27,0.33,27.45,-0.40,-3.06,38.78,-4.41,0.96,35.84,2.01,-0.57,-14.37
-4,7,625,20,-201,3918,-0.27,0.34,28.52,0.20,-2.01,39.18,-4.40,0.96,35.73,2.08,-0.63,-14.61
-8,-14,564,-74,-52,3887,-0.29,0.22,29.11,-0.74,-0.52,38.87,-4.38,0.97,35.61,2.14,-0.28,-14.23
-8,-5,532,-27,-132,3901,-0.31,0.17,29.44,-0.27,-1.32,39.01,-4.36,0.97,35.49,2.13,-0.40,-14.03
-12,1,482,-40,-144,3913,-0.35,0.16,29.44,-0.40,-1.44,39.13,-4.34,0.98,35.37,2.20,-0.49,-13.60
5,5,482,-38,-136,3906,-0.28,0.17,29.43,-0.38,-1.36,39.06,-4.32,0.98,35.26,1.91,-0.56,-13.59
-6,9,510,-67,-262,3947,-0.29,0.21,29.60,-0.67,-2.62,39.47,-4.30,0.99,35.14,2.07,-0.64,-13.86
-10,3,539,-6,-282,3865,-0.32,0.21,29.93,-0.06,-2.82,38.65,-4.30,0.99,35.02,2.14,-0.54,-14.17
-8,4,628,41,-408,3881,-0.34,0.21,30.77,0.41,-4.08,38.81,-4.31,0.98,34.90,2.12,-0.56,-15.12
-13,-6,674,97,-468,3792,-0.39,0.15,31.80,0.97,-4.68,37.92,-4.32,0.98,34.77,2.22,-0.39,-15.75
-9,2,842,189,-383,3819,-0.40,0.15,33.76,1.89,-3.83,38.19,-4.33,0.97,34.64,2.17,-0.51,-17.63
-16,7,881,223,-443,3932,-0.46,0.18,35.76,2.23,-4.43,39.32,-4.34,0.97,34.49,2.29,-0.59,-18.43
-24,-7,982,76,-145,3929,-0.56,0.12,38.17,0.76,-1.45,39.29,-4.32,0.97,34.34,2.44,-0.36,-19.85
-41,-26,982,59,-149,3936,-0.75,-0.05,40.34,0.59,-1.49,39.36,-4.31,0.97,34.18,2.75,-0.01,-20.36
-108,-91,957,2,-81,3946,-1.34,-0.60,42.15,0.02,-0.81,39.46,-4.30,0.97,34.01,3.95,1.14,-20.57
-130,-101,940,50,-164,3881,-2.00,-1.16,43.67,0.50,-1.64,38.81,-4.29,0.97,33.84,4.48,1.47,-20.77
-75,-48,891,79,-272,3973,-2.25,-1.33,44.73,0.79,-2.72,39.73,-4.29,0.96,33.66,3.72,0.72,-20.60
-46,-20,857,-19,-309,3932,-2.31,-1.32,45.49,-0.19,-3.09,39.32,-4.30,0.95,33.47,3.30,0.29,-20.48
-31,-9,866,-30,-359,3882,-2.27,-1.25,46.22,-0.30,-3.59,38.82,-4.32,0.95,33.29,3.07,0.10,-20.72
-13,5,876,3,-420,3859,-2.12,-1.09,46.94,0.03,-4.20,38.59,-4.35,0.95,33.10,2.76,-0.16,-20.96
-9,17,895,-46,-474,3847,-1.96,-0.88,47.71,-0.46,-4.74,38.47,-4.37,0.96,32.91,2.66,-0.41,-21.29
-18,7,898,-40,-411,3918,-1.88,-0.75,48.42,-0.40,-4.11,39.18,-4.39,0.97,32.72,2.78,-0.31,-21.48
-12,17,886,3,-469,3936,-1.76,-0.57,48.98,0.03,-4.69,39.36,-4.41,0.98,32.52,2.66,-0.51,-21.49
-14,17,882,-59,-385,3881,-1.67,-0.41,49.46,-0.59,-3.85,38.81,-4.43,0.99,32.33,2.67,-0.57,-21.56
-7,4,828,-140,-266,3867,-1.55,-0.34,49.57,-1.40,-2.66,38.67,-4.43,1.02,32.13,2.53,-0.40,-21.12
5,4,810,-175,-245,3925,-1.36,-0.28,49.55,-1.75,-2.45,39.25,-4.42,1.05,31.93,2.28,-0.44,-20.95
-5,15,694,-265,-233,3936,-1.26,-0.16,48.83,-2.65,-2.33,39.36,-4.42,1.08,31.74,2.40,-0.65,-19.78
3,12,642,-212,-234,3855,-1.11,-0.07,47.86,-2.12,-2.34,38.55,-4.41,1.11,31.55,2.23,-0.65,-19.09
-8,8,551,-98,-351,3933,-1.05,-0.02,46.44,-0.98,-3.51,39.33,-4.43,1.13,31.36,2.39,-0.61,-17.97
-24,6,518,-148,-377,3892,-1.09,0.02,44.95,-1.48,-3.77,38.92,-4.44,1.16,31.18,2.65,-0.61,-17.32
-5,-1,410,-138,-437,3897,-1.01,0.01,42.96,-1.38,-4.37,38.97,-4.46,1.18,31.01,2.35,-0.51,-15.92
-7,2,381,-98,-485,3885,-0.95,0.02,40.99,-0.98,-4.85,38.85,-4.48,1.19,30.85,2.37,-0.56,-15.19
-3,17,281,-83,-414,3910,-0.88,0.12,38.60,-0.83,-4.14,39.10,-4.49,1.21,30.69,2.29,-0.83,-13.76
-8,6,270,-54,-349,3909,-0.84,0.15,36.39,-0.54,-3.49,39.09,-4.51,1.21,30.55,2.36,-0.67,-13.13
1,6,203,-111,-343,3895,-0.75,0.17,33.99,-1.11,-3.43,38.95,-4.52,1.23,30.41,2.20,-0.69,-11.98
-2,9,176,-169,-325,3921,-0.69,0.21,31.66,-1.69,-3.25,39.21,-4.53,1.26,30.29,2.23,-0.76,-11.18
3,19,118,-105,-310,3928,-0.60,0.30,29.22,-1.05,-3.10,39.28,-4.53,1.29,30.17,2.13,-0.95,-10.10
2,22,113,-106,-303,3904,-0.53,0.41,26.98,-1.06,-3.03,39.04,-4.52,1.32,30.06,2.12,-1.04,-9.51
10,22,138,-155,-342,3914,-0.41,0.50,25.13,-1.55,-3.42,39.14,-4.53,1.34,29.96,1.97,-1.08,-9.27
1,17,137,-189,-324,3918,-0.37,0.55,23.45,-1.89,-3.24,39.18,-4.53,1.37,29.87,2.09,-1.03,-8.86
-2,-12,68,18,-314,3930,-0.34,0.43,21.52,0.18,-3.14,39.30,-4.53,1.36,29.78,2.13,-0.55,-7.81
-6,-15,65,62,-327,3924,-0.34,0.29,19.76,0.62,-3.27,39.24,-4.53,1.35,29.71,2.19,-0.45,-7.36
-4,-33,52,52,-322,3870,-0.33,0.06,18.11,0.52,-3.22,38.70,-4.53,1.34,29.63,2.16,-0.10,-6.84
-10,-29,57,72,-295,3927,-0.36,-0.12,16.64,0.72,-2.95,39.27,-4.53,1.32,29.57,2.26,-0.10,-6.53
-19,-29,122,177,-299,3893,-0.44,-0.29,15.72,1.77,-2.99,38.93,-4.53,1.31,29.50,2.42,-0.05,-6.86
-25,-24,159,129,-325,3865,-0.55,-0.40,15.12,1.29,-3.25,38.65,-4.53,1.29,29.44,2.54,-0.08,-7.02
-4,-14,307,15,-406,3860,-0.52,-0.45,15.48,0.15,-4.06,38.60,-4.55,1.28,29.38,2.22,-0.21,-8.36
-11,-9,375,-2,-510,3865,-0.53,-0.46,16.22,-0.02,-5.10,38.65,-4.56,1.28,29.32,2.34,-0.29,-9.11
-3,13,504,-84,-593,3945,-0.50,-0.33,17.67,-0.84,-5.93,39.45,-4.58,1.28,29.25,2.21,-0.66,-10.54
-4,5,520,-76,-550,3869,-0.47,-0.27,19.08,-0.76,-5.50,38.69,-4.60,1.29,29.17,2.23,-0.56,-11.01
5,20,545,-104,-310,3914,-0.40,-0.12,20.49,-1.04,-3.10,39.14,-4.59,1.31,29.09,2.07,-0.85,-11.55
-3,17,550,-112,-287,3866,-0.37,-0.01,21.80,-1.12,-2.87,38.66,-4.58,1.33,29.00,2.18,-0.84,-11.90
1,40,518,-119,-216,3870,-0.33,0.24,22.78,-1.19,-2.16,38.70,-4.56,1.35,28.91,2.09,-1.28,-11.86
10,37,494,-116,-198,3948,-0.24,0.44,23.52,-1.16,-1.98,39.48,-4.54,1.36,28.82,1.92,-1.30,-11.83
9,24,372,-79,-297,3909,-0.16,0.54,23.43,-0.79,-2.97,39.09,-4.53,1.36,28.72,1.90,-1.13,-10.77
8,20,339,-80,-284,3971,-0.09,0.61,23.16,-0.80,-2.84,39.71,-4.51,1.36,28.63,1.89,-1.09,-10.41
-1,10,263,43,-359,3904,-0.09,0.61,22.45,0.43,-3.59,39.04,-4.52,1.35,28.54,2.03,-0.93,-9.59
4,9,257,61,-403,3923,-0.06,0.60,21.77,0.61,-4.03,39.23,-4.52,1.34,28.46,1.95,-0.91,-9.37
1,11,305,37,-434,3937,-0.05,0.61,21.45,0.37,-4.34,39.37,-4.53,1.34,28.37,1.99,-0.94,-9.70
-8,8,324,31,-332,3905,-0.09,0.60,21.28,0.31,-3.32,39.05,-4.54,1.33,28.29,2.14,-0.89,-9.81
-4,13,416,-40,-311,3881,-0.10,0.62,21.69,-0.40,-3.11,38.81,-4.54,1.32,28.20,2.09,-0.97,-10.69
-14,11,449,25,-293,3909,-0.18,0.62,22.26,0.25,-2.93,39.09,-4.53,1.31,28.11,2.26,-0.94,-11.10
-8,25,542,-1,-165,3898,-0.21,0.71,23.34,-0.01,-1.65,38.98,-4.51,1.31,28.02,2.17,-1.18,-12.13
-3,28,566,7,-196,3837,-0.21,0.81,24.46,0.07,-1.96,38.37,-4.50,1.31,27.92,2.09,-1.25,-12.60
-5,13,631,-19,-212,3899,-0.22,0.81,25.86,-0.19,-2.12,38.99,-4.48,1.31,27.82,2.12,-1.02,-13.48
8,20,632,-38,-234,3900,-0.15,0.85,27.13,-0.38,-2.34,39.00,-4.47,1.31,27.71,1.89,-1.14,-13.78
-10,7,639,-22,-462,3890,-0.19,0.81,28.32,-0.22,-4.62,38.90,-4.48,1.32,27.60,2.18,-0.93,-14.12
-4,9,635,-5,-453,3965,-0.20,0.78,29.36,-0.05,-4.53,39.65,-4.50,1.32,27.48,2.10,-0.96,-14.32
-8,14,612,-8,-453,3840,-0.23,0.79,30.16,-0.08,-4.53,38.40,-4.51,1.33,27.36,2.18,-1.04,-14.31
0,23,628,51,-544,3945,-0.20,0.85,30.97,0.51,-5.44,39.45,-4.52,1.33,27.24,2.05,-1.20,-14.63
-9,13,697,85,-510,3875,-0.24,0.85,32.13,0.85,-5.10,38.75,-4.53,1.33,27.11,2.21,-1.04,-15.48
-14,14,722,37,-487,3904,-0.30,0.85,33.32,0.37,-4.87,39.04,-4.55,1.33,26.98,2.31,-1.06,-15.97
-8,15,817,-30,-416,3895,-0.32,0.85,34.97,-0.30,-4.16,38.95,-4.56,1.34,26.84,2.23,-1.08,-17.16
-12,11,844,-45,-361,3937,-0.36,0.84,36.62,-0.45,-3.61,39.37,-4.57,1.34,26.69,2.31,-1.01,-17.78
-10,21,977,-54,-238,3950,-0.39,0.88,38.92,-0.54,-2.38,39.50,-4.55,1.35,26.54,2.27,-1.18,-19.44
-8,30,1011,-55,-279,3888,-0.40,0.97,41.19,-0.55,-2.79,38.88,-4.54,1.35,26.37,2.24,-1.35,-20.26
-10,25,1107,-106,-340,3892,-0.42,1.03,43.83,-1.06,-3.40,38.92,-4.55,1.38,26.20,2.28,-1.30,-21.69
-14,22,1159,-76,-425,3863,-0.46,1.06,46.51,-0.76,-4.25,38.63,-4.57,1.39,26.02,2.36,-1.27,-22.76
-11,13,1263,-62,-443,3879,-0.48,1.03,49.57,-0.62,-4.43,38.79,-4.58,1.41,25.82,2.33,-1.13,-24.36
-22,14,1285,-54,-517,3888,-0.57,1.02,52.45,-0.54,-5.17,38.88,-4.60,1.43,25.61,2.53,-1.15,-25.22
-19,12,1291,-54,-503,3864,-0.63,0.99,55.08,-0.54,-5.03,38.64,-4.61,1.44,25.39,2.51,-1.12,-25.89
-20,4,1275,-78,-448,3952,-0.69,0.91,57.35,-0.78,-4.48,39.52,-4.63,1.46,25.16,2.55,-0.98,-26.28
-29,-5,1162,-94,-484,3867,-0.79,0.79,58.70,-0.94,-4.84,38.67,-4.64,1.48,24.93,2.73,-0.82,-25.63
-28,-5,1117,-115,-452,3958,-0.89,0.68,59.65,-1.15,-4.52,39.58,-4.66,1.51,24.69,2.75,-0.80,-25.45
-22,-3,935,-179,-331,3954,-0.93,0.60,59.38,-1.79,-3.31,39.54,-4.66,1.55,24.46,2.67,-0.82,-23.83
-33,0,896,-112,-328,3829,-1.04,0.54,58.91,-1.12,-3.28,38.29,-4.67,1.58,24.22,2.88,-0.86,-23.37
-14,15,778,-103,-133,3941,-1.02,0.57,57.77,-1.03,-1.33,39.41,-4.65,1.60,23.99,2.57,-1.11,-22.08
-11,16,752,-143,-103,3850,-0.99,0.61,56.58,-1.43,-1.03,38.50,-4.63,1.62,23.76,2.51,-1.15,-21.56
-15,9,709,-190,-144,3843,-0.98,0.61,55.24,-1.90,-1.44,38.43,-4.61,1.65,23.54,2.56,-1.05,-20.86
-1,10,693,-182,-149,3876,-0.89,0.61,53.95,-1.82,-1.49,38.76,-4.59,1.68,23.33,2.31,-1.08,-20.40
-5,13,615,-140,-321,3962,-0.83,0.63,52.30,-1.40,-3.21,39.62,-4.59,1.71,23.12,2.35,-1.14,-19.34
10,15,593,-103,-349,3938,-0.69,0.66,50.69,-1.03,-3.49,39.38,-4.61,1.73,22.92,2.08,-1.19,-18.75
0,12,576,-79,-451,3917,-0.62,0.66,49.14,-0.79,-4.51,39.17,-4.62,1.74,22.72,2.22,-1.15,-18.22
-5,7,567,-69,-416,3940,-0.59,0.64,47.68,-0.69,-4.16,39.40,-4.63,1.75,22.53,2.29,-1.07,-17.78
-1,7,588,-51,-393,3909,-0.53,0.62,46.50,-0.51,-3.93,39.09,-4.64,1.75,22.35,2.22,-1.07,-17.66
-6,12,600,-54,-383,3924,-0.52,0.63,45.51,-0.54,-3.83,39.24,-4.65,1.76,22.17,2.30,-1.15,-17.52
-14,18,655,-26,-346,3870,-0.55,0.68,44.95,-0.26,-3.46,38.70,-4.66,1.76,21.99,2.43,-1.25,-17.84
0,13,687,-76,-287,3900,-0.50,0.69,44.65,-0.76,-2.87,39.00,-4.64,1.76,21.81,2.19,-1.18,-18.02
-2,25,726,-73,-320,3939,-0.46,0.77,44.61,-0.73,-3.20,39.39,-4.64,1.76,21.63,2.21,-1.39,-18.33
-5,18,743,-71,-305,3884,-0.44,0.80,44.68,-0.71,-3.05,38.84,-4.63,1.76,21.46,2.25,-1.29,-18.48
8,30,815,-139,-308,3937,-0.35,0.91,45.19,-1.39,-3.08,39.37,-4.62,1.79,21.28,2.02,-1.52,-19.20
-27,5,839,37,-348,3927,-0.48,0.85,45.79,0.37,-3.48,39.27,-4.62,1.79,21.09,2.59,-1.12,-19.53
-16,16,928,13,-273,3941,-0.53,0.86,46.87,0.13,-2.73,39.41,-4.61,1.79,20.91,2.43,-1.30,-20.53
-13,15,956,35,-266,3927,-0.56,0.87,48.01,0.35,-2.66,39.27,-4.60,1.79,20.71,2.39,-1.28,-21.03
-23,14,1045,-73,-244,3883,-0.64,0.86,49.59,-0.73,-2.44,38.83,-4.58,1.80,20.52,2.56,-1.27,-22.15
-21,15,1068,-149,-186,3839,-0.70,0.87,51.14,-1.49,-1.86,38.39,-4.56,1.83,20.31,2.54,-1.30,-22.70
-9,19,1115,-56,-278,3952,-0.69,0.90,52.83,-0.56,-2.78,39.52,-4.55,1.83,20.10,2.35,-1.37,-23.49
-22,22,1120,-35,-345,3884,-0.75,0.94,54.38,-0.35,-3.45,38.84,-4.55,1.84,19.89,2.57,-1.43,-23.88
-26,12,1097,-15,-339,3923,-0.84,0.92,55.63,-0.15,-3.39,39.23,-4.55,1.84,19.66,2.65,-1.27,-23.97
-5,21,1090,-24,-404,3931,-0.78,0.96,56.72,-0.24,-4.04,39.31,-4.56,1.85,19.44,2.32,-1.43,-24.16
-26,8,1072,1,-458,3877,-0.86,0.91,57.59,0.01,-4.58,38.77,-4.57,1.86,19.21,2.67,-1.22,-24.20
-5,18,1075,-2,-409,3878,-0.81,0.93,58.38,-0.02,-4.09,38.78,-4.57,1.87,18.98,2.34,-1.38,-24.40
-12,9,1050,93,-463,3978,-0.80,0.89,58.95,0.93,-4.63,39.78,-4.58,1.87,18.74,2.44,-1.23,-24.30
-29,-4,1043,70,-436,3932,-0.90,0.78,59.42,0.70,-4.36,39.32,-4.58,1.88,18.51,2.73,-1.00,-24.34
-18,9,1047,-20,-433,3899,-0.92,0.75,59.86,-0.20,-4.33,38.99,-4.59,1.89,18.27,2.58,-1.20,-24.46
-27,14,1048,-10,-498,3883,-0.99,0.76,60.27,-0.10,-4.98,38.83,-4.61,1.90,18.03,2.74,-1.28,-24.55
-16,6,1032,-45,-385,3954,-0.99,0.72,60.54,-0.45,-3.85,39.54,-4.61,1.91,17.79,2.58,-1.15,-24.46
-24,7,1023,-45,-385,3845,-1.04,0.70,60.72,-0.45,-3.85,38.45,-4.62,1.92,17.55,2.72,-1.16,-24.42
-14,18,1016,-53,-472,3851,-1.02,0.74,60.85,-0.53,-4.72,38.51,-4.63,1.93,17.30,2.56,-1.35,-24.37
-7,10,1010,-87,-502,3894,-0.96,0.72,60.93,-0.87,-5.02,38.94,-4.65,1.95,17.06,2.44,-1.23,-24.32
3,22,1009,-42,-455,3916,-0.84,0.78,60.99,-0.42,-4.55,39.16,-4.66,1.96,16.82,2.26,-1.44,-24.31
-16,20,1010,-36,-503,3873,-0.86,0.83,61.05,-0.36,-5.03,38.73,-4.67,1.98,16.58,2.56,-1.43,-24.32
-6,27,1084,-22,-373,3876,-0.81,0.91,61.56,-0.22,-3.73,38.76,-4.67,1.98,16.33,2.39,-1.56,-25.05
-13,28,1123,-38,-298,3963,-0.81,0.99,62.25,-0.38,-2.98,39.63,-4.66,1.99,16.08,2.50,-1.61,-25.53
-21,22,1234,32,-319,3945,-0.85,1.03,63.55,0.32,-3.19,39.45,-4.66,2.00,15.83,2.63,-1.53,-26.76
-18,16,1252,16,-260,3915,-0.88,1.02,64.84,0.16,-2.60,39.15,-4.64,2.01,15.57,2.59,-1.44,-27.20
-13,10,1285,206,-444,3920,-0.87,0.98,66.19,2.06,-4.44,39.20,-4.64,2.01,15.31,2.51,-1.34,-27.79
-13,17,1329,264,-579,3898,-0.86,0.98,67.68,2.64,-5.79,38.98,-4.65,2.02,15.04,2.51,-1.45,-28.50
-18,28,1536,268,-735,3931,-0.89,1.06,70.28,2.68,-7.35,39.31,-4.65,2.04,14.76,2.59,-1.65,-30.85
-31,24,1606,240,-682,3810,-0.99,1.10,73.05,2.40,-6.82,38.10,-4.66,2.05,14.47,2.83,-1.61,-32.09
-23,17,1815,114,-585,3878,-1.03,1.09,76.82,1.14,-5.85,38.78,-4.67,2.07,14.16,2.72,-1.50,-34.74
-27,24,1843,-7,-524,3952,-1.09,1.13,80.38,-0.07,-5.24,39.52,-4.68,2.09,13.84,2.80,-1.63,-35.80
-16,24,1738,-307,-285,3942,-1.08,1.16,82.94,-3.07,-2.85,39.42,-4.66,2.14,13.51,2.63,-1.66,-35.50
-25,25,1650,-336,-312,3867,-1.12,1.20,84.71,-3.36,-3.12,38.67,-4.65,2.19,13.17,2.77,-1.71,-35.16
-12,23,1319,-318,-165,3903,-1.08,1.22,84.29,-3.18,-1.65,39.03,-4.63,2.24,12.84,2.55,-1.71,-32.23
-9,20,1224,-276,-156,3923,-1.03,1.22,83.32,-2.76,-1.56,39.23,-4.61,2.28,12.51,2.48,-1.68,-31.17
-11,33,936,-335,-256,3867,-0.99,1.30,80.70,-3.35,-2.56,38.67,-4.60,2.33,12.18,2.49,-1.92,-28.08
-1,34,810,-321,-245,3960,-0.90,1.38,77.57,-3.21,-2.45,39.60,-4.58,2.38,11.87,2.31,-1.98,-26.24
-1,34,627,-270,-313,3922,-0.82,1.45,73.64,-2.70,-3.13,39.22,-4.57,2.42,11.58,2.28,-2.03,-23.73
3,27,575,-290,-360,3931,-0.72,1.47,69.78,-2.90,-3.60,39.31,-4.57,2.47,11.30,2.18,-1.95,-22.35
16,22,410,-208,-337,3817,-0.55,1.45,65.31,-2.08,-3.37,38.17,-4.57,2.51,11.04,1.93,-1.88,-19.86
0,19,383,-142,-321,3903,-0.49,1.42,61.11,-1.42,-3.21,39.03,-4.57,2.52,10.80,2.16,-1.83,-18.61
9,25,363,-44,-373,3904,-0.39,1.43,57.21,-0.44,-3.73,39.04,-4.57,2.52,10.57,1.99,-1.93,-17.50
10,11,367,-7,-389,3872,-0.29,1.36,53.73,-0.07,-3.89,38.72,-4.57,2.53,10.36,1.94,-1.70,-16.68
-1,25,346,-59,-314,4030,-0.27,1.37,50.47,-0.59,-3.14,40.30,-4.56,2.53,10.16,2.10,-1.92,-15.71
-2,11,329,-6,-301,3928,-0.25,1.30,47.43,-0.06,-3.01,39.28,-4.55,2.54,9.97,2.11,-1.68,-14.83
1,5,285,1,-356,3931,-0.22,1.20,44.42,0.01,-3.56,39.31,-4.54,2.54,9.79,2.05,-1.56,-13.72
0,2,269,-19,-353,3950,-0.20,1.10,41.62,-0.19,-3.53,39.50,-4.54,2.54,9.63,2.06,-1.48,-12.91
-3,0,256,-113,-320,3895,-0.20,0.99,39.02,-1.13,-3.20,38.95,-4.54,2.53,9.47,2.10,-1.42,-12.16
-7,-4,252,-105,-316,3948,-0.22,0.86,36.66,-1.05,-3.16,39.48,-4.53,2.53,9.33,2.17,-1.32,-11.55
-2,2,268,-108,-389,3893,-0.21,0.79,34.63,-1.08,-3.89,38.93,-4.54,2.53,9.19,2.09,-1.39,-11.19
0,3,278,-118,-381,3899,-0.19,0.73,32.86,-1.18,-3.81,38.99,-4.55,2.54,9.06,2.06,-1.38,-10.85
-9,8,330,-37,-471,3954,-0.23,0.70,31.59,-0.37,-4.71,39.54,-4.56,2.54,8.93,2.21,-1.45,-10.97
8,3,342,-109,-391,3986,-0.15,0.65,30.51,-1.09,-3.91,39.86,-4.57,2.54,8.81,1.94,-1.36,-10.81
-3,10,387,-179,-410,3895,-0.16,0.65,29.82,-1.79,-4.10,38.95,-4.58,2.55,8.69,2.11,-1.47,-11.02
-12,19,381,-175,-426,3936,-0.21,0.70,29.17,-1.75,-4.26,39.36,-4.60,2.56,8.58,2.27,-1.63,-10.80
-1,9,267,-220,-225,3857,-0.20,0.68,27.88,-2.20,-2.25,38.57,-4.58,2.58,8.47,2.09,-1.48,-9.52
0,13,222,-275,-268,3884,-0.18,0.70,26.44,-2.75,-2.68,38.84,-4.57,2.61,8.36,2.06,-1.56,-8.79
4,8,152,-138,-288,3894,-0.14,0.67,24.73,-1.38,-2.88,38.94,-4.55,2.60,8.26,1.98,-1.47,-7.78
-2,4,138,-96,-321,3888,-0.14,0.63,23.10,-0.96,-3.21,38.88,-4.55,2.60,8.17,2.08,-1.40,-7.26
3,9,159,-58,-428,3968,-0.10,0.62,21.76,-0.58,-4.28,39.68,-4.56,2.59,8.08,1.99,-1.47,-7.12
0,4,149,-75,-355,3930,-0.09,0.59,20.49,-0.75,-3.55,39.30,-4.57,2.58,8.00,2.04,-1.38,-6.72
-6,3,164,-74,-328,3933,-0.12,0.55,19.44,-0.74,-3.28,39.33,-4.56,2.57,7.93,2.14,-1.34,-6.59
-6,4,171,-63,-326,3911,-0.14,0.51,18.54,-0.63,-3.26,39.11,-4.56,2.56,7.85,2.14,-1.35,-6.43
-2,9,287,-3,-320,3855,-0.14,0.52,18.44,-0.03,-3.20,38.55,-4.56,2.55,7.78,2.08,-1.42,-7.38
-8,8,331,-1,-411,3864,-0.18,0.52,18.61,-0.01,-4.11,38.64,-4.57,2.55,7.70,2.19,-1.40,-7.79
5,17,450,-57,-243,3931,-0.13,0.57,19.50,-0.57,-2.43,39.31,-4.56,2.54,7.63,1.97,-1.55,-9.01
-4,18,491,1,-448,3898,-0.14,0.62,20.54,0.01,-4.48,38.98,-4.57,2.53,7.55,2.11,-1.58,-9.60
-6,15,554,-96,-459,3904,-0.16,0.65,21.87,-0.96,-4.59,39.04,-4.58,2.53,7.46,2.16,-1.54,-10.44
-4,13,563,-93,-404,3992,-0.17,0.66,23.11,-0.93,-4.04,39.92,-4.59,2.53,7.37,2.13,-1.51,-10.81
2,16,535,-106,-371,3879,-0.14,0.70,24.07,-1.06,-3.71,38.79,-4.60,2.53,7.27,2.04,-1.57,-10.80
-14,10,526,-94,-363,3855,-0.21,0.69,24.87,-0.94,-3.63,38.55,-4.60,2.52,7.17,2.30,-1.47,-10.90
3,13,498,-47,-341,3908,-0.17,0.70,25.42,-0.47,-3.41,39.08,-4.60,2.52,7.07,2.03,-1.52,-10.79
8,12,475,-98,-283,3875,-0.11,0.70,25.77,-0.98,-2.83,38.75,-4.59,2.51,6.97,1.93,-1.50,-10.68
-1,12,463,7,-282,3880,-0.10,0.70,26.02,0.07,-2.82,38.80,-4.59,2.50,6.87,2.06,-1.50,-10.63
-7,8,495,-40,-217,3940,-0.14,0.68,26.44,-0.40,-2.17,39.40,-4.57,2.50,6.76,2.16,-1.43,-10.99
0,18,675,-18,-363,3940,-0.12,0.72,27.91,-0.18,-3.63,39.40,-4.57,2.49,6.65,2.05,-1.59,-12.86
-7,18,765,-15,-364,3948,-0.15,0.76,29.79,-0.15,-3.64,39.48,-4.57,2.49,6.53,2.17,-1.60,-14.06
-8,13,891,-42,-435,3957,-0.19,0.76,32.24,-0.42,-4.35,39.57,-4.58,2.49,6.40,2.19,-1.53,-15.71
-17,16,880,-106,-450,3897,-0.27,0.79,34.39,-1.06,-4.50,38.97,-4.59,2.50,6.27,2.36,-1.58,-16.12
2,20,783,-213,-444,3959,-0.23,0.83,35.73,-2.13,-4.44,39.59,-4.60,2.52,6.12,2.07,-1.67,-15.60
11,27,744,-192,-496,3845,-0.14,0.91,36.69,-1.92,-4.96,38.45,-4.62,2.53,5.98,1.91,-1.80,-15.50
35,55,609,-203,-347,3892,0.09,1.16,36.74,-2.03,-3.47,38.92,-4.62,2.56,5.83,1.47,-2.32,-14.35
40,60,595,-89,-433,3910,0.32,1.41,36.69,-0.89,-4.33,39.10,-4.63,2.57,5.69,1.33,-2.47,-14.21
58,71,586,-185,-415,3912,0.64,1.70,36.60,-1.85,-4.15,39.12,-4.64,2.59,5.54,0.96,-2.74,-14.10
38,65,583,-230,-449,3833,0.81,1.92,36.49,-2.30,-4.49,38.33,-4.65,2.62,5.40,1.22,-2.73,-14.04
18,29,553,-131,-349,3921,0.84,1.91,36.22,-1.31,-3.49,39.21,-4.65,2.62,5.26,1.51,-2.18,-13.71
6,21,582,-90,-348,3902,0.79,1.85,36.15,-0.90,-3.48,39.02,-4.64,2.62,5.11,1.71,-2.04,-13.93
5,17,614,-66,-347,3913,0.74,1.77,36.28,-0.66,-3.47,39.13,-4.64,2.62,4.97,1.74,-1.95,-14.22
-5,14,628,-76,-342,3964,0.64,1.67,36.48,-0.76,-3.42,39.64,-4.63,2.62,4.82,1.92,-1.88,-14.38
-20,4,595,-97,-399,3880,0.45,1.53,36.46,-0.97,-3.99,38.80,-4.64,2.63,4.68,2.21,-1.68,-14.09
-31,-12,577,-130,-450,3850,0.22,1.31,36.34,-1.30,-4.50,38.50,-4.65,2.64,4.54,2.45,-1.38,-13.89
-22,-8,468,-139,-409,3914,0.06,1.13,35.56,-1.39,-4.09,39.14,-4.66,2.65,4.39,2.36,-1.39,-12.77
-20,-12,438,-109,-383,3919,-0.07,0.94,34.67,-1.09,-3.83,39.19,-4.66,2.65,4.26,2.38,-1.27,-12.30
-35,0,457,-34,-459,3835,-0.27,0.85,33.99,-0.34,-4.59,38.35,-4.67,2.65,4.12,2.67,-1.42,-12.29
6,3,493,-48,-398,4010,-0.21,0.78,33.60,-0.48,-3.98,40.10,-4.67,2.65,3.99,2.03,-1.45,-12.49
-4,26,606,-1,-354,3896,-0.21,0.86,33.94,-0.01,-3.54,38.96,-4.67,2.64,3.85,2.18,-1.82,-13.52
24,32,657,-56,-368,3931,-0.04,0.97,34.55,-0.56,-3.68,39.31,-4.67,2.64,3.72,1.70,-1.95,-14.09
18,32,651,-49,-343,3858,0.07,1.07,35.07,-0.49,-3.43,38.58,-4.67,2.64,3.58,1.76,-1.98,-14.15
7,29,616,-69,-389,3909,0.11,1.14,35.32,-0.69,-3.89,39.09,-4.67,2.64,3.44,1.92,-1.95,-13.90
-3,10,545,-89,-298,3888,0.08,1.09,35.11,-0.89,-2.98,38.88,-4.66,2.64,3.30,2.07,-1.64,-13.24
3,12,554,-81,-357,3891,0.09,1.05,34.98,-0.81,-3.57,38.91,-4.66,2.64,3.16,1.98,-1.66,-13.28
22,43,633,-71,-281,3868,0.21,1.21,35.34,-0.71,-2.81,38.68,-4.65,2.64,3.02,1.64,-2.18,-14.02
29,40,649,-85,-312,3985,0.37,1.33,35.77,-0.85,-3.12,39.85,-4.64,2.63,2.87,1.49,-2.18,-14.25
41,57,686,-138,-407,3862,0.58,1.55,36.38,-1.38,-4.07,38.62,-4.64,2.64,2.73,1.24,-2.50,-14.70
42,56,678,-144,-435,3875,0.78,1.73,36.87,-1.44,-4.35,38.75,-4.65,2.66,2.59,1.17,-2.55,-14.74
42,51,533,-92,-406,3914,0.96,1.87,36.44,-0.92,-4.06,39.14,-4.65,2.66,2.44,1.11,-2.52,-13.40
18,16,447,-31,-405,3994,0.97,1.78,35.52,-0.31,-4.05,39.94,-4.65,2.67,2.30,1.48,-1.96,-12.44
6,10,364,-87,-311,3896,0.91,1.66,34.19,-0.87,-3.11,38.96,-4.64,2.67,2.16,1.67,-1.83,-11.41
0,4,378,-36,-336,3880,0.82,1.52,33.08,-0.36,-3.36,38.80,-4.63,2.66,2.03,1.79,-1.70,-11.25
15,23,513,-87,-343,3926,0.83,1.51,32.90,-0.87,-3.43,39.26,-4.63,2.66,1.90,1.55,-1.98,-12.35
26,30,537,-26,-293,3910,0.91,1.54,32.88,-0.26,-2.93,39.10,-4.62,2.66,1.77,1.36,-2.10,-12.54
-9,9,550,-37,-414,3903,0.76,1.44,32.95,-0.37,-4.14,39.03,-4.62,2.66,1.64,1.94,-1.75,-12.65
0,9,552,-81,-439,3889,0.68,1.35,33.02,-0.81,-4.39,38.89,-4.62,2.67,1.51,1.83,-1.72,-12.68
-2,2,474,-79,-387,3956,0.60,1.23,32.61,-0.79,-3.87,39.56,-4.63,2.67,1.38,1.88,-1.58,-11.91
14,12,472,-32,-446,3944,0.63,1.18,32.23,-0.32,-4.46,39.44,-4.63,2.67,1.25,1.63,-1.72,-11.79
3,13,497,-109,-314,3952,0.58,1.14,32.04,-1.09,-3.14,39.52,-4.62,2.67,1.13,1.81,-1.72,-11.95
4,16,491,-38,-285,3941,0.55,1.12,31.83,-0.38,-2.85,39.41,-4.61,2.66,1.00,1.80,-1.76,-11.84
0,20,500,-9,-283,3922,0.49,1.13,31.70,-0.09,-2.83,39.22,-4.60,2.66,0.87,1.87,-1.82,-11.88
4,18,477,-53,-303,3908,0.47,1.13,31.44,-0.53,-3.03,39.08,-4.59,2.66,0.75,1.81,-1.79,-11.61
13,13,400,-168,-311,3933,0.50,1.10,30.73,-1.68,-3.11,39.33,-4.57,2.65,0.62,1.66,-1.70,-10.78
-9,-1,388,-196,-308,3897,0.40,0.98,30.03,-1.96,-3.08,38.97,-4.56,2.68,0.50,2.02,-1.47,-10.50
-6,20,352,-134,-367,3917,0.32,1.01,29.17,-1.34,-3.67,39.17,-4.57,2.68,0.39,2.00,-1.79,-9.98
10,22,351,-189,-350,3939,0.35,1.04,28.40,-1.89,-3.50,39.39,-4.58,2.70,0.28,1.76,-1.84,-9.78
6,22,372,-67,-355,3946,0.35,1.07,27.82,-0.67,-3.55,39.46,-4.58,2.69,0.17,1.82,-1.85,-9.82
9,33,376,-55,-334,3877,0.37,1.16,27.34,-0.55,-3.34,38.77,-4.58,2.69,0.06,1.76,-2.04,-9.73
2,25,396,-133,-331,3937,0.35,1.20,27.02,-1.33,-3.31,39.37,-4.57,2.69,-0.05,1.88,-1.93,-9.81
-2,22,397,-140,-322,3870,0.30,1.21,26.74,-1.40,-3.22,38.70,-4.57,2.68,-0.16,1.95,-1.89,-9.75
4,12,315,-170,-440,3882,0.29,1.17,25.99,-1.70,-4.40,38.82,-4.59,2.69,-0.26,1.87,-1.72,-8.86
-1,15,301,-134,-466,3905,0.26,1.14,25.22,-1.34,-4.66,39.05,-4.60,2.70,-0.36,1.96,-1.77,-8.56
-1,17,336,-109,-470,3907,0.23,1.13,24.75,-1.09,-4.70,39.07,-4.61,2.70,-0.45,1.97,-1.79,-8.73
6,21,350,-80,-452,3926,0.24,1.15,24.41,-0.80,-4.52,39.26,-4.62,2.71,-0.55,1.87,-1.86,-8.76
-1,4,403,-187,-454,3869,0.21,1.06,24.43,-1.87,-4.54,38.69,-4.63,2.72,-0.65,1.99,-1.58,-9.21
7,7,381,-178,-402,3921,0.23,0.99,24.31,-1.78,-4.02,39.21,-4.64,2.73,-0.74,1.87,-1.61,-8.99
1,7,295,-66,-251,3942,0.21,0.94,23.68,-0.66,-2.51,39.42,-4.63,2.72,-0.84,1.96,-1.59,-8.10
-7,9,294,-35,-260,3896,0.15,0.90,23.10,-0.35,-2.60,38.96,-4.62,2.72,-0.93,2.09,-1.61,-7.95
4,1,316,-149,-209,3932,0.16,0.81,22.72,-1.49,-2.09,39.32,-4.59,2.72,-1.02,1.91,-1.46,-8.04
3,-1,294,-153,-236,3944,0.16,0.73,22.24,-1.53,-2.36,39.44,-4.57,2.72,-1.11,1.92,-1.41,-7.73
8,14,345,-140,-214,3879,0.19,0.74,22.12,-1.40,-2.14,38.79,-4.55,2.73,-1.20,1.82,-1.64,-8.13
-6,12,379,-151,-301,3899,0.14,0.74,22.22,-1.51,-3.01,38.99,-4.54,2.72,-1.29,2.05,-1.60,-8.43
10,6,403,-218,-385,3902,0.19,0.70,22.46,-2.18,-3.85,39.02,-4.55,2.74,-1.38,1.79,-1.51,-8.69
-3,3,375,-137,-401,3856,0.15,0.65,22.50,-1.37,-4.01,38.56,-4.57,2.74,-1.47,2.01,-1.45,-8.45
-5,3,348,-40,-380,3893,0.10,0.60,22.37,-0.40,-3.80,38.93,-4.57,2.73,-1.55,2.05,-1.43,-8.19
6,9,356,-18,-342,3940,0.13,0.60,22.31,-0.18,-3.42,39.40,-4.57,2.72,-1.64,1.88,-1.52,-8.23
8,20,442,-111,-416,3880,0.17,0.66,22.77,-1.11,-4.16,38.80,-4.58,2.72,-1.73,1.84,-1.70,-9.07
2,18,465,-77,-400,3886,0.16,0.70,23.33,-0.77,-4.00,38.86,-4.58,2.72,-1.83,1.94,-1.68,-9.39
1,-1,441,-5,-339,3994,0.15,0.63,23.69,-0.05,-3.39,39.94,-4.58,2.71,-1.92,1.95,-1.37,-9.27
-9,-4,426,-106,-288,3945,0.08,0.54,23.92,-1.06,-2.88,39.45,-4.57,2.70,-2.02,2.12,-1.29,-9.19
-4,2,417,-147,-365,3898,0.05,0.50,24.07,-1.47,-3.65,38.98,-4.58,2.70,-2.11,2.06,-1.37,-9.14
5,3,408,-146,-329,3881,0.07,0.47,24.15,-1.46,-3.29,38.81,-4.58,2.69,-2.21,1.92,-1.37,-9.08
-4,-3,364,-126,-431,3910,0.04,0.40,23.96,-1.26,-4.31,39.10,-4.59,2.69,-2.30,2.07,-1.26,-8.65
-1,-1,346,-154,-453,3940,0.03,0.36,23.67,-1.54,-4.53,39.40,-4.61,2.70,-2.39,2.03,-1.28,-8.42
3,-1,300,-170,-469,3895,0.05,0.31,23.13,-1.70,-4.69,38.95,-4.62,2.71,-2.49,1.97,-1.27,-7.90
-3,-6,279,-159,-461,3914,0.02,0.25,22.52,-1.59,-4.61,39.14,-4.63,2.71,-2.58,2.08,-1.18,-7.57
0,-1,232,-147,-429,3910,0.02,0.22,21.69,-1.47,-4.29,39.10,-4.65,2.71,-2.66,2.04,-1.24,-6.96
-7,1,225,-139,-424,3902,-0.02,0.20,20.89,-1.39,-4.24,39.02,-4.66,2.71,-2.74,2.16,-1.27,-6.71
-5,-15,141,-5,-404,3890,-0.05,0.09,19.66,-0.05,-4.04,38.90,-4.67,2.70,-2.82,2.14,-0.99,-5.70
-6,-18,130,17,-380,3947,-0.08,-0.03,18.49,0.17,-3.80,39.47,-4.67,2.69,-2.90,2.17,-0.90,-5.32
-3,-13,128,43,-313,3959,-0.09,-0.11,17.42,0.43,-3.13,39.59,-4.66,2.68,-2.96,2.13,-0.95,-5.04
-9,-14,130,22,-272,3912,-0.14,-0.18,16.47,0.22,-2.72,39.12,-4.66,2.67,-3.03,2.23,-0.90,-4.83
2,3,114,-238,-403,3941,-0.11,-0.14,15.52,-2.38,-4.03,39.41,-4.67,2.68,-3.09,2.06,-1.18,-4.46
3,8,94,-238,-424,3891,-0.08,-0.08,14.54,-2.38,-4.24,38.91,-4.68,2.69,-3.15,2.04,-1.28,-4.05
0,1,72,-190,-431,3872,-0.07,-0.07,13.53,-1.90,-4.31,38.72,-4.70,2.70,-3.20,2.09,-1.18,-3.62
-2,2,73,-216,-418,3896,-0.08,-0.05,12.62,-2.16,-4.18,38.96,-4.71,2.71,-3.25,2.13,-1.21,-3.41
4,3,75,-200,-439,3905,-0.05,-0.03,11.81,-2.00,-4.39,39.05,-4.73,2.71,-3.30,2.04,-1.23,-3.23
1,4,74,-176,-450,3908,-0.04,0.00,11.08,-1.76,-4.50,39.08,-4.75,2.72,-3.34,2.08,-1.26,-3.04
-2,12,78,-165,-403,3920,-0.04,0.07,10.45,-1.65,-4.03,39.20,-4.76,2.71,-3.38,2.14,-1.40,-2.92
-1,22,114,-127,-381,3939,-0.05,0.20,10.10,-1.27,-3.81,39.39,-4.77,2.70,-3.42,2.13,-1.59,-3.14
7,27,190,-103,-338,3900,0.00,0.35,10.25,-1.03,-3.38,39.00,-4.77,2.69,-3.46,1.99,-1.70,-3.82
4,17,214,-140,-346,3859,0.03,0.42,10.53,-1.40,-3.46,38.59,-4.78,2.68,-3.50,2.04,-1.57,-4.09
1,2,213,-180,-258,3946,0.03,0.39,10.78,-1.80,-2.58,39.46,-4.76,2.68,-3.55,2.07,-1.33,-4.13
0,-3,177,-153,-269,3940,0.03,0.33,10.78,-1.53,-2.69,39.40,-4.74,2.68,-3.59,2.08,-1.23,-3.83
-5,2,178,-104,-314,3916,-0.01,0.31,10.79,-1.04,-3.14,39.16,-4.74,2.67,-3.63,2.16,-1.30,-3.83
2,1,184,-92,-257,3910,0.01,0.28,10.83,-0.92,-2.57,39.10,-4.73,2.66,-3.68,2.05,-1.27,-3.89
2,4,254,-98,-253,3915,0.02,0.28,11.30,-0.98,-2.53,39.15,-4.71,2.65,-3.72,2.04,-1.31,-4.59
1,12,290,-80,-312,3896,0.02,0.32,11.94,-0.80,-3.12,38.96,-4.71,2.63,-3.77,2.05,-1.44,-5.05
-4,1,296,-105,-425,3928,-0.00,0.30,12.55,-1.05,-4.25,39.28,-4.72,2.63,-3.82,2.14,-1.26,-5.24
-9,4,289,-109,-463,3880,-0.06,0.29,13.06,-1.09,-4.63,38.80,-4.73,2.63,-3.87,2.24,-1.31,-5.30
2,13,342,-82,-427,3923,-0.04,0.34,13.84,-0.82,-4.27,39.23,-4.74,2.62,-3.93,2.07,-1.46,-5.93
1,19,356,-51,-385,3889,-0.03,0.42,14.62,-0.51,-3.85,38.89,-4.75,2.61,-3.98,2.08,-1.57,-6.23
6,18,341,-55,-316,3894,0.01,0.49,15.24,-0.55,-3.16,38.94,-4.75,2.60,-4.05,1.99,-1.57,-6.25
-1,11,344,-18,-345,3912,0.00,0.51,15.82,-0.18,-3.45,39.12,-4.75,2.59,-4.11,2.10,-1.46,-6.41
6,16,352,-80,-375,3918,0.04,0.56,16.38,-0.80,-3.75,39.18,-4.75,2.58,-4.17,1.99,-1.55,-6.61
9,14,363,-44,-391,3854,0.09,0.59,16.96,-0.44,-3.91,38.54,-4.76,2.57,-4.24,1.93,-1.52,-6.83
1,5,370,-26,-541,3889,0.09,0.56,17.52,-0.26,-5.41,38.89,-4.77,2.57,-4.31,2.06,-1.38,-7.02
-4,14,376,-57,-593,3857,0.05,0.59,18.06,-0.57,-5.93,38.57,-4.78,2.57,-4.38,2.15,-1.52,-7.20
4,16,462,-42,-629,3935,0.07,0.63,19.07,-0.42,-6.29,39.35,-4.79,2.57,-4.46,2.03,-1.57,-8.16
-5,6,507,-9,-585,3938,0.03,0.60,20.26,-0.09,-5.85,39.38,-4.81,2.57,-4.54,2.18,-1.41,-8.82
-3,1,500,-130,-440,3918,0.01,0.55,21.28,-1.30,-4.40,39.18,-4.82,2.57,-4.62,2.16,-1.31,-9.00
-5,-8,494,-150,-425,3865,-0.02,0.44,22.17,-1.50,-4.25,38.65,-4.83,2.58,-4.71,2.21,-1.15,-9.16
-2,-1,452,-120,-404,3909,-0.03,0.39,22.71,-1.20,-4.04,39.09,-4.84,2.57,-4.80,2.17,-1.24,-8.92
-7,-15,425,-27,-360,3941,-0.07,0.26,23.03,-0.27,-3.60,39.41,-4.84,2.57,-4.89,2.26,-0.98,-8.77
-11,-13,348,-102,-415,3891,-0.13,0.16,22.85,-1.02,-4.15,38.91,-4.85,2.56,-4.98,2.34,-0.98,-8.06
-9,-6,342,-128,-434,3881,-0.17,0.10,22.65,-1.28,-4.34,38.81,-4.87,2.56,-5.07,2.33,-1.07,-7.96
-5,-11,384,-108,-338,3987,-0.18,0.03,22.73,-1.08,-3.38,39.87,-4.86,2.55,-5.16,2.27,-0.96,-8.33
-5,-11,384,-103,-350,3895,-0.20,-0.04,22.80,-1.03,-3.50,38.95,-4.86,2.54,-5.25,2.28,-0.94,-8.34
-6,-12,327,-73,-383,3907,-0.21,-0.11,22.51,-0.73,-3.83,39.07,-4.87,2.53,-5.34,2.30,-0.90,-7.78
-11,-15,336,-48,-399,3908,-0.26,-0.19,22.31,-0.48,-3.99,39.08,-4.87,2.52,-5.43,2.39,-0.82,-7.80
-3,-2,386,-40,-391,3905,-0.25,-0.19,22.43,-0.40,-3.91,39.05,-4.88,2.51,-5.52,2.27,-1.02,-8.25
-2,0,397,-109,-389,3899,-0.24,-0.17,22.61,-1.09,-3.89,38.99,-4.89,2.51,-5.61,2.25,-1.05,-8.38
-3,-3,388,-113,-386,3881,-0.23,-0.17,22.72,-1.13,-3.86,38.81,-4.90,2.50,-5.70,2.27,-1.00,-8.32
-6,-1,378,-122,-291,3874,-0.25,-0.16,22.75,-1.22,-2.91,38.74,-4.88,2.49,-5.79,2.32,-1.03,-8.24
2,6,370,-70,-367,3968,-0.21,-0.11,22.73,-0.70,-3.67,39.68,-4.88,2.48,-5.88,2.18,-1.15,-8.16
5,8,362,-63,-365,3916,-0.16,-0.05,22.67,-0.63,-3.65,39.16,-4.89,2.47,-5.97,2.12,-1.20,-8.07
-3,-3,312,-157,-333,3914,-0.16,-0.06,22.31,-1.57,-3.33,39.14,-4.88,2.46,-6.06,2.24,-1.02,-7.55
3,-3,292,-130,-327,3956,-0.13,-0.07,21.86,-1.30,-3.27,39.56,-4.87,2.45,-6.15,2.14,-1.01,-7.27
1,3,277,-76,-358,3933,-0.11,-0.05,21.36,-0.76,-3.58,39.33,-4.87,2.44,-6.23,2.16,-1.11,-7.02
0,10,291,-21,-419,3920,-0.10,0.02,21.00,-0.21,-4.19,39.20,-4.88,2.43,-6.31,2.18,-1.23,-7.04
4,24,370,-11,-548,3935,-0.06,0.16,21.16,-0.11,-5.48,39.35,-4.89,2.43,-6.40,2.11,-1.48,-7.75
8,33,383,-20,-584,3904,-0.01,0.35,21.38,-0.20,-5.84,39.04,-4.90,2.43,-6.48,2.04,-1.68,-7.90
0,17,410,-175,-607,3903,-0.01,0.42,21.74,-1.75,-6.07,39.03,-4.92,2.44,-6.57,2.17,-1.46,-8.21
1,15,413,-180,-572,3874,-0.00,0.47,22.09,-1.80,-5.72,38.74,-4.93,2.45,-6.66,2.16,-1.45,-8.31
-2,1,346,-151,-540,3946,-0.01,0.43,21.99,-1.51,-5.40,39.46,-4.95,2.46,-6.74,2.21,-1.23,-7.72
-1,5,329,-138,-487,3868,-0.02,0.41,21.80,-1.38,-4.87,38.68,-4.96,2.46,-6.83,2.20,-1.29,-7.52
1,-1,280,-194,-365,3939,-0.01,0.37,21.32,-1.94,-3.65,39.39,-4.97,2.48,-6.91,2.17,-1.19,-6.99
1,-1,277,-126,-337,3894,-0.00,0.32,20.88,-1.26,-3.37,38.94,-4.97,2.47,-7.00,2.17,-1.17,-6.85
2,3,228,-151,-294,3881,0.01,0.31,20.18,-1.51,-2.94,38.81,-4.95,2.48,-7.08,2.14,-1.23,-6.26
3,6,220,-143,-263,3928,0.03,0.32,19.51,-1.43,-2.63,39.28,-4.93,2.48,-7.16,2.11,-1.28,-6.03
7,3,168,-131,-344,3967,0.07,0.30,18.58,-1.31,-3.44,39.67,-4.92,2.47,-7.23,2.04,-1.22,-5.36
-2,-1,178,-94,-406,3815,0.05,0.27,17.81,-0.94,-4.06,38.15,-4.93,2.46,-7.30,2.19,-1.15,-5.26
-11,0,164,-124,-404,3863,-0.02,0.24,17.03,-1.24,-4.04,38.63,-4.95,2.46,-7.37,2.35,-1.15,-4.95
-4,4,198,-78,-454,3905,-0.05,0.24,16.53,-0.78,-4.54,39.05,-4.96,2.45,-7.43,2.26,-1.21,-5.11
-10,5,254,-172,-430,3923,-0.10,0.25,16.43,-1.72,-4.30,39.23,-4.97,2.46,-7.50,2.37,-1.23,-5.56
5,5,265,-163,-455,3904,-0.06,0.25,16.40,-1.63,-4.55,39.04,-4.99,2.47,-7.56,2.14,-1.24,-5.64
-7,0,292,-79,-446,3983,-0.10,0.23,16.54,-0.79,-4.46,39.83,-5.00,2.46,-7.63,2.34,-1.15,-5.90
-8,2,285,-70,-267,4043,-0.14,0.22,16.63,-0.70,-2.67,40.43,-4.99,2.45,-7.69,2.36,-1.18,-5.85
-2,-2,249,-152,-367,3838,-0.14,0.18,16.48,-1.52,-3.67,38.38,-5.00,2.45,-7.76,2.27,-1.10,-5.51
2,-5,215,-146,-271,3969,-0.11,0.13,16.15,-1.46,-2.71,39.69,-4.98,2.45,-7.82,2.19,-1.04,-5.13
-12,2,195,-133,-150,3933,-0.17,0.13,15.72,-1.33,-1.50,39.33,-4.96,2.46,-7.89,2.42,-1.15,-4.86
-1,12,195,-182,-176,3949,-0.16,0.19,15.34,-1.82,-1.76,39.49,-4.94,2.46,-7.95,2.24,-1.33,-4.76
9,15,176,-102,-375,3919,-0.09,0.26,14.88,-1.02,-3.75,39.19,-4.95,2.45,-8.01,2.07,-1.39,-4.49
4,8,183,-74,-416,3931,-0.06,0.29,14.51,-0.74,-4.16,39.31,-4.96,2.45,-8.06,2.14,-1.29,-4.45
4,6,216,-123,-410,3948,-0.03,0.30,14.37,-1.23,-4.10,39.48,-4.97,2.44,-8.12,2.13,-1.26,-4.70
7,11,230,-96,-445,3864,0.02,0.33,14.34,-0.96,-4.45,38.64,-4.98,2.44,-8.18,2.08,-1.34,-4.80
2,25,280,-177,-462,3875,0.03,0.45,14.61,-1.77,-4.62,38.75,-5.00,2.45,-8.24,2.16,-1.60,-5.29
3,12,295,-47,-406,3975,0.04,0.48,14.95,-0.47,-4.06,39.75,-5.00,2.44,-8.29,2.14,-1.40,-5.49
4,20,371,-92,-555,3941,0.06,0.55,15.72,-0.92,-5.55,39.41,-5.02,2.44,-8.36,2.13,-1.55,-6.32
-10,10,415,-196,-473,3883,-0.00,0.56,16.68,-1.96,-4.73,38.83,-5.03,2.45,-8.42,2.37,-1.40,-6.91
2,4,357,-117,-336,3901,0.01,0.53,17.19,-1.17,-3.36,39.01,-5.03,2.44,-8.49,2.18,-1.30,-6.54
-2,5,330,-120,-247,3995,-0.00,0.51,17.48,-1.20,-2.47,39.95,-5.01,2.44,-8.56,2.23,-1.30,-6.38
-16,4,256,-137,-164,3985,-0.10,0.48,17.30,-1.37,-1.64,39.85,-4.99,2.45,-8.63,2.47,-1.28,-5.70
2,1,256,-174,-162,3977,-0.08,0.44,17.13,-1.74,-1.62,39.77,-4.97,2.45,-8.70,2.18,-1.23,-5.66
6,11,243,-233,-394,3835,-0.03,0.46,16.90,-2.33,-3.94,38.35,-4.97,2.47,-8.77,2.11,-1.40,-5.49
6,14,265,-248,-423,3921,0.01,0.50,16.82,-2.48,-4.23,39.21,-4.99,2.50,-8.83,2.10,-1.46,-5.65
5,-18,239,-58,-322,3943,0.04,0.34,16.60,-0.58,-3.22,39.43,-4.98,2.48,-8.90,2.10,-0.92,-5.37
-7,6,207,10,-353,3940,-0.01,0.34,16.20,0.10,-3.53,39.40,-4.98,2.47,-8.96,2.30,-1.28,-5.00
-4,3,259,-138,-497,3855,-0.03,0.33,16.16,-1.38,-4.97,38.55,-4.99,2.48,-9.03,2.27,-1.24,-5.43
-16,-6,254,35,-307,3847,-0.13,0.26,16.10,0.35,-3.07,38.47,-4.99,2.47,-9.09,2.48,-1.07,-5.36
-1,-6,260,-30,-483,3875,-0.12,0.20,16.07,-0.30,-4.83,38.75,-5.00,2.46,-9.15,2.25,-1.05,-5.41
-12,-10,266,-28,-416,3874,-0.18,0.11,16.09,-0.28,-4.16,38.74,-5.01,2.45,-9.22,2.44,-0.96,-5.46
-26,1,298,-31,-342,3745,-0.32,0.11,16.30,-0.31,-3.42,37.45,-5.01,2.44,-9.28,2.70,-1.12,-5.77
-8,7,311,-51,-441,4107,-0.34,0.14,16.56,-0.51,-4.41,41.07,-5.01,2.43,-9.35,2.43,-1.22,-5.94
2,-2,323,-83,-432,3951,-0.29,0.11,16.88,-0.83,-4.32,39.51,-5.03,2.42,-9.41,2.27,-1.07,-6.11
2,-1,313,-85,-428,3888,-0.25,0.10,17.10,-0.85,-4.28,38.88,-5.04,2.41,-9.48,2.26,-1.08,-6.08
-3,10,324,-108,-391,3924,-0.24,0.15,17.37,-1.08,-3.91,39.24,-5.05,2.41,-9.55,2.34,-1.26,-6.23
-2,6,328,-27,-381,3947,-0.23,0.17,17.63,-0.27,-3.81,39.47,-5.05,2.40,-9.62,2.32,-1.20,-6.32
1,4,300,-186,-460,3839,-0.20,0.18,17.70,-1.86,-4.60,38.39,-5.06,2.41,-9.69,2.28,-1.17,-6.09
4,6,304,-107,-532,3912,-0.16,0.20,17.78,-1.07,-5.32,39.12,-5.08,2.41,-9.76,2.22,-1.21,-6.14
-1,9,292,-30,-323,3866,-0.15,0.23,17.78,-0.30,-3.23,38.66,-5.07,2.40,-9.83,2.29,-1.26,-6.04
-5,-1,284,-124,-433,3846,-0.16,0.20,17.74,-1.24,-4.33,38.46,-5.09,2.40,-9.90,2.37,-1.10,-5.95
-10,4,259,6,-416,3862,-0.21,0.21,17.54,0.06,-4.16,38.62,-5.09,2.39,-9.97,2.46,-1.17,-5.69
-13,-4,260,-70,-365,3966,-0.27,0.16,17.38,-0.70,-3.65,39.66,-5.09,2.38,-10.04,2.52,-1.03,-5.65
-6,7,243,-119,-404,3966,-0.28,0.19,17.12,-1.19,-4.04,39.66,-5.11,2.37,-10.11,2.42,-1.21,-5.44
-2,16,203,-129,-379,3837,-0.26,0.27,16.65,-1.29,-3.79,38.37,-5.12,2.37,-10.17,2.36,-1.37,-4.99
3,17,198,-70,-550,3930,-0.22,0.34,16.19,-0.70,-5.50,39.30,-5.13,2.37,-10.24,2.28,-1.40,-4.83
0,8,215,-51,-534,3830,-0.20,0.36,15.88,-0.51,-5.34,38.30,-5.15,2.36,-10.30,2.32,-1.27,-4.90
-4,2,194,-173,-264,3849,-0.20,0.33,15.48,-1.73,-2.64,38.49,-5.13,2.37,-10.36,2.38,-1.18,-4.62
9,20,191,-197,-417,3935,-0.13,0.42,15.10,-1.97,-4.17,39.35,-5.14,2.39,-10.42,2.16,-1.49,-4.50
-9,-4,153,-68,-345,3905,-0.17,0.36,14.52,-0.68,-3.45,39.05,-5.14,2.38,-10.48,2.45,-1.09,-4.03
1,5,118,-127,-371,3877,-0.14,0.35,13.79,-1.27,-3.71,38.77,-5.15,2.37,-10.53,2.29,-1.23,-3.56
-7,-24,115,5,-293,3908,-0.17,0.17,13.11,0.05,-2.93,39.08,-5.14,2.36,-10.59,2.42,-0.72,-3.37
-14,-22,67,-134,-331,3882,-0.24,0.02,12.21,-1.34,-3.31,38.82,-5.13,2.35,-10.64,2.54,-0.70,-2.74
12,-14,104,-102,-303,3896,-0.14,-0.07,11.62,-1.02,-3.03,38.96,-5.12,2.33,-10.68,2.11,-0.79,-2.91
-23,-7,135,-99,-378,3784,-0.27,-0.10,11.28,-0.99,-3.78,37.84,-5.13,2.32,-10.73,2.69,-0.88,-3.09
-6,-27,101,-57,-426,3934,-0.28,-0.26,10.77,-0.57,-4.26,39.34,-5.13,2.31,-10.77,2.44,-0.53,-2.68
2,-11,118,91,-441,3964,-0.24,-0.30,10.41,0.91,-4.41,39.64,-5.14,2.30,-10.81,2.30,-0.75,-2.73
-3,-6,212,85,-616,3912,-0.23,-0.31,10.66,0.85,-6.16,39.12,-5.15,2.29,-10.85,2.38,-0.82,-3.59
-6,-17,237,91,-614,3901,-0.25,-0.38,11.04,0.91,-6.14,39.01,-5.17,2.28,-10.90,2.44,-0.63,-3.89
-56,-70,205,93,-625,3959,-0.56,-0.77,11.19,0.93,-6.25,39.59,-5.18,2.26,-10.94,3.31,0.31,-3.65
-95,-79,185,152,-471,3792,-1.09,-1.17,11.20,1.52,-4.71,37.92,-5.19,2.25,-10.99,4.06,0.57,-3.48
-208,-179,109,52,-359,3885,-2.25,-2.15,10.74,0.52,-3.59,38.85,-5.20,2.22,-11.03,6.14,2.41,-2.72
-207,-202,106,-101,-527,3891,-3.29,-3.17,10.32,-1.01,-5.27,38.91,-5.23,2.21,-11.07,6.46,3.08,-2.59
-62,-82,323,-351,-206,3904,-3.33,-3.35,11.26,-3.51,-2.06,39.04,-5.23,2.22,-11.12,4.26,1.30,-4.65
-38,-57,334,-359,-187,3888,-3.23,-3.36,12.17,-3.59,-1.87,38.88,-5.23,2.22,-11.17,3.87,0.92,-4.96
-11,-32,241,-259,-127,3916,-2.98,-3.22,12.42,-2.59,-1.27,39.16,-5.22,2.22,-11.22,3.37,0.50,-4.23
-14,-34,221,-279,-189,3897,-2.76,-3.11,12.53,-2.79,-1.89,38.97,-5.21,2.22,-11.27,3.35,0.49,-4.08
-14,-20,131,-149,-346,3983,-2.57,-2.92,12.07,-1.49,-3.46,39.83,-5.20,2.21,-11.32,3.29,0.22,-3.20
-10,-17,102,-133,-276,3872,-2.38,-2.73,11.49,-1.33,-2.76,38.72,-5.19,2.20,-11.37,3.16,0.13,-2.82
4,7,84,-85,-316,3853,-2.12,-2.41,10.85,-0.85,-3.16,38.53,-5.19,2.18,-11.41,2.87,-0.33,-2.51
39,58,69,-64,-413,3745,-1.67,-1.82,10.19,-0.64,-4.13,37.45,-5.21,2.16,-11.45,2.21,-1.28,-2.22
-2,11,111,-84,-540,3951,-1.51,-1.57,9.85,-0.84,-5.40,39.51,-5.23,2.15,-11.49,2.79,-0.63,-2.49
-4,2,131,-122,-578,3944,-1.38,-1.40,9.66,-1.22,-5.78,39.44,-5.25,2.15,-11.53,2.80,-0.55,-2.61
-9,2,209,-63,-598,3969,-1.30,-1.25,9.97,-0.63,-5.98,39.69,-5.27,2.14,-11.57,2.86,-0.59,-3.34
-8,9,235,-84,-566,3943,-1.22,-1.07,10.41,-0.84,-5.66,39.43,-5.30,2.13,-11.61,2.82,-0.75,-3.67
-3,22,280,-81,-586,3933,-1.12,-0.83,11.07,-0.81,-5.86,39.33,-5.32,2.13,-11.66,2.73,-1.02,-4.20
-5,25,287,-74,-554,3934,-1.03,-0.59,11.72,-0.74,-5.54,39.34,-5.34,2.12,-11.70,2.74,-1.14,-4.41
-3,24,296,-40,-534,3928,-0.95,-0.39,12.35,-0.40,-5.34,39.28,-5.35,2.12,-11.75,2.69,-1.18,-4.64
-11,25,289,8,-547,3895,-0.92,-0.20,12.88,0.08,-5.47,38.95,-5.37,2.11,-11.80,2.81,-1.25,-4.70
-6,22,307,-32,-580,3862,-0.87,-0.04,13.46,-0.32,-5.80,38.62,-5.39,2.11,-11.85,2.73,-1.25,-4.99
-13,19,325,-14,-485,3940,-0.86,0.08,14.10,-0.14,-4.85,39.40,-5.40,2.10,-11.91,2.84,-1.24,-5.29
-8,7,383,-41,-454,3988,-0.82,0.11,15.03,-0.41,-4.54,39.88,-5.41,2.09,-11.97,2.75,-1.06,-6.00
-5,-1,393,-69,-437,3892,-0.77,0.10,15.92,-0.69,-4.37,38.92,-5.42,2.08,-12.03,2.70,-0.93,-6.29
-12,3,444,-76,-470,3859,-0.77,0.10,17.04,-0.76,-4.70,38.59,-5.44,2.08,-12.10,2.81,-0.99,-6.99
-9,9,455,-74,-516,3868,-0.74,0.15,18.11,-0.74,-5.16,38.68,-5.46,2.08,-12.17,2.77,-1.10,-7.33
-1,22,494,-91,-551,3847,-0.68,0.27,19.31,-0.91,-5.51,38.47,-5.48,2.08,-12.25,2.63,-1.33,-7.95
-17,-2,486,22,-533,3960,-0.71,0.23,20.34,0.22,-5.33,39.60,-5.49,2.08,-12.33,2.89,-0.95,-8.12
-7,8,473,-11,-502,3933,-0.68,0.26,21.20,-0.11,-5.02,39.33,-5.50,2.07,-12.41,2.74,-1.11,-8.21
-11,10,483,-24,-422,3934,-0.68,0.29,22.02,-0.24,-4.22,39.34,-5.51,2.07,-12.50,2.80,-1.15,-8.48
-12,8,505,-125,-440,3873,-0.69,0.31,22.90,-1.25,-4.40,38.73,-5.52,2.07,-12.59,2.82,-1.13,-8.87
-19,9,508,-101,-378,3967,-0.73,0.33,23.71,-1.01,-3.78,39.67,-5.52,2.06,-12.68,2.94,-1.15,-9.09
-13,17,535,-123,-397,3952,-0.74,0.40,24.60,-1.23,-3.97,39.52,-5.53,2.06,-12.78,2.86,-1.29,-9.52
-18,15,544,-81,-433,3914,-0.78,0.46,25.46,-0.81,-4.33,39.14,-5.54,2.06,-12.88,2.95,-1.27,-9.79
-15,22,578,-55,-629,3828,-0.79,0.54,26.44,-0.55,-6.29,38.28,-5.56,2.07,-12.99,2.92,-1.41,-10.31
-14,16,585,-16,-629,3883,-0.80,0.59,27.36,-0.16,-6.29,38.83,-5.57,2.07,-13.10,2.91,-1.33,-10.58
-13,5,596,-111,-400,3962,-0.80,0.56,28.26,-1.11,-4.00,39.62,-5.58,2.07,-13.21,2.90,-1.16,-10.88
-12,16,596,-153,-418,3884,-0.79,0.60,29.07,-1.53,-4.18,38.84,-5.60,2.09,-13.32,2.89,-1.35,-11.07
-17,16,584,-96,-369,3893,-0.81,0.64,29.73,-0.96,-3.69,38.93,-5.59,2.08,-13.44,2.97,-1.35,-11.12
-21,11,564,-54,-390,3865,-0.86,0.64,30.20,-0.54,-3.90,38.65,-5.59,2.08,-13.56,3.04,-1.28,-11.05
-11,15,485,-41,-386,3880,-0.84,0.67,30.13,-0.41,-3.86,38.80,-5.59,2.07,-13.68,2.89,-1.35,-10.36
-5,15,445,-53,-435,3879,-0.79,0.69,29.84,-0.53,-4.35,38.79,-5.60,2.07,-13.80,2.78,-1.35,-9.94
5,22,374,-126,-312,3973,-0.68,0.76,29.13,-1.26,-3.12,39.73,-5.58,2.08,-13.92,2.59,-1.48,-9.16
7,30,368,-152,-404,3980,-0.57,0.87,28.46,-1.52,-4.04,39.80,-5.60,2.10,-14.03,2.53,-1.65,-8.94
0,10,386,-267,-320,3971,-0.51,0.84,27.97,-2.67,-3.20,39.71,-5.59,2.14,-14.14,2.61,-1.35,-8.97
-6,-8,388,-211,-296,3938,-0.50,0.71,27.54,-2.11,-2.96,39.38,-5.57,2.16,-14.25,2.69,-1.04,-8.88
-13,15,369,-107,-520,3944,-0.53,0.73,27.04,-1.07,-5.20,39.44,-5.58,2.17,-14.36,2.82,-1.40,-8.59
-7,7,359,-105,-526,3873,-0.52,0.70,26.53,-1.05,-5.26,38.73,-5.60,2.18,-14.46,2.73,-1.28,-8.37
1,8,350,-8,-506,3892,-0.46,0.68,26.01,-0.08,-5.06,38.92,-5.61,2.17,-14.56,2.59,-1.29,-8.16
-7,0,347,23,-483,3847,-0.46,0.61,25.52,0.23,-4.83,38.47,-5.62,2.17,-14.66,2.72,-1.14,-8.02
0,8,354,-19,-433,3912,-0.41,0.60,25.13,-0.19,-4.33,39.12,-5.62,2.17,-14.76,2.60,-1.26,-7.97
1,12,358,-52,-445,3880,-0.36,0.61,24.80,-0.52,-4.45,38.80,-5.63,2.16,-14.86,2.57,-1.32,-7.92
-1,2,365,-105,-353,3868,-0.33,0.56,24.55,-1.05,-3.53,38.68,-5.62,2.16,-14.96,2.59,-1.15,-7.91
2,5,370,-84,-341,3913,-0.29,0.54,24.35,-0.84,-3.41,39.13,-5.60,2.16,-15.06,2.52,-1.19,-7.90
-10,-5,383,-187,-243,3854,-0.32,0.45,24.25,-1.87,-2.43,38.54,-5.58,2.17,-15.15,2.71,-1.02,-7.98
-18,-4,389,-167,-215,3823,-0.40,0.38,24.20,-1.67,-2.15,38.23,-5.56,2.19,-15.25,2.84,-1.02,-8.01
-11,2,383,-148,-265,3988,-0.42,0.36,24.12,-1.48,-2.65,39.88,-5.54,2.20,-15.35,2.74,-1.11,-7.94
-15,9,379,-130,-322,3973,-0.47,0.38,24.02,-1.30,-3.22,39.73,-5.52,2.20,-15.44,2.80,-1.22,-7.87
-3,11,374,-112,-478,3884,-0.44,0.41,23.90,-1.12,-4.78,38.84,-5.54,2.21,-15.54,2.62,-1.26,-7.79
-2,13,372,-97,-449,3903,-0.41,0.44,23.78,-0.97,-4.49,39.03,-5.55,2.21,-15.63,2.60,-1.30,-7.74
-7,15,404,-112,-478,3807,-0.41,0.49,23.86,-1.12,-4.78,38.07,-5.57,2.21,-15.73,2.68,-1.35,-8.03
-8,27,411,-44,-468,3844,-0.42,0.61,23.98,-0.44,-4.68,38.44,-5.58,2.21,-15.82,2.71,-1.57,-8.11
2,25,407,-75,-513,3838,-0.37,0.70,24.07,-0.75,-5.13,38.38,-5.59,2.21,-15.92,2.54,-1.57,-8.09
1,9,414,-66,-509,3896,-0.32,0.68,24.19,-0.66,-5.09,38.96,-5.60,2.21,-16.01,2.55,-1.32,-8.17
-4,10,466,-102,-457,3840,-0.32,0.68,24.61,-1.02,-4.57,38.40,-5.62,2.22,-16.11,2.63,-1.33,-8.70
-12,16,484,-93,-411,3893,-0.36,0.71,25.10,-0.93,-4.11,38.93,-5.62,2.21,-16.21,2.77,-1.43,-8.97
-15,20,546,-117,-366,3902,-0.41,0.76,25.92,-1.17,-3.66,39.02,-5.61,2.21,-16.31,2.82,-1.51,-9.68
-14,15,560,-145,-458,3838,-0.46,0.77,26.75,-1.45,-4.58,38.38,-5.63,2.22,-16.42,2.83,-1.44,-9.99
-13,12,576,-161,-541,3871,-0.49,0.77,27.58,-1.61,-5.41,38.71,-5.64,2.24,-16.53,2.83,-1.40,-10.32
-10,8,585,-64,-484,3877,-0.50,0.74,28.39,-0.64,-4.84,38.77,-5.66,2.24,-16.64,2.79,-1.33,-10.58
-13,-3,594,-146,-510,3910,-0.53,0.65,29.18,-1.46,-5.10,39.10,-5.67,2.25,-16.75,2.86,-1.14,-10.84
-13,-2,598,-79,-498,3786,-0.56,0.57,29.91,-0.79,-4.98,37.86,-5.69,2.26,-16.87,2.87,-1.14,-11.04
-7,4,606,3,-392,3872,-0.54,0.54,30.61,0.03,-3.92,38.72,-5.68,2.25,-16.99,2.77,-1.22,-11.26
-8,9,619,12,-429,3864,-0.54,0.54,31.33,0.12,-4.29,38.64,-5.69,2.25,-17.12,2.79,-1.29,-11.54
-19,8,648,25,-392,3987,-0.60,0.53,32.15,0.25,-3.92,39.87,-5.68,2.25,-17.25,2.97,-1.27,-11.97
-12,5,650,-10,-464,3978,-0.61,0.51,32.90,-0.10,-4.64,39.78,-5.69,2.25,-17.38,2.87,-1.22,-12.16
-12,10,646,8,-392,3901,-0.63,0.52,33.55,0.08,-3.92,39.01,-5.68,2.24,-17.51,2.88,-1.30,-12.27
-4,20,638,-52,-395,3892,-0.59,0.59,34.09,-0.52,-3.95,38.92,-5.68,2.24,-17.65,2.74,-1.47,-12.32
-18,8,593,-142,-387,3920,-0.64,0.58,34.30,-1.42,-3.87,39.20,-5.68,2.24,-17.78,2.97,-1.28,-11.98
-10,14,581,-118,-439,3866,-0.64,0.61,34.41,-1.18,-4.39,38.66,-5.69,2.24,-17.92,2.85,-1.39,-11.90
-8,16,552,-121,-333,3870,-0.62,0.65,34.34,-1.21,-3.33,38.70,-5.67,2.25,-18.06,2.81,-1.43,-11.62
-20,7,545,-116,-338,3989,-0.68,0.62,34.23,-1.16,-3.38,39.89,-5.65,2.26,-18.19,3.00,-1.29,-11.53
-6,15,515,-81,-329,3983,-0.65,0.65,33.95,-0.81,-3.29,39.83,-5.64,2.26,-18.33,2.77,-1.42,-11.20
-10,-8,500,-74,-336,3899,-0.65,0.54,33.60,-0.74,-3.36,38.99,-5.63,2.26,-18.46,2.83,-1.04,-10.98
0,-7,460,1,-411,3979,-0.58,0.44,33.05,0.01,-4.11,39.79,-5.63,2.25,-18.59,2.65,-1.02,-10.50
-5,13,458,37,-324,3929,-0.55,0.48,32.54,0.37,-3.24,39.29,-5.62,2.25,-18.72,2.72,-1.33,-10.35
-5,9,463,-67,-483,3930,-0.53,0.48,32.11,-0.67,-4.83,39.30,-5.63,2.25,-18.85,2.71,-1.28,-10.28
-3,11,462,-38,-514,3800,-0.49,0.50,31.71,-0.38,-5.14,38.00,-5.64,2.26,-18.98,2.68,-1.31,-10.17
-10,20,451,-30,-420,3836,-0.51,0.57,31.29,-0.30,-4.20,38.36,-5.64,2.25,-19.10,2.79,-1.47,-9.97
-12,3,444,-5,-497,3903,-0.53,0.54,30.87,-0.05,-4.97,39.03,-5.65,2.25,-19.22,2.83,-1.20,-9.80
-9,10,431,-42,-402,3895,-0.53,0.54,30.41,-0.42,-4.02,38.95,-5.65,2.25,-19.34,2.79,-1.31,-9.57
-5,7,426,-37,-389,3950,-0.51,0.53,29.97,-0.37,-3.89,39.50,-5.65,2.25,-19.46,2.72,-1.26,-9.41
-9,15,411,-172,-324,3858,-0.51,0.57,29.48,-1.72,-3.24,38.58,-5.63,2.27,-19.58,2.77,-1.40,-9.16
-18,5,406,-137,-338,3902,-0.57,0.54,29.01,-1.37,-3.38,39.02,-5.61,2.27,-19.70,2.92,-1.24,-9.00
-1,11,373,-128,-350,3954,-0.52,0.56,28.38,-1.28,-3.50,39.54,-5.59,2.27,-19.81,2.63,-1.34,-8.56
-5,2,358,-89,-367,3907,-0.50,0.51,27.73,-0.89,-3.67,39.07,-5.58,2.27,-19.92,2.69,-1.19,-8.27
1,0,326,-30,-473,3884,-0.44,0.46,26.95,-0.30,-4.73,38.84,-5.59,2.27,-20.03,2.58,-1.14,-7.80
-6,2,318,-22,-498,3862,-0.43,0.43,26.19,-0.22,-4.98,38.62,-5.60,2.27,-20.13,2.69,-1.16,-7.55
-2,9,312,-21,-539,3864,-0.40,0.44,25.47,-0.21,-5.39,38.64,-5.61,2.27,-20.23,2.62,-1.27,-7.32
8,5,314,-48,-518,3891,-0.31,0.43,24.84,-0.48,-5.18,38.91,-5.63,2.27,-20.33,2.45,-1.20,-7.18
-7,10,324,-48,-373,3963,-0.33,0.44,24.33,-0.48,-3.73,39.63,-5.62,2.26,-20.43,2.68,-1.28,-7.13
-12,1,318,-29,-417,3906,-0.37,0.41,23.84,-0.29,-4.17,39.06,-5.62,2.25,-20.52,2.77,-1.13,-6.96
-7,18,302,-24,-462,3853,-0.37,0.48,23.30,-0.24,-4.62,38.53,-5.63,2.25,-20.61,2.70,-1.41,-6.69
-8,9,304,-42,-481,3972,-0.38,0.48,22.82,-0.42,-4.81,39.72,-5.64,2.24,-20.70,2.72,-1.27,-6.58
-1,9,314,-125,-459,3906,-0.35,0.49,22.46,-1.25,-4.59,39.06,-5.65,2.25,-20.79,2.61,-1.28,-6.57
-2,8,316,-138,-445,3897,-0.33,0.49,22.14,-1.38,-4.45,38.97,-5.67,2.25,-20.88,2.63,-1.26,-6.51
-8,-3,331,-100,-372,3975,-0.34,0.42,21.94,-1.00,-3.72,39.75,-5.66,2.25,-20.97,2.72,-1.07,-6.58
-9,16,334,-87,-374,3821,-0.36,0.48,21.79,-0.87,-3.74,38.21,-5.66,2.24,-21.05,2.74,-1.38,-6.57
-4,13,324,-131,-421,3999,-0.35,0.51,21.58,-1.31,-4.21,39.99,-5.67,2.24,-21.14,2.66,-1.34,-6.43
-4,6,311,-54,-412,3799,-0.34,0.49,21.32,-0.54,-4.12,37.99,-5.67,2.23,-21.22,2.66,-1.22,-6.25
-2,12,281,30,-392,3902,-0.32,0.52,20.91,0.30,-3.92,39.02,-5.67,2.22,-21.31,2.62,-1.32,-5.89
-3,7,274,20,-380,3958,-0.31,0.51,20.49,0.20,-3.80,39.58,-5.67,2.21,-21.39,2.63,-1.24,-5.72
-1,-1,244,6,-469,3929,-0.28,0.45,19.93,0.06,-4.69,39.29,-5.67,2.21,-21.47,2.60,-1.09,-5.33
-4,6,246,43,-496,3885,-0.28,0.44,19.43,0.43,-4.96,38.85,-5.68,2.20,-21.54,2.65,-1.20,-5.22
-10,10,275,12,-432,3891,-0.31,0.46,19.17,0.12,-4.32,38.91,-5.69,2.19,-21.62,2.75,-1.26,-5.40
-9,8,285,-1,-451,3934,-0.33,0.46,18.99,-0.01,-4.51,39.34,-5.69,2.18,-21.70,2.74,-1.22,-5.44
-9,2,278,-129,-432,3883,-0.36,0.43,18.79,-1.29,-4.32,38.83,-5.71,2.19,-21.77,2.76,-1.12,-5.32
-5,7,272,-146,-445,3897,-0.35,0.43,18.57,-1.46,-4.45,38.97,-5.72,2.19,-21.84,2.70,-1.20,-5.22
-5,1,260,-94,-432,3884,-0.35,0.39,18.30,-0.94,-4.32,38.84,-5.73,2.19,-21.91,2.70,-1.10,-5.04
1,6,264,-40,-455,3914,-0.31,0.39,18.08,-0.40,-4.55,39.14,-5.74,2.18,-21.99,2.60,-1.17,-5.02
-3,0,263,1,-413,3937,-0.29,0.35,17.87,0.01,-4.13,39.37,-5.74,2.17,-22.06,2.66,-1.06,-4.96
1,7,264,-12,-405,3872,-0.26,0.36,17.70,-0.12,-4.05,38.72,-5.74,2.16,-22.13,2.59,-1.17,-4.92
-3,2,256,-39,-450,3925,-0.25,0.33,17.49,-0.39,-4.50,39.25,-5.75,2.15,-22.20,2.65,-1.08,-4.80
-2,0,253,-39,-446,3872,-0.24,0.30,17.28,-0.39,-4.46,38.72,-5.75,2.15,-22.26,2.63,-1.04,-4.72
-5,6,228,-74,-416,3881,-0.24,0.31,16.95,-0.74,-4.16,38.81,-5.76,2.14,-22.33,2.68,-1.13,-4.42
-2,3,216,-68,-417,3944,-0.23,0.30,16.57,-0.68,-4.17,39.44,-5.76,2.13,-22.40,2.64,-1.07,-4.22
-5,0,206,-82,-434,3877,-0.24,0.27,16.17,-0.82,-4.34,38.77,-5.77,2.12,-22.46,2.69,-1.01,-4.04
2,12,208,-93,-414,3894,-0.20,0.31,15.82,-0.93,-4.14,38.94,-5.78,2.11,-22.52,2.57,-1.21,-3.97
-1,8,209,-51,-361,3926,-0.19,0.33,15.51,-0.51,-3.61,39.26,-5.77,2.10,-22.59,2.61,-1.15,-3.90
-1,11,205,-51,-358,3958,-0.18,0.36,15.21,-0.51,-3.58,39.58,-5.76,2.09,-22.65,2.60,-1.20,-3.79
-2,6,191,-8,-475,3895,-0.17,0.36,14.86,-0.08,-4.75,38.95,-5.77,2.08,-22.71,2.62,-1.12,-3.58
-6,3,178,-38,-490,3897,-0.19,0.35,14.46,-0.38,-4.90,38.97,-5.78,2.08,-22.76,2.69,-1.06,-3.37
-3,5,145,-26,-497,3914,-0.19,0.34,13.90,-0.26,-4.97,39.14,-5.79,2.07,-22.82,2.65,-1.09,-2.95
-1,2,141,-25,-496,3891,-0.18,0.32,13.37,-0.25,-4.96,38.91,-5.80,2.06,-22.87,2.62,-1.04,-2.79
-1,6,143,24,-490,3909,-0.17,0.32,12.90,0.24,-4.90,39.09,-5.81,2.05,-22.92,2.62,-1.09,-2.69
-1,9,151,13,-480,3882,-0.15,0.35,12.53,0.13,-4.80,38.82,-5.81,2.04,-22.97,2.62,-1.14,-2.67
-2,0,152,-30,-478,3903,-0.15,0.31,12.21,-0.30,-4.78,39.03,-5.82,2.03,-23.02,2.64,-0.99,-2.60
-1,4,158,-18,-486,3900,-0.14,0.31,11.95,-0.18,-4.86,39.00,-5.83,2.03,-23.07,2.63,-1.05,-2.58
-10,2,175,-31,-506,3953,-0.19,0.29,11.82,-0.31,-5.06,39.53,-5.85,2.02,-23.11,2.78,-1.01,-2.69
-2,2,166,-62,-469,3973,-0.18,0.27,11.65,-0.62,-4.69,39.73,-5.86,2.01,-23.16,2.66,-1.00,-2.57
-7,4,185,-29,-511,3881,-0.21,0.27,11.62,-0.29,-5.11,38.81,-5.87,2.00,-23.20,2.75,-1.02,-2.72
-2,5,189,-38,-494,3903,-0.20,0.27,11.61,-0.38,-4.94,39.03,-5.88,1.99,-23.25,2.68,-1.04,-2.75
5,12,190,-111,-412,3912,-0.15,0.32,11.61,-1.11,-4.12,39.12,-5.88,1.98,-23.30,2.56,-1.15,-2.75
2,6,191,-73,-365,3920,-0.12,0.32,11.61,-0.73,-3.65,39.20,-5.87,1.97,-23.34,2.59,-1.06,-2.76
-5,6,181,-99,-360,3874,-0.14,0.33,11.55,-0.99,-3.60,38.74,-5.86,1.97,-23.39,2.70,-1.06,-2.66
1,15,164,-141,-337,3904,-0.12,0.39,11.40,-1.41,-3.37,39.04,-5.84,1.98,-23.43,2.59,-1.22,-2.47
-2,-3,145,-15,-491,3936,-0.12,0.33,11.14,-0.15,-4.91,39.36,-5.85,1.97,-23.48,2.64,-0.92,-2.25
-3,-2,144,-9,-475,3871,-0.13,0.28,10.91,-0.09,-4.75,38.71,-5.86,1.96,-23.52,2.66,-0.92,-2.18
1,-2,127,-21,-429,3862,-0.11,0.24,10.59,-0.21,-4.29,38.62,-5.86,1.94,-23.56,2.60,-0.90,-1.96
0,-3,104,-49,-417,3917,-0.10,0.20,10.17,-0.49,-4.17,39.17,-5.87,1.93,-23.60,2.61,-0.87,-1.66
-3,3,83,-101,-438,3899,-0.11,0.20,9.66,-1.01,-4.38,38.99,-5.88,1.92,-23.64,2.66,-0.95,-1.36
1,6,86,-87,-449,3910,-0.09,0.22,9.21,-0.87,-4.49,39.10,-5.89,1.92,-23.68,2.60,-1.00,-1.27
-4,3,126,-49,-465,3907,-0.10,0.21,9.06,-0.49,-4.65,39.07,-5.90,1.91,-23.71,2.69,-0.95,-1.57
-5,1,134,-17,-480,3899,-0.12,0.20,8.97,-0.17,-4.80,38.99,-5.91,1.90,-23.75,2.71,-0.91,-1.62
-3,8,146,-59,-490,3915,-0.13,0.23,8.97,-0.59,-4.90,39.15,-5.92,1.89,-23.78,2.69,-1.02,-1.72
-3,5,147,-13,-461,3902,-0.14,0.23,8.97,-0.13,-4.61,39.02,-5.93,1.88,-23.82,2.70,-0.97,-1.72
-2,3,131,-17,-486,3874,-0.13,0.23,8.87,-0.17,-4.86,38.74,-5.94,1.87,-23.85,2.69,-0.94,-1.56
4,6,124,-25,-480,3912,-0.10,0.24,8.74,-0.25,-4.80,39.12,-5.95,1.86,-23.89,2.59,-0.98,-1.47
-2,2,120,-60,-469,3917,-0.10,0.23,8.60,-0.60,-4.69,39.17,-5.96,1.85,-23.92,2.68,-0.91,-1.40
-2,1,110,-74,-416,3929,-0.10,0.21,8.41,-0.74,-4.16,39.29,-5.96,1.83,-23.95,2.69,-0.89,-1.27
-1,5,98,-56,-450,3903,-0.10,0.22,8.16,-0.56,-4.50,39.03,-5.97,1.82,-23.99,2.67,-0.95,-1.10
-3,0,99,-116,-486,3878,-0.11,0.20,7.95,-1.16,-4.86,38.78,-5.99,1.82,-24.02,2.71,-0.86,-1.06
2,-2,85,-39,-396,3893,-0.08,0.17,7.68,-0.39,-3.96,38.93,-5.99,1.81,-24.05,2.63,-0.82,-0.87
0,0,85,-24,-408,3915,-0.07,0.15,7.43,-0.24,-4.08,39.15,-5.99,1.79,-24.08,2.66,-0.84,-0.81
2,2,63,-8,-435,3888,-0.05,0.15,7.07,-0.08,-4.35,38.88,-5.99,1.78,-24.11,2.62,-0.86,-0.54
2,2,59,-23,-455,3909,-0.04,0.15,6.72,-0.23,-4.55,39.09,-6.00,1.77,-24.13,2.62,-0.85,-0.42
-1,-1,58,-42,-479,3891,-0.04,0.13,6.40,-0.42,-4.79,38.91,-6.01,1.76,-24.16,2.67,-0.80,-0.33
0,-1,58,-34,-476,3908,-0.04,0.11,6.12,-0.34,-4.76,39.08,-6.02,1.74,-24.18,2.66,-0.78,-0.26
1,1,52,-14,-478,3924,-0.03,0.10,5.82,-0.14,-4.78,39.24,-6.03,1.73,-24.20,2.64,-0.81,-0.14
-1,3,51,-77,-441,3911,-0.03,0.11,5.55,-0.77,-4.41,39.11,-6.04,1.72,-24.23,2.68,-0.84,-0.06
1,-5,46,-101,-433,3926,-0.02,0.07,5.28,-1.01,-4.33,39.26,-6.05,1.71,-24.25,2.65,-0.70,0.05
4,-1,47,-66,-428,3871,0.01,0.06,5.04,-0.66,-4.28,38.71,-6.05,1.69,-24.27,2.60,-0.75,0.10
0,0,38,-39,-442,3917,0.01,0.05,4.76,-0.39,-4.42,39.17,-6.06,1.68,-24.28,2.66,-0.75,0.24
0,-3,32,-32,-445,3910,0.00,0.03,4.48,-0.32,-4.45,39.10,-6.07,1.66,-24.30,2.67,-0.69,0.36
5,6,22,-15,-492,3901,0.03,0.06,4.17,-0.15,-4.92,39.01,-6.08,1.65,-24.32,2.59,-0.84,0.52
4,3,18,-42,-469,3910,0.06,0.07,3.86,-0.42,-4.69,39.10,-6.09,1.64,-24.33,2.60,-0.79,0.63
1,1,14,-36,-432,3894,0.06,0.07,3.56,-0.36,-4.32,38.94,-6.09,1.62,-24.35,2.65,-0.75,0.73
1,2,9,-21,-438,3904,0.06,0.08,3.26,-0.21,-4.38,39.04,-6.09,1.61,-24.36,2.65,-0.76,0.85
0,2,-15,-12,-436,3917,0.05,0.08,2.84,-0.12,-4.36,39.17,-6.10,1.59,-24.37,2.67,-0.75,1.15
0,-2,-38,-1,-468,3928,0.05,0.06,2.33,-0.01,-4.68,39.28,-6.10,1.57,-24.38,2.67,-0.68,1.47
3,-7,-71,-6,-500,3910,0.06,0.01,1.66,-0.06,-5.00,39.10,-6.11,1.56,-24.39,2.63,-0.58,1.91
0,-4,-80,22,-489,3867,0.05,-0.01,1.01,0.22,-4.89,38.67,-6.12,1.54,-24.39,2.68,-0.61,2.14
3,-3,-142,-34,-412,3918,0.07,-0.03,0.04,-0.34,-4.12,39.18,-6.12,1.53,-24.39,2.63,-0.62,2.90
8,-2,-167,-27,-433,3912,0.11,-0.04,-0.98,-0.27,-4.33,39.12,-6.12,1.51,-24.39,2.54,-0.62,3.36
3,-6,-227,-117,-294,3912,0.12,-0.07,-2.27,-1.17,-2.94,39.12,-6.11,1.51,-24.38,2.60,-0.55,4.17
6,-1,-238,-171,-304,3912,0.14,-0.07,-3.49,-1.71,-3.04,39.12,-6.09,1.52,-24.36,2.54,-0.63,4.56
8,2,-302,-58,-367,3908,0.18,-0.05,-4.99,-0.58,-3.67,39.08,-6.08,1.50,-24.35,2.50,-0.68,5.46
-2,-2,-320,-45,-428,3902,0.15,-0.06,-6.44,-0.45,-4.28,39.02,-6.08,1.48,-24.32,2.66,-0.60,5.95
-3,-9,-387,-43,-415,3891,0.11,-0.11,-8.16,-0.43,-4.15,38.91,-6.08,1.46,-24.29,2.69,-0.47,6.93
2,-6,-417,-52,-364,3891,0.11,-0.13,-9.89,-0.52,-3.64,38.91,-6.07,1.44,-24.25,2.60,-0.50,7.59
7,-13,-483,-81,-340,3941,0.15,-0.20,-11.84,-0.81,-3.40,39.41,-6.05,1.43,-24.20,2.51,-0.37,8.62
-5,-20,-499,-87,-359,3890,0.10,-0.30,-13.70,-0.87,-3.59,38.90,-6.03,1.42,-24.15,2.70,-0.23,9.19
2,-28,-543,-63,-343,3883,0.10,-0.44,-15.64,-0.63,-3.43,38.83,-6.02,1.40,-24.09,2.59,-0.06,10.03
-7,-26,-547,-87,-411,3913,0.05,-0.56,-17.42,-0.87,-4.11,39.13,-6.02,1.38,-24.02,2.74,-0.04,10.48
-2,-18,-532,-67,-477,3868,0.03,-0.61,-18.92,-0.67,-4.77,38.68,-6.04,1.36,-23.94,2.68,-0.14,10.71
6,-15,-525,-75,-522,3925,0.07,-0.64,-20.23,-0.75,-5.22,39.25,-6.05,1.35,-23.86,2.55,-0.17,10.96
11,-11,-466,-51,-569,3954,0.13,-0.64,-21.05,-0.51,-5.69,39.54,-6.07,1.33,-23.78,2.47,-0.22,10.65
8,-13,-447,-34,-572,3870,0.16,-0.66,-21.67,-0.34,-5.72,38.70,-6.09,1.31,-23.69,2.51,-0.18,10.63
8,-6,-409,22,-600,3943,0.19,-0.63,-22.00,0.22,-6.00,39.43,-6.11,1.29,-23.60,2.51,-0.28,10.38
7,-6,-383,-7,-552,3887,0.22,-0.60,-22.14,-0.07,-5.52,38.87,-6.13,1.27,-23.52,2.52,-0.28,10.18
5,-5,-349,-40,-432,3894,0.23,-0.57,-22.05,-0.40,-4.32,38.94,-6.13,1.24,-23.43,2.55,-0.29,9.87
2,-1,-354,-78,-487,3851,0.22,-0.52,-22.01,-0.78,-4.87,38.51,-6.15,1.23,-23.34,2.61,-0.36,9.89
8,4,-352,-88,-418,3903,0.24,-0.45,-21.95,-0.88,-4.18,39.03,-6.14,1.23,-23.25,2.51,-0.47,9.86
7,2,-344,-84,-417,3934,0.26,-0.39,-21.86,-0.84,-4.17,39.34,-6.12,1.22,-23.17,2.51,-0.45,9.76
14,-7,-342,-49,-525,3829,0.32,-0.39,-21.76,-0.49,-5.25,38.29,-6.14,1.20,-23.08,2.39,-0.30,9.72
7,-10,-356,-121,-536,3908,0.33,-0.41,-21.75,-1.21,-5.36,39.08,-6.16,1.20,-22.99,2.50,-0.25,9.83
15,-8,-367,-63,-462,3909,0.39,-0.42,-21.82,-0.63,-4.62,39.09,-6.18,1.18,-22.91,2.37,-0.27,9.93
8,-7,-362,-18,-520,3916,0.40,-0.42,-21.84,-0.18,-5.20,39.16,-6.19,1.15,-22.82,2.48,-0.27,9.89
6,-6,-365,-30,-538,3868,0.40,-0.42,-21.88,-0.30,-5.38,38.68,-6.21,1.14,-22.73,2.52,-0.28,9.92
11,-5,-371,-40,-521,3939,0.42,-0.41,-21.96,-0.40,-5.21,39.39,-6.23,1.12,-22.64,2.44,-0.29,9.98
5,-16,-330,-9,-456,3893,0.41,-0.46,-21.78,-0.09,-4.56,38.93,-6.23,1.09,-22.56,2.54,-0.09,9.58
-3,-13,-302,-21,-445,3910,0.35,-0.50,-21.44,-0.21,-4.45,39.10,-6.24,1.06,-22.47,2.68,-0.12,9.26
-5,-9,-215,-70,-436,3889,0.29,-0.50,-20.61,-0.70,-4.36,38.89,-6.26,1.05,-22.39,2.74,-0.17,8.32
-6,-7,-186,-102,-416,3922,0.22,-0.49,-19.68,-1.02,-4.16,39.22,-6.25,1.05,-22.31,2.77,-0.21,7.84
-7,-9,-120,-71,-467,3914,0.16,-0.50,-18.45,-0.71,-4.67,39.14,-6.27,1.04,-22.24,2.82,-0.17,6.98
-5,-8,-120,-56,-477,3895,0.11,-0.50,-17.33,-0.56,-4.77,38.95,-6.29,1.03,-22.17,2.81,-0.18,6.71
2,-2,-142,-50,-459,3907,0.11,-0.46,-16.47,-0.50,-4.59,39.07,-6.30,1.01,-22.10,2.71,-0.27,6.69
4,-2,-152,-49,-430,3895,0.12,-0.43,-15.75,-0.49,-4.30,38.95,-6.30,0.98,-22.04,2.67,-0.27,6.60
3,1,-195,-31,-422,3908,0.13,-0.38,-15.36,-0.31,-4.22,39.08,-6.30,0.95,-21.98,2.69,-0.32,6.86
6,0,-222,-57,-397,3883,0.15,-0.34,-15.18,-0.57,-3.97,38.83,-6.28,0.94,-21.92,2.63,-0.31,7.04
6,-5,-215,-97,-359,3880,0.18,-0.34,-14.97,-0.97,-3.59,38.80,-6.27,0.94,-21.86,2.61,-0.24,6.93
7,-2,-212,-151,-407,3868,0.20,-0.32,-14.77,-1.51,-4.07,38.68,-6.26,0.95,-21.80,2.59,-0.29,6.85
9,5,-230,-220,-402,3897,0.24,-0.25,-14.70,-2.20,-4.02,38.97,-6.26,0.96,-21.75,2.55,-0.42,6.98
12,1,-233,-174,-362,3944,0.29,-0.22,-14.65,-1.74,-3.62,39.44,-6.25,0.97,-21.69,2.48,-0.37,6.99
9,0,-261,-85,-353,3877,0.31,-0.20,-14.77,-0.85,-3.53,38.77,-6.23,0.97,-21.63,2.51,-0.37,7.26
