gyroADC_X,gyroADC_Y,gyroADC_Z,accADC_X,accADC_Y,accADC_Z,GyroX,GyroY,GyroZ,AccX,AccY,AccZ,roll_IMU,pitch_IMU,yaw_IMU,roll_PID,pitch_PID,yaw_PID
0,1,2,-12,-4,4086,0.01,0.03,0.03,-0.12,-0.04,40.86,-0.05,0.18,-117.98,0.03,-0.14,10.49
0,2,2,-3,10,4100,0.01,0.04,0.04,-0.03,0.10,41.00,-0.04,0.16,-117.98,0.02,-0.16,10.49
-1,0,2,-15,-1,4108,0.00,0.04,0.05,-0.15,-0.01,41.08,-0.03,0.18,-117.98,0.04,-0.13,10.50
0,1,1,-13,-4,4093,0.00,0.04,0.05,-0.13,-0.04,40.93,-0.05,0.18,-117.98,0.03,-0.15,10.59
0,1,2,-5,-5,4080,0.00,0.04,0.06,-0.05,-0.05,40.80,-0.05,0.16,-117.98,0.03,-0.14,10.51
0,0,0,-8,-13,4085,0.00,0.04,0.05,-0.08,-0.13,40.85,-0.07,0.16,-117.98,0.04,-0.11,10.67
-1,1,1,-14,-14,4099,-0.00,0.04,0.05,-0.14,-0.14,40.99,-0.08,0.16,-117.98,0.08,-0.14,10.59
1,0,0,-6,-10,4105,0.00,0.04,0.05,-0.06,-0.10,41.05,-0.09,0.15,-117.98,0.04,-0.11,10.67
0,-1,-1,-12,-6,4101,0.00,0.03,0.04,-0.12,-0.06,41.01,-0.09,0.16,-117.98,0.06,-0.10,10.74
0,-1,-1,-13,8,4100,0.00,0.02,0.03,-0.13,0.08,41.00,-0.07,0.17,-117.98,0.04,-0.09,10.73
1,0,-1,-4,3,4097,0.01,0.02,0.02,-0.04,0.03,40.97,-0.05,0.15,-117.98,0.01,-0.11,10.72
1,0,0,0,3,4094,0.01,0.01,0.02,0.00,0.03,40.94,-0.04,0.14,-117.98,0.01,-0.09,10.64
1,0,0,-9,-3,4084,0.02,0.01,0.02,-0.09,-0.03,40.84,-0.04,0.12,-117.98,0.00,-0.08,10.63
0,-1,0,-7,-11,4094,0.02,0.00,0.01,-0.07,-0.11,40.94,-0.06,0.12,-117.98,0.03,-0.06,10.63
2,-2,0,-17,-3,4090,0.03,-0.01,0.01,-0.17,-0.03,40.90,-0.06,0.13,-117.98,-0.01,-0.05,10.63
1,-1,1,-17,-2,4093,0.03,-0.01,0.02,-0.17,-0.02,40.93,-0.05,0.15,-117.98,0.01,-0.08,10.55
1,-2,0,0,-4,4098,0.03,-0.02,0.02,0.00,-0.04,40.98,-0.05,0.13,-117.98,0.00,-0.04,10.63
1,-1,0,-10,4,4099,0.04,-0.03,0.01,-0.10,0.04,40.99,-0.03,0.13,-117.98,-0.01,-0.06,10.63
1,-1,0,-15,3,4100,0.04,-0.03,0.01,-0.15,0.03,41.00,-0.02,0.15,-117.98,-0.02,-0.07,10.63
1,-1,1,-8,1,4093,0.04,-0.03,0.02,-0.08,0.01,40.93,-0.01,0.13,-117.98,-0.03,-0.06,10.55
1,-1,0,4,0,4099,0.04,-0.04,0.02,0.04,0.00,40.99,-0.01,0.12,-117.98,-0.03,-0.05,10.63
0,-1,0,-7,3,4103,0.04,-0.04,0.01,-0.07,0.03,41.03,0.01,0.11,-117.98,-0.02,-0.04,10.63
1,-1,0,-4,-1,4091,0.04,-0.04,0.01,-0.04,-0.01,40.91,0.00,0.09,-117.98,-0.03,-0.03,10.63
0,1,1,-18,3,4103,0.04,-0.03,0.02,-0.18,0.03,41.03,0.01,0.11,-117.98,-0.02,-0.08,10.55
1,1,1,-15,0,4104,0.04,-0.02,0.02,-0.15,0.00,41.04,0.01,0.13,-117.98,-0.04,-0.10,10.56
0,1,2,-9,-6,4099,0.04,-0.01,0.03,-0.09,-0.06,40.99,-0.01,0.13,-117.98,-0.00,-0.10,10.48
0,1,2,-5,-6,4103,0.03,-0.01,0.04,-0.05,-0.06,41.03,-0.03,0.12,-117.98,0.01,-0.10,10.49
1,1,1,-15,-6,4088,0.03,0.00,0.04,-0.15,-0.06,40.88,-0.04,0.13,-117.98,-0.01,-0.11,10.58
0,1,0,-9,-8,4090,0.03,0.01,0.04,-0.09,-0.08,40.90,-0.05,0.13,-117.98,0.03,-0.11,10.66
0,0,2,-8,-2,4097,0.03,0.01,0.05,-0.08,-0.02,40.97,-0.04,0.12,-117.98,0.02,-0.08,10.50
0,0,1,-5,0,4105,0.03,0.01,0.05,-0.05,0.00,41.05,-0.03,0.11,-117.98,0.01,-0.07,10.58
0,0,1,-4,-5,4085,0.02,0.00,0.05,-0.04,-0.05,40.85,-0.04,0.09,-117.98,0.02,-0.06,10.59
1,0,1,-16,3,4090,0.03,0.00,0.05,-0.16,0.03,40.90,-0.03,0.11,-117.98,-0.01,-0.07,10.59
0,-1,1,-12,5,4073,0.02,-0.00,0.05,-0.12,0.05,40.73,-0.01,0.12,-117.98,0.00,-0.06,10.59
1,-2,0,-7,2,4077,0.03,-0.01,0.05,-0.07,0.02,40.77,0.00,0.11,-117.98,-0.03,-0.03,10.67
1,-1,0,-16,2,4093,0.03,-0.02,0.04,-0.16,0.02,40.93,0.01,0.13,-117.98,-0.03,-0.06,10.66
1,0,0,-13,-9,4088,0.03,-0.02,0.04,-0.13,-0.09,40.88,-0.01,0.13,-117.98,-0.02,-0.08,10.66
2,-1,0,-10,5,4088,0.04,-0.02,0.03,-0.10,0.05,40.88,0.01,0.14,-117.98,-0.06,-0.06,10.65
2,-2,-1,-23,12,4112,0.05,-0.03,0.02,-0.23,0.12,41.12,0.02,0.15,-117.98,-0.07,-0.05,10.73
5,-7,-6,-7,-8,4094,0.08,-0.07,-0.01,-0.07,-0.08,40.94,0.00,0.14,-117.98,-0.13,0.07,11.11
3,-5,-2,-7,-6,4087,0.09,-0.09,-0.03,-0.07,-0.06,40.87,-0.01,0.13,-117.98,-0.08,0.04,10.76
1,0,-1,-11,-5,4105,0.08,-0.08,-0.03,-0.11,-0.05,41.05,-0.03,0.14,-117.98,-0.02,-0.07,10.67
1,-2,2,-15,-4,4105,0.08,-0.09,-0.01,-0.15,-0.04,41.05,-0.04,0.16,-117.98,-0.02,-0.04,10.43
0,1,-1,-12,-5,4097,0.07,-0.07,-0.02,-0.12,-0.05,40.97,-0.05,0.16,-117.98,0.01,-0.11,10.68
-1,-1,0,-12,3,4092,0.06,-0.07,-0.02,-0.12,0.03,40.92,-0.03,0.16,-117.98,0.03,-0.07,10.60
0,1,-2,-10,0,4090,0.05,-0.06,-0.03,-0.10,0.00,40.90,-0.02,0.15,-117.98,-0.00,-0.10,10.76
0,0,-1,-7,-4,4103,0.05,-0.05,-0.03,-0.07,-0.04,41.03,-0.03,0.14,-117.98,0.01,-0.08,10.67
0,-2,-2,-17,-1,4089,0.04,-0.06,-0.04,-0.17,-0.01,40.89,-0.03,0.15,-117.98,0.01,-0.05,10.75
0,0,-2,-14,-7,4095,0.04,-0.05,-0.05,-0.14,-0.07,40.95,-0.04,0.16,-117.98,0.02,-0.09,10.74
1,-3,-1,-6,-4,4094,0.04,-0.07,-0.05,-0.06,-0.04,40.94,-0.04,0.15,-117.98,-0.00,-0.02,10.65
2,-3,-2,-8,3,4094,0.05,-0.08,-0.06,-0.08,0.03,40.94,-0.03,0.14,-117.98,-0.04,-0.01,10.73
0,-2,1,-17,-17,4094,0.04,-0.08,-0.04,-0.17,-0.17,40.94,-0.04,0.15,-117.98,0.02,-0.03,10.49
0,-1,-1,-3,-4,4095,0.04,-0.08,-0.05,-0.03,-0.04,40.95,-0.05,0.13,-117.98,0.02,-0.04,10.65
0,-4,-1,-16,5,4090,0.04,-0.10,-0.05,-0.16,0.05,40.90,-0.03,0.14,-117.98,0.01,0.02,10.65
1,-3,-1,-20,-6,4098,0.04,-0.11,-0.05,-0.20,-0.06,40.98,-0.04,0.16,-117.98,-0.01,-0.01,10.65
0,-4,0,-4,8,4095,0.03,-0.12,-0.04,-0.04,0.08,40.95,-0.02,0.14,-117.98,0.01,0.02,10.57
1,-3,0,-7,1,4094,0.04,-0.13,-0.04,-0.07,0.01,40.94,-0.01,0.13,-117.98,-0.02,0.01,10.58
0,-3,-1,-5,-4,4087,0.03,-0.13,-0.04,-0.05,-0.04,40.87,-0.02,0.11,-117.98,0.01,0.02,10.66
0,-3,-2,-7,-4,4100,0.03,-0.14,-0.05,-0.07,-0.04,41.00,-0.04,0.11,-117.98,0.02,0.03,10.73
1,-6,-5,-6,4,4104,0.03,-0.16,-0.08,-0.06,0.04,41.04,-0.02,0.10,-117.98,-0.02,0.10,10.96
2,-7,-6,-8,1,4103,0.04,-0.19,-0.10,-0.08,0.01,41.03,-0.00,0.11,-117.98,-0.05,0.12,11.02
1,-6,-4,-3,3,4092,0.04,-0.20,-0.12,-0.03,0.03,40.92,0.01,0.09,-117.98,-0.04,0.12,10.83
1,-5,-5,-4,1,4093,0.05,-0.21,-0.14,-0.04,0.01,40.93,0.01,0.07,-117.98,-0.04,0.11,10.90
1,-7,-4,-3,-1,4093,0.05,-0.24,-0.15,-0.03,-0.01,40.93,-0.00,0.06,-117.98,-0.03,0.17,10.80
0,-5,-6,-4,-27,4106,0.04,-0.24,-0.17,-0.04,-0.27,41.06,-0.02,0.06,-117.98,0.00,0.13,10.95
4,-52,-36,13,26,4080,0.06,-0.54,-0.37,0.13,0.26,40.80,-0.00,0.04,-117.98,-0.10,1.17,13.27
11,-54,-42,-17,72,4103,0.12,-0.81,-0.59,-0.17,0.72,41.03,0.02,0.04,-117.97,-0.27,1.29,13.55
0,-3,-15,9,12,4108,0.11,-0.75,-0.62,0.09,0.12,41.08,0.03,0.03,-117.97,-0.05,0.25,11.23
-2,-7,-6,-16,2,4102,0.09,-0.72,-0.60,-0.16,0.02,41.02,0.03,0.04,-117.97,-0.00,0.31,10.49
1,-3,-10,-6,-9,4104,0.09,-0.66,-0.60,-0.06,-0.09,41.04,0.01,0.04,-117.97,-0.05,0.21,10.83
0,-4,-5,-9,9,4100,0.08,-0.62,-0.57,-0.09,0.09,41.00,0.03,0.05,-117.97,-0.04,0.22,10.44
0,0,-5,-4,5,4087,0.07,-0.56,-0.54,-0.04,0.05,40.87,0.05,0.05,-117.96,-0.05,0.12,10.47
0,1,0,-6,5,4094,0.06,-0.50,-0.49,-0.06,0.05,40.94,0.06,0.06,-117.96,-0.05,0.07,10.10
-1,2,3,-4,1,4082,0.05,-0.44,-0.42,-0.04,0.01,40.82,0.04,0.06,-117.96,-0.02,0.04,9.92
0,4,4,-12,8,4081,0.04,-0.37,-0.36,-0.12,0.08,40.81,0.05,0.07,-117.96,-0.04,-0.03,9.90
0,3,4,7,-3,4096,0.04,-0.31,-0.30,0.07,-0.03,40.96,0.04,0.06,-117.96,-0.04,-0.01,9.96
0,3,5,-2,-1,4089,0.04,-0.26,-0.24,-0.02,-0.01,40.89,0.02,0.05,-117.96,-0.03,-0.02,9.94
0,4,2,8,12,4104,0.03,-0.21,-0.20,0.08,0.12,41.04,0.04,0.03,-117.95,-0.03,-0.04,10.24
-1,3,4,8,13,4085,0.02,-0.17,-0.16,0.08,0.13,40.85,0.05,0.02,-117.95,-0.02,-0.03,10.11
0,4,2,7,0,4093,0.02,-0.13,-0.13,0.07,0.00,40.93,0.04,0.00,-117.95,-0.03,-0.05,10.31
1,4,4,-2,7,4094,0.02,-0.09,-0.09,-0.02,0.07,40.94,0.06,0.01,-117.95,-0.07,-0.06,10.18
0,6,4,1,4,4088,0.02,-0.05,-0.06,0.01,0.04,40.88,0.06,-0.01,-117.95,-0.04,-0.10,10.22
-1,6,5,-6,-5,4104,0.01,-0.01,-0.02,-0.06,-0.05,41.04,0.04,0.00,-117.95,-0.01,-0.12,10.17
-1,5,5,-6,-5,4088,0.01,0.03,0.01,-0.06,-0.05,40.88,0.03,0.01,-117.95,0.00,-0.12,10.20
-2,5,6,-5,-4,4095,-0.01,0.05,0.05,-0.05,-0.04,40.95,0.01,0.02,-117.95,0.03,-0.13,10.16
-1,2,2,-5,2,4102,-0.01,0.06,0.05,-0.05,0.02,41.02,0.02,0.04,-117.95,0.01,-0.08,10.50
-2,2,3,-15,3,4093,-0.02,0.07,0.07,-0.15,0.03,40.93,0.02,0.06,-117.95,0.03,-0.10,10.43
-2,2,1,1,-1,4088,-0.03,0.07,0.07,0.01,-0.01,40.88,0.01,0.04,-117.95,0.04,-0.09,10.60
-2,1,0,-7,-5,4086,-0.04,0.07,0.06,-0.07,-0.05,40.86,-0.00,0.05,-117.95,0.05,-0.07,10.68
-2,1,-1,-2,2,4089,-0.05,0.07,0.05,-0.02,0.02,40.89,0.01,0.04,-117.95,0.05,-0.07,10.75
-2,2,1,-2,-2,4084,-0.06,0.07,0.05,-0.02,-0.02,40.84,-0.01,0.04,-117.95,0.06,-0.08,10.58
-1,0,-1,2,-5,4074,-0.06,0.07,0.04,0.02,-0.05,40.74,-0.02,0.02,-117.95,0.05,-0.03,10.74
-1,1,3,-2,-8,4092,-0.06,0.07,0.05,-0.02,-0.08,40.92,-0.04,0.02,-117.96,0.06,-0.05,10.42
1,1,4,-7,-12,4102,-0.05,0.07,0.07,-0.07,-0.12,41.02,-0.05,0.03,-117.96,0.03,-0.06,10.35
0,1,5,-8,-8,4104,-0.04,0.07,0.10,-0.08,-0.08,41.04,-0.07,0.05,-117.96,0.05,-0.07,10.29
1,1,4,-4,-8,4103,-0.03,0.07,0.11,-0.04,-0.08,41.03,-0.08,0.05,-117.96,0.04,-0.07,10.39
0,0,4,-3,-8,4093,-0.03,0.06,0.12,-0.03,-0.08,40.93,-0.10,0.05,-117.96,0.07,-0.05,10.41
0,-2,0,-2,-2,4088,-0.03,0.04,0.11,-0.02,-0.02,40.88,-0.08,0.04,-117.96,0.06,0.00,10.73
0,-1,0,-2,7,4091,-0.02,0.03,0.10,-0.02,0.07,40.91,-0.07,0.04,-117.96,0.05,-0.01,10.72
-2,-1,-3,8,-8,4086,-0.03,0.02,0.07,0.08,-0.08,40.86,-0.07,0.02,-117.96,0.10,-0.00,10.95
-3,-1,-2,5,-3,4086,-0.05,0.01,0.05,0.05,-0.03,40.86,-0.07,0.01,-117.96,0.12,0.01,10.84
-2,-3,-7,-7,10,4099,-0.06,-0.01,0.00,-0.07,0.10,40.99,-0.05,0.01,-117.96,0.09,0.05,11.21
0,-4,-7,-1,-7,4091,-0.05,-0.03,-0.04,-0.01,-0.07,40.91,-0.07,0.01,-117.96,0.06,0.08,11.17
2,-3,-6,1,-11,4099,-0.03,-0.05,-0.07,0.01,-0.11,40.99,-0.09,0.01,-117.96,0.02,0.07,11.05
1,-4,-5,-2,-11,4089,-0.02,-0.07,-0.09,-0.02,-0.11,40.89,-0.10,0.01,-117.96,0.05,0.09,10.94
3,-1,-20,18,-114,4114,-0.00,-0.06,-0.21,0.18,-1.14,41.14,-0.12,0.01,-117.96,0.02,0.03,12.09
3,-8,-33,-30,-44,4215,0.02,-0.11,-0.39,-0.30,-0.44,42.15,-0.13,0.02,-117.95,0.02,0.18,13.00
-5,41,-49,-91,22,3904,-0.02,0.15,-0.65,-0.91,0.22,39.04,-0.13,0.04,-117.95,0.19,-0.90,14.08
-15,94,-44,-36,75,4033,-0.11,0.71,-0.85,-0.36,0.75,40.33,-0.11,0.05,-117.95,0.41,-2.14,13.44
2,5,2,-106,-68,4289,-0.08,0.67,-0.75,-1.06,-0.68,42.89,-0.12,0.07,-117.95,0.06,-0.33,9.65
-1,-25,-12,31,-90,4177,-0.08,0.45,-0.75,0.31,-0.90,41.77,-0.14,0.06,-117.94,0.13,0.35,10.84
18,-70,-81,-81,-25,4019,0.04,-0.02,-1.17,-0.81,-0.25,40.19,-0.14,0.08,-117.94,-0.28,1.38,16.24
2,-24,-54,-84,58,3950,0.05,-0.17,-1.38,-0.84,0.58,39.50,-0.13,0.09,-117.93,0.03,0.47,13.72
-3,23,-16,-34,84,4130,0.02,-0.01,-1.34,-0.34,0.84,41.30,-0.11,0.10,-117.93,0.13,-0.53,10.55
-1,12,-20,-52,20,4164,0.01,0.07,-1.33,-0.52,0.20,41.64,-0.10,0.11,-117.92,0.08,-0.34,10.90
7,4,-28,73,-58,4081,0.06,0.08,-1.37,0.73,-0.58,40.81,-0.11,0.10,-117.92,-0.08,-0.17,11.54
2,6,-34,55,-35,4101,0.06,0.11,-1.44,0.55,-0.35,41.01,-0.12,0.08,-117.91,0.02,-0.21,11.97
-2,28,-39,-26,-24,4083,0.04,0.27,-1.53,-0.26,-0.24,40.83,-0.13,0.10,-117.90,0.11,-0.71,12.29
-1,28,-38,-26,-51,4116,0.03,0.42,-1.61,-0.26,-0.51,41.16,-0.15,0.11,-117.90,0.11,-0.75,12.12
5,9,-63,9,-11,4125,0.06,0.43,-1.83,0.09,-0.11,41.25,-0.15,0.09,-117.89,-0.02,-0.36,14.01
3,4,-52,7,44,4066,0.07,0.41,-1.97,0.07,0.44,40.66,-0.13,0.09,-117.88,0.00,-0.25,12.93
-4,20,-14,-59,109,4078,0.04,0.49,-1.86,-0.59,1.09,40.78,-0.11,0.10,-117.88,0.14,-0.60,9.83
-1,10,-18,-67,-9,4135,0.03,0.50,-1.78,-0.67,-0.09,41.35,-0.11,0.12,-117.87,0.09,-0.42,10.25
6,-4,-27,-21,-45,4111,0.06,0.43,-1.77,-0.21,-0.45,41.11,-0.13,0.12,-117.86,-0.05,-0.12,11.02
-2,-14,-24,6,-58,4110,0.05,0.30,-1.74,0.06,-0.58,41.10,-0.15,0.12,-117.85,0.13,0.12,10.80
1,-5,-25,-14,-12,4076,0.05,0.24,-1.72,-0.14,-0.12,40.76,-0.15,0.14,-117.85,0.07,-0.06,10.91
2,-1,-21,0,29,4079,0.05,0.21,-1.67,0.00,0.29,40.79,-0.13,0.13,-117.84,0.03,-0.13,10.61
0,18,-2,-30,75,4084,0.05,0.30,-1.52,-0.30,0.75,40.84,-0.12,0.14,-117.83,0.06,-0.54,9.17
1,20,0,-28,14,4127,0.05,0.39,-1.37,-0.28,0.14,41.27,-0.10,0.15,-117.83,0.03,-0.61,9.16
2,6,9,-13,6,4086,0.06,0.39,-1.17,-0.13,0.06,40.86,-0.08,0.16,-117.82,-0.00,-0.33,8.60
0,11,8,-5,-2,4081,0.05,0.42,-1.01,-0.05,-0.02,40.81,-0.07,0.14,-117.82,0.03,-0.43,8.86
-3,21,14,-19,0,4086,0.03,0.50,-0.82,-0.19,0.00,40.86,-0.06,0.16,-117.82,0.10,-0.67,8.55
-4,23,16,-11,11,4099,0.00,0.59,-0.64,-0.11,0.11,40.99,-0.05,0.16,-117.81,0.11,-0.74,8.57
-1,4,8,-64,-3,4124,-0.01,0.56,-0.53,-0.64,-0.03,41.24,-0.04,0.18,-117.81,0.05,-0.35,9.37
-1,6,3,-6,15,4084,-0.01,0.54,-0.46,-0.06,0.15,40.84,-0.03,0.18,-117.81,0.04,-0.39,9.86
-2,-1,6,5,-7,4072,-0.02,0.48,-0.38,0.05,-0.07,40.72,-0.03,0.16,-117.81,0.07,-0.22,9.70
-1,-1,1,3,16,4087,-0.03,0.42,-0.33,0.03,0.16,40.87,-0.02,0.15,-117.81,0.04,-0.20,10.17
-2,-3,3,-9,8,4099,-0.04,0.36,-0.28,-0.09,0.08,40.99,-0.00,0.15,-117.81,0.05,-0.14,10.05
-1,-2,2,-16,13,4087,-0.04,0.32,-0.24,-0.16,0.13,40.87,0.02,0.16,-117.81,0.02,-0.15,10.18
-2,-3,1,-27,6,4094,-0.05,0.27,-0.21,-0.27,0.06,40.94,0.02,0.18,-117.81,0.04,-0.13,10.30
-1,-1,1,-23,2,4092,-0.05,0.23,-0.18,-0.23,0.02,40.92,0.02,0.20,-117.80,0.02,-0.17,10.32
-1,2,2,-11,-8,4103,-0.05,0.22,-0.15,-0.11,-0.08,41.03,0.00,0.19,-117.80,0.03,-0.23,10.27
1,1,3,-30,-8,4100,-0.04,0.21,-0.12,-0.30,-0.08,41.00,-0.00,0.21,-117.80,-0.01,-0.21,10.22
0,3,2,-20,2,4107,-0.03,0.20,-0.09,-0.20,0.02,41.07,0.00,0.23,-117.80,0.01,-0.27,10.33
0,2,2,-27,-7,4102,-0.03,0.20,-0.07,-0.27,-0.07,41.02,-0.01,0.24,-117.80,0.01,-0.25,10.36
1,3,1,-15,0,4095,-0.02,0.19,-0.06,-0.15,0.00,40.95,-0.00,0.23,-117.80,-0.01,-0.26,10.45
0,3,2,-10,-8,4088,-0.02,0.19,-0.04,-0.10,-0.08,40.88,-0.02,0.22,-117.80,0.02,-0.26,10.39
1,3,1,1,-10,4091,-0.01,0.19,-0.03,0.01,-0.10,40.91,-0.03,0.20,-117.80,0.00,-0.25,10.48
0,2,3,-7,3,4083,-0.01,0.18,-0.01,-0.07,0.03,40.83,-0.02,0.19,-117.80,0.01,-0.21,10.34
1,2,3,-9,0,4100,-0.00,0.18,0.01,-0.09,0.00,41.00,-0.01,0.17,-117.80,-0.01,-0.20,10.36
0,2,3,-8,1,4097,-0.00,0.17,0.03,-0.08,0.01,40.97,-0.00,0.15,-117.80,0.00,-0.19,10.38
-1,0,0,-16,-5,4085,-0.01,0.16,0.02,-0.16,-0.05,40.85,-0.02,0.17,-117.80,0.03,-0.15,10.63
0,-1,-1,-9,-12,4093,-0.01,0.13,0.02,-0.09,-0.12,40.93,-0.03,0.16,-117.80,0.02,-0.12,10.70
-1,-3,-3,-19,-5,4094,-0.01,0.10,-0.00,-0.19,-0.05,40.94,-0.04,0.18,-117.80,0.05,-0.09,10.85
0,-3,-3,-16,-7,4097,-0.01,0.07,-0.02,-0.16,-0.07,40.97,-0.05,0.19,-117.80,0.04,-0.09,10.83
-1,-2,-2,-6,-1,4091,-0.02,0.05,-0.03,-0.06,-0.01,40.91,-0.05,0.17,-117.80,0.06,-0.09,10.74
-2,-2,-1,-10,5,4095,-0.03,0.04,-0.03,-0.10,0.05,40.95,-0.03,0.17,-117.80,0.07,-0.08,10.65
1,-2,-2,-26,6,4096,-0.02,0.02,-0.04,-0.26,0.06,40.96,-0.02,0.19,-117.80,-0.00,-0.09,10.73
2,-3,-2,-11,6,4100,-0.00,0.00,-0.05,-0.11,0.06,41.00,-0.00,0.18,-117.80,-0.04,-0.06,10.72
1,-5,-2,-5,-1,4085,0.00,-0.03,-0.06,-0.05,-0.01,40.85,-0.01,0.16,-117.80,-0.02,0.00,10.71
1,-5,-3,-9,-7,4092,0.01,-0.06,-0.07,-0.09,-0.07,40.92,-0.02,0.15,-117.80,-0.01,0.02,10.78
1,-9,-5,-12,0,4086,0.01,-0.11,-0.09,-0.12,0.00,40.86,-0.01,0.16,-117.80,-0.02,0.10,10.93
1,-15,-4,-107,8,4124,0.02,-0.19,-0.11,-1.07,0.08,41.24,-0.01,0.18,-117.80,-0.02,0.24,10.83
18,-83,-12,1,23,4116,0.13,-0.68,-0.17,0.01,0.23,41.16,0.01,0.17,-117.80,-0.41,1.76,11.44
20,-77,-19,-24,10,4053,0.24,-1.08,-0.27,-0.24,0.10,40.53,0.02,0.18,-117.80,-0.49,1.74,11.93
0,-18,4,24,-14,4058,0.21,-1.08,-0.22,0.24,-0.14,40.58,0.02,0.16,-117.80,-0.07,0.56,10.03
14,-13,7,-76,-95,3979,0.28,-1.05,-0.15,-0.76,-0.95,39.79,0.00,0.16,-117.80,-0.36,0.44,9.85
-5,-13,57,-3,-54,4137,0.22,-1.02,0.21,-0.03,-0.54,41.37,-0.01,0.16,-117.80,0.05,0.44,5.99
-9,-12,74,-18,-11,4012,0.14,-1.00,0.64,-0.18,-0.11,40.12,-0.03,0.16,-117.80,0.16,0.41,5.01
2,32,14,12,-62,4119,0.14,-0.70,0.66,0.12,-0.62,41.19,-0.05,0.15,-117.80,-0.05,-0.56,10.12
-7,13,17,87,51,4232,0.08,-0.55,0.70,0.87,0.51,42.32,-0.04,0.14,-117.81,0.14,-0.20,9.90
11,-16,-16,14,56,4090,0.14,-0.59,0.53,0.14,0.56,40.90,-0.02,0.13,-117.81,-0.25,0.40,12.52
4,-5,-33,32,146,4016,0.15,-0.57,0.28,0.32,1.46,40.16,-0.00,0.12,-117.81,-0.12,0.18,13.69
-3,-5,-2,-2,32,4105,0.12,-0.54,0.24,-0.02,0.32,41.05,0.02,0.11,-117.81,0.02,0.17,11.02
2,-3,-3,20,56,4096,0.12,-0.50,0.19,0.20,0.56,40.96,0.03,0.10,-117.81,-0.10,0.13,11.06
1,2,1,-15,-13,4079,0.11,-0.44,0.18,-0.15,-0.13,40.79,0.02,0.11,-117.81,-0.06,0.01,10.71
4,2,1,-8,-35,4114,0.13,-0.38,0.17,-0.08,-0.35,41.14,0.00,0.11,-117.81,-0.12,-0.01,10.70
-2,8,0,-19,-12,4079,0.10,-0.30,0.15,-0.19,-0.12,40.79,-0.01,0.12,-117.81,0.02,-0.16,10.76
2,13,-4,-12,-14,4085,0.10,-0.19,0.11,-0.12,-0.14,40.85,-0.03,0.12,-117.81,-0.05,-0.29,11.06
1,15,-10,17,19,4109,0.10,-0.08,0.04,0.17,0.19,41.09,-0.02,0.11,-117.81,-0.04,-0.36,11.49
0,12,-2,23,27,4105,0.09,0.00,0.02,0.23,0.27,41.05,-0.00,0.10,-117.81,-0.02,-0.31,10.80
2,11,4,-4,3,4087,0.09,0.07,0.05,-0.04,0.03,40.87,0.01,0.08,-117.81,-0.07,-0.30,10.31
-1,10,6,-4,7,4092,0.08,0.12,0.08,-0.04,0.07,40.92,0.03,0.08,-117.81,-0.02,-0.29,10.18
0,11,11,-9,5,4086,0.07,0.18,0.14,-0.09,0.05,40.86,0.04,0.09,-117.81,-0.05,-0.33,9.82
-1,19,13,-11,-7,4105,0.06,0.28,0.20,-0.11,-0.07,41.05,0.02,0.10,-117.82,-0.01,-0.53,9.72
-2,19,15,-16,-17,4103,0.04,0.36,0.27,-0.16,-0.17,41.03,0.01,0.11,-117.82,0.03,-0.56,9.62
-5,68,-8,-15,-37,4059,0.00,0.74,0.20,-0.15,-0.37,40.59,-0.01,0.12,-117.82,0.11,-1.66,11.49
-12,83,-3,-39,41,4091,-0.07,1.18,0.16,-0.39,0.41,40.91,0.00,0.13,-117.82,0.26,-2.10,11.03
2,26,-8,-49,-53,4163,-0.05,1.22,0.10,-0.49,-0.53,41.63,-0.01,0.15,-117.82,-0.02,-0.96,11.38
3,21,-15,-28,-34,4101,-0.03,1.22,-0.01,-0.28,-0.34,41.01,-0.03,0.16,-117.82,-0.04,-0.87,11.87
4,14,-55,-40,-38,4134,0.00,1.19,-0.34,-0.40,-0.38,41.34,-0.04,0.18,-117.82,-0.05,-0.73,14.90
4,10,-52,-9,5,4166,0.02,1.13,-0.62,-0.09,0.05,41.66,-0.03,0.17,-117.81,-0.07,-0.63,14.35
1,4,-37,31,38,4059,0.03,1.04,-0.79,0.31,0.38,40.59,-0.01,0.17,-117.81,-0.02,-0.47,12.90
1,6,-25,-18,7,4096,0.03,0.97,-0.86,-0.18,0.07,40.96,0.00,0.18,-117.81,-0.03,-0.51,11.81
3,6,-28,-19,-12,4083,0.05,0.91,-0.95,-0.19,-0.12,40.83,-0.01,0.19,-117.80,-0.06,-0.50,11.97
-2,10,-46,-55,-87,4108,0.03,0.88,-1.13,-0.55,-0.87,41.08,-0.03,0.20,-117.80,0.05,-0.58,13.30
-1,3,-60,-19,-68,4073,0.02,0.81,-1.38,-0.19,-0.68,40.73,-0.05,0.21,-117.79,0.05,-0.42,14.22
0,4,-27,24,105,4093,0.02,0.75,-1.41,0.24,1.05,40.93,-0.03,0.21,-117.79,0.02,-0.42,11.39
1,2,-23,-32,63,4101,0.02,0.69,-1.41,-0.32,0.63,41.01,-0.01,0.21,-117.78,-0.02,-0.37,11.06
0,0,-16,-36,-25,4107,0.02,0.62,-1.37,-0.36,-0.25,41.07,-0.03,0.23,-117.78,0.01,-0.32,10.51
0,2,-20,-27,-2,4100,0.02,0.57,-1.35,-0.27,-0.02,41.00,-0.03,0.25,-117.77,0.01,-0.36,10.86
2,6,-31,-50,-62,4076,0.03,0.55,-1.41,-0.50,-0.62,40.76,-0.04,0.26,-117.77,-0.02,-0.44,11.74
3,3,-52,-85,-86,4114,0.04,0.51,-1.58,-0.85,-0.86,41.14,-0.06,0.27,-117.76,-0.03,-0.38,13.33
6,2,-66,-3,-53,4099,0.08,0.48,-1.83,-0.03,-0.53,40.99,-0.08,0.27,-117.75,-0.09,-0.35,14.25
5,4,-73,-60,-71,4138,0.10,0.45,-2.09,-0.60,-0.71,41.38,-0.09,0.28,-117.74,-0.07,-0.39,14.57
3,1,-29,49,101,4104,0.11,0.41,-2.06,0.49,1.01,41.04,-0.07,0.27,-117.74,-0.04,-0.31,10.87
-3,-6,-12,11,65,4108,0.08,0.34,-1.92,0.11,0.65,41.08,-0.06,0.27,-117.73,0.08,-0.14,9.57
3,2,-18,-88,-38,4092,0.09,0.31,-1.84,-0.88,-0.38,40.92,-0.07,0.28,-117.72,-0.04,-0.31,10.17
3,6,-19,-72,-29,4093,0.10,0.32,-1.77,-0.72,-0.29,40.93,-0.07,0.30,-117.71,-0.04,-0.41,10.33
3,6,-25,-45,3,4116,0.11,0.32,-1.75,-0.45,0.03,41.16,-0.07,0.32,-117.71,-0.05,-0.42,10.86
-1,10,-36,-69,-49,4082,0.09,0.35,-1.79,-0.69,-0.49,40.82,-0.08,0.33,-117.70,0.05,-0.52,11.74
1,1,-49,6,37,4062,0.09,0.32,-1.91,0.06,0.37,40.62,-0.06,0.32,-117.69,-0.00,-0.32,12.72
-1,-4,-26,-4,23,4134,0.07,0.27,-1.88,-0.04,0.23,41.34,-0.05,0.32,-117.68,0.03,-0.20,10.80
1,1,13,-19,1,4114,0.07,0.25,-1.61,-0.19,0.01,41.14,-0.03,0.30,-117.68,-0.02,-0.29,7.78
-1,1,18,-20,10,4104,0.06,0.23,-1.34,-0.20,0.10,41.04,-0.02,0.30,-117.67,0.01,-0.28,7.64
-2,0,-8,-12,-5,4110,0.04,0.20,-1.26,-0.12,-0.05,41.10,-0.02,0.29,-117.67,0.04,-0.25,9.94
0,-4,-13,41,35,4058,0.04,0.16,-1.21,0.41,0.35,40.58,-0.01,0.27,-117.66,-0.00,-0.14,10.41
-1,0,10,26,40,4084,0.03,0.14,-1.03,0.26,0.40,40.84,-0.00,0.26,-117.66,0.01,-0.21,8.65
0,0,6,16,33,4111,0.02,0.13,-0.89,0.16,0.33,41.11,0.01,0.25,-117.66,-0.01,-0.20,9.14
3,7,-11,-46,0,4101,0.04,0.16,-0.87,-0.46,0.00,41.01,0.01,0.26,-117.65,-0.08,-0.36,10.60
3,7,-10,-63,8,4097,0.05,0.19,-0.84,-0.63,0.08,40.97,0.02,0.28,-117.65,-0.09,-0.38,10.54
2,7,-16,-66,-41,4095,0.06,0.21,-0.85,-0.66,-0.41,40.95,0.00,0.30,-117.64,-0.06,-0.40,11.04
1,8,-14,-50,-19,4097,0.06,0.24,-0.85,-0.50,-0.19,40.97,-0.01,0.31,-117.64,-0.03,-0.43,10.87
1,8,13,-199,31,4081,0.06,0.26,-0.69,-1.99,0.31,40.81,-0.00,0.33,-117.64,-0.03,-0.45,8.76
1,3,29,-228,20,4104,0.06,0.25,-0.44,-2.28,0.20,41.04,-0.00,0.35,-117.64,-0.04,-0.36,7.66
-1,4,57,-128,-19,4131,0.05,0.25,-0.05,-1.28,-0.19,41.31,-0.00,0.37,-117.64,0.01,-0.40,5.70
-3,1,68,-37,-9,4123,0.03,0.23,0.37,-0.37,-0.09,41.23,-0.02,0.39,-117.64,0.06,-0.34,5.22
-6,-15,101,-13,-40,4106,-0.01,0.12,0.95,-0.13,-0.40,41.06,-0.03,0.38,-117.64,0.15,0.02,3.03
-5,-5,114,-99,-54,3975,-0.04,0.08,1.55,-0.99,-0.54,39.75,-0.04,0.40,-117.65,0.14,-0.18,2.57
2,29,158,-191,74,4132,-0.03,0.25,2.36,-1.91,0.74,41.32,-0.04,0.41,-117.66,-0.01,-0.93,-0.30
3,25,179,-81,137,4171,-0.01,0.37,3.21,-0.81,1.37,41.71,-0.02,0.42,-117.67,-0.05,-0.89,-1.17
4,30,211,213,47,4177,0.02,0.52,4.18,2.13,0.47,41.77,-0.02,0.41,-117.69,-0.08,-1.02,-2.86
7,24,194,441,58,3996,0.06,0.61,4.94,4.41,0.58,39.96,-0.01,0.39,-117.71,-0.15,-0.91,-0.61
4,17,135,291,177,4040,0.08,0.66,5.27,2.91,1.77,40.40,-0.00,0.38,-117.73,-0.10,-0.77,4.74
0,25,161,240,262,4104,0.07,0.74,5.73,2.40,2.62,41.04,0.01,0.37,-117.75,-0.03,-0.95,3.02
1,16,223,72,179,4100,0.07,0.77,6.52,0.72,1.79,41.00,0.03,0.36,-117.78,-0.06,-0.77,-1.39
4,16,247,67,125,4149,0.09,0.79,7.37,0.67,1.25,41.49,0.04,0.35,-117.81,-0.13,-0.77,-2.52
-4,8,228,-5,30,4039,0.05,0.76,8.02,-0.05,0.30,40.39,0.06,0.34,-117.84,0.03,-0.60,-0.21
-2,19,221,-80,-30,4087,0.04,0.80,8.57,-0.80,-0.30,40.87,0.05,0.36,-117.87,-0.00,-0.84,0.96
0,2,179,-75,-100,4139,0.03,0.73,8.81,-0.75,-1.00,41.39,0.03,0.37,-117.91,-0.03,-0.49,4.77
0,1,146,-163,-160,4126,0.03,0.66,8.82,-1.63,-1.60,41.26,0.02,0.39,-117.94,-0.02,-0.46,7.58
-1,2,19,-227,-279,4076,0.02,0.61,8.05,-2.27,-2.79,40.76,0.00,0.40,-117.98,0.01,-0.47,17.53
-3,7,0,-214,-113,4096,0.00,0.59,7.24,-2.14,-1.13,40.96,-0.01,0.42,-118.00,0.07,-0.58,18.29
-2,-6,-23,64,11,4042,-0.01,0.50,6.38,0.64,0.11,40.42,-0.00,0.40,-118.03,0.05,-0.28,19.33
0,-11,-38,-42,33,4121,-0.01,0.38,5.51,-0.42,0.33,41.21,0.01,0.41,-118.05,-0.01,-0.15,19.68
2,-4,-96,-48,-11,4103,0.00,0.32,4.37,-0.48,-0.11,41.03,0.00,0.43,-118.07,-0.04,-0.29,20.00
0,-3,-83,-131,-63,4099,0.00,0.27,3.43,-1.31,-0.63,40.99,-0.01,0.44,-118.08,0.00,-0.31,20.00
-2,-7,-103,-10,-18,4086,-0.01,0.20,2.46,-0.10,-0.18,40.86,-0.02,0.43,-118.09,0.06,-0.20,20.00
-1,-2,-95,5,-13,4137,-0.02,0.17,1.63,0.05,-0.13,41.37,-0.02,0.41,-118.10,0.04,-0.28,20.00
-1,-3,-45,-8,13,4100,-0.02,0.13,1.20,-0.08,0.13,41.00,-0.01,0.40,-118.10,0.03,-0.24,15.71
-2,-5,-35,-35,21,4107,-0.03,0.09,0.86,-0.35,0.21,41.07,0.00,0.41,-118.11,0.05,-0.19,14.51
-5,-6,-13,-15,-5,4136,-0.06,0.04,0.70,-0.15,-0.05,41.36,-0.00,0.39,-118.11,0.12,-0.15,12.47
0,-4,-3,18,16,4086,-0.05,0.01,0.61,0.18,0.16,40.86,0.00,0.37,-118.11,0.01,-0.17,11.53
2,-1,-1,-16,-3,4101,-0.03,0.01,0.54,-0.16,-0.03,41.01,-0.00,0.35,-118.12,-0.03,-0.21,11.29
0,-2,2,-14,-19,4080,-0.03,-0.01,0.50,-0.14,-0.19,40.80,-0.02,0.34,-118.12,0.02,-0.18,10.99
-1,-1,-7,-88,-19,4115,-0.03,-0.01,0.41,-0.88,-0.19,41.15,-0.02,0.36,-118.12,0.04,-0.21,11.65
-3,9,-6,-69,-78,4115,-0.05,0.04,0.33,-0.69,-0.78,41.15,-0.04,0.37,-118.12,0.10,-0.44,11.49
0,4,-46,243,-30,4233,-0.04,0.06,0.02,2.43,-0.30,42.33,-0.04,0.35,-118.12,0.04,-0.33,14.55
-2,-13,-78,265,-65,4129,-0.05,-0.02,-0.46,2.65,-0.65,41.29,-0.04,0.33,-118.12,0.08,0.05,16.75
-6,-19,-170,200,62,4127,-0.08,-0.14,-1.45,2.00,0.62,41.27,-0.04,0.32,-118.11,0.17,0.21,20.00
-2,-18,-180,134,53,3995,-0.09,-0.23,-2.40,1.34,0.53,39.95,-0.03,0.30,-118.10,0.09,0.23,20.00
0,-11,-218,-104,5,4110,-0.08,-0.28,-3.49,-1.04,0.05,41.10,-0.03,0.32,-118.09,0.04,0.09,20.00
2,-8,-200,-123,27,4075,-0.06,-0.30,-4.36,-1.23,0.27,40.75,-0.03,0.33,-118.07,-0.01,0.02,20.00
3,-2,-113,-276,100,4091,-0.03,-0.28,-4.62,-2.76,1.00,40.91,-0.02,0.35,-118.05,-0.04,-0.11,15.31
6,2,-84,-191,59,4082,0.01,-0.24,-4.67,-1.91,0.59,40.82,-0.02,0.36,-118.03,-0.11,-0.22,12.80
4,2,-42,-111,-20,4090,0.03,-0.20,-4.46,-1.11,-0.20,40.90,-0.02,0.38,-118.02,-0.08,-0.24,9.46
4,6,-22,-76,-25,4117,0.05,-0.15,-4.15,-0.76,-0.25,41.17,-0.03,0.40,-118.00,-0.08,-0.34,8.09
3,8,-7,-37,1,4102,0.06,-0.08,-3.77,-0.37,0.01,41.02,-0.02,0.41,-117.98,-0.06,-0.41,7.22
-1,7,2,-21,-3,4077,0.05,-0.03,-3.38,-0.21,-0.03,40.77,-0.02,0.40,-117.97,0.02,-0.39,6.86
0,6,1,-27,-6,4111,0.05,0.01,-3.04,-0.27,-0.06,41.11,-0.04,0.39,-117.96,0.01,-0.38,7.31
0,4,4,-25,-1,4093,0.04,0.03,-2.71,-0.25,-0.01,40.93,-0.03,0.38,-117.95,0.01,-0.34,7.41
0,2,0,-24,-2,4113,0.04,0.04,-2.44,-0.24,-0.02,41.13,-0.03,0.36,-117.94,0.01,-0.29,8.03
0,2,1,-26,3,4090,0.03,0.05,-2.19,-0.26,0.03,40.90,-0.01,0.36,-117.93,-0.00,-0.29,8.21
0,2,-1,-36,7,4095,0.03,0.06,-1.98,-0.36,0.07,40.95,-0.00,0.37,-117.92,-0.01,-0.30,8.60
-1,3,-2,-43,9,4108,0.02,0.07,-1.79,-0.43,0.09,41.08,0.01,0.39,-117.91,0.01,-0.34,8.88
2,5,-1,-40,-37,4086,0.03,0.09,-1.62,-0.40,-0.37,40.86,-0.01,0.40,-117.91,-0.04,-0.39,8.98
-1,1,0,-29,-25,4103,0.02,0.09,-1.46,-0.29,-0.25,41.03,-0.03,0.40,-117.90,0.03,-0.31,9.07
-2,-1,-13,-128,-29,4125,0.01,0.07,-1.39,-1.28,-0.29,41.25,-0.03,0.42,-117.90,0.06,-0.27,10.24
0,-8,-28,-138,-39,4093,0.01,0.02,-1.42,-1.38,-0.39,40.93,-0.04,0.43,-117.89,0.02,-0.13,11.48
0,-6,-84,-126,-66,4098,0.01,-0.02,-1.79,-1.26,-0.66,40.98,-0.05,0.45,-117.88,0.03,-0.17,15.83
4,5,-102,-114,-24,4120,0.03,0.01,-2.24,-1.14,-0.24,41.20,-0.05,0.47,-117.87,-0.06,-0.41,16.88
-7,-10,-143,-12,26,4162,-0.02,-0.05,-2.88,-0.12,0.26,41.62,-0.04,0.45,-117.86,0.17,-0.08,19.67
-4,-2,-128,120,77,4075,-0.04,-0.06,-3.38,1.20,0.77,40.75,-0.03,0.44,-117.85,0.11,-0.23,17.88
1,-1,-73,75,14,4062,-0.03,-0.06,-3.48,0.75,0.14,40.62,-0.03,0.42,-117.84,0.01,-0.24,13.10
1,3,-78,8,12,4090,-0.02,-0.03,-3.61,0.08,0.12,40.90,-0.02,0.40,-117.82,-0.00,-0.32,13.39
1,-2,-41,96,49,4087,-0.01,-0.04,-3.50,0.96,0.49,40.87,-0.01,0.39,-117.81,-0.01,-0.20,10.37
1,-3,-23,43,63,4066,-0.00,-0.06,-3.29,0.43,0.63,40.66,-0.00,0.37,-117.79,-0.02,-0.17,9.07
2,0,-9,-28,13,4092,0.01,-0.05,-3.02,-0.28,0.13,40.92,0.02,0.37,-117.78,-0.05,-0.23,8.17
0,3,-2,-32,11,4090,0.01,-0.03,-2.73,-0.32,0.11,40.90,0.03,0.38,-117.77,-0.02,-0.31,7.88
-1,-3,0,-75,-2,4115,0.00,-0.04,-2.45,-0.75,-0.02,41.15,0.03,0.40,-117.76,-0.00,-0.19,8.00
-10,-6,-3,-95,63,4076,-0.06,-0.08,-2.23,-0.95,0.63,40.76,0.04,0.41,-117.75,0.19,-0.13,8.49
3,8,-94,-240,18,4111,-0.04,-0.02,-2.58,-2.40,0.18,41.11,0.04,0.43,-117.74,-0.08,-0.44,15.83
1,-1,-157,-138,118,4115,-0.03,-0.02,-3.28,-1.38,1.18,41.15,0.06,0.44,-117.73,-0.05,-0.27,20.00
9,1,-236,72,119,4090,0.03,-0.01,-4.39,0.72,1.19,40.90,0.07,0.43,-117.71,-0.24,-0.30,20.00
11,10,-247,8,88,4074,0.10,0.05,-5.46,0.08,0.88,40.74,0.09,0.42,-117.69,-0.31,-0.50,20.00
8,5,-253,119,2,4111,0.13,0.07,-6.45,1.19,0.02,41.11,0.09,0.41,-117.66,-0.26,-0.39,20.00
6,1,-250,71,-49,4140,0.16,0.07,-7.33,0.71,-0.49,41.40,0.08,0.39,-117.64,-0.22,-0.30,20.00
0,-4,-294,4,-44,4107,0.14,0.04,-8.39,0.04,-0.44,41.07,0.06,0.38,-117.60,-0.08,-0.18,20.00
4,-8,-318,-80,-53,4103,0.15,-0.01,-9.49,-0.80,-0.53,41.03,0.05,0.39,-117.56,-0.16,-0.09,20.00
9,-13,-398,-82,43,4062,0.19,-0.09,-10.97,-0.82,0.43,40.62,0.06,0.41,-117.52,-0.28,0.02,20.00
14,-3,-410,-106,76,4012,0.26,-0.10,-12.38,-1.06,0.76,40.12,0.08,0.42,-117.47,-0.40,-0.19,20.00
11,-11,-460,-75,57,4067,0.30,-0.16,-13.95,-0.75,0.57,40.67,0.09,0.43,-117.41,-0.36,-0.02,20.00
11,-25,-458,-17,43,4155,0.34,-0.29,-15.34,-0.17,0.43,41.55,0.11,0.42,-117.35,-0.39,0.31,20.00
3,-18,-484,-140,-65,4163,0.32,-0.37,-16.76,-1.40,-0.65,41.63,0.10,0.44,-117.29,-0.21,0.18,20.00
1,-1,-482,-134,-75,3991,0.30,-0.34,-18.03,-1.34,-0.75,39.91,0.09,0.45,-117.21,-0.16,-0.18,20.00
3,-12,-513,-169,-177,4034,0.28,-0.38,-19.35,-1.69,-1.77,40.34,0.07,0.46,-117.14,-0.19,0.04,20.00
9,-14,-527,-123,-71,4020,0.31,-0.43,-20.63,-1.23,-0.71,40.20,0.06,0.47,-117.05,-0.31,0.09,20.00
16,-1,-559,-90,-124,4054,0.38,-0.39,-21.98,-0.90,-1.24,40.54,0.05,0.48,-116.97,-0.46,-0.19,20.00
2,5,-551,-122,-109,4082,0.35,-0.32,-23.14,-1.22,-1.09,40.82,0.03,0.49,-116.87,-0.16,-0.34,20.00
8,-20,-495,-124,-63,4157,0.37,-0.41,-23.85,-1.24,-0.63,41.57,0.02,0.50,-116.78,-0.28,0.19,20.00
14,-8,-479,-116,-50,4066,0.41,-0.42,-24.38,-1.16,-0.50,40.66,0.01,0.52,-116.68,-0.41,-0.06,20.00
-4,-13,-391,-49,106,4074,0.35,-0.46,-24.33,-0.49,1.06,40.74,0.03,0.52,-116.58,-0.03,0.05,17.85
-1,-3,-326,-113,99,4088,0.31,-0.43,-23.89,-1.13,0.99,40.88,0.05,0.53,-116.49,-0.09,-0.17,12.81
6,3,-237,-221,80,4089,0.31,-0.37,-22.94,-2.21,0.80,40.89,0.05,0.54,-116.40,-0.24,-0.32,6.26
12,0,-223,-216,42,4242,0.36,-0.33,-22.01,-2.16,0.42,42.42,0.06,0.56,-116.31,-0.38,-0.28,6.05
-3,-6,-155,-147,96,4206,0.30,-0.33,-20.75,-1.47,0.96,42.06,0.07,0.57,-116.22,-0.07,-0.16,1.62
-7,-4,-119,-127,110,4069,0.23,-0.33,-19.40,-1.27,1.10,40.69,0.09,0.58,-116.15,0.02,-0.21,-0.01
-10,-9,-25,30,63,4143,0.14,-0.35,-17.62,0.30,0.63,41.43,0.10,0.57,-116.08,0.10,-0.10,-6.09
3,3,-15,102,67,4028,0.15,-0.30,-15.95,1.02,0.67,40.28,0.10,0.55,-116.01,-0.17,-0.34,-5.17
-6,3,-43,51,63,4072,0.10,-0.25,-14.61,0.51,0.63,40.72,0.11,0.53,-115.96,0.02,-0.34,-1.40
-7,-4,-57,22,47,4123,0.04,-0.25,-13.50,0.22,0.47,41.23,0.12,0.52,-115.90,0.05,-0.19,0.96
-1,5,-100,13,110,4096,0.03,-0.19,-12.76,0.13,1.10,40.96,0.14,0.51,-115.85,-0.08,-0.38,5.39
6,14,-97,-17,138,4101,0.07,-0.09,-12.08,-0.17,1.38,41.01,0.16,0.50,-115.80,-0.24,-0.59,5.85
0,19,-128,18,65,3968,0.06,0.04,-11.65,0.18,0.65,39.68,0.17,0.49,-115.76,-0.13,-0.72,8.93
-2,14,-153,-12,89,3998,0.04,0.12,-11.42,-0.12,0.89,39.98,0.19,0.49,-115.71,-0.09,-0.64,11.29
-7,-3,-241,-42,59,4150,-0.00,0.09,-11.75,-0.42,0.59,41.50,0.20,0.49,-115.66,0.01,-0.29,18.39
11,6,-265,-21,162,4069,0.06,0.12,-12.19,-0.21,1.62,40.69,0.22,0.49,-115.61,-0.39,-0.48,19.95
3,-1,-320,-42,83,4077,0.07,0.10,-12.92,-0.42,0.83,40.77,0.24,0.49,-115.56,-0.24,-0.33,20.00
-12,1,-335,-35,128,4049,-0.01,0.10,-13.67,-0.35,1.28,40.49,0.26,0.49,-115.51,0.07,-0.37,20.00
5,-5,-390,61,146,4055,0.03,0.06,-14.68,0.61,1.46,40.55,0.27,0.48,-115.45,-0.29,-0.23,20.00
17,11,-411,112,137,3984,0.13,0.12,-15.72,1.12,1.37,39.84,0.28,0.47,-115.39,-0.57,-0.56,20.00
11,6,-440,149,159,4081,0.18,0.14,-16.83,1.49,1.59,40.81,0.30,0.45,-115.32,-0.47,-0.46,20.00
-12,-12,-456,130,104,4082,0.09,0.05,-17.93,1.30,1.04,40.82,0.30,0.44,-115.25,0.02,-0.06,20.00
-7,-17,-500,8,94,4060,0.04,-0.05,-19.19,0.08,0.94,40.60,0.32,0.43,-115.17,-0.08,0.08,20.00
8,1,-510,80,67,4113,0.08,-0.04,-20.38,0.80,0.67,41.13,0.33,0.41,-115.09,-0.40,-0.28,20.00
0,3,-488,135,41,4089,0.07,-0.02,-21.32,1.35,0.41,40.89,0.33,0.40,-115.00,-0.24,-0.32,20.00
1,-8,-495,161,53,4114,0.07,-0.07,-22.21,1.61,0.53,41.14,0.33,0.38,-114.92,-0.26,-0.07,20.00
3,7,-509,136,14,4033,0.08,-0.02,-23.09,1.36,0.14,40.33,0.33,0.36,-114.82,-0.30,-0.37,20.00
1,-7,-510,89,63,4171,0.08,-0.06,-23.89,0.89,0.63,41.71,0.33,0.34,-114.73,-0.26,-0.07,20.00
16,-10,-529,38,-49,4173,0.17,-0.11,-24.73,0.38,-0.49,41.73,0.32,0.33,-114.63,-0.58,0.02,20.00
12,-6,-542,62,-47,4038,0.23,-0.14,-25.56,0.62,-0.47,40.38,0.31,0.32,-114.53,-0.51,-0.05,20.00
20,-12,-577,37,-13,4064,0.33,-0.20,-26.53,0.37,-0.13,40.64,0.30,0.30,-114.42,-0.69,0.10,20.00
-8,-10,-577,39,-35,4128,0.25,-0.24,-27.39,0.39,-0.35,41.28,0.29,0.29,-114.31,-0.09,0.08,20.00
5,-12,-592,-1,-57,4130,0.25,-0.29,-28.27,-0.01,-0.57,41.30,0.27,0.28,-114.20,-0.35,0.14,20.00
5,-14,-589,30,20,4137,0.26,-0.35,-29.03,0.30,0.20,41.37,0.27,0.26,-114.08,-0.35,0.21,20.00
20,-9,-533,13,-83,4152,0.35,-0.37,-29.38,0.13,-0.83,41.52,0.26,0.26,-113.96,-0.67,0.11,20.00
21,0,-528,-50,-100,4009,0.45,-0.33,-29.66,-0.50,-1.00,40.09,0.24,0.26,-113.85,-0.71,-0.08,20.00
11,-14,-447,-146,-96,4135,0.47,-0.38,-29.42,-1.46,-0.96,41.35,0.23,0.27,-113.73,-0.50,0.21,16.95
4,-7,-423,-104,-38,4015,0.45,-0.39,-29.06,-1.04,-0.38,40.15,0.22,0.29,-113.61,-0.35,0.06,15.29
-9,-10,-371,-5,-89,4044,0.35,-0.41,-28.42,-0.05,-0.89,40.44,0.20,0.28,-113.50,-0.04,0.13,11.55
2,2,-370,140,-97,4144,0.32,-0.36,-27.83,1.40,-0.97,41.44,0.19,0.27,-113.39,-0.26,-0.12,12.08
8,-6,-342,104,-91,4121,0.34,-0.36,-27.14,1.04,-0.91,41.21,0.18,0.25,-113.28,-0.38,0.05,10.44
2,-6,-322,18,-100,4092,0.32,-0.36,-26.39,0.18,-1.00,40.92,0.16,0.25,-113.17,-0.24,0.06,9.53
4,1,-266,-59,-123,4058,0.31,-0.32,-25.37,-0.59,-1.23,40.58,0.15,0.25,-113.07,-0.26,-0.10,5.85
-3,-4,-247,-82,-123,4142,0.26,-0.31,-24.34,-0.82,-1.23,41.42,0.13,0.26,-112.97,-0.10,-0.00,5.32
5,1,-166,-39,-164,4091,0.27,-0.27,-22.92,-0.39,-1.64,40.91,0.11,0.26,-112.88,-0.25,-0.12,-0.05
9,18,-137,168,-156,4167,0.29,-0.13,-21.46,1.68,-1.56,41.67,0.10,0.24,-112.80,-0.33,-0.49,-0.97
0,0,-81,-97,-53,4126,0.26,-0.12,-19.81,-0.97,-0.53,41.26,0.09,0.26,-112.72,-0.13,-0.14,-3.97
0,-2,-74,-124,-34,4124,0.24,-0.12,-18.28,-1.24,-0.34,41.24,0.09,0.27,-112.64,-0.12,-0.11,-2.95
-4,-5,-11,-29,-11,4091,0.19,-0.14,-16.52,-0.29,-0.11,40.91,0.07,0.28,-112.58,-0.02,-0.05,-6.43
0,-5,-12,-30,-14,4091,0.17,-0.16,-14.94,-0.30,-0.14,40.91,0.06,0.29,-112.52,-0.08,-0.05,-4.68
-1,-4,2,-22,4,4101,0.15,-0.16,-13.43,-0.22,0.04,41.01,0.06,0.31,-112.46,-0.06,-0.08,-4.27
-3,-3,0,-38,37,4089,0.11,-0.17,-12.09,-0.38,0.37,40.89,0.07,0.32,-112.41,-0.02,-0.10,-2.69
-5,-7,8,-180,158,4105,0.07,-0.19,-10.83,-1.80,1.58,41.05,0.09,0.33,-112.37,0.03,-0.02,-2.04
-7,-8,41,-259,251,4106,0.02,-0.22,-9.50,-2.59,2.51,41.06,0.10,0.34,-112.33,0.07,-0.00,-3.42
-13,-16,74,-70,12,4020,-0.06,-0.30,-8.10,-0.70,0.12,40.20,0.10,0.36,-112.30,0.21,0.17,-4.74
-8,-3,32,-134,147,4063,-0.10,-0.29,-7.09,-1.34,1.47,40.63,0.11,0.37,-112.27,0.11,-0.10,-0.12
-6,-2,-71,-134,263,4077,-0.13,-0.27,-6.82,-1.34,2.63,40.77,0.13,0.37,-112.25,0.07,-0.13,8.90
-5,-5,-100,-101,252,4174,-0.15,-0.27,-6.75,-1.01,2.52,41.74,0.15,0.38,-112.22,0.04,-0.07,11.43
9,-2,-266,-39,216,4023,-0.08,-0.26,-7.69,-0.39,2.16,40.23,0.17,0.38,-112.19,-0.27,-0.14,20.00
-1,-5,-314,13,210,4098,-0.07,-0.26,-8.84,0.13,2.10,40.98,0.18,0.37,-112.15,-0.08,-0.07,20.00
5,-4,-440,82,287,4064,-0.04,-0.26,-10.64,0.82,2.87,40.64,0.20,0.37,-112.11,-0.22,-0.09,20.00
9,-2,-471,236,188,4177,0.02,-0.25,-12.45,2.36,1.88,41.77,0.21,0.35,-112.06,-0.33,-0.12,20.00
3,-10,-548,-69,34,4208,0.04,-0.28,-14.55,-0.69,0.34,42.08,0.22,0.37,-112.00,-0.21,0.04,20.00
-3,-18,-573,-102,121,4163,0.02,-0.36,-16.59,-1.02,1.21,41.63,0.23,0.38,-111.94,-0.10,0.22,20.00
8,-27,-632,-144,97,4173,0.06,-0.49,-18.78,-1.44,0.97,41.73,0.24,0.39,-111.86,-0.34,0.43,20.00
4,-19,-638,-139,98,3997,0.08,-0.56,-20.80,-1.39,0.98,39.97,0.25,0.40,-111.78,-0.27,0.27,20.00
11,-9,-692,-15,69,3981,0.14,-0.56,-22.94,-0.15,0.69,39.81,0.27,0.40,-111.69,-0.44,0.07,20.00
21,-14,-712,88,129,4156,0.25,-0.59,-24.99,0.88,1.29,41.56,0.28,0.38,-111.59,-0.68,0.19,20.00
32,-6,-726,18,11,4057,0.42,-0.57,-26.92,0.18,0.11,40.57,0.28,0.36,-111.48,-0.95,0.04,20.00
-1,-18,-724,-200,154,4160,0.38,-0.62,-28.64,-2.00,1.54,41.60,0.29,0.37,-111.36,-0.27,0.29,20.00
3,-22,-713,-138,-31,4015,0.36,-0.69,-30.13,-1.38,-0.31,40.15,0.28,0.39,-111.24,-0.35,0.38,20.00
10,-6,-725,43,-48,4138,0.38,-0.66,-31.54,0.43,-0.48,41.38,0.27,0.37,-111.12,-0.49,0.06,20.00
15,-5,-715,116,2,4051,0.43,-0.62,-32.75,1.16,0.02,40.51,0.27,0.35,-110.99,-0.60,0.04,20.00
15,-6,-711,44,-58,4026,0.48,-0.60,-33.81,0.44,-0.58,40.26,0.26,0.34,-110.85,-0.61,0.06,20.00
21,-1,-644,-27,31,4078,0.56,-0.54,-34.36,-0.27,0.31,40.78,0.28,0.34,-110.71,-0.76,-0.06,20.00
18,0,-627,-29,3,4184,0.62,-0.49,-34.74,-0.29,0.03,41.84,0.26,0.34,-110.57,-0.71,-0.09,20.00
0,-5,-604,-4,-41,4173,0.55,-0.47,-34.95,-0.04,-0.41,41.73,0.25,0.34,-110.43,-0.31,0.01,20.00
7,-8,-597,13,60,4063,0.54,-0.47,-35.10,0.13,0.60,40.63,0.26,0.32,-110.29,-0.46,0.08,20.00
12,14,-578,220,-73,3984,0.56,-0.34,-35.12,2.20,-0.73,39.84,0.26,0.31,-110.15,-0.57,-0.39,20.00
20,9,-576,56,-74,4037,0.63,-0.25,-35.12,0.56,-0.74,40.37,0.24,0.29,-110.01,-0.74,-0.31,20.00
5,-20,-531,-286,-82,4099,0.59,-0.35,-34.85,-2.86,-0.82,40.99,0.24,0.31,-109.87,-0.42,0.30,17.98
12,-20,-486,-36,-224,4192,0.61,-0.44,-34.33,-0.36,-2.24,41.92,0.22,0.31,-109.74,-0.56,0.32,14.70
14,-2,-422,45,-224,4087,0.63,-0.40,-33.47,0.45,-2.24,40.87,0.21,0.30,-109.60,-0.59,-0.05,10.18
8,-12,-397,-57,-224,4074,0.62,-0.44,-32.54,-0.57,-2.24,40.74,0.19,0.30,-109.47,-0.46,0.16,9.03
10,-9,-279,38,-228,4099,0.62,-0.45,-30.99,0.38,-2.28,40.99,0.17,0.30,-109.35,-0.49,0.11,0.66
4,-4,-245,2,-206,4006,0.58,-0.43,-29.39,0.02,-2.06,40.06,0.16,0.30,-109.23,-0.34,0.00,-0.53
4,-2,-153,-57,-196,4015,0.55,-0.40,-27.38,-0.57,-1.96,40.15,0.14,0.30,-109.12,-0.32,-0.05,-6.21
1,-6,-127,-44,-184,4124,0.50,-0.39,-25.42,-0.44,-1.84,41.24,0.12,0.30,-109.02,-0.24,0.03,-6.34
-6,2,-75,-115,41,4121,0.41,-0.34,-23.33,-1.15,0.41,41.21,0.13,0.31,-108.93,-0.08,-0.15,-8.55
-3,1,-79,-144,67,4155,0.35,-0.30,-21.48,-1.44,0.67,41.55,0.14,0.33,-108.84,-0.13,-0.16,-6.26
8,14,-111,103,6,4013,0.37,-0.19,-20.01,1.03,0.06,40.13,0.14,0.31,-108.76,-0.36,-0.44,-2.00
7,4,-119,73,-41,4143,0.37,-0.14,-18.74,0.73,-0.41,41.43,0.13,0.29,-108.69,-0.33,-0.24,0.03
4,2,-110,30,-75,4104,0.36,-0.12,-17.53,0.30,-0.75,41.04,0.12,0.28,-108.61,-0.26,-0.20,0.53
0,5,-102,29,-33,4096,0.32,-0.07,-16.40,0.29,-0.33,40.96,0.11,0.27,-108.55,-0.16,-0.26,1.04
7,3,-100,-54,59,4115,0.33,-0.05,-15.37,-0.54,0.59,41.15,0.12,0.28,-108.49,-0.31,-0.23,1.96
4,2,-107,-77,57,4091,0.32,-0.03,-14.49,-0.77,0.57,40.91,0.14,0.29,-108.43,-0.26,-0.23,3.48
-3,-3,-150,-128,45,4119,0.27,-0.05,-13.95,-1.28,0.45,41.19,0.14,0.31,-108.37,-0.11,-0.13,7.69
-1,1,-153,-55,41,4074,0.24,-0.04,-13.49,-0.55,0.41,40.74,0.16,0.33,-108.32,-0.15,-0.23,8.43
4,4,-112,50,-109,4058,0.24,-0.01,-12.83,0.50,-1.09,40.58,0.14,0.32,-108.27,-0.24,-0.29,5.65
3,2,-95,52,-95,4107,0.23,0.00,-12.12,0.52,-0.95,41.07,0.13,0.31,-108.22,-0.21,-0.24,4.95
4,3,-45,27,-67,4083,0.24,0.02,-11.18,0.27,-0.67,40.83,0.11,0.30,-108.18,-0.22,-0.26,1.71
2,7,-47,-71,-72,4088,0.22,0.06,-10.35,-0.71,-0.72,40.88,0.10,0.31,-108.13,-0.17,-0.36,2.75
1,3,-83,14,10,4075,0.21,0.08,-9.82,0.14,0.10,40.75,0.10,0.29,-108.09,-0.14,-0.27,6.36
2,1,-84,22,-23,4109,0.20,0.07,-9.35,0.22,-0.23,41.09,0.09,0.27,-108.06,-0.15,-0.22,6.94
2,-3,-83,54,62,4086,0.19,0.05,-8.92,0.54,0.62,40.86,0.10,0.26,-108.02,-0.16,-0.12,7.30
1,-3,-68,71,110,4120,0.18,0.02,-8.45,0.71,1.10,41.20,0.12,0.25,-107.99,-0.15,-0.11,6.54
0,2,-18,28,66,4091,0.16,0.03,-7.71,0.28,0.66,40.91,0.13,0.24,-107.96,-0.13,-0.21,3.07
0,2,-10,15,55,4097,0.14,0.04,-7.00,0.15,0.55,40.97,0.15,0.23,-107.93,-0.14,-0.20,3.15
0,3,2,-8,19,4100,0.13,0.06,-6.29,-0.08,0.19,41.00,0.16,0.21,-107.90,-0.14,-0.22,2.88
0,2,2,1,23,4094,0.12,0.06,-5.65,0.01,0.23,40.94,0.17,0.20,-107.88,-0.14,-0.19,3.56
1,0,0,-10,23,4104,0.11,0.06,-5.08,-0.10,0.23,41.04,0.19,0.19,-107.86,-0.18,-0.14,4.32
-1,-1,-2,0,23,4097,0.09,0.05,-4.59,0.00,0.23,40.97,0.20,0.18,-107.84,-0.14,-0.11,5.02
-2,-2,-7,-14,24,4088,0.07,0.03,-4.17,-0.14,0.24,40.88,0.22,0.18,-107.83,-0.12,-0.09,5.88
-1,-3,-6,-10,24,4098,0.06,0.01,-3.79,-0.10,0.24,40.98,0.24,0.17,-107.81,-0.15,-0.06,6.20
-3,-5,-9,-33,14,4103,0.04,-0.02,-3.47,-0.33,0.14,41.03,0.23,0.19,-107.80,-0.10,-0.02,6.79
3,-7,-10,-92,-35,4054,0.05,-0.06,-3.18,-0.92,-0.35,40.54,0.22,0.21,-107.78,-0.22,0.02,7.18
-11,-23,-81,-226,69,4119,-0.02,-0.20,-3.36,-2.26,0.69,41.19,0.23,0.22,-107.77,0.08,0.37,13.01
-2,-5,-103,-217,32,3997,-0.03,-0.21,-3.65,-2.17,0.32,39.97,0.23,0.24,-107.76,-0.10,-0.00,14.56
15,36,-180,471,81,4132,0.06,0.03,-4.38,4.71,0.81,41.32,0.23,0.22,-107.74,-0.47,-0.89,20.00
12,24,-194,429,181,3986,0.13,0.18,-5.13,4.29,1.81,39.86,0.24,0.21,-107.72,-0.44,-0.67,20.00
-8,-15,-82,-264,3,4026,0.07,0.07,-5.12,-2.64,0.03,40.26,0.24,0.23,-107.70,-0.01,0.14,11.22
-10,-18,-82,-334,-31,4084,-0.00,-0.05,-5.10,-3.34,-0.31,40.84,0.23,0.24,-107.68,0.05,0.22,11.23
-2,-23,-125,-113,59,4173,-0.01,-0.19,-5.36,-1.13,0.59,41.73,0.24,0.26,-107.66,-0.12,0.35,14.61
14,-14,-130,64,92,4127,0.07,-0.25,-5.61,0.64,0.92,41.27,0.25,0.25,-107.63,-0.47,0.19,14.76
9,13,-115,137,18,4137,0.12,-0.15,-5.75,1.37,0.18,41.37,0.25,0.23,-107.61,-0.38,-0.37,13.34
1,3,-118,7,-29,4059,0.12,-0.11,-5.90,0.07,-0.29,40.59,0.24,0.22,-107.59,-0.21,-0.17,13.43
9,-4,-133,-85,-42,4063,0.16,-0.13,-6.12,-0.85,-0.42,40.63,0.23,0.23,-107.56,-0.38,-0.04,14.47
1,4,-132,-106,-37,4090,0.15,-0.09,-6.31,-1.06,-0.37,40.90,0.22,0.25,-107.54,-0.20,-0.22,14.18
9,-2,-127,23,40,4184,0.19,-0.09,-6.46,0.23,0.40,41.84,0.23,0.23,-107.51,-0.38,-0.09,13.60
-2,20,-99,209,-6,4064,0.16,0.04,-6.41,2.09,-0.06,40.64,0.23,0.21,-107.49,-0.15,-0.56,11.27
3,-1,-126,-110,-29,4019,0.16,0.03,-6.54,-1.10,-0.29,40.19,0.22,0.23,-107.46,-0.25,-0.14,13.42
3,5,-164,-228,73,4101,0.16,0.06,-6.89,-2.28,0.73,41.01,0.22,0.25,-107.43,-0.25,-0.28,16.27
-3,-5,-180,-225,-96,4109,0.13,0.02,-7.30,-2.25,-0.96,41.09,0.22,0.26,-107.40,-0.12,-0.08,17.19
-2,-12,-198,16,-48,4209,0.10,-0.06,-7.78,0.16,-0.48,42.09,0.20,0.26,-107.37,-0.12,0.09,18.21
13,11,-224,214,66,4154,0.17,0.02,-8.36,2.14,0.66,41.54,0.20,0.24,-107.34,-0.45,-0.39,19.78
1,2,-203,86,62,4121,0.16,0.03,-8.77,0.86,0.62,41.21,0.21,0.22,-107.30,-0.20,-0.19,17.57
-4,-21,-129,-113,116,4171,0.12,-0.10,-8.68,-1.13,1.16,41.71,0.23,0.23,-107.27,-0.10,0.30,11.40
0,-11,-105,-137,115,4126,0.11,-0.16,-8.45,-1.37,1.15,41.26,0.24,0.25,-107.23,-0.19,0.10,9.60
11,31,-59,631,135,4046,0.16,0.04,-7.96,6.31,1.35,40.46,0.24,0.23,-107.20,-0.43,-0.79,6.21
12,22,-41,470,73,4025,0.22,0.17,-7.42,4.70,0.73,40.25,0.25,0.21,-107.17,-0.47,-0.64,5.26
-1,-26,-36,-474,0,4128,0.19,-0.00,-6.90,-4.74,0.00,41.28,0.25,0.23,-107.15,-0.19,0.38,5.39
6,-19,-86,-241,23,4117,0.21,-0.12,-6.73,-2.41,0.23,41.17,0.25,0.25,-107.12,-0.34,0.25,9.80
0,7,-219,214,96,4006,0.19,-0.06,-7.39,2.14,0.96,40.06,0.25,0.23,-107.09,-0.22,-0.28,20.00
0,27,-223,152,36,4072,0.17,0.11,-8.01,1.52,0.36,40.72,0.26,0.21,-107.06,-0.22,-0.72,20.00
12,11,-226,47,17,4124,0.23,0.16,-8.59,0.47,0.17,41.24,0.26,0.20,-107.02,-0.47,-0.40,19.68
2,19,-226,2,-34,4055,0.22,0.26,-9.11,0.02,-0.34,40.55,0.24,0.19,-106.99,-0.26,-0.59,19.13
0,2,-196,-16,-17,4057,0.19,0.25,-9.40,-0.16,-0.17,40.57,0.22,0.19,-106.95,-0.20,-0.24,16.28
7,-2,-195,-3,-22,4070,0.22,0.21,-9.65,-0.03,-0.22,40.70,0.20,0.19,-106.91,-0.34,-0.14,15.93
-3,-5,-150,6,139,4037,0.18,0.16,-9.60,0.06,1.39,40.37,0.22,0.19,-106.87,-0.13,-0.07,12.17
-3,-7,-135,41,133,4094,0.14,0.10,-9.46,0.41,1.33,40.94,0.24,0.18,-106.83,-0.14,-0.01,11.04
6,6,-124,70,36,4154,0.16,0.13,-9.27,0.70,0.36,41.54,0.24,0.16,-106.80,-0.33,-0.27,10.30
6,5,-117,89,28,4080,0.18,0.15,-9.06,0.89,0.28,40.80,0.25,0.15,-106.76,-0.34,-0.24,9.93
7,11,-83,14,24,4100,0.21,0.20,-8.66,0.14,0.24,41.00,0.25,0.13,-106.73,-0.37,-0.36,7.47
1,6,-82,-15,14,4101,0.19,0.22,-8.29,-0.15,0.14,41.01,0.24,0.15,-106.69,-0.23,-0.28,7.77
6,-2,-75,-95,30,4037,0.21,0.18,-7.92,-0.95,0.30,40.37,0.25,0.16,-106.66,-0.34,-0.12,7.57
8,3,-74,-125,35,4099,0.24,0.18,-7.58,-1.25,0.35,40.99,0.25,0.18,-106.63,-0.39,-0.23,7.84
2,-1,-93,-148,74,4178,0.23,0.16,-7.39,-1.48,0.74,41.78,0.26,0.20,-106.60,-0.27,-0.16,9.65
0,-14,-101,-101,111,4159,0.20,0.06,-7.27,-1.01,1.11,41.59,0.27,0.21,-106.57,-0.24,0.13,10.45
1,-5,-114,-11,55,4149,0.19,0.02,-7.23,-0.11,0.55,41.49,0.29,0.21,-106.54,-0.26,-0.04,11.59
-7,-19,-121,37,54,4108,0.13,-0.10,-7.25,0.37,0.54,41.08,0.30,0.20,-106.51,-0.09,0.28,12.16
3,2,-156,129,13,4113,0.13,-0.08,-7.48,1.29,0.13,41.13,0.30,0.18,-106.48,-0.30,-0.14,14.88
2,10,-175,104,15,4075,0.13,-0.01,-7.80,1.04,0.15,40.75,0.30,0.16,-106.45,-0.27,-0.31,16.15
-2,2,-157,-28,48,4083,0.11,0.01,-7.97,-0.28,0.48,40.83,0.32,0.17,-106.42,-0.20,-0.15,14.44
3,-2,-148,-30,15,4132,0.11,-0.01,-8.08,-0.30,0.15,41.32,0.31,0.19,-106.39,-0.30,-0.08,13.56
-4,-10,-91,-45,48,4127,0.08,-0.07,-7.83,-0.45,0.48,41.27,0.32,0.20,-106.36,-0.15,0.09,8.99
0,-4,-80,-44,-11,4050,0.07,-0.09,-7.53,-0.44,-0.11,40.50,0.31,0.21,-106.33,-0.22,-0.04,8.37
-1,-3,-52,-99,35,4065,0.06,-0.09,-7.10,-0.99,0.35,40.65,0.31,0.23,-106.30,-0.20,-0.07,6.46
0,-3,-57,-75,23,4136,0.05,-0.10,-6.73,-0.75,0.23,41.36,0.31,0.25,-106.27,-0.22,-0.07,7.26
-1,-19,-112,109,68,4095,0.04,-0.21,-6.74,1.09,0.68,40.95,0.32,0.23,-106.25,-0.20,0.29,11.91
3,-11,-119,70,54,4089,0.05,-0.26,-6.80,0.70,0.54,40.89,0.32,0.21,-106.22,-0.29,0.15,12.45
10,-4,-210,98,-42,4114,0.11,-0.25,-7.40,0.98,-0.42,41.14,0.31,0.20,-106.19,-0.44,0.02,19.52
19,-17,-205,60,-43,4206,0.22,-0.33,-7.91,0.60,-0.43,42.06,0.30,0.18,-106.16,-0.64,0.32,18.55
4,-13,-141,-23,-15,4028,0.22,-0.38,-7.98,-0.23,-0.15,40.28,0.29,0.18,-106.13,-0.33,0.25,13.05
-3,-7,-141,-6,15,4113,0.18,-0.38,-8.04,-0.06,0.15,41.13,0.28,0.17,-106.09,-0.17,0.14,12.98
5,-7,-158,-51,113,4114,0.19,-0.39,-8.20,-0.51,1.13,41.14,0.29,0.17,-106.06,-0.35,0.13,14.25
5,-16,-152,-78,32,4168,0.20,-0.45,-8.31,-0.78,0.32,41.68,0.30,0.19,-106.03,-0.35,0.32,13.62
9,-3,-230,-88,135,4093,0.24,-0.42,-8.88,-0.88,1.35,40.93,0.31,0.20,-105.99,-0.45,0.04,19.62
-11,-7,-243,-85,183,4026,0.15,-0.42,-9.47,-0.85,1.83,40.26,0.33,0.21,-105.95,-0.03,0.12,20.00
29,-2,-317,-4,27,4221,0.31,-0.39,-10.46,-0.04,0.27,42.21,0.34,0.19,-105.91,-0.90,0.02,20.00
15,-21,-330,-96,-61,4130,0.37,-0.48,-11.43,-0.96,-0.61,41.30,0.32,0.20,-105.87,-0.62,0.43,20.00
3,-14,-384,25,93,4029,0.35,-0.52,-12.63,0.25,0.93,40.29,0.34,0.19,-105.82,-0.38,0.30,20.00
6,19,-407,77,59,4095,0.35,-0.35,-13.85,0.77,0.59,40.95,0.35,0.17,-105.76,-0.45,-0.40,20.00
0,-10,-360,-61,115,4122,0.32,-0.38,-14.66,-0.61,1.15,41.22,0.37,0.18,-105.70,-0.33,0.19,20.00
11,-12,-362,-37,81,4124,0.35,-0.41,-15.40,-0.37,0.81,41.24,0.38,0.18,-105.64,-0.57,0.24,20.00
11,-32,-382,106,158,4078,0.38,-0.57,-16.19,1.06,1.58,40.78,0.40,0.17,-105.58,-0.59,0.69,20.00
9,-31,-390,105,102,4109,0.40,-0.70,-16.95,1.05,1.02,41.09,0.41,0.15,-105.51,-0.56,0.72,20.00
13,-47,-410,105,50,4146,0.44,-0.91,-17.76,1.05,0.50,41.46,0.41,0.13,-105.44,-0.66,1.12,20.00
11,-62,-413,93,59,4072,0.46,-1.20,-18.50,0.93,0.59,40.72,0.42,0.11,-105.36,-0.63,1.52,20.00
15,-15,-406,123,23,4046,0.51,-1.17,-19.13,1.23,0.23,40.46,0.42,0.08,-105.29,-0.72,0.57,20.00
7,0,-408,121,-16,4061,0.50,-1.06,-19.70,1.21,-0.16,40.61,0.42,0.06,-105.21,-0.55,0.25,20.00
6,20,-427,104,158,4082,0.49,-0.83,-20.34,1.04,1.58,40.82,0.43,0.05,-105.13,-0.54,-0.21,20.00
7,35,-454,133,166,4097,0.48,-0.53,-21.07,1.33,1.66,40.97,0.45,0.03,-105.04,-0.57,-0.59,20.00
1,32,-501,-91,191,4070,0.44,-0.28,-22.02,-0.91,1.91,40.70,0.47,0.04,-104.95,-0.45,-0.60,20.00
3,24,-536,-132,172,4107,0.41,-0.11,-23.09,-1.32,1.72,41.07,0.48,0.06,-104.86,-0.49,-0.50,20.00
6,9,-627,-79,256,4171,0.41,-0.04,-24.60,-0.79,2.56,41.71,0.50,0.06,-104.76,-0.56,-0.21,20.00
12,-14,-647,-90,244,4147,0.44,-0.12,-26.09,-0.90,2.44,41.47,0.52,0.07,-104.66,-0.71,0.27,20.00
7,-22,-755,-80,243,4064,0.44,-0.25,-28.09,-0.80,2.43,40.64,0.54,0.08,-104.55,-0.62,0.46,20.00
32,6,-787,-33,264,4106,0.59,-0.18,-30.08,-0.33,2.64,41.06,0.56,0.08,-104.43,-1.18,-0.12,20.00
13,-2,-873,-82,290,4076,0.61,-0.18,-32.40,-0.82,2.90,40.76,0.58,0.08,-104.30,-0.81,0.03,20.00
16,-4,-886,-25,425,4143,0.65,-0.18,-34.56,-0.25,4.25,41.43,0.60,0.09,-104.16,-0.90,0.07,20.00
4,-13,-989,18,419,3997,0.61,-0.25,-37.14,0.18,4.19,39.97,0.62,0.09,-104.01,-0.66,0.27,20.00
2,18,-1054,50,487,4075,0.56,-0.11,-39.85,0.50,4.87,40.75,0.64,0.09,-103.85,-0.61,-0.39,20.00
10,-9,-1231,-57,527,4122,0.56,-0.16,-43.38,-0.57,5.27,41.22,0.66,0.09,-103.68,-0.79,0.17,20.00
19,-8,-1280,-80,586,3996,0.62,-0.19,-46.85,-0.80,5.86,39.96,0.68,0.09,-103.49,-1.00,0.15,20.00
24,-37,-1414,-57,520,4014,0.71,-0.40,-50.79,-0.57,5.20,40.14,0.70,0.10,-103.29,-1.14,0.80,20.00
-9,-9,-1448,-62,359,4070,0.58,-0.41,-54.54,-0.62,3.59,40.70,0.72,0.10,-103.07,-0.45,0.23,20.00
15,-25,-1576,-55,271,4148,0.62,-0.52,-58.70,-0.55,2.71,41.48,0.74,0.10,-102.83,-0.96,0.58,20.00
50,-19,-1608,-42,171,4149,0.86,-0.59,-62.64,-0.42,1.71,41.49,0.76,0.11,-102.58,-1.75,0.47,20.00
27,-25,-1679,-85,139,4175,0.94,-0.68,-66.62,-0.85,1.39,41.75,0.78,0.12,-102.32,-1.32,0.61,20.00
43,-19,-1704,-46,56,4107,1.11,-0.73,-70.35,-0.46,0.56,41.07,0.78,0.14,-102.03,-1.69,0.49,20.00
43,-42,-1784,-17,23,4116,1.26,-0.91,-74.20,-0.17,0.23,41.16,0.77,0.15,-101.74,-1.72,1.01,20.00
8,-19,-1800,-91,36,3906,1.18,-0.94,-77.76,-0.91,0.36,39.06,0.77,0.17,-101.43,-0.99,0.53,20.00
28,-28,-1757,38,-10,4007,1.23,-1.01,-80.70,0.38,-0.10,40.07,0.76,0.15,-101.10,-1.41,0.74,20.00
8,-23,-1735,-15,-102,4077,1.16,-1.05,-83.21,-0.15,-1.02,40.77,0.74,0.15,-100.77,-0.97,0.65,20.00
17,-41,-1624,2,-80,4195,1.15,-1.20,-84.80,0.02,-0.80,41.95,0.73,0.15,-100.43,-1.14,1.06,20.00
8,-21,-1589,-52,-147,4145,1.08,-1.21,-86.01,-0.52,-1.47,41.45,0.71,0.16,-100.09,-0.93,0.65,20.00
31,-25,-1436,16,-188,4238,1.16,-1.24,-86.17,0.16,-1.88,42.38,0.70,0.15,-99.74,-1.41,0.74,20.00
41,-13,-1382,-84,-247,3965,1.30,-1.19,-85.98,-0.84,-2.47,39.65,0.69,0.16,-99.40,-1.64,0.49,20.00
20,-6,-1214,-7,-331,3964,1.29,-1.11,-84.79,-0.07,-3.31,39.64,0.67,0.16,-99.06,-1.20,0.32,20.00
29,-13,-1179,-9,-288,4047,1.34,-1.08,-83.50,-0.09,-2.88,40.47,0.66,0.16,-98.73,-1.39,0.46,20.00
26,-17,-979,31,-290,4099,1.36,-1.07,-81.12,0.31,-2.90,40.99,0.64,0.15,-98.40,-1.33,0.54,5.90
19,-17,-916,48,-336,4144,1.34,-1.07,-78.60,0.48,-3.36,41.44,0.63,0.15,-98.09,-1.17,0.54,3.20
8,2,-763,97,-241,3994,1.26,-0.95,-75.39,0.97,-2.41,39.94,0.62,0.14,-97.78,-0.91,0.12,-6.39
11,-14,-701,120,-306,4205,1.20,-0.94,-72.13,1.20,-3.06,42.05,0.60,0.14,-97.50,-0.95,0.45,-8.21
8,0,-532,59,-346,4237,1.13,-0.85,-68.16,0.59,-3.46,42.37,0.59,0.13,-97.22,-0.86,0.14,-18.35
3,0,-490,-33,-414,4095,1.03,-0.76,-64.34,-0.33,-4.14,40.95,0.58,0.13,-96.97,-0.72,0.12,-17.88
-3,0,-300,26,-154,4062,0.91,-0.69,-59.73,0.26,-1.54,40.62,0.56,0.13,-96.73,-0.56,0.10,-20.00
12,2,-257,39,-196,4086,0.89,-0.61,-55.33,0.39,-1.96,40.86,0.55,0.12,-96.51,-0.85,0.04,-20.00
-1,5,-139,179,-147,4089,0.80,-0.51,-50.64,1.79,-1.47,40.89,0.54,0.11,-96.30,-0.55,-0.03,-20.00
9,-2,-113,154,-95,4180,0.77,-0.48,-46.27,1.54,-0.95,41.80,0.53,0.10,-96.12,-0.74,0.11,-20.00
2,3,-37,11,-118,4207,0.71,-0.41,-41.87,0.11,-1.18,42.07,0.51,0.09,-95.95,-0.57,-0.01,-20.00
-1,7,-16,41,-81,3957,0.63,-0.33,-37.78,0.41,-0.81,39.57,0.50,0.09,-95.80,-0.48,-0.11,-20.00
-5,7,19,-95,-9,3996,0.54,-0.25,-33.88,-0.95,-0.09,39.96,0.49,0.10,-95.66,-0.37,-0.14,-20.00
0,1,32,-67,6,4126,0.48,-0.22,-30.30,-0.67,0.06,41.26,0.48,0.12,-95.54,-0.45,-0.04,-20.00
2,8,37,-45,-56,4082,0.45,-0.15,-27.04,-0.45,-0.56,40.82,0.47,0.13,-95.43,-0.47,-0.21,-20.00
-1,6,39,-78,1,4099,0.40,-0.10,-24.10,-0.78,0.01,40.99,0.46,0.15,-95.34,-0.39,-0.19,-20.00
0,4,50,-200,40,4128,0.36,-0.06,-21.39,-2.00,0.40,41.28,0.46,0.16,-95.25,-0.40,-0.17,-18.31
0,1,54,-179,76,4038,0.32,-0.05,-18.92,-1.79,0.76,40.38,0.47,0.18,-95.18,-0.40,-0.13,-16.04
-6,-2,82,-83,89,4069,0.25,-0.06,-16.53,-0.83,0.89,40.69,0.48,0.20,-95.11,-0.26,-0.07,-15.89
-1,-2,66,-128,19,4148,0.22,-0.06,-14.47,-1.28,0.19,41.48,0.48,0.21,-95.05,-0.36,-0.08,-12.36
1,-12,23,-142,120,4179,0.21,-0.13,-12.88,-1.42,1.20,41.79,0.49,0.23,-95.00,-0.40,0.13,-7.04
-4,-9,11,-178,-3,4041,0.16,-0.17,-11.53,-1.78,-0.03,40.41,0.49,0.25,-94.96,-0.28,0.07,-4.59
1,-19,-79,-35,24,4066,0.15,-0.27,-10.86,-0.35,0.24,40.66,0.48,0.26,-94.91,-0.38,0.29,3.74
-3,-10,-78,-45,-50,4076,0.12,-0.31,-10.25,-0.45,-0.50,40.76,0.46,0.27,-94.87,-0.27,0.11,4.30
1,-7,-80,-38,-44,4101,0.11,-0.32,-9.71,-0.38,-0.44,41.01,0.44,0.27,-94.83,-0.34,0.05,5.03
1,-8,-76,-35,-68,4126,0.11,-0.33,-9.20,-0.35,-0.68,41.26,0.43,0.27,-94.79,-0.33,0.07,5.23
1,-5,-82,-68,-85,4126,0.10,-0.33,-8.78,-0.68,-0.85,41.26,0.41,0.28,-94.76,-0.32,0.01,6.18
1,1,-74,-33,-79,4085,0.10,-0.29,-8.36,-0.33,-0.79,40.85,0.39,0.28,-94.73,-0.30,-0.13,5.95
-1,6,-67,-22,0,4105,0.08,-0.23,-7.93,-0.22,0.00,41.05,0.37,0.28,-94.69,-0.25,-0.25,5.80
-1,-2,-66,-14,63,4097,0.07,-0.22,-7.54,-0.14,0.63,40.97,0.39,0.28,-94.66,-0.26,-0.08,6.13
1,-4,-70,-17,67,4127,0.07,-0.22,-7.21,-0.17,0.67,41.27,0.41,0.27,-94.64,-0.31,-0.04,6.81
-3,-4,-85,-26,60,4077,0.04,-0.22,-7.01,-0.26,0.60,40.77,0.43,0.28,-94.61,-0.23,-0.04,8.29
4,0,-151,-10,104,4067,0.06,-0.20,-7.23,-0.10,1.04,40.67,0.45,0.27,-94.58,-0.39,-0.13,13.65
4,-3,-159,-28,66,4137,0.08,-0.20,-7.48,-0.28,0.66,41.37,0.46,0.28,-94.55,-0.41,-0.07,14.06
4,-2,-183,4,24,4132,0.10,-0.19,-7.85,0.04,0.24,41.32,0.46,0.26,-94.52,-0.41,-0.08,15.70
4,2,-180,38,67,4057,0.11,-0.16,-8.16,0.38,0.67,40.57,0.47,0.24,-94.48,-0.42,-0.16,15.11
0,4,-173,11,2,4157,0.10,-0.12,-8.40,0.11,0.02,41.57,0.45,0.23,-94.45,-0.33,-0.20,14.26
5,0,-178,40,35,4118,0.12,-0.11,-8.64,0.40,0.35,41.18,0.45,0.21,-94.42,-0.43,-0.11,14.42
0,-1,-151,77,-7,4112,0.11,-0.10,-8.70,0.77,-0.07,41.12,0.45,0.20,-94.38,-0.33,-0.08,12.07
0,-4,-154,96,-23,4067,0.10,-0.12,-8.77,0.96,-0.23,40.67,0.44,0.18,-94.35,-0.32,-0.01,12.25
1,-6,-176,-48,75,4080,0.09,-0.14,-8.97,-0.48,0.75,40.80,0.45,0.19,-94.31,-0.35,0.03,13.90
0,-5,-154,-77,116,4111,0.08,-0.16,-9.01,-0.77,1.16,41.11,0.47,0.20,-94.27,-0.33,0.01,11.99
1,-3,-158,-41,80,4131,0.08,-0.16,-9.07,-0.41,0.80,41.31,0.49,0.21,-94.24,-0.36,-0.03,12.26
-1,-10,-161,-16,112,4103,0.07,-0.21,-9.15,-0.16,1.12,41.03,0.50,0.21,-94.20,-0.33,0.12,12.43
5,-4,-191,10,58,4074,0.09,-0.21,-9.40,0.10,0.58,40.74,0.52,0.20,-94.16,-0.47,0.01,14.71
8,-2,-203,58,52,4095,0.13,-0.20,-9.70,0.58,0.52,40.95,0.52,0.18,-94.13,-0.54,-0.02,15.40
7,2,-199,27,11,4096,0.16,-0.17,-9.94,0.27,0.11,40.96,0.51,0.16,-94.09,-0.52,-0.10,14.80
7,-6,-203,59,1,4127,0.19,-0.19,-10.18,0.59,0.01,41.27,0.50,0.15,-94.04,-0.53,0.08,14.88
4,-9,-217,28,29,4148,0.19,-0.22,-10.49,0.28,0.29,41.48,0.50,0.13,-94.00,-0.46,0.16,15.74
9,-4,-225,13,12,4079,0.23,-0.23,-10.81,0.13,0.12,40.79,0.49,0.11,-93.96,-0.57,0.07,16.07
5,2,-210,-19,15,4123,0.24,-0.19,-11.01,-0.19,0.15,41.23,0.47,0.12,-93.92,-0.48,-0.07,14.58
2,4,-201,-45,36,4073,0.22,-0.15,-11.14,-0.45,0.36,40.73,0.47,0.14,-93.87,-0.42,-0.13,13.68
3,2,-182,-59,92,4099,0.22,-0.12,-11.13,-0.59,0.92,40.99,0.49,0.15,-93.83,-0.44,-0.11,12.07
4,2,-196,-87,106,4117,0.22,-0.10,-11.22,-0.87,1.06,41.17,0.50,0.17,-93.78,-0.47,-0.12,13.17
5,-3,-239,-7,127,4117,0.23,-0.11,-11.55,-0.07,1.27,41.17,0.52,0.16,-93.74,-0.51,-0.02,16.45
0,9,-255,-25,104,4053,0.21,-0.04,-11.95,-0.25,1.04,40.53,0.54,0.17,-93.69,-0.41,-0.28,17.38
7,7,-271,5,76,4031,0.23,0.01,-12.41,0.05,0.76,40.31,0.56,0.16,-93.64,-0.57,-0.25,18.25
6,6,-283,30,51,4118,0.24,0.04,-12.90,0.30,0.51,41.18,0.56,0.14,-93.59,-0.56,-0.23,18.74
12,6,-282,1,31,3962,0.29,0.08,-13.33,0.01,0.31,39.62,0.55,0.13,-93.53,-0.69,-0.23,18.20
16,24,-261,5,14,4106,0.36,0.21,-13.59,0.05,0.14,41.06,0.54,0.12,-93.48,-0.78,-0.63,16.14
8,3,-262,38,79,4097,0.37,0.21,-13.83,0.38,0.79,40.97,0.55,0.11,-93.42,-0.63,-0.19,15.97
1,0,-271,-36,67,4096,0.34,0.19,-14.10,-0.36,0.67,40.96,0.57,0.12,-93.37,-0.49,-0.13,16.44
3,-3,-296,23,126,4104,0.33,0.15,-14.49,0.23,1.26,41.04,0.58,0.12,-93.31,-0.54,-0.06,18.13
10,10,-306,77,64,4115,0.35,0.20,-14.91,0.77,0.64,41.15,0.59,0.10,-93.25,-0.69,-0.33,18.53
4,-2,-308,-77,27,4125,0.34,0.17,-15.30,-0.77,0.27,41.25,0.59,0.12,-93.19,-0.56,-0.09,18.28
8,0,-319,-38,-18,4061,0.36,0.15,-15.71,-0.38,-0.18,40.61,0.57,0.13,-93.13,-0.64,-0.13,18.77
5,1,-342,72,14,4073,0.35,0.14,-16.23,0.72,0.14,40.73,0.57,0.12,-93.06,-0.57,-0.13,20.00
-1,-11,-335,90,5,4110,0.31,0.06,-16.65,0.90,0.05,41.10,0.56,0.10,-92.99,-0.44,0.14,19.12
0,-10,-305,82,-45,4168,0.28,-0.01,-16.84,0.82,-0.45,41.68,0.55,0.09,-92.93,-0.44,0.15,16.37
6,-2,-300,20,-18,4063,0.29,-0.02,-16.99,0.20,-0.18,40.63,0.54,0.08,-92.86,-0.55,-0.01,15.78
0,7,-269,-24,-115,4045,0.26,0.03,-16.93,-0.24,-1.15,40.45,0.52,0.08,-92.79,-0.41,-0.20,13.21
7,1,-254,37,-37,4110,0.28,0.03,-16.79,0.37,-0.37,41.10,0.50,0.07,-92.72,-0.55,-0.08,12.09
8,2,-233,-14,60,4075,0.30,0.04,-16.53,-0.14,0.60,40.75,0.52,0.08,-92.66,-0.59,-0.10,10.58
9,-1,-230,-22,-11,4165,0.32,0.03,-16.28,-0.22,-0.11,41.65,0.51,0.09,-92.59,-0.60,-0.05,10.58
-3,-8,-207,-52,16,4196,0.27,-0.02,-15.92,-0.52,0.16,41.96,0.50,0.10,-92.53,-0.34,0.10,9.01
1,-16,-198,-31,37,4076,0.25,-0.12,-15.53,-0.31,0.37,40.76,0.50,0.12,-92.47,-0.42,0.28,8.65
2,-11,-175,143,59,4029,0.24,-0.17,-15.05,1.43,0.59,40.29,0.50,0.10,-92.41,-0.44,0.20,7.21
1,-8,-163,175,101,4092,0.22,-0.21,-14.54,1.75,1.01,40.92,0.51,0.09,-92.35,-0.42,0.16,6.73
-3,-13,-101,64,73,4100,0.18,-0.26,-13.70,0.64,0.73,41.00,0.52,0.07,-92.29,-0.33,0.29,2.36
-2,-11,-92,19,60,4099,0.15,-0.30,-12.89,0.19,0.60,40.99,0.53,0.06,-92.24,-0.35,0.27,2.45
1,-1,-96,-61,72,4112,0.14,-0.28,-12.19,-0.61,0.72,41.12,0.54,0.07,-92.19,-0.42,0.05,3.53
-2,4,-123,-31,58,4073,0.11,-0.23,-11.72,-0.31,0.58,40.73,0.56,0.09,-92.15,-0.36,-0.08,6.31
3,10,-156,35,100,4085,0.12,-0.14,-11.50,0.35,1.00,40.85,0.57,0.08,-92.10,-0.47,-0.21,9.33
5,4,-166,63,93,4042,0.14,-0.11,-11.36,0.63,0.93,40.42,0.58,0.06,-92.06,-0.52,-0.09,10.32
6,5,-171,99,-41,4092,0.16,-0.06,-11.27,0.99,-0.41,40.92,0.57,0.05,-92.01,-0.54,-0.11,10.84
0,5,-182,61,24,4117,0.15,-0.03,-11.25,0.61,0.24,41.17,0.57,0.03,-91.97,-0.41,-0.11,11.78
-1,-1,-193,37,68,4076,0.13,-0.03,-11.30,0.37,0.68,40.76,0.58,0.01,-91.92,-0.40,0.02,12.66
-1,0,-201,5,58,4085,0.11,-0.03,-11.40,0.05,0.58,40.85,0.60,0.01,-91.87,-0.40,0.00,13.23
1,-6,-204,7,57,4114,0.10,-0.06,-11.50,0.07,0.57,41.14,0.61,0.00,-91.83,-0.45,0.14,13.37
2,-3,-200,-31,82,4118,0.10,-0.07,-11.57,-0.31,0.82,41.18,0.63,0.01,-91.78,-0.48,0.07,12.95
1,-7,-176,7,63,4130,0.10,-0.11,-11.49,0.07,0.63,41.30,0.64,0.00,-91.74,-0.47,0.17,11.00
-1,-4,-176,1,78,4079,0.08,-0.12,-11.41,0.01,0.78,40.79,0.66,0.00,-91.69,-0.44,0.11,11.08
0,3,-205,-10,52,4106,0.08,-0.09,-11.52,-0.10,0.52,41.06,0.67,0.02,-91.64,-0.46,-0.05,13.41
-5,-2,-222,4,21,4103,0.04,-0.09,-11.73,0.04,0.21,41.03,0.65,0.02,-91.60,-0.34,0.06,14.64
-18,-17,-269,-28,227,4123,-0.08,-0.19,-12.19,-0.28,2.27,41.23,0.67,0.02,-91.55,-0.06,0.38,18.12
-6,-21,-263,9,139,4168,-0.11,-0.30,-12.58,0.09,1.39,41.68,0.69,0.02,-91.50,-0.30,0.50,17.20
-2,-17,-260,35,63,4180,-0.11,-0.37,-12.91,0.35,0.63,41.80,0.69,-0.00,-91.45,-0.39,0.45,16.59
-10,-20,-254,74,31,4027,-0.16,-0.46,-13.17,0.74,0.31,40.27,0.69,-0.02,-91.39,-0.21,0.54,15.80
-6,-9,-244,45,122,4128,-0.18,-0.47,-13.34,0.45,1.22,41.28,0.70,-0.03,-91.34,-0.29,0.33,14.77
4,-14,-250,66,24,4120,-0.14,-0.50,-13.53,0.66,0.24,41.20,0.70,-0.05,-91.29,-0.50,0.45,15.07
5,-5,-261,22,-78,4079,-0.09,-0.48,-13.77,0.22,-0.78,40.79,0.68,-0.05,-91.23,-0.52,0.27,15.74
-1,-5,-257,38,-44,4080,-0.09,-0.47,-13.96,0.38,-0.44,40.80,0.66,-0.06,-91.18,-0.39,0.27,15.20
3,2,-248,9,-57,4065,-0.06,-0.41,-14.08,0.09,-0.57,40.65,0.64,-0.06,-91.12,-0.47,0.11,14.31
5,0,-255,-8,-24,4079,-0.02,-0.37,-14.22,-0.08,-0.24,40.79,0.62,-0.06,-91.06,-0.51,0.14,14.74
-1,-6,-221,-21,-5,4088,-0.03,-0.37,-14.15,-0.21,-0.05,40.88,0.61,-0.05,-91.01,-0.37,0.26,11.93
5,-3,-219,-12,-31,4092,0.00,-0.35,-14.07,-0.12,-0.31,40.92,0.59,-0.05,-90.95,-0.49,0.19,11.84
3,-1,-178,51,79,4092,0.02,-0.32,-13.75,0.51,0.79,40.92,0.60,-0.06,-90.89,-0.46,0.15,8.70
4,-7,-172,95,68,4073,0.04,-0.33,-13.42,0.95,0.68,40.73,0.61,-0.08,-90.84,-0.49,0.29,8.53
0,-14,-136,225,50,4073,0.04,-0.38,-12.91,2.25,0.50,40.73,0.61,-0.10,-90.79,-0.41,0.46,6.02
0,-16,-117,219,60,4100,0.04,-0.44,-12.33,2.19,0.60,41.00,0.61,-0.12,-90.74,-0.41,0.53,5.02
-1,-18,-111,76,73,4122,0.03,-0.51,-11.78,0.76,0.73,41.22,0.62,-0.14,-90.69,-0.39,0.60,5.10
-1,-21,-119,67,108,4121,0.02,-0.59,-11.33,0.67,1.08,41.21,0.63,-0.15,-90.65,-0.40,0.69,6.25
0,-16,-137,25,35,4045,0.02,-0.62,-11.03,0.25,0.35,40.45,0.62,-0.17,-90.60,-0.41,0.61,8.08
0,-6,-138,-54,2,4102,0.01,-0.60,-10.77,-0.54,0.02,41.02,0.61,-0.16,-90.56,-0.41,0.39,8.44
2,-9,-139,-7,45,4128,0.03,-0.59,-10.54,-0.07,0.45,41.28,0.61,-0.14,-90.52,-0.45,0.44,8.76
0,-11,-141,-27,49,4062,0.02,-0.60,-10.34,-0.27,0.49,40.62,0.62,-0.13,-90.48,-0.41,0.47,9.13
5,-5,-172,-158,26,4121,0.05,-0.57,-10.36,-1.58,0.26,41.21,0.61,-0.11,-90.44,-0.52,0.33,11.74
5,4,-197,-143,13,4052,0.08,-0.49,-10.53,-1.43,0.13,40.52,0.61,-0.09,-90.39,-0.53,0.11,13.68
3,-1,-234,-104,122,4118,0.09,-0.45,-10.90,-1.04,1.22,41.18,0.62,-0.08,-90.35,-0.49,0.19,16.41
4,-4,-242,-122,94,4113,0.10,-0.43,-11.29,-1.22,0.94,41.13,0.63,-0.06,-90.30,-0.52,0.24,16.68
2,5,-299,1,179,4030,0.10,-0.35,-11.98,0.01,1.79,40.30,0.65,-0.06,-90.26,-0.50,0.04,20.00
9,6,-305,49,166,4137,0.15,-0.28,-12.64,0.49,1.66,41.37,0.66,-0.07,-90.21,-0.66,0.00,20.00
5,6,-324,107,81,4138,0.16,-0.22,-13.36,1.07,0.81,41.38,0.67,-0.09,-90.15,-0.59,-0.00,20.00
7,5,-335,174,81,4048,0.19,-0.16,-14.06,1.74,0.81,40.48,0.68,-0.11,-90.10,-0.64,0.01,20.00
-4,2,-316,69,81,4053,0.15,-0.14,-14.59,0.69,0.81,40.53,0.69,-0.12,-90.04,-0.41,0.08,19.43
2,-9,-318,81,99,4114,0.14,-0.18,-15.07,0.81,0.99,41.14,0.70,-0.14,-89.98,-0.54,0.32,19.09
-1,-18,-347,83,83,4028,0.12,-0.27,-15.68,0.83,0.83,40.28,0.70,-0.15,-89.91,-0.48,0.54,20.00
2,-6,-352,73,95,3962,0.12,-0.28,-16.26,0.73,0.95,39.62,0.72,-0.17,-89.85,-0.55,0.31,20.00
-2,-5,-350,138,-12,4048,0.10,-0.28,-16.77,1.38,-0.12,40.48,0.71,-0.19,-89.78,-0.45,0.30,19.98
5,-3,-362,31,-48,4048,0.12,-0.27,-17.30,0.31,-0.48,40.48,0.69,-0.19,-89.71,-0.59,0.26,20.00
8,0,-312,56,-55,4103,0.16,-0.24,-17.47,0.56,-0.55,41.03,0.68,-0.20,-89.64,-0.65,0.20,16.00
0,-15,-269,119,-83,4110,0.14,-0.31,-17.36,1.19,-0.83,41.10,0.66,-0.21,-89.57,-0.48,0.53,12.46
0,2,-195,-41,-26,4144,0.13,-0.27,-16.82,-0.41,-0.26,41.44,0.65,-0.20,-89.51,-0.46,0.16,6.77
-4,-2,-200,-31,-32,4114,0.09,-0.25,-16.36,-0.31,-0.32,41.14,0.63,-0.19,-89.44,-0.36,0.23,7.68
3,-2,-202,-125,14,4125,0.10,-0.24,-15.95,-1.25,0.14,41.25,0.63,-0.17,-89.38,-0.50,0.22,8.27
13,-5,-204,-165,2,4139,0.17,-0.25,-15.60,-1.65,0.02,41.39,0.63,-0.15,-89.32,-0.72,0.27,8.80
-26,-17,-309,-329,148,3985,-0.01,-0.33,-15.93,-3.29,1.48,39.85,0.63,-0.14,-89.25,0.11,0.52,17.35
-6,-25,-327,-95,318,4058,-0.04,-0.45,-16.33,-0.95,3.18,40.58,0.65,-0.13,-89.19,-0.29,0.72,18.44
-5,-18,-321,185,250,4028,-0.07,-0.51,-16.65,1.85,2.50,40.28,0.66,-0.14,-89.12,-0.32,0.60,17.58
2,-20,-314,232,194,4272,-0.05,-0.58,-16.90,2.32,1.94,42.72,0.67,-0.16,-89.05,-0.47,0.67,16.72
-13,-26,-253,222,25,4162,-0.12,-0.68,-16.76,2.22,0.25,41.62,0.67,-0.18,-88.98,-0.14,0.83,11.70
-22,-32,-223,197,68,4038,-0.25,-0.81,-16.44,1.97,0.68,40.38,0.67,-0.20,-88.92,0.07,1.00,9.49
-13,-22,-196,144,-89,3967,-0.30,-0.86,-15.99,1.44,-0.89,39.67,0.66,-0.22,-88.85,-0.09,0.83,7.67
-5,-8,-192,42,-93,4069,-0.30,-0.83,-15.56,0.42,-0.93,40.69,0.64,-0.22,-88.79,-0.24,0.54,7.78
6,1,-175,57,2,4122,-0.23,-0.74,-15.08,0.57,0.02,41.22,0.62,-0.24,-88.73,-0.47,0.34,6.85
-2,-16,-178,78,65,4207,-0.22,-0.76,-14.65,0.78,0.65,42.07,0.63,-0.26,-88.67,-0.31,0.70,7.54
-19,-28,-179,20,213,4171,-0.32,-0.86,-14.28,0.20,2.13,41.71,0.65,-0.26,-88.62,0.05,0.97,8.02
-25,-26,-185,-3,191,3928,-0.44,-0.93,-13.98,-0.03,1.91,39.28,0.66,-0.26,-88.56,0.19,0.95,8.84
-20,-20,-237,-49,126,4085,-0.52,-0.96,-14.03,-0.49,1.26,40.85,0.67,-0.25,-88.50,0.10,0.83,13.19
-27,-29,-262,-76,45,4090,-0.63,-1.04,-14.22,-0.76,0.45,40.90,0.67,-0.24,-88.45,0.28,1.03,15.10
-40,-55,-321,106,144,4151,-0.81,-1.27,-14.76,1.06,1.44,41.51,0.68,-0.25,-88.39,0.58,1.63,19.52
-15,-18,-373,74,-13,4214,-0.82,-1.25,-15.56,0.74,-0.13,42.14,0.67,-0.27,-88.33,0.09,0.89,20.00
-32,-33,-386,98,250,4140,-0.93,-1.33,-16.36,0.98,2.50,41.40,0.68,-0.28,-88.26,0.46,1.22,20.00
-59,-65,-367,147,218,4065,-1.20,-1.59,-16.96,1.47,2.18,40.65,0.69,-0.30,-88.19,1.07,1.95,20.00
-61,-59,-419,-5,92,4116,-1.45,-1.79,-17.82,-0.05,0.92,41.16,0.70,-0.30,-88.12,1.17,1.88,20.00
-64,-70,-446,3,159,4080,-1.70,-2.04,-18.76,0.03,1.59,40.80,0.71,-0.30,-88.05,1.29,2.18,20.00
-166,-146,-492,-49,353,3904,-2.54,-2.73,-19.88,-0.49,3.53,39.04,0.72,-0.31,-87.97,3.59,3.91,20.00
-311,-272,-504,5,314,3766,-4.18,-4.11,-20.97,0.05,3.14,37.66,0.72,-0.32,-87.88,6.99,6.86,20.00
-793,-670,-649,111,29,5168,-8.60,-7.79,-22.83,1.11,0.29,51.68,0.68,-0.37,-87.79,18.02,15.99,20.00
-895,-873,-661,142,94,4646,-13.20,-12.34,-24.58,1.42,0.94,46.46,0.63,-0.43,-87.69,20.00,20.00,20.00
-1106,-1055,-758,172,351,3556,-18.63,-17.54,-26.75,1.72,3.51,35.56,0.58,-0.51,-87.58,20.00,20.00,20.00
-1078,-1042,-823,286,-223,4135,-23.34,-22.14,-29.09,2.86,-2.23,41.35,0.47,-0.61,-87.47,20.00,20.00,20.00
-623,-728,-934,234,-619,4086,-24.81,-24.37,-31.88,2.34,-6.19,40.86,0.36,-0.71,-87.34,19.20,20.00,20.00
-608,-720,-885,395,-559,3995,-26.04,-26.32,-34.09,3.95,-5.59,39.95,0.24,-0.82,-87.20,19.30,20.00,20.00
-397,-484,-608,279,-540,3838,-25.85,-26.64,-34.39,2.79,-5.40,38.38,0.12,-0.94,-87.06,15.04,17.72,20.00
-298,-389,-561,334,-629,4093,-25.09,-26.35,-34.37,3.34,-6.29,40.93,0.00,-1.05,-86.93,12.90,15.79,18.95
-186,-255,-410,289,-792,4172,-23.71,-25.27,-33.44,2.89,-7.92,41.72,-0.11,-1.16,-86.79,10.32,12.84,7.14
-186,-246,-360,337,-500,4111,-22.48,-24.24,-32.29,3.37,-5.00,41.11,-0.21,-1.26,-86.66,10.05,12.45,4.11
-11,-43,-144,345,-787,4036,-20.29,-22.08,-29.94,3.45,-7.87,40.36,-0.30,-1.36,-86.55,5.96,7.79,-11.71
28,11,-91,376,-740,4002,-18.09,-19.81,-27.50,3.76,-7.40,40.02,-0.39,-1.44,-86.44,4.62,6.13,-13.63
58,47,-8,344,-190,4189,-15.93,-17.54,-24.80,3.44,-1.90,41.89,-0.46,-1.53,-86.34,3.47,4.84,-17.81
102,81,-25,286,-81,4137,-13.72,-15.29,-22.47,2.86,-0.81,41.37,-0.52,-1.61,-86.25,2.01,3.58,-13.91
52,46,-35,283,-223,4191,-12.03,-13.48,-20.44,2.83,-2.23,41.91,-0.58,-1.68,-86.17,2.60,3.85,-10.92
56,44,-38,273,-245,4122,-10.48,-11.87,-18.63,2.73,-2.45,41.22,-0.63,-1.73,-86.09,2.14,3.49,-8.75
21,14,-43,330,-286,4064,-9.31,-10.59,-17.03,3.30,-2.86,40.64,-0.68,-1.79,-86.03,2.56,3.79,-6.64
35,29,-43,376,-316,4041,-8.16,-9.36,-15.59,3.76,-3.16,40.41,-0.73,-1.84,-85.97,1.99,3.18,-5.12
87,79,-42,372,-369,4068,-6.82,-7.94,-14.28,3.72,-3.69,40.68,-0.77,-1.88,-85.91,0.60,1.80,-3.83
107,98,-46,359,-316,4094,-5.48,-6.55,-13.14,3.59,-3.16,40.94,-0.80,-1.92,-85.86,-0.15,1.06,-2.28
117,104,-29,335,-244,4093,-4.22,-5.26,-12.00,3.35,-2.44,40.93,-0.83,-1.96,-85.81,-0.68,0.61,-2.53
109,100,-28,308,-264,4085,-3.13,-4.12,-10.97,3.08,-2.64,40.85,-0.85,-1.99,-85.77,-0.80,0.40,-1.52
57,52,-33,286,-147,4028,-2.47,-3.39,-10.07,2.86,-1.47,40.28,-0.87,-2.02,-85.73,0.09,1.20,-0.16
30,20,-49,306,-149,4100,-2.04,-2.93,-9.37,3.06,-1.49,41.00,-0.89,-2.05,-85.69,0.53,1.74,1.95
5,-7,-96,293,-196,4051,-1.81,-2.68,-9.01,2.93,-1.96,40.51,-0.91,-2.07,-85.65,0.99,2.24,6.30
-1,-12,-100,305,-213,4058,-1.63,-2.49,-8.72,3.05,-2.13,40.58,-0.92,-2.09,-85.62,1.08,2.30,6.94
-25,-31,-54,296,-366,4094,-1.62,-2.43,-8.18,2.96,-3.66,40.94,-0.95,-2.11,-85.59,1.57,2.69,3.62
-22,-21,-35,267,-310,4056,-1.59,-2.31,-7.58,2.67,-3.10,40.56,-0.97,-2.13,-85.56,1.52,2.46,2.64
4,8,-20,325,-278,4053,-1.41,-2.03,-6.94,3.25,-2.78,40.53,-0.99,-2.15,-85.53,0.95,1.81,2.04
4,11,-15,308,-249,4096,-1.24,-1.76,-6.34,3.08,-2.49,40.96,-1.00,-2.17,-85.51,0.92,1.69,2.26
47,45,-44,271,-301,4129,-0.83,-1.31,-5.97,2.71,-3.01,41.29,-1.02,-2.18,-85.48,-0.05,0.88,5.10
73,59,-64,248,-321,4044,-0.30,-0.82,-5.77,2.48,-3.21,40.44,-1.04,-2.19,-85.46,-0.71,0.47,7.01
69,54,-140,284,-117,4079,0.15,-0.41,-6.04,2.84,-1.17,40.79,-1.04,-2.21,-85.44,-0.75,0.47,13.15
71,34,-144,330,-151,4083,0.57,-0.16,-6.32,3.30,-1.51,40.83,-1.05,-2.23,-85.41,-0.91,0.82,13.20
15,3,-95,337,-264,4037,0.60,-0.13,-6.26,3.37,-2.64,40.37,-1.06,-2.24,-85.39,0.23,1.45,9.10
6,2,-82,320,-276,4070,0.58,-0.10,-6.14,3.20,-2.76,40.70,-1.07,-2.26,-85.36,0.43,1.48,8.13
-9,-14,-64,303,-298,4075,0.46,-0.18,-5.92,3.03,-2.98,40.75,-1.08,-2.27,-85.34,0.77,1.83,6.84
-6,-13,-58,288,-303,4088,0.38,-0.24,-5.68,2.88,-3.03,40.88,-1.10,-2.28,-85.32,0.74,1.83,6.58
29,17,-74,260,-245,4075,0.52,-0.11,-5.56,2.60,-2.45,40.75,-1.11,-2.29,-85.30,0.00,1.19,8.06
48,33,-95,272,-245,4032,0.76,0.10,-5.58,2.72,-2.45,40.32,-1.12,-2.30,-85.28,-0.44,0.82,9.81
68,48,-104,339,-242,4158,1.10,0.38,-5.66,3.39,-2.42,41.58,-1.13,-2.31,-85.25,-0.94,0.44,10.49
50,28,-92,349,-225,4009,1.29,0.52,-5.66,3.49,-2.25,40.09,-1.13,-2.32,-85.23,-0.62,0.82,9.48
51,42,-61,320,-216,4059,1.48,0.72,-5.46,3.20,-2.16,40.59,-1.14,-2.33,-85.21,-0.69,0.49,7.05
40,29,-58,334,-201,4037,1.57,0.83,-5.27,3.34,-2.01,40.37,-1.14,-2.35,-85.19,-0.49,0.73,7.00
9,4,-21,305,-224,4089,1.47,0.77,-4.87,3.05,-2.24,40.89,-1.15,-2.36,-85.17,0.17,1.26,4.29
9,2,-24,297,-227,4070,1.38,0.70,-4.53,2.97,-2.27,40.70,-1.16,-2.37,-85.15,0.20,1.33,4.90
26,13,-64,287,-189,4127,1.40,0.71,-4.47,2.87,-1.89,41.27,-1.16,-2.38,-85.14,-0.14,1.11,8.35
37,17,-73,272,-65,4138,1.48,0.74,-4.47,2.72,-0.65,41.38,-1.15,-2.39,-85.12,-0.40,1.03,9.12
5,6,-28,322,-255,4068,1.37,0.71,-4.19,3.22,-2.55,40.68,-1.16,-2.40,-85.10,0.29,1.27,5.59
-1,4,-11,298,-220,4096,1.22,0.66,-3.84,2.98,-2.20,40.96,-1.17,-2.41,-85.09,0.46,1.33,4.53
4,8,-17,298,-237,4075,1.13,0.64,-3.56,2.98,-2.37,40.75,-1.18,-2.42,-85.07,0.39,1.26,5.33
3,7,-11,327,-237,4059,1.03,0.62,-3.27,3.27,-2.37,40.59,-1.18,-2.43,-85.06,0.44,1.29,5.13
1,5,2,304,-226,4078,0.93,0.59,-2.93,3.04,-2.26,40.78,-1.19,-2.44,-85.05,0.51,1.35,4.38
1,2,1,316,-230,4067,0.85,0.54,-2.63,3.16,-2.30,40.67,-1.20,-2.45,-85.04,0.54,1.43,4.78
5,6,1,326,-223,4092,0.79,0.53,-2.36,3.26,-2.23,40.92,-1.21,-2.47,-85.03,0.48,1.36,5.07
5,6,2,324,-227,4085,0.74,0.51,-2.11,3.24,-2.27,40.85,-1.22,-2.48,-85.02,0.50,1.37,5.24
-6,-2,4,291,-204,4090,0.63,0.45,-1.88,2.91,-2.04,40.90,-1.23,-2.49,-85.01,0.76,1.56,5.32
-7,-3,1,274,-216,4092,0.53,0.38,-1.68,2.74,-2.16,40.92,-1.24,-2.50,-85.01,0.82,1.61,5.78
-3,0,-5,270,-257,4071,0.46,0.35,-1.55,2.70,-2.57,40.71,-1.26,-2.51,-85.00,0.77,1.56,6.44
-2,2,-4,267,-239,4075,0.40,0.32,-1.42,2.67,-2.39,40.75,-1.27,-2.51,-85.00,0.77,1.53,6.49
1,4,-8,296,-236,4079,0.36,0.31,-1.32,2.96,-2.36,40.79,-1.28,-2.52,-84.99,0.73,1.50,6.93
-1,3,-6,302,-233,4067,0.32,0.30,-1.23,3.02,-2.33,40.67,-1.30,-2.53,-84.99,0.79,1.53,6.86
-2,-2,-6,285,-243,4074,0.28,0.26,-1.14,2.85,-2.43,40.74,-1.31,-2.54,-84.98,0.83,1.65,6.95
-3,-3,-5,309,-244,4059,0.23,0.22,-1.06,3.09,-2.44,40.59,-1.32,-2.56,-84.98,0.87,1.69,6.95
1,0,0,315,-228,4073,0.21,0.19,-0.95,3.15,-2.28,40.73,-1.33,-2.57,-84.98,0.80,1.64,6.64
0,0,0,310,-229,4074,0.19,0.17,-0.86,3.10,-2.29,40.74,-1.35,-2.58,-84.98,0.84,1.65,6.74
1,0,-2,302,-239,4084,0.18,0.16,-0.78,3.02,-2.39,40.84,-1.36,-2.59,-84.97,0.83,1.67,6.99
1,0,-3,298,-238,4085,0.17,0.14,-0.72,2.98,-2.38,40.85,-1.37,-2.60,-84.97,0.84,1.68,7.14
0,-2,-5,299,-236,4092,0.15,0.11,-0.68,2.99,-2.36,40.92,-1.39,-2.61,-84.97,0.87,1.73,7.35
0,-1,-6,301,-245,4084,0.14,0.10,-0.65,3.01,-2.45,40.84,-1.40,-2.62,-84.97,0.89,1.73,7.47
0,0,-8,304,-225,4087,0.12,0.09,-0.63,3.04,-2.25,40.87,-1.41,-2.64,-84.96,0.90,1.72,7.65
0,-1,-8,296,-233,4082,0.11,0.07,-0.62,2.96,-2.33,40.82,-1.43,-2.65,-84.96,0.91,1.75,7.67
3,3,-7,303,-251,4070,0.12,0.08,-0.60,3.03,-2.51,40.70,-1.44,-2.66,-84.96,0.86,1.67,7.60
4,5,-7,300,-228,4086,0.13,0.11,-0.58,3.00,-2.28,40.86,-1.45,-2.67,-84.96,0.84,1.63,7.62
2,3,-7,293,-231,4086,0.13,0.11,-0.57,2.93,-2.31,40.86,-1.47,-2.68,-84.96,0.89,1.68,7.64
1,2,-6,280,-243,4097,0.12,0.11,-0.55,2.80,-2.43,40.97,-1.48,-2.69,-84.96,0.93,1.70,7.58
7,7,-18,258,-233,4089,0.15,0.15,-0.60,2.58,-2.33,40.89,-1.50,-2.70,-84.95,0.81,1.60,8.53
11,12,-18,283,-208,4058,0.20,0.20,-0.65,2.83,-2.08,40.58,-1.51,-2.71,-84.95,0.72,1.49,8.48
16,22,-37,270,-167,4056,0.28,0.32,-0.81,2.70,-1.67,40.56,-1.52,-2.72,-84.95,0.60,1.26,9.92
13,11,-51,288,-162,4077,0.33,0.35,-1.04,2.88,-1.62,40.77,-1.53,-2.74,-84.95,0.65,1.49,10.86
-1,1,-29,301,-281,4061,0.29,0.32,-1.11,3.01,-2.81,40.61,-1.54,-2.75,-84.94,0.96,1.70,8.92
-1,0,-25,292,-238,4070,0.26,0.29,-1.16,2.92,-2.38,40.70,-1.56,-2.76,-84.94,0.98,1.74,8.54
16,26,-57,246,-136,4021,0.33,0.42,-1.39,2.46,-1.36,40.21,-1.56,-2.77,-84.93,0.62,1.19,11.00
26,13,-107,295,-197,4139,0.46,0.46,-1.90,2.95,-1.97,41.39,-1.57,-2.78,-84.93,0.39,1.45,14.69
12,7,-71,345,-306,4068,0.48,0.46,-2.14,3.45,-3.06,40.68,-1.59,-2.79,-84.92,0.67,1.58,11.39
6,8,-46,345,-297,4049,0.47,0.46,-2.21,3.45,-2.97,40.49,-1.60,-2.80,-84.91,0.80,1.56,9.20
6,2,-22,296,-216,4079,0.46,0.42,-2.12,2.96,-2.16,40.79,-1.61,-2.81,-84.90,0.81,1.70,7.26
8,7,-23,273,-217,4077,0.46,0.43,-2.05,2.73,-2.17,40.77,-1.62,-2.82,-84.89,0.78,1.60,7.42
14,10,-17,298,-231,4057,0.50,0.44,-1.95,2.98,-2.31,40.57,-1.63,-2.83,-84.89,0.66,1.55,7.01
14,9,-16,284,-229,4053,0.54,0.45,-1.85,2.84,-2.29,40.53,-1.65,-2.84,-84.88,0.65,1.57,7.03
28,22,-27,248,-242,4084,0.65,0.54,-1.83,2.48,-2.42,40.84,-1.66,-2.85,-84.87,0.35,1.28,7.99
40,31,-35,262,-247,4150,0.83,0.68,-1.86,2.62,-2.47,41.50,-1.67,-2.85,-84.87,0.06,1.07,8.63
84,70,-34,283,-274,3980,1.26,1.04,-1.88,2.83,-2.74,39.80,-1.68,-2.86,-84.86,-0.94,0.18,8.52
69,64,-14,292,-199,4014,1.56,1.32,-1.78,2.92,-1.99,40.14,-1.69,-2.86,-84.85,-0.71,0.23,6.94
90,80,-25,241,-287,4102,1.95,1.68,-1.76,2.41,-2.87,41.02,-1.70,-2.86,-84.85,-1.24,-0.20,7.90
99,92,-33,255,-271,4112,2.36,2.07,-1.78,2.55,-2.71,41.12,-1.71,-2.86,-84.84,-1.53,-0.55,8.55
84,87,-30,318,-95,3901,2.64,2.40,-1.79,3.18,-0.95,39.01,-1.69,-2.87,-84.83,-1.31,-0.53,8.29
63,71,-7,355,-26,4165,2.76,2.59,-1.65,3.55,-0.26,41.65,-1.67,-2.87,-84.83,-0.93,-0.25,6.48
16,12,-21,229,-135,4180,2.58,2.40,-1.61,2.29,-1.35,41.80,-1.67,-2.88,-84.82,0.07,1.00,7.70
8,9,-25,226,-119,4063,2.37,2.22,-1.60,2.26,-1.19,40.63,-1.66,-2.89,-84.81,0.29,1.12,8.05
14,8,-43,256,-250,4058,2.22,2.05,-1.71,2.56,-2.50,40.58,-1.67,-2.89,-84.81,0.21,1.18,9.47
21,14,-45,277,-230,4061,2.12,1.93,-1.81,2.77,-2.30,40.61,-1.68,-2.89,-84.80,0.10,1.10,9.53
140,127,-107,255,-257,4249,2.77,2.51,-2.28,2.55,-2.57,42.49,-1.68,-2.88,-84.79,-2.49,-1.36,14.28
224,192,-194,288,-390,4092,3.86,3.43,-3.24,2.88,-3.90,40.92,-1.68,-2.88,-84.78,-4.50,-2.94,20.00
136,121,-125,308,53,4052,4.30,3.82,-3.68,3.08,0.53,40.52,-1.65,-2.87,-84.76,-2.85,-1.61,14.33
113,119,-35,286,-149,4240,4.56,4.17,-3.52,2.86,-1.49,42.40,-1.64,-2.87,-84.75,-2.46,-1.66,6.86
143,126,-57,244,-218,4253,4.98,4.52,-3.52,2.44,-2.18,42.53,-1.63,-2.86,-84.73,-3.19,-1.91,8.73
177,158,-48,210,-380,4144,5.56,5.03,-3.46,2.10,-3.80,41.44,-1.63,-2.84,-84.72,-4.04,-2.71,8.03
178,176,-42,112,-107,4021,6.09,5.60,-3.37,1.12,-1.07,40.21,-1.60,-2.80,-84.71,-4.22,-3.26,7.61
182,186,-42,161,-89,4141,6.59,6.18,-3.29,1.61,-0.89,41.41,-1.57,-2.76,-84.69,-4.46,-3.64,7.70
194,177,-60,202,-233,4142,7.11,6.64,-3.33,2.02,-2.33,41.42,-1.55,-2.73,-84.68,-4.86,-3.60,9.18
197,181,-54,240,-233,4025,7.60,7.08,-3.32,2.40,-2.33,40.25,-1.54,-2.71,-84.67,-5.06,-3.82,8.68
210,198,-51,245,-71,4077,8.12,7.58,-3.30,2.45,-0.71,40.77,-1.50,-2.70,-84.65,-5.50,-4.31,8.44
203,190,-52,222,-132,4143,8.55,7.98,-3.29,2.22,-1.32,41.43,-1.47,-2.68,-84.64,-5.49,-4.27,8.54
167,155,-49,206,-41,4219,8.71,8.13,-3.26,2.06,-0.41,42.19,-1.42,-2.65,-84.62,-4.83,-3.62,8.32
170,153,-68,193,22,4026,8.88,8.25,-3.35,1.93,0.22,40.26,-1.37,-2.62,-84.61,-4.98,-3.63,9.83
144,143,-133,163,2,4039,8.87,8.30,-3.82,1.63,0.02,40.39,-1.31,-2.58,-84.59,-4.48,-3.47,14.83
118,108,-120,233,-90,4200,8.70,8.12,-4.17,2.33,-0.90,42.00,-1.27,-2.57,-84.57,-3.93,-2.72,13.36
113,98,-66,170,-83,3998,8.52,7.91,-4.16,1.70,-0.83,39.98,-1.23,-2.52,-84.56,-3.81,-2.49,8.80
117,103,-61,163,-55,4158,8.38,7.75,-4.11,1.63,-0.55,41.58,-1.18,-2.48,-84.54,-3.89,-2.57,8.42
150,127,-67,142,-163,4066,8.46,7.75,-4.11,1.42,-1.63,40.66,-1.16,-2.44,-84.52,-4.59,-3.08,8.93
156,136,-69,172,-109,4016,8.57,7.80,-4.12,1.72,-1.09,40.16,-1.14,-2.41,-84.51,-4.75,-3.30,9.09
168,163,-26,196,-106,4067,8.73,8.02,-3.87,1.96,-1.06,40.67,-1.12,-2.39,-84.49,-5.06,-3.92,5.71
164,158,-32,109,-55,4054,8.86,8.18,-3.68,1.09,-0.55,40.54,-1.08,-2.34,-84.47,-5.04,-3.90,6.42
216,204,-52,-2,-32,4046,9.29,8.60,-3.63,-0.02,-0.32,40.46,-1.04,-2.29,-84.46,-6.24,-4.98,8.17
258,239,-90,21,-77,4172,9.94,9.20,-3.81,0.21,-0.77,41.72,-1.00,-2.24,-84.44,-7.30,-5.89,11.19
188,193,-159,60,221,3781,10.09,9.46,-4.40,0.60,2.21,37.81,-0.94,-2.20,-84.42,-5.96,-5.05,16.41
131,162,-127,84,321,4175,9.88,9.50,-4.74,0.84,3.21,41.75,-0.88,-2.15,-84.40,-4.78,-4.46,13.34
31,27,-84,121,-12,4190,9.08,8.72,-4.77,1.21,-0.12,41.90,-0.83,-2.11,-84.38,-2.56,-1.53,9.66
17,13,-64,154,12,4019,8.28,7.92,-4.69,1.54,0.12,40.19,-0.78,-2.08,-84.36,-2.09,-1.05,8.05
122,108,-59,138,-189,4281,8.19,7.79,-4.58,1.38,-1.89,42.81,-0.76,-2.05,-84.35,-4.21,-2.97,7.74
185,152,-73,89,-282,4288,8.50,7.94,-4.57,0.89,-2.82,42.88,-0.74,-2.01,-84.33,-5.59,-3.93,8.94
100,98,-35,159,217,4180,8.26,7.74,-4.32,1.59,2.17,41.80,-0.69,-1.98,-84.31,-3.83,-2.80,5.98
59,54,-18,142,110,4133,7.80,7.30,-4.00,1.42,1.10,41.33,-0.64,-1.95,-84.29,-2.90,-1.80,4.88
17,13,-21,53,16,4119,7.12,6.65,-3.73,0.53,0.16,41.19,-0.60,-1.91,-84.28,-1.89,-0.82,5.42
14,10,-26,83,27,4086,6.49,6.04,-3.51,0.83,0.27,40.86,-0.56,-1.87,-84.26,-1.69,-0.61,6.07
13,7,-27,73,9,4107,5.92,5.48,-3.33,0.73,0.09,41.07,-0.52,-1.84,-84.25,-1.53,-0.42,6.35
13,7,-27,56,35,4104,5.41,4.98,-3.16,0.56,0.35,41.04,-0.49,-1.80,-84.24,-1.42,-0.31,6.52
102,90,-79,-43,-96,4281,5.49,5.03,-3.33,-0.43,-0.96,42.81,-0.47,-1.77,-84.22,-3.26,-2.03,10.75
181,161,-125,-23,-345,4365,6.05,5.51,-3.76,-0.23,-3.45,43.65,-0.46,-1.74,-84.21,-5.02,-3.63,14.19
189,128,-193,92,-297,4007,6.59,5.74,-4.56,0.92,-2.97,40.07,-0.46,-1.71,-84.19,-5.34,-3.04,19.10
158,99,-88,199,-217,4023,6.90,5.77,-4.64,1.99,-2.17,40.23,-0.44,-1.70,-84.17,-4.80,-2.47,10.12
89,110,152,78,42,4079,6.75,5.86,-3.25,0.78,0.42,40.79,-0.40,-1.66,-84.16,-3.39,-2.74,-8.74
67,82,138,42,56,4088,6.49,5.78,-2.08,0.42,0.56,40.88,-0.36,-1.63,-84.15,-2.89,-2.17,-6.32
52,52,159,19,265,4181,6.15,5.52,-0.90,0.19,2.65,41.81,-0.32,-1.60,-84.14,-2.52,-1.50,-6.85
53,37,118,30,256,4155,5.86,5.19,-0.09,0.30,2.56,41.55,-0.28,-1.57,-84.14,-2.49,-1.13,-2.52
25,35,34,42,140,4103,5.43,4.88,0.12,0.42,1.40,41.03,-0.24,-1.55,-84.14,-1.83,-1.02,4.82
22,34,12,72,89,4095,5.02,4.60,0.18,0.72,0.89,40.95,-0.20,-1.52,-84.14,-1.68,-0.94,6.75
14,30,15,-5,162,4136,4.60,4.33,0.26,-0.05,1.62,41.36,-0.17,-1.50,-84.14,-1.43,-0.80,6.58
16,33,16,-12,170,4180,4.24,4.09,0.33,-0.12,1.70,41.80,-0.14,-1.47,-84.15,-1.39,-0.82,6.57
16,6,-15,15,-11,4014,3.91,3.72,0.21,0.15,-0.11,40.14,-0.12,-1.44,-84.15,-1.31,-0.19,9.06
17,25,-24,36,-4,4021,3.63,3.50,0.04,0.36,-0.04,40.21,-0.11,-1.40,-84.15,-1.26,-0.54,9.65
13,9,-29,31,75,4167,3.34,3.21,-0.14,0.31,0.75,41.67,-0.08,-1.38,-84.15,-1.12,-0.15,9.88
10,12,-1,92,115,4100,3.07,2.96,-0.13,0.92,1.15,41.00,-0.05,-1.37,-84.14,-1.01,-0.15,7.52
9,25,14,44,52,4077,2.82,2.82,-0.04,0.44,0.52,40.77,-0.02,-1.34,-84.14,-0.94,-0.39,6.35
11,27,7,48,39,4107,2.60,2.70,0.01,0.48,0.39,41.07,-0.00,-1.32,-84.14,-0.93,-0.42,6.99
10,12,-11,37,-28,4096,2.40,2.50,-0.06,0.37,-0.28,40.96,0.00,-1.29,-84.14,-0.86,-0.07,8.44
9,16,-12,35,-23,4097,2.22,2.35,-0.12,0.35,-0.23,40.97,0.00,-1.26,-84.14,-0.79,-0.13,8.46
9,18,22,18,84,4102,2.05,2.22,0.02,0.18,0.84,41.02,0.02,-1.24,-84.14,-0.76,-0.15,5.73
12,22,26,16,94,4124,1.92,2.14,0.18,0.16,0.94,41.24,0.05,-1.22,-84.14,-0.80,-0.22,5.56
14,23,-4,17,76,4117,1.81,2.06,0.14,0.17,0.76,41.17,0.07,-1.20,-84.14,-0.82,-0.24,8.06
11,16,-9,8,85,4123,1.70,1.95,0.07,0.08,0.85,41.23,0.09,-1.18,-84.14,-0.74,-0.08,8.41
8,8,-3,70,73,4109,1.58,1.81,0.04,0.70,0.73,41.09,0.11,-1.17,-84.14,-0.67,0.12,7.87
11,8,-6,51,26,4078,1.49,1.68,0.00,0.51,0.26,40.78,0.13,-1.15,-84.14,-0.71,0.14,8.08
9,10,-11,5,-3,4120,1.39,1.57,-0.07,0.05,-0.03,41.20,0.13,-1.12,-84.14,-0.65,0.11,8.44
6,7,-2,31,98,4124,1.29,1.45,-0.07,0.31,0.98,41.24,0.15,-1.11,-84.14,-0.57,0.19,7.67
3,2,3,28,54,4092,1.18,1.32,-0.05,0.28,0.54,40.92,0.17,-1.09,-84.14,-0.49,0.32,7.27
0,6,2,-3,-65,4041,1.06,1.23,-0.03,-0.03,-0.65,40.41,0.16,-1.07,-84.14,-0.39,0.25,7.37
5,8,-4,14,-61,4075,0.99,1.15,-0.05,0.14,-0.61,40.75,0.15,-1.05,-84.14,-0.47,0.22,7.86
11,13,14,93,119,4073,0.95,1.12,0.04,0.93,1.19,40.73,0.17,-1.05,-84.14,-0.60,0.13,6.43
12,8,15,63,109,4096,0.93,1.05,0.13,0.63,1.09,40.96,0.19,-1.05,-84.14,-0.62,0.24,6.44
6,14,-8,40,67,4135,0.88,1.03,0.07,0.40,0.67,41.35,0.21,-1.03,-84.14,-0.50,0.11,8.32
3,1,-4,54,128,4062,0.81,0.94,0.03,0.54,1.28,40.62,0.23,-1.03,-84.14,-0.43,0.40,7.95
0,14,-2,64,65,4079,0.73,0.93,0.02,0.64,0.65,40.79,0.25,-1.02,-84.14,-0.36,0.13,7.76
5,8,-27,45,-10,4101,0.68,0.88,-0.15,0.45,-0.10,41.01,0.24,-1.00,-84.14,-0.45,0.26,9.70
3,12,-28,23,27,4133,0.63,0.87,-0.30,0.23,0.27,41.33,0.25,-0.98,-84.14,-0.40,0.17,9.62
-2,14,-27,52,59,4118,0.56,0.87,-0.44,0.52,0.59,41.18,0.27,-0.97,-84.14,-0.29,0.12,9.40
-1,6,-35,38,62,4115,0.50,0.82,-0.61,0.38,0.62,41.15,0.28,-0.96,-84.14,-0.30,0.29,9.89
1,-1,-51,19,47,4070,0.45,0.73,-0.86,0.19,0.47,40.70,0.29,-0.94,-84.13,-0.34,0.44,10.98
-1,-9,-37,50,217,4059,0.40,0.60,-1.00,0.50,2.17,40.59,0.31,-0.93,-84.13,-0.30,0.63,9.65
0,-6,2,47,92,4082,0.36,0.50,-0.89,0.47,0.92,40.82,0.33,-0.93,-84.12,-0.32,0.60,6.46
2,-5,-3,41,66,4076,0.34,0.42,-0.82,0.41,0.66,40.76,0.35,-0.91,-84.12,-0.36,0.59,6.96
1,-3,10,15,41,4100,0.31,0.36,-0.67,0.15,0.41,41.00,0.36,-0.90,-84.12,-0.34,0.55,6.01
-1,-9,13,23,31,4106,0.27,0.27,-0.53,0.23,0.31,41.06,0.36,-0.88,-84.12,-0.29,0.69,5.91
-1,-6,33,11,34,4069,0.24,0.21,-0.27,0.11,0.34,40.69,0.37,-0.86,-84.11,-0.29,0.63,4.49
0,-1,40,24,44,4098,0.22,0.18,-0.00,0.24,0.44,40.98,0.37,-0.84,-84.11,-0.31,0.53,4.18
-4,-35,20,3,94,4081,0.17,-0.05,0.12,0.03,0.94,40.81,0.39,-0.83,-84.11,-0.22,1.27,6.00
-5,-29,1,9,99,4059,0.12,-0.22,0.11,0.09,0.99,40.59,0.40,-0.82,-84.11,-0.20,1.19,7.61
4,14,-59,76,116,4126,0.13,-0.11,-0.26,0.76,1.16,41.26,0.42,-0.82,-84.11,-0.40,0.29,12.30
3,-3,-78,85,113,4134,0.14,-0.12,-0.71,0.85,1.13,41.34,0.44,-0.83,-84.11,-0.39,0.64,13.43
2,-22,-104,39,63,4086,0.14,-0.24,-1.27,0.39,0.63,40.86,0.46,-0.82,-84.11,-0.38,1.05,15.04
3,-18,-111,32,56,4092,0.14,-0.33,-1.82,0.32,0.56,40.92,0.47,-0.81,-84.10,-0.41,0.99,15.05
2,3,-58,64,-59,4100,0.14,-0.28,-1.99,0.64,-0.59,41.00,0.45,-0.81,-84.09,-0.38,0.55,10.37
-1,0,-17,108,90,4122,0.12,-0.25,-1.90,1.08,0.90,41.22,0.47,-0.82,-84.08,-0.32,0.61,7.00
-1,-4,-11,56,67,4095,0.10,-0.25,-1.77,0.56,0.67,40.95,0.49,-0.82,-84.07,-0.33,0.69,6.62
0,-2,-13,51,68,4086,0.09,-0.24,-1.68,0.51,0.68,40.86,0.50,-0.82,-84.07,-0.36,0.65,6.89
1,-3,-20,78,31,4082,0.09,-0.23,-1.63,0.78,0.31,40.82,0.50,-0.84,-84.06,-0.37,0.68,7.53
0,-4,-15,69,48,4079,0.08,-0.23,-1.56,0.69,0.48,40.79,0.51,-0.85,-84.05,-0.36,0.71,7.19
1,-2,-14,42,58,4099,0.08,-0.22,-1.49,0.42,0.58,40.99,0.53,-0.84,-84.05,-0.39,0.65,7.17
1,-1,-12,30,61,4099,0.08,-0.21,-1.41,0.30,0.61,40.99,0.54,-0.82,-84.04,-0.40,0.62,7.08
3,5,-9,8,-3,4103,0.09,-0.15,-1.33,0.08,-0.03,41.03,0.53,-0.81,-84.04,-0.43,0.48,6.92
2,-3,-13,-7,14,4142,0.09,-0.16,-1.27,-0.07,0.14,41.42,0.52,-0.79,-84.03,-0.41,0.63,7.32
6,-2,-12,34,63,4095,0.12,-0.15,-1.22,0.34,0.63,40.95,0.54,-0.78,-84.03,-0.51,0.60,7.29
4,1,-5,67,83,4106,0.13,-0.13,-1.13,0.67,0.83,41.06,0.56,-0.79,-84.02,-0.48,0.54,6.79
1,3,2,71,63,4094,0.12,-0.10,-1.00,0.71,0.63,40.94,0.57,-0.80,-84.02,-0.43,0.49,6.33
1,3,2,73,52,4091,0.12,-0.07,-0.89,0.73,0.52,40.91,0.58,-0.81,-84.01,-0.44,0.50,6.45
1,3,-2,63,59,4090,0.11,-0.05,-0.81,0.63,0.59,40.90,0.60,-0.82,-84.01,-0.45,0.49,6.87
1,2,-1,53,44,4092,0.11,-0.03,-0.74,0.53,0.44,40.92,0.61,-0.80,-84.01,-0.45,0.50,6.86
0,3,-3,20,57,4101,0.10,-0.01,-0.68,0.20,0.57,41.01,0.61,-0.78,-84.01,-0.43,0.46,7.09
-1,3,-6,24,40,4098,0.08,0.01,-0.65,0.24,0.40,40.98,0.61,-0.76,-84.00,-0.40,0.44,7.38
2,4,-10,33,39,4074,0.08,0.03,-0.65,0.33,0.39,40.74,0.61,-0.75,-84.00,-0.46,0.40,7.72
3,8,-10,24,51,4126,0.09,0.08,-0.64,0.24,0.51,41.26,0.61,-0.73,-84.00,-0.49,0.30,7.73
-4,35,-80,-73,-551,3991,0.06,0.28,-1.07,-0.73,-5.51,39.91,0.59,-0.72,-83.99,-0.33,-0.31,13.21
20,33,-160,-17,-475,4014,0.18,0.46,-1.94,-0.17,-4.75,40.14,0.58,-0.72,-83.99,-0.84,-0.32,19.06
-3,96,72,-59,-279,4170,0.14,1.00,-1.30,-0.59,-2.79,41.70,0.56,-0.71,-83.98,-0.35,-1.76,0.08
13,50,-37,-195,-17,4249,0.21,1.20,-1.40,-1.95,-0.17,42.49,0.56,-0.69,-83.98,-0.69,-0.89,9.21
20,37,-161,7,207,4213,0.31,1.31,-2.24,0.07,2.07,42.13,0.58,-0.68,-83.97,-0.87,-0.66,18.82
21,29,-156,56,176,4030,0.40,1.35,-2.97,0.56,1.76,40.30,0.60,-0.67,-83.95,-0.93,-0.52,17.63
8,3,-107,128,201,4066,0.41,1.24,-3.32,1.28,2.01,40.66,0.61,-0.67,-83.94,-0.68,0.05,13.10
3,11,-64,164,260,4006,0.39,1.18,-3.38,1.64,2.60,40.06,0.63,-0.68,-83.93,-0.58,-0.10,9.39
-7,9,94,138,270,3988,0.31,1.12,-2.47,1.38,2.70,39.88,0.65,-0.68,-83.92,-0.37,-0.04,-3.03
-3,8,104,131,199,4144,0.26,1.05,-1.59,1.31,1.99,41.44,0.67,-0.69,-83.91,-0.45,0.00,-2.94
2,10,82,-13,96,4106,0.25,1.01,-0.93,-0.13,0.96,41.06,0.68,-0.67,-83.91,-0.56,-0.04,-0.38
-2,5,64,11,109,4082,0.21,0.94,-0.45,0.11,1.09,40.82,0.70,-0.65,-83.91,-0.48,0.07,1.66
1,3,38,-1,111,4112,0.19,0.86,-0.17,-0.01,1.11,41.12,0.71,-0.64,-83.90,-0.54,0.13,4.15
-1,3,31,-5,113,4130,0.17,0.80,0.04,-0.05,1.13,41.30,0.73,-0.62,-83.90,-0.50,0.13,4.96
0,1,28,41,116,4111,0.15,0.72,0.20,0.41,1.16,41.11,0.75,-0.62,-83.91,-0.53,0.19,5.39
0,1,28,34,74,4107,0.14,0.66,0.35,0.34,0.74,41.07,0.76,-0.61,-83.91,-0.54,0.20,5.55
0,2,28,28,22,4168,0.12,0.60,0.49,0.28,0.22,41.68,0.75,-0.60,-83.91,-0.53,0.19,5.70
-1,-10,27,20,102,4112,0.10,0.48,0.60,0.20,1.02,41.12,0.76,-0.59,-83.91,-0.51,0.46,5.90
-2,-2,20,64,164,4109,0.08,0.42,0.67,0.64,1.64,41.09,0.78,-0.59,-83.91,-0.50,0.32,6.56
1,2,11,79,103,4086,0.08,0.39,0.67,0.79,1.03,40.86,0.80,-0.60,-83.92,-0.57,0.25,7.33
0,4,-3,32,75,4102,0.07,0.38,0.58,0.32,0.75,41.02,0.81,-0.59,-83.92,-0.56,0.21,8.42
-1,4,-5,23,57,4101,0.06,0.36,0.49,0.23,0.57,41.01,0.81,-0.57,-83.92,-0.53,0.20,8.50
-2,3,-5,24,58,4095,0.04,0.35,0.41,0.24,0.58,40.95,0.81,-0.55,-83.92,-0.51,0.21,8.41
0,2,-5,-40,19,4109,0.04,0.32,0.34,-0.40,0.19,41.09,0.80,-0.53,-83.92,-0.54,0.22,8.34
1,3,-8,-23,19,4079,0.04,0.31,0.26,-0.23,0.19,40.79,0.79,-0.52,-83.92,-0.55,0.20,8.50
-1,-2,4,22,55,4075,0.03,0.27,0.26,0.22,0.55,40.75,0.79,-0.50,-83.93,-0.51,0.30,7.49
-1,-2,6,14,36,4081,0.02,0.23,0.27,0.14,0.36,40.81,0.78,-0.48,-83.93,-0.50,0.30,7.33
-1,-5,4,23,62,4122,0.01,0.17,0.27,0.23,0.62,41.22,0.79,-0.47,-83.93,-0.50,0.36,7.50
0,-4,10,62,81,4076,0.01,0.13,0.30,0.62,0.81,40.76,0.80,-0.48,-83.93,-0.53,0.36,7.02
-1,-4,13,68,89,4085,0.00,0.09,0.35,0.68,0.89,40.85,0.81,-0.49,-83.93,-0.52,0.38,6.82
-1,-3,8,61,85,4118,-0.00,0.07,0.36,0.61,0.85,41.18,0.83,-0.50,-83.93,-0.52,0.38,7.26
1,-1,1,60,80,4096,0.00,0.05,0.33,0.60,0.80,40.96,0.84,-0.52,-83.93,-0.57,0.35,7.82
0,1,-5,40,56,4100,0.00,0.05,0.27,0.40,0.56,41.00,0.82,-0.53,-83.93,-0.54,0.31,8.26
-1,1,-6,37,44,4102,-0.00,0.06,0.21,0.37,0.44,41.02,0.80,-0.53,-83.93,-0.51,0.31,8.28
1,1,-6,29,55,4095,0.00,0.06,0.15,0.29,0.55,40.95,0.80,-0.51,-83.94,-0.55,0.30,8.22
1,2,-7,23,50,4103,0.01,0.06,0.09,0.23,0.50,41.03,0.79,-0.49,-83.94,-0.54,0.27,8.24
-1,0,-4,6,47,4087,0.00,0.06,0.06,0.06,0.47,40.87,0.79,-0.48,-83.94,-0.50,0.30,7.95
2,2,-5,-7,25,4085,0.01,0.06,0.02,-0.07,0.25,40.85,0.77,-0.46,-83.94,-0.56,0.25,8.00
0,11,-29,-31,7,4092,0.01,0.12,-0.16,-0.31,0.07,40.92,0.76,-0.45,-83.94,-0.51,0.04,9.84
1,6,-30,0,20,4116,0.02,0.15,-0.33,0.00,0.20,41.16,0.75,-0.43,-83.93,-0.52,0.12,9.75
2,6,-31,2,31,4102,0.03,0.17,-0.48,0.02,0.31,41.02,0.74,-0.42,-83.93,-0.54,0.11,9.67
1,5,-34,14,8,4113,0.03,0.18,-0.64,0.14,0.08,41.13,0.72,-0.41,-83.93,-0.50,0.12,9.76
3,6,-32,9,11,4064,0.05,0.20,-0.77,0.09,0.11,40.64,0.71,-0.40,-83.93,-0.54,0.09,9.45
0,3,15,93,172,4103,0.04,0.20,-0.60,0.93,1.72,41.03,0.72,-0.41,-83.93,-0.49,0.15,5.64
0,0,31,54,155,4152,0.04,0.18,-0.35,0.54,1.55,41.52,0.74,-0.41,-83.92,-0.50,0.22,4.55
-3,3,2,7,72,4104,0.02,0.18,-0.31,0.07,0.72,41.04,0.75,-0.40,-83.92,-0.44,0.15,7.06
-3,8,-7,17,10,4111,-0.00,0.21,-0.32,0.17,0.10,41.11,0.73,-0.39,-83.92,-0.42,0.04,7.81
-2,3,-47,-48,71,4134,-0.02,0.21,-0.57,-0.48,0.71,41.34,0.74,-0.37,-83.92,-0.44,0.13,10.93
2,3,-41,-8,92,4147,-0.00,0.21,-0.77,-0.08,0.92,41.47,0.75,-0.36,-83.92,-0.54,0.12,10.21
-2,0,-34,60,78,4088,-0.01,0.18,-0.90,0.60,0.78,40.88,0.76,-0.37,-83.91,-0.46,0.20,9.48
0,1,-23,81,122,4132,-0.01,0.17,-0.95,0.81,1.22,41.32,0.78,-0.39,-83.91,-0.51,0.19,8.50
2,-1,2,47,77,4087,0.00,0.15,-0.84,0.47,0.77,40.87,0.79,-0.40,-83.90,-0.56,0.24,6.49
5,-3,-2,-100,22,4068,0.03,0.12,-0.77,-1.00,0.22,40.68,0.79,-0.38,-83.90,-0.63,0.28,6.91
2,-2,-7,-119,61,4066,0.04,0.09,-0.73,-1.19,0.61,40.66,0.79,-0.36,-83.90,-0.57,0.25,7.37
7,0,-7,-82,44,4065,0.08,0.08,-0.70,-0.82,0.44,40.65,0.78,-0.34,-83.90,-0.68,0.20,7.40
6,-1,-23,-14,70,4068,0.11,0.07,-0.77,-0.14,0.70,40.68,0.79,-0.32,-83.89,-0.67,0.22,8.68
1,-2,71,-25,40,4097,0.10,0.05,-0.26,-0.25,0.40,40.97,0.79,-0.31,-83.89,-0.57,0.23,1.26
-4,2,107,-80,11,4120,0.07,0.06,0.42,-0.80,0.11,41.20,0.78,-0.29,-83.89,-0.45,0.13,-1.07
4,-5,178,8,-10,4147,0.09,0.02,1.46,0.08,-0.10,41.47,0.76,-0.29,-83.90,-0.61,0.28,-5.98
7,-1,209,-7,-13,4115,0.12,0.01,2.59,-0.07,-0.13,41.15,0.74,-0.28,-83.91,-0.67,0.20,-7.41
-8,-1,255,-363,-111,4099,0.06,0.01,3.89,-3.63,-1.11,40.99,0.74,-0.26,-83.93,-0.34,0.19,-9.94
3,29,112,-135,-704,3996,0.07,0.18,4.18,-1.35,-7.04,39.96,0.72,-0.26,-83.94,-0.56,-0.47,2.49
33,67,24,27,-507,4328,0.27,0.57,3.91,0.27,-5.07,43.28,0.70,-0.26,-83.96,-1.21,-1.35,9.66
19,-8,-5,59,-547,4097,0.35,0.47,3.49,0.59,-5.47,40.97,0.69,-0.26,-83.97,-0.94,0.20,11.67
-16,-9,-232,-114,-335,4206,0.22,0.36,1.72,-1.14,-3.35,42.06,0.67,-0.25,-83.98,-0.18,0.25,20.00
3,-3,-181,-110,161,4040,0.22,0.31,0.45,-1.10,1.61,40.40,0.68,-0.23,-83.98,-0.57,0.13,20.00
8,14,182,18,229,4187,0.25,0.36,1.51,0.18,2.29,41.87,0.70,-0.23,-83.99,-0.69,-0.23,-6.26
-2,-3,232,116,436,4123,0.21,0.31,2.78,1.16,4.36,41.23,0.72,-0.24,-84.00,-0.49,0.13,-9.16
-16,13,511,162,122,4107,0.09,0.36,5.62,1.62,1.22,41.07,0.73,-0.25,-84.02,-0.18,-0.20,-20.00
-2,8,529,42,-84,4076,0.07,0.37,8.28,0.42,-0.84,40.76,0.71,-0.25,-84.05,-0.45,-0.10,-20.00
-20,9,490,20,-84,4052,-0.06,0.39,10.44,0.20,-0.84,40.52,0.69,-0.25,-84.10,-0.03,-0.12,-20.00
6,10,480,95,53,4119,-0.02,0.41,12.33,0.95,0.53,41.19,0.69,-0.27,-84.14,-0.57,-0.14,-20.00
2,22,497,96,88,4096,-0.00,0.50,14.12,0.96,0.88,40.96,0.70,-0.28,-84.20,-0.50,-0.40,-19.57
-7,5,500,113,117,4122,-0.05,0.48,15.76,1.13,1.17,41.22,0.71,-0.30,-84.26,-0.31,-0.04,-18.09
-11,12,499,73,119,4067,-0.11,0.51,17.23,0.73,1.19,40.67,0.72,-0.31,-84.33,-0.22,-0.18,-16.44
1,5,489,30,149,4153,-0.09,0.49,18.49,0.30,1.49,41.53,0.74,-0.31,-84.41,-0.48,-0.03,-14.25
-17,12,469,54,155,4124,-0.19,0.51,19.50,0.54,1.55,41.24,0.76,-0.31,-84.48,-0.10,-0.18,-11.48
-6,12,464,36,185,4103,-0.20,0.53,20.38,0.36,1.85,41.03,0.77,-0.31,-84.57,-0.33,-0.18,-10.12
1,9,423,29,192,4105,-0.18,0.54,20.92,0.29,1.92,41.05,0.79,-0.31,-84.65,-0.49,-0.12,-6.06
-14,-2,412,28,156,4053,-0.25,0.47,21.34,0.28,1.56,40.53,0.81,-0.31,-84.74,-0.18,0.12,-4.68
-6,0,376,46,230,4131,-0.26,0.42,21.50,0.46,2.30,41.31,0.83,-0.32,-84.82,-0.35,0.09,-1.45
-14,1,355,28,194,4062,-0.32,0.39,21.52,0.28,1.94,40.62,0.84,-0.32,-84.91,-0.18,0.08,0.35
-5,4,317,31,214,4106,-0.32,0.37,21.30,0.31,2.14,41.06,0.86,-0.32,-84.99,-0.38,0.03,3.35
-1,2,287,26,190,4089,-0.29,0.35,20.92,0.26,1.90,40.89,0.88,-0.32,-85.08,-0.48,0.07,5.50
-5,1,220,54,178,4124,-0.29,0.32,20.17,0.54,1.78,41.24,0.89,-0.32,-85.16,-0.41,0.11,10.38
-3,5,197,3,195,4202,-0.28,0.32,19.36,0.03,1.95,42.02,0.91,-0.32,-85.23,-0.46,0.02,11.48
0,4,164,-3,149,4160,-0.25,0.31,18.42,-0.03,1.49,41.60,0.92,-0.31,-85.31,-0.54,0.04,13.29
1,-2,161,0,149,4044,-0.22,0.27,17.56,0.00,1.49,40.44,0.94,-0.31,-85.38,-0.58,0.17,12.64
-3,3,133,-38,112,4107,-0.22,0.26,16.62,-0.38,1.12,41.07,0.95,-0.29,-85.44,-0.51,0.06,14.02
-5,-2,118,-48,96,4049,-0.23,0.22,15.67,-0.48,0.96,40.49,0.96,-0.28,-85.51,-0.47,0.16,14.30
1,-1,118,-28,116,4099,-0.20,0.19,14.83,-0.28,1.16,40.99,0.97,-0.27,-85.57,-0.61,0.14,13.40
-4,2,118,-24,18,4100,-0.20,0.19,14.06,-0.24,0.18,41.00,0.95,-0.25,-85.62,-0.49,0.08,12.60
-1,-4,104,-27,59,4089,-0.19,0.14,13.29,-0.27,0.59,40.89,0.95,-0.24,-85.68,-0.55,0.20,12.97
-7,5,104,-26,72,3992,-0.21,0.16,12.60,-0.26,0.72,39.92,0.95,-0.22,-85.73,-0.43,-0.00,12.24
2,-6,103,52,15,4109,-0.18,0.11,11.97,0.52,0.15,41.09,0.93,-0.23,-85.77,-0.61,0.24,11.66
-2,9,94,52,29,4098,-0.17,0.15,11.34,0.52,0.29,40.98,0.92,-0.24,-85.82,-0.52,-0.06,11.77
0,1,63,11,66,4144,-0.16,0.14,10.59,0.11,0.66,41.44,0.92,-0.22,-85.86,-0.56,0.09,13.61
0,5,65,2,62,4126,-0.14,0.16,9.93,0.02,0.62,41.26,0.91,-0.21,-85.90,-0.56,-0.01,12.74
-6,7,86,-16,-17,4071,-0.16,0.18,9.46,-0.16,-0.17,40.71,0.89,-0.20,-85.94,-0.42,-0.06,10.47
3,1,84,13,8,4082,-0.13,0.17,9.03,0.13,0.08,40.82,0.87,-0.20,-85.98,-0.60,0.06,10.18
2,1,87,-16,9,4050,-0.10,0.16,8.66,-0.16,0.09,40.50,0.86,-0.19,-86.01,-0.58,0.06,9.54
11,-4,108,-23,-6,4120,-0.03,0.12,8.45,-0.23,-0.06,41.20,0.84,-0.18,-86.04,-0.77,0.17,7.54
-1,7,154,-3,-21,4088,-0.03,0.15,8.54,-0.03,-0.21,40.88,0.82,-0.18,-86.08,-0.52,-0.07,3.75
-3,-4,168,58,33,4131,-0.04,0.11,8.71,0.58,0.33,41.31,0.81,-0.19,-86.11,-0.46,0.18,2.74
3,2,211,39,-43,4132,-0.02,0.11,9.13,0.39,-0.43,41.32,0.80,-0.20,-86.15,-0.58,0.06,-0.46
-1,10,221,-54,-15,4049,-0.03,0.16,9.56,-0.54,-0.15,40.49,0.78,-0.18,-86.19,-0.49,-0.13,-0.84
-4,8,254,-13,22,4138,-0.05,0.20,10.16,-0.13,0.22,41.38,0.77,-0.17,-86.23,-0.41,-0.10,-3.00
-5,-3,260,-23,40,4165,-0.07,0.16,10.73,-0.23,0.40,41.65,0.76,-0.16,-86.27,-0.38,0.12,-2.90
-4,2,271,-37,8,4121,-0.09,0.15,11.31,-0.37,0.08,41.21,0.75,-0.14,-86.32,-0.39,0.01,-3.22
-8,-3,284,-54,45,4100,-0.13,0.12,11.91,-0.54,0.45,41.00,0.74,-0.13,-86.36,-0.29,0.11,-3.68
-9,-5,318,-41,4,4104,-0.17,0.08,12.66,-0.41,0.04,41.04,0.73,-0.11,-86.41,-0.25,0.15,-5.76
-14,-2,316,-1,62,4068,-0.24,0.06,13.32,-0.01,0.62,40.68,0.74,-0.10,-86.47,-0.14,0.09,-4.89
-5,17,353,42,39,4024,-0.25,0.16,14.14,0.42,0.39,40.24,0.73,-0.12,-86.52,-0.32,-0.31,-7.15
4,0,360,144,119,4212,-0.20,0.14,14.92,1.44,1.19,42.12,0.74,-0.13,-86.58,-0.52,0.05,-6.91
-11,3,365,131,89,4193,-0.24,0.14,15.66,1.31,0.89,41.93,0.75,-0.15,-86.65,-0.20,0.00,-6.55
-10,6,366,116,160,4185,-0.28,0.17,16.32,1.16,1.60,41.85,0.76,-0.17,-86.71,-0.22,-0.06,-5.92
-4,-1,353,179,186,4225,-0.28,0.14,16.85,1.79,1.86,42.25,0.77,-0.18,-86.78,-0.35,0.10,-4.26
-1,3,359,218,173,4038,-0.26,0.15,17.35,2.18,1.73,40.38,0.78,-0.20,-86.85,-0.42,0.03,-4.23
-4,-1,348,132,191,4082,-0.25,0.13,17.74,1.32,1.91,40.82,0.79,-0.21,-86.92,-0.37,0.12,-2.88
3,3,335,106,204,4028,-0.21,0.13,18.01,1.06,2.04,40.28,0.80,-0.22,-86.99,-0.53,0.05,-1.48
-6,-3,291,67,198,4036,-0.23,0.10,17.98,0.67,1.98,40.36,0.82,-0.23,-87.06,-0.36,0.18,2.22
-7,13,257,36,141,4074,-0.25,0.17,17.75,0.36,1.41,40.74,0.84,-0.23,-87.13,-0.34,-0.16,4.87
5,10,204,31,226,4087,-0.19,0.21,17.22,0.31,2.26,40.87,0.85,-0.23,-87.20,-0.61,-0.11,8.80
0,8,196,13,193,4127,-0.17,0.24,16.69,0.13,1.93,41.27,0.87,-0.23,-87.27,-0.53,-0.08,8.93
3,10,136,19,157,4122,-0.14,0.28,15.85,0.19,1.57,41.22,0.89,-0.23,-87.33,-0.61,-0.13,13.13
1,7,130,44,125,4088,-0.12,0.29,15.06,0.44,1.25,40.88,0.90,-0.24,-87.39,-0.58,-0.06,12.80
-2,7,108,40,144,4101,-0.12,0.31,14.21,0.40,1.44,41.01,0.92,-0.24,-87.45,-0.53,-0.06,13.77
0,9,112,26,169,4105,-0.11,0.33,13.48,0.26,1.69,41.05,0.94,-0.25,-87.50,-0.59,-0.11,12.66
-6,6,119,17,55,4098,-0.13,0.33,12.85,0.17,0.55,40.98,0.92,-0.24,-87.56,-0.45,-0.05,11.41
-2,6,115,28,55,4118,-0.13,0.34,12.27,0.28,0.55,41.18,0.90,-0.26,-87.61,-0.52,-0.04,11.13
-1,3,109,78,98,4120,-0.12,0.32,11.71,0.78,0.98,41.20,0.91,-0.27,-87.65,-0.55,0.03,11.05
4,3,109,122,76,4070,-0.09,0.31,11.20,1.22,0.76,40.70,0.91,-0.29,-87.70,-0.66,0.05,10.52
0,0,66,76,58,4082,-0.08,0.28,10.48,0.76,0.58,40.82,0.91,-0.31,-87.74,-0.58,0.13,13.41
-1,0,67,78,107,4083,-0.08,0.25,9.85,0.78,1.07,40.83,0.92,-0.32,-87.78,-0.57,0.14,12.65
0,7,127,46,84,4104,-0.07,0.27,9.64,0.46,0.84,41.04,0.93,-0.34,-87.82,-0.60,0.01,7.35
-6,3,133,60,33,4105,-0.10,0.26,9.48,0.60,0.33,41.05,0.92,-0.35,-87.85,-0.46,0.10,6.68
-2,10,113,180,21,4058,-0.10,0.29,9.22,1.80,0.21,40.58,0.91,-0.37,-87.89,-0.53,-0.04,8.10
-3,6,129,281,40,4095,-0.11,0.30,9.09,2.81,0.40,40.95,0.91,-0.38,-87.93,-0.51,0.05,6.61
-7,-26,137,-492,21,4010,-0.14,0.11,9.02,-4.92,0.21,40.10,0.91,-0.36,-87.96,-0.42,0.74,5.86
-5,-13,175,-382,-188,4071,-0.16,0.02,9.18,-3.82,-1.88,40.71,0.90,-0.35,-88.00,-0.45,0.49,2.82
-1,-134,35,-548,-68,4197,-0.15,-0.80,8.48,-5.48,-0.68,41.97,0.89,-0.34,-88.03,-0.53,3.16,13.93
6,-77,75,-265,-109,3894,-0.10,-1.19,8.09,-2.65,-1.09,38.94,0.88,-0.33,-88.07,-0.68,2.10,10.13
-9,-24,150,166,-70,4006,-0.14,-1.22,8.19,1.66,-0.70,40.06,0.87,-0.34,-88.10,-0.35,1.05,3.90
-10,-15,183,232,15,4013,-0.19,-1.19,8.49,2.32,0.15,40.13,0.87,-0.37,-88.13,-0.32,0.87,1.42
-5,1,338,216,45,4026,-0.20,-1.06,9.70,2.16,0.45,40.26,0.86,-0.39,-88.17,-0.41,0.53,-10.43
4,-1,368,214,37,4189,-0.16,-0.96,10.98,2.14,0.37,41.89,0.86,-0.41,-88.22,-0.61,0.55,-11.61
-5,-6,467,184,47,4154,-0.17,-0.90,12.73,1.84,0.47,41.54,0.86,-0.44,-88.27,-0.42,0.66,-18.14
-5,-21,473,214,9,4193,-0.18,-0.94,14.34,2.14,0.09,41.93,0.85,-0.46,-88.32,-0.41,0.99,-16.94
-18,-6,488,46,-38,4098,-0.28,-0.88,15.88,0.46,-0.38,40.98,0.83,-0.46,-88.39,-0.11,0.67,-16.57
-11,12,497,-19,-44,3965,-0.32,-0.72,17.33,-0.19,-0.44,39.65,0.81,-0.46,-88.46,-0.23,0.26,-15.80
-8,19,506,91,-42,3972,-0.33,-0.53,18.68,0.91,-0.42,39.72,0.79,-0.47,-88.53,-0.27,0.07,-15.12
1,16,476,147,-11,4172,-0.29,-0.38,19.72,1.47,-0.11,41.72,0.78,-0.49,-88.61,-0.46,0.10,-11.48
-24,-21,536,-428,175,4060,-0.41,-0.47,21.01,-4.28,1.75,40.60,0.79,-0.48,-88.70,0.08,0.87,-15.18
-13,5,570,-655,97,4130,-0.45,-0.39,22.39,-6.55,0.97,41.30,0.78,-0.46,-88.78,-0.13,0.31,-16.59
-2,19,526,-195,8,4068,-0.42,-0.24,23.36,-1.95,0.08,40.68,0.78,-0.45,-88.88,-0.36,-0.03,-11.83
-6,9,503,39,-24,4318,-0.41,-0.16,24.09,0.39,-0.24,43.18,0.76,-0.45,-88.97,-0.27,0.16,-9.10
4,24,455,383,85,4223,-0.35,0.00,24.46,3.83,0.85,42.23,0.76,-0.47,-89.07,-0.49,-0.18,-4.63
-8,5,451,381,71,4131,-0.36,0.03,24.76,3.81,0.71,41.31,0.76,-0.49,-89.17,-0.24,0.21,-3.96
-7,1,499,-16,117,4110,-0.37,0.04,25.33,-0.16,1.17,41.10,0.77,-0.48,-89.27,-0.26,0.28,-7.42
-7,16,516,-116,128,4041,-0.37,0.13,25.95,-1.16,1.28,40.41,0.77,-0.46,-89.38,-0.27,-0.06,-8.20
-9,20,479,-28,27,4014,-0.39,0.24,26.27,-0.28,0.27,40.14,0.76,-0.45,-89.48,-0.21,-0.18,-4.71
-5,18,453,31,73,4159,-0.38,0.32,26.41,0.31,0.73,41.59,0.78,-0.44,-89.59,-0.31,-0.16,-2.35
-6,14,397,54,69,4157,-0.38,0.38,26.19,0.54,0.69,41.57,0.79,-0.46,-89.69,-0.29,-0.08,2.17
-6,27,376,54,156,4056,-0.38,0.50,25.86,0.54,1.56,40.56,0.80,-0.46,-89.80,-0.30,-0.38,3.61
-5,18,324,32,221,4077,-0.37,0.56,25.25,0.32,2.21,40.77,0.82,-0.46,-89.90,-0.34,-0.21,7.38
-5,4,317,28,212,4192,-0.36,0.53,24.66,0.28,2.12,41.92,0.83,-0.46,-89.99,-0.35,0.08,7.36
-3,3,251,-113,147,4131,-0.35,0.50,23.73,-1.13,1.47,41.31,0.84,-0.44,-90.09,-0.40,0.10,11.97
-7,1,232,-118,165,4091,-0.35,0.45,22.77,-1.18,1.65,40.91,0.85,-0.43,-90.18,-0.32,0.14,12.57
-3,-7,228,29,157,4062,-0.34,0.37,21.88,0.29,1.57,40.62,0.87,-0.43,-90.27,-0.42,0.33,11.98
-9,-6,222,42,68,4108,-0.36,0.29,21.05,0.42,0.68,41.08,0.87,-0.44,-90.35,-0.29,0.34,11.61
-4,-4,156,66,94,4092,-0.35,0.24,19.90,0.66,0.94,40.92,0.88,-0.46,-90.43,-0.41,0.32,15.99
-1,-4,173,161,128,4106,-0.32,0.19,18.96,1.61,1.28,41.06,0.89,-0.48,-90.51,-0.48,0.34,13.57
-4,4,232,118,14,4117,-0.31,0.20,18.48,1.18,0.14,41.17,0.88,-0.49,-90.58,-0.41,0.19,8.07
0,10,238,53,19,4116,-0.28,0.24,18.08,0.53,0.19,41.16,0.86,-0.50,-90.65,-0.49,0.06,7.14
-4,13,219,-120,12,4169,-0.28,0.29,17.61,-1.20,0.12,41.69,0.85,-0.48,-90.72,-0.41,-0.03,8.26
0,12,202,-92,60,4097,-0.25,0.34,17.08,-0.92,0.60,40.97,0.85,-0.46,-90.79,-0.49,-0.03,9.15
-3,7,203,87,90,4100,-0.24,0.35,16.61,0.87,0.90,41.00,0.86,-0.48,-90.86,-0.44,0.08,8.57
-1,8,219,76,79,4104,-0.22,0.36,16.29,0.76,0.79,41.04,0.86,-0.49,-90.92,-0.49,0.07,6.88
-9,-5,239,188,94,4118,-0.26,0.29,16.12,1.88,0.94,41.18,0.86,-0.51,-90.99,-0.32,0.36,5.01
-1,5,255,196,108,4074,-0.24,0.29,16.06,1.96,1.08,40.74,0.87,-0.53,-91.05,-0.49,0.17,3.60
-5,2,247,-11,51,4120,-0.24,0.28,15.96,-0.11,0.51,41.20,0.86,-0.51,-91.12,-0.40,0.22,4.18
-3,1,244,-17,61,4070,-0.24,0.26,15.85,-0.17,0.61,40.70,0.86,-0.49,-91.18,-0.44,0.24,4.32
-6,9,244,-39,-58,4034,-0.25,0.29,15.76,-0.39,-0.58,40.34,0.84,-0.48,-91.24,-0.37,0.06,4.22
-5,-2,229,-17,10,4111,-0.26,0.24,15.58,-0.17,0.10,41.11,0.83,-0.47,-91.31,-0.38,0.28,5.31
-4,-3,204,13,-6,4108,-0.25,0.20,15.26,0.13,-0.06,41.08,0.81,-0.46,-91.37,-0.38,0.31,7.10
-4,0,199,3,-4,4074,-0.25,0.18,14.95,0.03,-0.04,40.74,0.79,-0.46,-91.43,-0.37,0.25,7.20
-6,1,190,123,-13,4083,-0.26,0.17,14.62,1.23,-0.13,40.83,0.78,-0.47,-91.49,-0.32,0.24,7.61
-2,7,180,133,3,4162,-0.25,0.20,14.25,1.33,0.03,41.62,0.77,-0.49,-91.54,-0.40,0.13,8.08
2,21,211,71,45,4122,-0.21,0.30,14.11,0.71,0.45,41.22,0.76,-0.50,-91.60,-0.49,-0.18,5.31
-4,-2,238,45,66,4177,-0.22,0.26,14.15,0.45,0.66,41.77,0.78,-0.52,-91.66,-0.37,0.31,3.07
1,20,329,-10,14,4096,-0.19,0.36,14.75,-0.10,0.14,40.96,0.76,-0.50,-91.71,-0.47,-0.17,-4.01
8,-32,409,-1231,216,4066,-0.12,0.13,15.77,-12.31,2.16,40.66,0.76,-0.48,-91.78,-0.63,0.94,-9.70
-8,-34,617,-816,-196,4236,-0.16,-0.09,17.95,-8.16,-1.96,42.36,0.76,-0.47,-91.85,-0.29,1.03,-20.00
-7,-54,627,-397,-309,4172,-0.18,-0.41,19.98,-3.97,-3.09,41.72,0.74,-0.46,-91.93,-0.30,1.51,-20.00
2,-101,614,614,-207,4031,-0.15,-0.99,21.73,6.14,-2.07,40.31,0.74,-0.48,-92.02,-0.48,2.64,-20.00
0,-87,647,606,-107,4074,-0.14,-1.42,23.50,6.06,-1.07,40.74,0.73,-0.50,-92.11,-0.44,2.49,-20.00
-32,30,734,428,-180,4075,-0.32,-1.10,25.63,4.28,-1.80,40.75,0.72,-0.52,-92.21,0.26,0.03,-20.00
-33,60,725,297,-154,4052,-0.49,-0.62,27.49,2.97,-1.54,40.52,0.70,-0.54,-92.32,0.34,-0.69,-20.00
-2,-30,751,25,41,4238,-0.45,-0.74,29.32,0.25,0.41,42.38,0.69,-0.53,-92.44,-0.29,1.16,-20.00
4,-47,782,-16,-15,4181,-0.38,-0.95,31.16,-0.16,-0.15,41.81,0.67,-0.52,-92.57,-0.42,1.56,-20.00
-2,-50,818,69,-122,3966,-0.36,-1.16,33.03,0.69,-1.22,39.66,0.65,-0.53,-92.70,-0.29,1.69,-20.00
-17,-21,807,44,-223,4052,-0.42,-1.17,34.65,0.44,-2.23,40.52,0.63,-0.54,-92.84,0.05,1.10,-20.00
-21,-11,829,145,39,4159,-0.51,-1.12,36.24,1.45,0.39,41.59,0.63,-0.57,-92.98,0.15,0.90,-20.00
5,-13,856,159,58,4147,-0.43,-1.09,37.84,1.59,0.58,41.47,0.63,-0.59,-93.13,-0.40,0.95,-20.00
-5,-46,955,289,-19,4013,-0.42,-1.26,39.88,2.89,-0.19,40.13,0.62,-0.61,-93.29,-0.19,1.69,-20.00
-22,-49,980,326,-15,3988,-0.51,-1.44,41.87,3.26,-0.15,39.88,0.61,-0.64,-93.46,0.18,1.81,-20.00
-43,37,1089,230,44,4087,-0.72,-1.07,44.33,2.30,0.44,40.87,0.60,-0.66,-93.64,0.67,-0.02,-20.00
-41,28,1133,262,128,4153,-0.90,-0.79,46.81,2.62,1.28,41.53,0.61,-0.69,-93.82,0.68,0.10,-20.00
-22,7,1209,244,-110,4091,-0.94,-0.67,49.50,2.44,-1.10,40.91,0.59,-0.71,-94.02,0.32,0.51,-20.00
-3,46,1206,174,-92,3933,-0.87,-0.32,51.91,1.74,-0.92,39.33,0.57,-0.72,-94.23,-0.08,-0.37,-20.00
-31,108,1253,25,-49,4135,-0.97,0.37,54.36,0.25,-0.49,41.35,0.54,-0.72,-94.45,0.54,-1.82,-20.00
-25,89,1267,-28,-53,4178,-1.02,0.88,56.65,-0.28,-0.53,41.78,0.52,-0.70,-94.67,0.44,-1.58,-20.00
-29,58,1329,-154,5,4021,-1.10,1.14,59.09,-1.54,0.05,40.21,0.51,-0.68,-94.91,0.55,-1.04,-20.00
-29,66,1345,-181,41,3982,-1.17,1.43,61.39,-1.81,0.41,39.82,0.51,-0.66,-95.16,0.57,-1.30,-20.00
-34,71,1412,-96,56,4114,-1.26,1.72,63.86,-0.96,0.56,41.14,0.50,-0.64,-95.41,0.70,-1.49,-20.00
-36,50,1427,-10,141,4194,-1.35,1.85,66.18,-0.10,1.41,41.94,0.51,-0.62,-95.68,0.76,-1.11,-20.00
-16,0,1433,61,-4,4151,-1.31,1.67,68.31,0.61,-0.04,41.51,0.48,-0.63,-95.95,0.36,-0.04,-20.00
-26,2,1422,4,-14,4042,-1.34,1.51,70.15,0.04,-0.14,40.42,0.46,-0.61,-96.23,0.59,-0.05,-20.00
-21,0,1422,71,183,4117,-1.33,1.36,71.81,0.71,1.83,41.17,0.47,-0.61,-96.52,0.48,0.03,-20.00
-20,4,1424,49,68,4037,-1.32,1.25,73.31,0.49,0.68,40.37,0.48,-0.61,-96.81,0.45,-0.02,-20.00
-33,17,1417,66,98,4058,-1.39,1.23,74.63,0.66,0.98,40.58,0.49,-0.62,-97.11,0.73,-0.27,-20.00
-36,31,1412,9,164,4121,-1.47,1.30,75.78,0.09,1.64,41.21,0.50,-0.61,-97.41,0.81,-0.58,-20.00
-21,17,1413,-121,83,4095,-1.45,1.27,76.82,-1.21,0.83,40.95,0.49,-0.59,-97.72,0.50,-0.30,-20.00
-15,22,1393,-114,25,4038,-1.40,1.28,77.63,-1.14,0.25,40.38,0.48,-0.57,-98.03,0.37,-0.42,-20.00
-29,34,1308,-259,29,4136,-1.44,1.36,77.85,-2.59,0.29,41.36,0.47,-0.55,-98.34,0.67,-0.70,-19.53
-27,20,1297,-224,82,4081,-1.46,1.34,77.98,-2.24,0.82,40.81,0.47,-0.53,-98.65,0.64,-0.43,-18.44
-16,-23,1201,-62,-56,4090,-1.41,1.07,77.50,-0.62,-0.56,40.90,0.45,-0.51,-98.96,0.41,0.51,-10.78
-13,-30,1166,19,101,4118,-1.35,0.78,76.87,0.19,1.01,41.18,0.46,-0.50,-99.27,0.33,0.73,-8.46
-32,-23,1147,16,53,4040,-1.41,0.56,76.18,0.16,0.53,40.40,0.46,-0.49,-99.58,0.73,0.64,-7.55
-1,27,1148,-7,147,4066,-1.27,0.67,75.56,-0.07,1.47,40.66,0.47,-0.49,-99.88,0.06,-0.41,-8.26
-16,53,1125,-145,-7,4152,-1.24,0.93,74.87,-1.45,-0.07,41.52,0.46,-0.47,-100.18,0.36,-1.02,-7.02
-21,52,1104,-135,-3,4081,-1.25,1.15,74.12,-1.35,-0.03,40.81,0.45,-0.45,-100.47,0.47,-1.08,-6.01
-19,9,1105,-70,206,4144,-1.24,1.09,73.44,-0.70,2.06,41.44,0.46,-0.44,-100.77,0.42,-0.19,-6.78
-8,25,1106,-31,157,4068,-1.16,1.13,72.85,-0.31,1.57,40.68,0.47,-0.43,-101.06,0.17,-0.54,-7.47
-13,39,1090,68,215,4084,-1.13,1.26,72.21,0.68,2.15,40.84,0.48,-0.43,-101.35,0.26,-0.85,-6.76
-15,33,1075,13,171,4163,-1.11,1.33,71.55,0.13,1.71,41.63,0.49,-0.42,-101.63,0.28,-0.76,-6.17
-25,10,1005,1,217,4160,-1.15,1.26,70.52,0.01,2.17,41.60,0.50,-0.42,-101.92,0.49,-0.27,-1.30
-21,13,977,56,235,4042,-1.16,1.21,69.43,0.56,2.35,40.42,0.51,-0.42,-102.19,0.40,-0.32,-0.06
-22,53,868,-61,270,4091,-1.18,1.42,67.78,-0.61,2.70,40.91,0.52,-0.41,-102.46,0.42,-1.20,7.46
-25,45,829,-141,315,4104,-1.21,1.55,66.06,-1.41,3.15,41.04,0.53,-0.39,-102.73,0.49,-1.08,8.96
3,-10,713,-25,333,4148,-1.07,1.33,63.80,-0.25,3.33,41.48,0.55,-0.39,-102.98,-0.13,0.09,16.42
-1,-29,661,83,355,4041,-0.97,1.02,61.46,0.83,3.55,40.41,0.56,-0.39,-103.23,-0.08,0.57,18.36
-19,59,517,-82,238,4055,-0.99,1.28,58.46,-0.82,2.38,40.55,0.57,-0.38,-103.46,0.28,-1.30,20.00
-4,49,480,-38,325,4203,-0.92,1.45,55.55,-0.38,3.25,42.03,0.58,-0.37,-103.69,-0.05,-1.15,20.00
2,-31,344,69,203,4154,-0.81,1.12,52.09,0.69,2.03,41.54,0.59,-0.37,-103.89,-0.21,0.57,20.00
6,-27,322,-1,125,4068,-0.69,0.84,48.84,-0.01,1.25,40.68,0.61,-0.36,-104.09,-0.33,0.56,20.00
-11,45,245,14,200,4044,-0.69,1.03,45.45,0.14,2.00,40.44,0.62,-0.36,-104.27,0.00,-0.96,20.00
-14,60,248,91,190,4133,-0.71,1.29,42.42,0.91,1.90,41.33,0.63,-0.36,-104.44,0.06,-1.33,20.00
-3,29,250,54,70,4124,-0.66,1.34,39.70,0.54,0.70,41.24,0.64,-0.37,-104.60,-0.18,-0.71,20.00
4,8,247,54,9,4137,-0.57,1.26,37.24,0.54,0.09,41.37,0.63,-0.38,-104.75,-0.34,-0.25,20.00
-3,-14,207,0,27,4098,-0.53,1.05,34.78,0.00,0.27,40.98,0.61,-0.36,-104.89,-0.20,0.24,20.00
-3,-2,207,-4,-11,4132,-0.49,0.93,32.56,-0.04,-0.11,41.32,0.59,-0.35,-105.02,-0.20,0.02,20.00
0,-7,185,-83,-58,4103,-0.44,0.79,30.44,-0.83,-0.58,41.03,0.58,-0.34,-105.14,-0.26,0.15,20.00
-1,-18,179,-145,-58,4062,-0.41,0.60,28.48,-1.45,-0.58,40.62,0.57,-0.32,-105.25,-0.24,0.41,20.00
-1,-35,158,-29,-11,4105,-0.37,0.33,26.60,-0.29,-0.11,41.05,0.55,-0.31,-105.36,-0.24,0.82,20.00
-4,-34,162,-23,-44,4123,-0.36,0.09,24.93,-0.23,-0.44,41.23,0.53,-0.30,-105.46,-0.17,0.86,20.00
2,-44,108,42,-226,4049,-0.31,-0.19,23.09,0.42,-2.26,40.49,0.51,-0.30,-105.55,-0.30,1.14,20.00
1,-35,72,92,-217,4086,-0.27,-0.38,21.22,0.92,-2.17,40.86,0.49,-0.31,-105.64,-0.27,1.02,20.00
-4,32,12,62,-5,4027,-0.27,-0.15,19.17,0.62,-0.05,40.27,0.48,-0.32,-105.71,-0.16,-0.40,20.00
-7,46,2,69,-1,4057,-0.29,0.15,17.27,0.69,-0.01,40.57,0.47,-0.34,-105.78,-0.09,-0.75,20.00
-12,11,29,-118,-1,4261,-0.33,0.20,15.72,-1.18,-0.01,42.61,0.46,-0.32,-105.85,0.03,-0.07,20.00
6,-53,50,28,-23,4166,-0.26,-0.14,14.45,0.28,-0.23,41.66,0.44,-0.32,-105.90,-0.34,1.33,20.00
7,-47,38,-19,75,3954,-0.19,-0.42,13.24,-0.19,0.75,39.54,0.45,-0.31,-105.96,-0.39,1.27,20.00
-1,-17,35,-50,29,4007,-0.18,-0.48,12.13,-0.50,0.29,40.07,0.45,-0.30,-106.01,-0.23,0.67,19.42
-4,-11,39,-83,28,4159,-0.19,-0.50,11.15,-0.83,0.28,41.59,0.45,-0.28,-106.05,-0.17,0.54,18.05
3,-25,45,-119,12,4161,-0.15,-0.60,10.31,-1.19,0.12,41.61,0.45,-0.26,-106.09,-0.32,0.85,16.66
1,-4,88,55,-4,4029,-0.13,-0.56,9.82,0.55,-0.04,40.29,0.43,-0.28,-106.13,-0.27,0.42,12.49
5,28,106,106,-30,4020,-0.08,-0.34,9.48,1.06,-0.30,40.20,0.42,-0.30,-106.17,-0.36,-0.28,10.62
-7,78,177,327,-85,4120,-0.12,0.17,9.61,3.27,-0.85,41.20,0.42,-0.31,-106.21,-0.10,-1.43,4.74
-1,83,201,311,-130,4105,-0.11,0.66,9.88,3.11,-1.30,41.05,0.41,-0.33,-106.25,-0.22,-1.65,2.99
0,124,342,159,-97,3998,-0.10,1.35,10.98,1.59,-0.97,39.98,0.39,-0.34,-106.29,-0.23,-2.67,-7.78
-16,147,423,127,-122,4029,-0.19,2.11,12.46,1.27,-1.22,40.29,0.38,-0.34,-106.34,0.13,-3.34,-13.07
-11,48,552,-21,-40,4042,-0.24,2.19,14.58,-0.21,-0.40,40.42,0.36,-0.32,-106.40,0.05,-1.36,-20.00
-25,21,605,17,-55,4116,-0.37,2.10,16.81,0.17,-0.55,41.16,0.34,-0.31,-106.47,0.38,-0.80,-20.00
-11,21,685,-138,-9,4124,-0.40,2.02,19.31,-1.38,-0.09,41.24,0.33,-0.28,-106.54,0.11,-0.79,-20.00
-10,13,698,-206,-137,4184,-0.42,1.90,21.64,-2.06,-1.37,41.84,0.32,-0.26,-106.63,0.10,-0.61,-20.00
-26,6,743,-73,-64,4267,-0.53,1.74,24.01,-0.73,-0.64,42.67,0.31,-0.24,-106.73,0.47,-0.44,-20.00
-20,9,753,-18,-192,3925,-0.60,1.63,26.20,-0.18,-1.92,39.25,0.29,-0.23,-106.83,0.38,-0.47,-20.00
-15,26,808,-27,-43,3940,-0.63,1.62,28.51,-0.27,-0.43,39.40,0.27,-0.22,-106.95,0.30,-0.83,-20.00
-13,27,825,-14,-110,4095,-0.65,1.62,30.69,-0.14,-1.10,40.95,0.25,-0.21,-107.07,0.28,-0.86,-20.00
-13,32,887,-1,-4,4043,-0.66,1.66,33.03,-0.01,-0.04,40.43,0.23,-0.19,-107.20,0.29,-0.98,-20.00
-25,6,925,28,92,4125,-0.75,1.53,35.37,0.28,0.92,41.25,0.24,-0.19,-107.34,0.55,-0.41,-20.00
-7,40,963,-35,28,3966,-0.72,1.62,37.71,-0.35,0.28,39.66,0.24,-0.16,-107.49,0.18,-1.15,-20.00
-11,41,979,-49,125,4028,-0.71,1.71,39.91,-0.49,1.25,40.28,0.26,-0.15,-107.65,0.25,-1.20,-20.00
-10,25,1024,-66,75,4030,-0.70,1.69,42.16,-0.66,0.75,40.30,0.26,-0.13,-107.82,0.22,-0.88,-20.00
-19,36,1031,-56,141,4193,-0.75,1.74,44.24,-0.56,1.41,41.93,0.28,-0.11,-108.00,0.41,-1.13,-20.00
-4,20,1031,-100,282,4152,-0.70,1.69,46.10,-1.00,2.82,41.52,0.29,-0.10,-108.18,0.08,-0.80,-20.00
-19,10,1028,-132,186,4158,-0.74,1.58,47.76,-1.32,1.86,41.58,0.30,-0.08,-108.37,0.39,-0.58,-20.00
-11,6,931,-210,155,4204,-0.74,1.46,48.67,-2.10,1.55,42.04,0.31,-0.06,-108.57,0.22,-0.48,-17.57
-12,4,888,-151,88,3999,-0.74,1.34,49.22,-1.51,0.88,39.99,0.31,-0.04,-108.77,0.24,-0.42,-13.33
2,4,717,5,159,4090,-0.65,1.23,48.67,0.05,1.59,40.90,0.33,-0.04,-108.96,-0.08,-0.39,0.59
-21,-1,632,85,97,4126,-0.71,1.10,47.66,0.85,0.97,41.26,0.34,-0.05,-109.15,0.40,-0.25,6.74
-5,0,456,26,36,4123,-0.67,0.99,45.67,0.26,0.36,41.23,0.34,-0.06,-109.33,0.06,-0.23,19.57
-11,2,414,-13,42,4061,-0.67,0.90,43.63,-0.13,0.42,40.61,0.35,-0.05,-109.51,0.17,-0.26,20.00
-4,-3,338,-137,84,4089,-0.63,0.79,41.33,-1.37,0.84,40.89,0.36,-0.03,-109.67,0.02,-0.14,20.00
-14,-13,326,-63,66,4112,-0.65,0.64,39.19,-0.63,0.66,41.12,0.36,-0.01,-109.83,0.22,0.10,20.00
-1,-3,331,32,68,4156,-0.59,0.55,37.29,0.32,0.68,41.56,0.38,-0.02,-109.98,-0.07,-0.08,20.00
-2,-4,316,55,17,4154,-0.55,0.47,35.48,0.55,0.17,41.54,0.37,-0.04,-110.12,-0.06,-0.02,20.00
-9,5,321,11,11,4120,-0.55,0.46,33.89,0.11,0.11,41.20,0.35,-0.05,-110.26,0.10,-0.20,18.62
-6,-6,329,46,33,4085,-0.53,0.37,32.51,0.46,0.33,40.85,0.35,-0.06,-110.39,0.03,0.06,16.49
-10,8,324,-26,-159,4115,-0.54,0.39,31.24,-0.26,-1.59,41.15,0.33,-0.06,-110.51,0.13,-0.23,15.57
1,14,302,104,-91,4041,-0.48,0.43,29.96,1.04,-0.91,40.41,0.32,-0.07,-110.63,-0.10,-0.36,16.09
-2,12,275,16,-94,4106,-0.44,0.46,28.64,0.16,-0.94,41.06,0.30,-0.07,-110.75,-0.04,-0.32,16.99
3,12,282,66,1,4147,-0.38,0.49,27.49,0.66,0.01,41.47,0.29,-0.09,-110.86,-0.15,-0.32,15.20
-4,5,350,37,-92,4055,-0.37,0.47,26.88,0.37,-0.92,40.55,0.27,-0.09,-110.96,0.00,-0.17,8.80
-11,11,366,-38,-132,4042,-0.40,0.49,26.42,-0.38,-1.32,40.42,0.25,-0.08,-111.07,0.17,-0.30,6.97
8,16,488,-147,10,4056,-0.31,0.54,26.76,-1.47,0.10,40.56,0.25,-0.06,-111.18,-0.24,-0.43,-3.00
-1,13,523,-89,-84,4194,-0.28,0.56,27.27,-0.89,-0.84,41.94,0.23,-0.05,-111.29,-0.06,-0.39,-5.41
0,6,573,-9,-40,4176,-0.25,0.54,28.04,-0.09,-0.40,41.76,0.21,-0.04,-111.40,-0.07,-0.24,-8.83
-22,6,579,-11,-180,4050,-0.36,0.53,28.77,-0.11,-1.80,40.50,0.19,-0.04,-111.51,0.42,-0.24,-8.56
-13,6,609,-44,-18,4069,-0.41,0.51,29.61,-0.44,-0.18,40.69,0.18,-0.02,-111.63,0.25,-0.25,-10.20
-18,2,616,8,-30,4157,-0.48,0.47,30.40,0.08,-0.30,41.57,0.16,-0.02,-111.75,0.39,-0.15,-9.94
-3,17,673,-91,-125,4119,-0.45,0.53,31.47,-0.91,-1.25,41.19,0.15,-0.01,-111.88,0.09,-0.48,-13.63
-34,12,698,-40,-101,4072,-0.61,0.55,32.58,-0.40,-1.01,40.72,0.13,-0.00,-112.01,0.77,-0.39,-14.56
-9,19,786,-33,-36,4040,-0.60,0.61,34.12,-0.33,-0.36,40.40,0.11,0.01,-112.15,0.28,-0.56,-20.00
-11,29,818,-61,-40,4035,-0.61,0.73,35.69,-0.61,-0.40,40.35,0.10,0.03,-112.29,0.33,-0.80,-20.00
-13,17,881,2,-30,4071,-0.63,0.76,37.50,0.02,-0.30,40.71,0.07,0.03,-112.44,0.39,-0.57,-20.00
-9,32,901,-87,-42,4124,-0.62,0.88,39.25,-0.87,-0.42,41.24,0.06,0.05,-112.60,0.31,-0.92,-20.00
-20,7,945,-16,-2,4182,-0.68,0.83,41.09,-0.16,-0.02,41.82,0.05,0.07,-112.76,0.56,-0.41,-20.00
-11,18,958,-75,-23,4060,-0.68,0.86,42.82,-0.75,-0.23,40.60,0.04,0.09,-112.93,0.38,-0.66,-20.00
-17,3,953,-7,38,4061,-0.72,0.79,44.35,-0.07,0.38,40.61,0.06,0.09,-113.11,0.50,-0.34,-20.00
-15,9,940,-17,13,4093,-0.74,0.77,45.65,-0.17,0.13,40.93,0.07,0.11,-113.29,0.46,-0.46,-20.00
-23,3,931,-95,46,4085,-0.80,0.71,46.76,-0.95,0.46,40.85,0.07,0.13,-113.48,0.64,-0.34,-19.14
-13,18,928,-123,2,4028,-0.80,0.75,47.75,-1.23,0.02,40.28,0.07,0.15,-113.67,0.44,-0.67,-17.83
-16,17,901,-18,-25,4092,-0.82,0.78,48.47,-0.18,-0.25,40.92,0.05,0.15,-113.86,0.52,-0.66,-14.76
-11,19,895,-37,65,4101,-0.80,0.81,49.08,-0.37,0.65,41.01,0.06,0.16,-114.06,0.40,-0.72,-13.59
-8,20,890,-9,74,4000,-0.77,0.85,49.60,-0.09,0.74,40.00,0.08,0.17,-114.26,0.32,-0.75,-12.60
-11,23,876,-27,63,4130,-0.76,0.91,49.99,-0.27,0.63,41.30,0.09,0.17,-114.46,0.37,-0.83,-10.99
-24,15,801,-64,19,4095,-0.83,0.91,49.87,-0.64,0.19,40.95,0.10,0.20,-114.66,0.65,-0.68,-4.73
-18,-6,773,-28,93,4189,-0.86,0.78,49.60,-0.28,0.93,41.89,0.11,0.20,-114.86,0.53,-0.22,-2.63
-12,5,699,-129,-37,4123,-0.85,0.73,48.91,-1.29,-0.37,41.23,0.10,0.22,-115.05,0.41,-0.45,2.92
-9,4,664,-99,91,4058,-0.82,0.69,48.07,-0.99,0.91,40.58,0.11,0.24,-115.24,0.33,-0.42,5.01
-27,-9,612,-126,134,4156,-0.90,0.56,46.99,-1.26,1.34,41.56,0.12,0.25,-115.43,0.71,-0.14,8.30
-12,-8,591,-91,68,4039,-0.88,0.46,45.90,-0.91,0.68,40.39,0.13,0.27,-115.62,0.40,-0.14,8.94
-15,7,524,-117,32,4005,-0.89,0.45,44.50,-1.17,0.32,40.05,0.13,0.29,-115.79,0.46,-0.45,13.15
-12,-7,495,-107,33,4156,-0.87,0.37,43.07,-1.07,0.33,41.56,0.14,0.30,-115.97,0.39,-0.16,14.11
-15,-11,434,-55,-2,4208,-0.87,0.26,41.41,-0.55,-0.02,42.08,0.13,0.32,-116.13,0.46,-0.06,17.53
-19,-15,400,-73,31,4072,-0.90,0.14,39.71,-0.73,0.31,40.72,0.13,0.34,-116.29,0.55,0.04,18.63
-7,-17,289,42,44,4059,-0.86,0.03,37.50,0.42,0.44,40.59,0.14,0.32,-116.44,0.28,0.13,20.00
-5,-15,259,44,9,4083,-0.80,-0.07,35.33,0.44,0.09,40.83,0.14,0.30,-116.58,0.23,0.12,20.00
-4,-20,149,-7,-65,4114,-0.75,-0.18,32.71,-0.07,-0.65,41.14,0.11,0.30,-116.71,0.21,0.26,20.00
4,-36,138,-51,-64,4100,-0.65,-0.38,30.28,-0.51,-0.64,41.00,0.10,0.30,-116.83,0.03,0.64,20.00
7,11,159,68,-83,4040,-0.54,-0.28,28.22,0.68,-0.83,40.40,0.08,0.29,-116.95,-0.05,-0.34,20.00
-4,22,162,96,-55,4184,-0.51,-0.12,26.39,0.96,-0.55,41.84,0.07,0.27,-117.05,0.17,-0.60,20.00
-14,36,153,87,7,4125,-0.54,0.11,24.68,0.87,0.07,41.25,0.07,0.26,-117.15,0.39,-0.93,20.00
-1,33,160,82,57,4122,-0.50,0.30,23.19,0.82,0.57,41.22,0.08,0.24,-117.24,0.10,-0.91,20.00
0,28,153,7,-6,4076,-0.45,0.44,21.80,0.07,-0.06,40.76,0.07,0.22,-117.33,0.08,-0.84,20.00
1,23,156,-10,40,4091,-0.40,0.54,20.58,-0.10,0.40,40.91,0.08,0.22,-117.41,0.03,-0.76,19.14
-3,0,175,13,49,4073,-0.37,0.49,19.59,0.13,0.49,40.73,0.10,0.22,-117.49,0.10,-0.27,16.49
-6,-2,180,64,85,4057,-0.37,0.43,18.72,0.64,0.85,40.57,0.11,0.20,-117.57,0.15,-0.21,15.16
-12,-9,222,81,26,4047,-0.41,0.33,18.21,0.81,0.26,40.47,0.11,0.19,-117.64,0.28,-0.03,11.06
-8,-20,226,60,10,4153,-0.42,0.17,17.76,0.60,0.10,41.53,0.11,0.17,-117.71,0.20,0.25,10.26
-3,-2,257,-50,-20,4135,-0.39,0.14,17.56,-0.50,-0.20,41.35,0.10,0.18,-117.78,0.10,-0.12,7.42
-7,-16,259,-39,-15,4143,-0.40,0.03,17.38,-0.39,-0.15,41.43,0.09,0.20,-117.85,0.19,0.19,7.07
-5,-11,325,-56,19,4063,-0.39,-0.04,17.62,-0.56,0.19,40.63,0.09,0.22,-117.92,0.15,0.09,1.74
-4,-2,344,-24,-7,4085,-0.37,-0.05,17.96,-0.24,-0.07,40.85,0.07,0.23,-117.99,0.13,-0.10,0.49
-6,6,481,84,-54,4109,-0.37,-0.01,19.10,0.84,-0.54,41.09,0.06,0.21,-118.07,0.18,-0.26,-9.90
-10,4,515,56,-181,4058,-0.40,0.02,20.33,0.56,-1.81,40.58,0.04,0.20,-118.15,0.28,-0.22,-11.47
-15,16,568,-54,-29,4254,-0.45,0.12,21.76,-0.54,-0.29,42.54,0.03,0.22,-118.24,0.41,-0.50,-14.44
0,12,599,61,31,4079,-0.40,0.18,23.24,0.61,0.31,40.79,0.04,0.20,-118.33,0.09,-0.42,-15.49
-6,69,730,-233,-218,3953,-0.40,0.58,25.37,-2.33,-2.18,39.53,0.02,0.22,-118.43,0.22,-1.70,-20.00
-1,29,732,-178,10,4174,-0.37,0.70,27.30,-1.78,0.10,41.74,0.02,0.24,-118.54,0.11,-0.94,-20.00
-4,22,789,-27,-8,4193,-0.35,0.76,29.38,-0.27,-0.08,41.93,0.01,0.25,-118.66,0.17,-0.82,-20.00
-7,17,793,30,25,4069,-0.36,0.79,31.28,0.30,0.25,40.69,0.02,0.24,-118.78,0.23,-0.72,-20.00
-18,14,768,57,-40,4041,-0.43,0.80,32.84,0.57,-0.40,40.41,0.01,0.23,-118.91,0.48,-0.65,-19.59
-3,30,751,37,-33,4050,-0.41,0.90,34.13,0.37,-0.33,40.50,-0.01,0.22,-119.05,0.18,-1.00,-16.77
5,14,614,130,-25,4037,-0.34,0.90,34.47,1.30,-0.25,40.37,-0.01,0.20,-119.19,-0.00,-0.66,-4.80
4,22,572,-1,-63,4086,-0.28,0.94,34.51,-0.01,-0.63,40.86,-0.03,0.20,-119.33,0.01,-0.84,-1.18
-9,3,422,-207,-12,4103,-0.31,0.86,33.63,-2.07,-0.12,41.03,-0.03,0.22,-119.46,0.29,-0.44,10.61
-11,-15,399,-197,5,4176,-0.34,0.69,32.70,-1.97,0.05,41.76,-0.03,0.24,-119.59,0.34,-0.04,11.59
-13,-22,415,-182,-6,4164,-0.39,0.48,31.96,-1.82,-0.06,41.64,-0.03,0.26,-119.72,0.39,0.14,9.46
-26,-36,435,-415,-77,3998,-0.51,0.22,31.42,-4.15,-0.77,39.98,-0.04,0.28,-119.85,0.69,0.49,7.20
-5,-56,430,-141,19,4185,-0.49,-0.15,30.90,-1.41,0.19,41.85,-0.03,0.30,-119.97,0.26,0.98,7.09
2,-67,432,-92,94,4140,-0.43,-0.54,30.45,-0.92,0.94,41.40,-0.02,0.31,-120.09,0.09,1.31,6.45
2,-34,429,116,31,4017,-0.37,-0.69,30.02,1.16,0.31,40.17,-0.02,0.29,-120.21,0.07,0.69,6.26
-3,-18,423,196,20,4085,-0.35,-0.73,29.60,1.96,0.20,40.85,-0.02,0.27,-120.33,0.17,0.39,6.33
-12,23,425,223,-118,4054,-0.39,-0.52,29.23,2.23,-1.18,40.54,-0.03,0.25,-120.45,0.37,-0.49,5.78
-12,47,416,132,-210,3963,-0.42,-0.18,28.84,1.32,-2.10,39.63,-0.04,0.24,-120.56,0.39,-1.06,6.15
-15,103,349,172,-220,4127,-0.47,0.46,28.09,1.72,-2.20,41.27,-0.06,0.23,-120.67,0.47,-2.37,11.04
-4,49,340,196,-151,4291,-0.45,0.72,27.35,1.96,-1.51,42.91,-0.07,0.22,-120.78,0.25,-1.33,11.03
9,33,329,43,-197,4178,-0.35,0.85,26.63,0.43,-1.97,41.78,-0.09,0.21,-120.89,-0.03,-1.04,11.20
-9,10,340,47,-242,3984,-0.37,0.82,26.04,0.47,-2.42,39.84,-0.11,0.21,-120.99,0.35,-0.57,9.65
-19,7,432,-149,-78,4134,-0.45,0.78,26.07,-1.49,-0.78,41.34,-0.12,0.23,-121.10,0.59,-0.51,1.90
-3,3,473,-229,-67,4080,-0.42,0.72,26.35,-2.29,-0.67,40.80,-0.12,0.25,-121.20,0.26,-0.42,-1.27
-3,10,661,-120,-125,4102,-0.40,0.71,27.74,-1.20,-1.25,41.02,-0.14,0.27,-121.31,0.26,-0.57,-15.70
-22,-3,685,-31,-170,4162,-0.49,0.62,29.15,-0.31,-1.70,41.62,-0.16,0.27,-121.43,0.69,-0.29,-16.24
-26,4,793,-119,-46,4002,-0.60,0.58,31.07,-1.19,-0.46,40.02,-0.16,0.29,-121.55,0.80,-0.43,-20.00
-33,-4,831,-73,-72,4003,-0.74,0.50,33.03,-0.73,-0.72,40.03,-0.18,0.31,-121.69,0.99,-0.26,-20.00
-25,39,953,-105,29,4173,-0.82,0.69,35.54,-1.05,0.29,41.73,-0.17,0.33,-121.83,0.85,-1.20,-20.00
-10,35,985,-138,51,4104,-0.80,0.83,38.00,-1.38,0.51,41.04,-0.17,0.35,-121.98,0.53,-1.17,-20.00
-33,17,1046,-129,-93,3985,-0.92,0.85,40.58,-1.29,-0.93,39.85,-0.18,0.36,-122.14,1.04,-0.82,-20.00
-30,-5,1019,-60,59,4394,-1.01,0.74,42.74,-0.60,0.59,43.94,-0.17,0.38,-122.31,1.00,-0.35,-20.00
-28,-4,1022,-13,-33,4269,-1.08,0.64,44.70,-0.13,-0.33,42.69,-0.19,0.37,-122.49,0.99,-0.34,-20.00
-11,11,990,4,-60,4005,-1.04,0.64,46.27,0.04,-0.60,40.05,-0.20,0.36,-122.68,0.64,-0.64,-20.00
-10,42,914,-158,59,4189,-1.00,0.84,47.21,-1.58,0.59,41.89,-0.20,0.38,-122.87,0.61,-1.33,-16.38
-32,-14,878,-24,153,4196,-1.09,0.67,47.85,-0.24,1.53,41.96,-0.18,0.38,-123.06,1.07,-0.15,-12.64
-21,3,848,-55,219,4240,-1.11,0.62,48.24,-0.55,2.19,42.40,-0.17,0.39,-123.25,0.84,-0.49,-9.67
-3,30,854,-183,196,3870,-1.02,0.74,48.62,-1.83,1.96,38.70,-0.16,0.40,-123.45,0.44,-1.08,-9.76
-7,19,828,-172,196,4012,-0.96,0.78,48.81,-1.72,1.96,40.12,-0.14,0.42,-123.64,0.50,-0.87,-7.34
-15,34,851,-135,358,4036,-0.96,0.91,49.12,-1.35,3.58,40.36,-0.13,0.43,-123.84,0.65,-1.22,-8.94
-1,51,871,-62,156,4007,-0.87,1.13,49.52,-0.62,1.56,40.07,-0.11,0.44,-124.04,0.33,-1.63,-10.19
-12,14,826,-5,177,4213,-0.85,1.10,49.61,-0.05,1.77,42.13,-0.10,0.44,-124.23,0.54,-0.87,-6.27
-5,10,664,-10,67,4147,-0.80,1.05,48.70,-0.10,0.67,41.47,-0.08,0.44,-124.43,0.37,-0.78,6.51
-25,16,602,36,98,4196,-0.87,1.05,47.50,0.36,0.98,41.96,-0.07,0.43,-124.62,0.79,-0.89,10.51
-15,-16,378,19,35,4173,-0.88,0.84,45.06,0.19,0.35,41.73,-0.06,0.42,-124.80,0.58,-0.18,20.00
-16,-19,315,49,80,4096,-0.89,0.64,42.47,0.49,0.80,40.96,-0.05,0.41,-124.97,0.60,-0.06,20.00
-7,-21,152,123,63,4065,-0.84,0.45,39.15,1.23,0.63,40.65,-0.04,0.40,-125.13,0.40,0.04,20.00
-8,-16,109,81,62,4132,-0.80,0.31,35.90,0.81,0.62,41.32,-0.03,0.38,-125.27,0.40,-0.01,20.00
-2,-17,4,33,-65,4076,-0.74,0.17,32.34,0.33,-0.65,40.76,-0.05,0.37,-125.40,0.27,0.05,20.00
-6,-19,-2,56,-16,4068,-0.70,0.04,29.09,0.56,-0.16,40.68,-0.05,0.35,-125.52,0.35,0.14,20.00
-3,-13,12,123,-73,4088,-0.65,-0.04,26.25,1.23,-0.73,40.88,-0.06,0.33,-125.62,0.28,0.06,20.00
-3,-5,19,88,-45,4097,-0.60,-0.07,23.74,0.88,-0.45,40.97,-0.07,0.32,-125.72,0.27,-0.09,20.00
-1,5,50,60,-43,4062,-0.55,-0.03,21.68,0.60,-0.43,40.62,-0.08,0.30,-125.80,0.22,-0.29,20.00
10,16,67,53,-80,4071,-0.43,0.07,19.92,0.53,-0.80,40.71,-0.10,0.29,-125.88,-0.02,-0.53,20.00
4,8,118,-2,-67,4145,-0.36,0.11,18.64,-0.02,-0.67,41.45,-0.11,0.28,-125.96,0.09,-0.38,20.00
-8,3,135,7,-91,4021,-0.38,0.12,17.60,0.07,-0.91,40.21,-0.13,0.28,-126.03,0.35,-0.28,18.55
-6,10,220,2,-173,3991,-0.38,0.17,17.19,0.02,-1.73,39.91,-0.15,0.28,-126.10,0.32,-0.43,10.91
