gyroADC_X,gyroADC_Y,gyroADC_Z,accADC_X,accADC_Y,accADC_Z,GyroX,GyroY,GyroZ,AccX,AccY,AccZ,roll_IMU,pitch_IMU,yaw_IMU,roll_PID,pitch_PID,yaw_PID
1,2,2,-70,-370,3904,0.01,0.05,1.26,-0.70,-3.70,39.04,-5.49,0.67,8.07,15813.82,-2141.55,-39607.75
2,0,1,-46,-378,3903,0.02,0.04,1.14,-0.46,-3.78,39.03,-5.51,0.67,8.07,15801.74,-2058.28,-38892.16
-1,-1,-1,-51,-363,3910,0.01,0.03,1.02,-0.51,-3.63,39.10,-5.49,0.68,8.06,15875.38,-2015.20,-38117.31
0,0,1,-63,-349,3908,0.01,0.03,0.92,-0.63,-3.49,39.08,-5.48,0.69,8.06,15798.47,-2070.06,-37706.52
1,1,1,-62,-367,3894,0.01,0.03,0.84,-0.62,-3.67,38.94,-5.47,0.71,8.06,15729.25,-2162.55,-37232.11
0,1,1,-67,-382,3904,0.01,0.04,0.76,-0.67,-3.82,39.04,-5.48,0.72,8.05,15788.17,-2219.80,-36805.73
0,1,2,-65,-378,3894,0.01,0.04,0.70,-0.65,-3.78,38.94,-5.48,0.74,8.05,15806.10,-2278.53,-36512.64
1,0,1,-59,-379,3894,0.02,0.03,0.63,-0.59,-3.79,38.94,-5.49,0.76,8.05,15786.58,-2280.26,-36105.68
3,-1,1,-54,-385,3905,0.03,0.02,0.57,-0.54,-3.85,39.05,-5.51,0.76,8.05,15725.61,-2233.14,-35792.28
2,-1,0,-48,-383,3898,0.04,0.02,0.52,-0.48,-3.83,38.98,-5.53,0.75,8.04,15781.57,-2184.29,-35419.30
1,-1,0,-56,-372,3898,0.04,0.01,0.47,-0.56,-3.72,38.98,-5.51,0.77,8.04,15770.71,-2199.63,-35134.55
1,-1,1,-63,-370,3907,0.05,0.00,0.43,-0.63,-3.70,39.07,-5.50,0.78,8.04,15736.35,-2226.09,-34969.19
1,0,1,-65,-383,3913,0.05,0.00,0.39,-0.65,-3.83,39.13,-5.51,0.80,8.04,15756.63,-2307.25,-34768.77
0,0,1,-69,-381,3898,0.04,0.00,0.36,-0.69,-3.81,38.98,-5.52,0.82,8.04,15819.86,-2357.42,-34588.21
-1,0,1,-70,-384,3902,0.03,0.00,0.33,-0.70,-3.84,39.02,-5.52,0.83,8.04,15904.52,-2404.75,-34425.77
0,0,0,-61,-381,3901,0.03,0.00,0.29,-0.61,-3.81,39.01,-5.54,0.85,8.04,15913.50,-2444.04,-34188.99
1,0,0,-63,-389,3909,0.03,0.00,0.26,-0.63,-3.89,39.09,-5.55,0.85,8.04,15917.53,-2467.70,-34028.69
0,0,0,-56,-380,3907,0.03,0.00,0.24,-0.56,-3.80,39.07,-5.55,0.84,8.03,15963.75,-2414.95,-33883.61
0,-1,1,-66,-361,3906,0.03,-0.01,0.22,-0.66,-3.61,39.06,-5.54,0.84,8.03,15923.18,-2387.12,-33842.74
1,0,1,-63,-364,3905,0.03,-0.00,0.20,-0.63,-3.64,39.05,-5.52,0.85,8.03,15829.74,-2441.13,-33753.27
1,1,0,-63,-371,3910,0.03,0.00,0.18,-0.63,-3.71,39.10,-5.50,0.86,8.03,15777.81,-2523.08,-33581.89
1,0,1,-62,-372,3901,0.04,0.00,0.17,-0.62,-3.72,39.01,-5.49,0.87,8.03,15728.87,-2521.60,-33570.83
0,-1,1,-70,-380,3887,0.03,-0.00,0.16,-0.70,-3.80,38.87,-5.50,0.89,8.03,15799.38,-2516.34,-33509.70
0,-1,1,-62,-373,3890,0.03,-0.01,0.15,-0.62,-3.73,38.90,-5.49,0.90,8.03,15769.21,-2538.35,-33453.18
0,0,0,-68,-376,3889,0.03,-0.01,0.14,-0.68,-3.76,38.89,-5.49,0.92,8.03,15794.87,-2625.04,-33312.62
0,0,0,-64,-375,3895,0.02,-0.01,0.12,-0.64,-3.75,38.95,-5.50,0.93,8.03,15818.68,-2677.47,-33238.60
1,-1,1,-69,-384,3902,0.03,-0.01,0.12,-0.69,-3.84,39.02,-5.51,0.94,8.03,15819.33,-2656.58,-33263.43
1,-1,1,-64,-383,3902,0.03,-0.02,0.11,-0.64,-3.83,39.02,-5.53,0.94,8.03,15862.61,-2639.10,-33233.49
1,0,0,-58,-386,3901,0.03,-0.02,0.10,-0.58,-3.86,39.01,-5.55,0.93,8.03,15895.63,-2645.31,-33115.53
0,0,0,-56,-383,3907,0.03,-0.01,0.09,-0.56,-3.83,39.07,-5.55,0.91,8.03,15960.63,-2601.51,-33061.45
0,0,0,-60,-378,3893,0.03,-0.01,0.08,-0.60,-3.78,38.93,-5.55,0.90,8.03,15956.70,-2553.66,-33012.09
0,0,0,-62,-379,3901,0.02,-0.01,0.07,-0.62,-3.79,39.01,-5.55,0.91,8.03,15960.73,-2609.97,-32967.83
1,-1,1,-75,-369,3905,0.03,-0.02,0.07,-0.75,-3.69,39.05,-5.54,0.93,8.03,15882.66,-2603.38,-33018.07
1,-1,1,-73,-365,3901,0.03,-0.02,0.07,-0.73,-3.65,39.01,-5.52,0.94,8.03,15830.95,-2622.76,-33010.40
1,1,0,-73,-366,3915,0.03,-0.01,0.06,-0.73,-3.66,39.15,-5.51,0.95,8.03,15779.29,-2742.81,-32912.52
1,1,1,-72,-370,3904,0.04,-0.01,0.06,-0.72,-3.70,39.04,-5.49,0.96,8.02,15736.42,-2801.29,-32967.74
0,0,1,-61,-387,3899,0.03,-0.01,0.06,-0.61,-3.87,38.99,-5.51,0.96,8.02,15828.90,-2748.41,-32966.79
0,0,1,-53,-392,3904,0.03,-0.00,0.06,-0.53,-3.92,39.04,-5.52,0.94,8.02,15878.11,-2716.30,-32965.75
0,0,2,-53,-382,3889,0.03,-0.00,0.07,-0.53,-3.82,38.89,-5.53,0.93,8.02,15909.51,-2670.32,-33055.19
1,0,1,-52,-374,3892,0.03,-0.00,0.07,-0.52,-3.74,38.92,-5.53,0.91,8.02,15852.32,-2620.30,-32991.44
0,0,0,-57,-370,3900,0.03,-0.00,0.06,-0.57,-3.70,39.00,-5.51,0.90,8.02,15851.26,-2590.80,-32894.96
0,-1,1,-55,-373,3895,0.02,-0.01,0.06,-0.55,-3.73,38.95,-5.51,0.88,8.02,15836.19,-2493.25,-32951.76
1,0,1,-61,-369,3905,0.03,-0.01,0.06,-0.61,-3.69,39.05,-5.49,0.88,8.02,15739.39,-2533.67,-32949.60
1,-1,2,-56,-373,3893,0.03,-0.01,0.07,-0.56,-3.73,38.93,-5.48,0.87,8.02,15719.01,-2433.81,-33039.11
1,0,1,-59,-379,3899,0.03,-0.01,0.07,-0.59,-3.79,38.99,-5.50,0.87,8.02,15763.56,-2468.65,-32977.56
1,0,1,-56,-379,3896,0.04,-0.01,0.07,-0.56,-3.79,38.96,-5.52,0.85,8.02,15796.70,-2437.78,-32974.39
1,0,0,-59,-379,3886,0.04,-0.01,0.06,-0.59,-3.79,38.86,-5.53,0.86,8.02,15841.58,-2451.56,-32880.98
1,1,0,-58,-379,3891,0.04,-0.00,0.05,-0.58,-3.79,38.91,-5.55,0.85,8.02,15886.61,-2491.39,-32849.47
0,1,0,-61,-382,3896,0.04,0.00,0.05,-0.61,-3.82,38.96,-5.56,0.86,8.02,15972.67,-2540.95,-32821.02
0,0,1,-54,-380,3887,0.03,0.00,0.05,-0.54,-3.80,38.87,-5.57,0.85,8.02,15995.52,-2454.51,-32885.68
0,1,1,-57,-379,3895,0.03,0.01,0.05,-0.57,-3.79,38.95,-5.56,0.83,8.02,15968.37,-2465.07,-32890.36
1,1,1,-57,-377,3906,0.03,0.01,0.05,-0.57,-3.77,39.06,-5.54,0.83,8.02,15872.92,-2477.21,-32894.06
1,0,1,-62,-378,3895,0.04,0.01,0.05,-0.62,-3.78,38.95,-5.54,0.85,8.02,15868.76,-2492.15,-32898.34
1,0,1,-69,-373,3894,0.04,0.01,0.05,-0.69,-3.73,38.94,-5.53,0.87,8.02,15841.14,-2537.72,-32901.57
0,0,1,-56,-363,3902,0.03,0.01,0.05,-0.56,-3.63,39.02,-5.51,0.86,8.02,15833.80,-2523.15,-32903.70
0,1,0,-59,-364,3902,0.03,0.02,0.05,-0.59,-3.64,39.02,-5.50,0.86,8.02,15789.78,-2570.44,-32814.61
-1,1,0,-63,-378,3899,0.02,0.02,0.04,-0.63,-3.78,38.99,-5.51,0.88,8.02,15879.12,-2625.21,-32788.57
-1,0,1,-63,-379,3898,0.01,0.02,0.05,-0.63,-3.79,38.98,-5.52,0.89,8.02,15939.75,-2621.24,-32856.16
-1,1,0,-60,-380,3900,0.01,0.02,0.04,-0.60,-3.80,39.00,-5.54,0.89,8.02,16009.47,-2651.37,-32774.00
-1,1,0,-62,-379,3900,-0.00,0.03,0.04,-0.62,-3.79,39.00,-5.55,0.90,8.02,16055.84,-2706.04,-32752.17
0,1,0,-61,-370,3905,-0.00,0.03,0.03,-0.61,-3.70,39.05,-5.53,0.90,8.02,15968.79,-2711.36,-32730.79
0,1,0,-61,-367,3899,-0.00,0.03,0.03,-0.61,-3.67,38.99,-5.51,0.90,8.02,15916.05,-2717.21,-32711.46
0,0,1,-66,-370,3908,-0.00,0.03,0.03,-0.66,-3.70,39.08,-5.50,0.91,8.02,15871.15,-2702.61,-32784.88
0,1,0,-64,-367,3914,-0.00,0.03,0.03,-0.64,-3.67,39.14,-5.48,0.91,8.02,15819.07,-2754.42,-32707.36
0,0,0,-61,-374,3906,-0.00,0.03,0.03,-0.61,-3.74,39.06,-5.47,0.90,8.02,15801.04,-2662.15,-32690.71
0,1,1,-58,-372,3899,-0.00,0.03,0.03,-0.58,-3.72,38.99,-5.46,0.88,8.02,15779.36,-2656.91,-32766.39
1,1,0,-62,-374,3886,0.01,0.04,0.03,-0.62,-3.74,38.86,-5.48,0.89,8.02,15767.82,-2700.48,-32692.46
1,0,0,-61,-368,3896,0.01,0.03,0.02,-0.61,-3.68,38.96,-5.46,0.89,8.02,15700.64,-2658.42,-32676.45
1,1,0,-62,-369,3902,0.02,0.03,0.02,-0.62,-3.69,39.02,-5.44,0.90,8.02,15636.44,-2713.91,-32661.98
1,0,0,-63,-371,3906,0.02,0.03,0.02,-0.63,-3.71,39.06,-5.43,0.91,8.02,15595.86,-2715.28,-32649.32
0,0,1,-62,-374,3900,0.02,0.03,0.02,-0.62,-3.74,39.00,-5.45,0.91,8.02,15687.84,-2701.47,-32730.46
1,-1,1,-61,-377,3903,0.02,0.02,0.03,-0.61,-3.77,39.03,-5.47,0.91,8.02,15693.05,-2630.13,-32750.98
1,0,1,-62,-383,3908,0.03,0.02,0.03,-0.62,-3.83,39.08,-5.48,0.91,8.02,15735.56,-2659.47,-32769.52
0,0,1,-62,-380,3911,0.02,0.02,0.03,-0.62,-3.80,39.11,-5.50,0.90,8.02,15829.34,-2654.12,-32786.21
1,0,1,-62,-376,3900,0.03,0.01,0.04,-0.62,-3.76,39.00,-5.52,0.91,8.02,15834.12,-2669.46,-32801.18
0,0,1,-63,-368,3907,0.03,0.01,0.04,-0.63,-3.68,39.07,-5.50,0.91,8.02,15822.82,-2669.05,-32812.39
0,0,0,-57,-368,3899,0.02,0.01,0.04,-0.57,-3.68,38.99,-5.49,0.90,8.02,15786.26,-2635.09,-32731.71
0,0,1,-51,-368,3896,0.02,0.01,0.04,-0.51,-3.68,38.96,-5.48,0.89,8.02,15765.29,-2586.61,-32802.61
0,0,1,-59,-376,3908,0.02,0.01,0.04,-0.59,-3.76,39.08,-5.49,0.87,8.02,15801.48,-2541.33,-32815.06
0,0,1,-67,-369,3913,0.02,0.01,0.04,-0.67,-3.69,39.13,-5.48,0.88,8.02,15769.41,-2577.23,-32824.77
0,1,0,-68,-375,3900,0.01,0.01,0.04,-0.68,-3.75,39.00,-5.48,0.90,8.02,15781.73,-2677.82,-32743.54
0,1,0,-59,-379,3909,0.01,0.02,0.03,-0.59,-3.79,39.09,-5.49,0.89,8.02,15828.54,-2659.90,-32723.68
1,0,0,-55,-380,3905,0.02,0.02,0.03,-0.55,-3.80,39.05,-5.50,0.88,8.02,15812.69,-2578.22,-32705.63
1,-1,1,-64,-373,3901,0.02,0.01,0.03,-0.64,-3.73,39.01,-5.49,0.89,8.02,15770.30,-2566.71,-32778.88
0,0,0,-61,-371,3897,0.02,0.01,0.03,-0.61,-3.71,38.97,-5.47,0.89,8.02,15757.56,-2598.90,-32700.90
0,0,1,-59,-374,3890,0.02,0.01,0.03,-0.59,-3.74,38.90,-5.48,0.88,8.02,15790.63,-2552.11,-32775.62
1,0,0,-65,-379,3911,0.02,0.01,0.03,-0.65,-3.79,39.11,-5.49,0.89,8.02,15775.82,-2593.14,-32699.66
0,-1,0,-74,-376,3904,0.02,-0.00,0.03,-0.74,-3.76,39.04,-5.50,0.91,8.02,15817.67,-2594.16,-32683.17
1,-1,1,-67,-375,3895,0.02,-0.01,0.03,-0.67,-3.75,38.95,-5.50,0.93,8.02,15775.47,-2631.19,-32759.13
1,0,0,-62,-375,3901,0.03,-0.01,0.03,-0.62,-3.75,39.01,-5.49,0.91,8.02,15753.53,-2615.70,-32683.82
2,0,1,-66,-375,3909,0.04,-0.01,0.03,-0.66,-3.75,39.09,-5.49,0.93,8.02,15682.19,-2668.75,-32759.27
1,1,1,-61,-377,3903,0.04,0.00,0.03,-0.61,-3.77,39.03,-5.50,0.91,8.02,15742.76,-2678.93,-32775.60
1,0,0,-59,-374,3902,0.04,0.00,0.03,-0.59,-3.74,39.02,-5.49,0.90,8.02,15714.77,-2596.11,-32698.27
1,-1,1,-64,-379,3899,0.04,-0.00,0.03,-0.64,-3.79,38.99,-5.51,0.91,8.02,15753.97,-2573.49,-32773.32
1,-1,1,-57,-380,3897,0.05,-0.01,0.04,-0.57,-3.80,38.97,-5.52,0.89,8.02,15783.40,-2518.71,-32788.18
1,0,1,-59,-379,3901,0.05,-0.01,0.04,-0.59,-3.79,39.01,-5.53,0.88,8.02,15816.17,-2518.39,-32801.57
1,0,1,-68,-377,3906,0.05,-0.01,0.04,-0.68,-3.77,39.06,-5.53,0.90,8.02,15803.69,-2573.11,-32812.63
1,0,1,-65,-373,3896,0.05,-0.01,0.04,-0.65,-3.73,38.96,-5.51,0.91,8.02,15760.46,-2610.57,-32821.76
1,0,1,-61,-375,3897,0.05,-0.01,0.04,-0.61,-3.75,38.97,-5.50,0.90,8.01,15720.50,-2574.32,-32829.87
1,0,1,-60,-376,3898,0.05,-0.01,0.05,-0.60,-3.76,38.98,-5.51,0.88,8.01,15738.34,-2527.55,-32838.25
0,0,1,-59,-375,3912,0.05,-0.01,0.05,-0.59,-3.75,39.12,-5.49,0.87,8.01,15741.15,-2500.88,-32844.32
0,0,0,-57,-379,3910,0.04,-0.01,0.04,-0.57,-3.79,39.10,-5.51,0.86,8.01,15791.98,-2466.87,-32760.60
0,0,0,-51,-379,3896,0.04,-0.00,0.04,-0.51,-3.79,38.96,-5.51,0.84,8.01,15824.09,-2419.86,-32737.41
1,0,1,-53,-374,3898,0.04,-0.00,0.04,-0.53,-3.74,38.98,-5.51,0.83,8.01,15759.85,-2373.59,-32806.44
0,0,0,-58,-376,3890,0.04,-0.00,0.04,-0.58,-3.76,38.90,-5.51,0.84,8.01,15832.87,-2419.08,-32726.23
1,0,1,-60,-374,3886,0.04,-0.00,0.04,-0.60,-3.74,38.86,-5.51,0.86,8.01,15770.21,-2468.49,-32796.33
1,0,1,-64,-375,3889,0.04,-0.00,0.04,-0.64,-3.75,38.89,-5.51,0.88,8.01,15764.22,-2522.31,-32807.26
0,0,1,-60,-377,3883,0.04,-0.00,0.04,-0.60,-3.77,38.83,-5.53,0.88,8.01,15861.06,-2530.01,-32818.11
0,0,1,-61,-382,3897,0.03,-0.00,0.05,-0.61,-3.82,38.97,-5.54,0.88,8.01,15922.00,-2540.64,-32827.89
0,0,0,-65,-379,3906,0.03,-0.00,0.04,-0.65,-3.79,39.06,-5.54,0.90,8.01,15929.56,-2594.23,-32744.80
0,0,1,-59,-368,3905,0.03,-0.00,0.04,-0.59,-3.68,39.05,-5.52,0.90,8.01,15885.75,-2582.44,-32812.13
0,0,1,-54,-372,3896,0.02,-0.00,0.04,-0.54,-3.72,38.96,-5.51,0.88,8.01,15863.07,-2539.06,-32820.55
1,0,1,-56,-380,3905,0.03,-0.00,0.05,-0.56,-3.80,39.05,-5.52,0.87,8.01,15848.82,-2496.02,-32829.26
0,0,1,-58,-375,3904,0.03,-0.00,0.05,-0.58,-3.75,39.04,-5.51,0.86,8.01,15842.71,-2473.46,-32835.41
0,0,1,-71,-373,3884,0.02,-0.00,0.05,-0.71,-3.73,38.84,-5.51,0.88,8.01,15842.50,-2526.43,-32841.59
2,0,1,-57,-385,3890,0.03,-0.00,0.05,-0.57,-3.85,38.90,-5.52,0.87,8.01,15798.27,-2512.72,-32848.29
1,1,0,-56,-381,3891,0.04,0.01,0.05,-0.56,-3.81,38.91,-5.54,0.86,8.01,15867.49,-2532.24,-32763.37
0,0,0,-61,-374,3913,0.03,0.00,0.04,-0.61,-3.74,39.13,-5.52,0.87,8.01,15861.17,-2514.79,-32737.54
1,1,0,-58,-378,3903,0.03,0.01,0.04,-0.58,-3.78,39.03,-5.53,0.85,8.01,15845.07,-2518.11,-32715.80
-1,1,1,-66,-371,3898,0.03,0.02,0.04,-0.66,-3.71,38.98,-5.52,0.87,8.01,15905.22,-2572.68,-32785.84
0,-1,1,-74,-377,3894,0.02,0.01,0.04,-0.74,-3.77,38.94,-5.52,0.88,8.01,15879.95,-2537.04,-32796.97
1,0,1,-57,-372,3906,0.03,0.01,0.04,-0.57,-3.72,39.06,-5.50,0.87,8.01,15791.05,-2540.79,-32805.90
0,0,0,-53,-378,3901,0.02,0.01,0.04,-0.53,-3.78,39.01,-5.51,0.86,8.01,15847.91,-2488.60,-32724.25
0,0,1,-63,-375,3886,0.02,0.01,0.04,-0.63,-3.75,38.86,-5.51,0.87,8.01,15856.20,-2539.98,-32793.75
1,0,0,-59,-378,3899,0.03,0.01,0.04,-0.59,-3.78,38.99,-5.53,0.87,8.01,15859.90,-2518.29,-32713.95
1,-1,0,-58,-373,3899,0.03,-0.00,0.03,-0.58,-3.73,38.99,-5.51,0.86,8.01,15799.93,-2451.19,-32692.58
2,0,0,-65,-368,3916,0.04,-0.00,0.03,-0.65,-3.68,39.16,-5.49,0.87,8.01,15695.67,-2513.30,-32673.36
2,0,0,-65,-373,3913,0.05,-0.00,0.03,-0.65,-3.73,39.13,-5.48,0.89,8.01,15645.08,-2558.42,-32656.30
1,1,0,-68,-370,3893,0.05,0.00,0.02,-0.68,-3.70,38.93,-5.47,0.90,8.01,15651.76,-2656.57,-32641.00
1,1,0,-63,-371,3903,0.05,0.01,0.02,-0.63,-3.71,39.03,-5.46,0.91,8.01,15598.51,-2690.11,-32626.60
0,0,0,-69,-377,3902,0.04,0.01,0.02,-0.69,-3.77,39.02,-5.47,0.93,8.01,15673.13,-2697.98,-32615.25
0,0,-1,-71,-379,3916,0.04,0.01,0.01,-0.71,-3.79,39.16,-5.48,0.94,8.01,15710.17,-2741.66,-32514.30
-1,0,0,-59,-369,3890,0.03,0.01,0.01,-0.59,-3.69,38.90,-5.46,0.93,8.01,15738.93,-2697.18,-32565.52
1,1,0,-59,-372,3906,0.03,0.01,0.01,-0.59,-3.72,39.06,-5.46,0.91,8.01,15643.17,-2696.05,-32559.39
1,2,-2,-60,-376,3895,0.04,0.02,-0.00,-0.60,-3.76,38.95,-5.47,0.90,8.01,15681.45,-2733.10,-32373.73
-12,-2,-3,-67,-312,3818,-0.04,0.01,-0.02,-0.67,-3.12,38.18,-5.46,0.90,8.01,16276.52,-2564.22,-32218.88
-3,4,-6,-59,-436,3924,-0.06,0.03,-0.06,-0.59,-4.36,39.24,-5.47,0.90,8.01,16057.18,-2829.17,-31862.18
-3,1,3,-43,-367,3899,-0.07,0.04,-0.03,-0.43,-3.67,38.99,-5.47,0.89,8.01,16073.49,-2683.86,-32514.72
0,-2,1,-55,-356,3908,-0.06,0.02,-0.02,-0.55,-3.56,39.08,-5.45,0.88,8.01,15903.01,-2524.16,-32447.24
0,-1,5,-76,-391,3916,-0.06,0.01,0.01,-0.76,-3.91,39.16,-5.47,0.89,8.01,15926.88,-2573.06,-32856.27
0,-3,4,-58,-370,3893,-0.05,-0.01,0.03,-0.58,-3.70,38.93,-5.45,0.88,8.01,15878.98,-2413.25,-32921.75
1,-1,3,-69,-381,3895,-0.04,-0.01,0.05,-0.69,-3.81,38.95,-5.47,0.89,8.01,15853.78,-2505.23,-32943.45
1,0,3,-52,-376,3904,-0.03,-0.01,0.06,-0.52,-3.76,39.04,-5.47,0.87,8.01,15841.65,-2491.73,-33014.70
1,0,1,-63,-382,3902,-0.02,-0.01,0.06,-0.63,-3.82,39.02,-5.49,0.88,8.01,15867.62,-2514.07,-32897.77
1,-1,2,-54,-383,3904,-0.01,-0.02,0.07,-0.54,-3.83,39.04,-5.50,0.87,8.01,15888.08,-2433.48,-32988.04
1,0,0,-59,-379,3900,-0.00,-0.01,0.06,-0.59,-3.79,39.00,-5.52,0.87,8.01,15921.56,-2465.32,-32835.39
0,1,-1,-51,-388,3910,-0.00,-0.01,0.05,-0.51,-3.88,39.10,-5.54,0.85,8.01,15995.35,-2485.23,-32712.00
0,1,0,-60,-383,3920,-0.00,0.00,0.04,-0.60,-3.83,39.20,-5.55,0.86,8.01,16043.27,-2522.57,-32744.57
0,11,1,-63,-369,3902,-0.00,0.07,0.05,-0.63,-3.69,39.02,-5.54,0.87,8.01,15993.36,-3061.35,-32810.34
0,12,3,-60,-365,3896,-0.00,0.13,0.06,-0.60,-3.65,38.96,-5.52,0.87,8.01,15939.94,-3273.18,-32998.46
0,25,5,-71,-376,3894,-0.00,0.27,0.08,-0.71,-3.76,38.94,-5.52,0.89,8.01,15938.75,-4138.45,-33245.36
0,36,7,-67,-375,3877,-0.00,0.47,0.12,-0.67,-3.75,38.77,-5.52,0.91,8.01,15942.51,-5075.35,-33544.15
5,89,14,-67,-383,4000,0.03,0.96,0.19,-0.67,-3.83,40.00,-5.50,0.93,8.01,15651.64,-8237.13,-34342.82
-5,45,10,-64,-371,3917,-0.00,1.14,0.23,-0.64,-3.71,39.17,-5.49,0.93,8.01,16029.78,-7204.29,-34329.89
0,12,2,-77,-371,3922,-0.00,1.10,0.22,-0.77,-3.71,39.22,-5.48,0.95,8.01,15835.23,-6024.40,-33801.57
2,7,2,-73,-375,3909,0.01,1.03,0.21,-0.73,-3.75,39.09,-5.48,0.98,8.01,15733.72,-5742.60,-33746.08
1,2,1,-67,-385,3904,0.01,0.94,0.20,-0.67,-3.85,39.04,-5.50,0.98,8.01,15806.92,-5345.96,-33606.44
1,3,1,-82,-368,3910,0.02,0.87,0.18,-0.82,-3.68,39.10,-5.49,1.00,8.00,15768.56,-5239.56,-33531.39
0,0,2,-79,-382,3911,0.02,0.78,0.18,-0.79,-3.82,39.11,-5.50,1.02,8.00,15834.40,-4965.94,-33555.76
1,0,1,-86,-382,3917,0.02,0.70,0.17,-0.86,-3.82,39.17,-5.50,1.04,8.00,15803.81,-4822.15,-33434.05
1,1,0,-73,-382,3901,0.02,0.64,0.15,-0.73,-3.82,39.01,-5.52,1.05,8.00,15843.31,-4713.53,-33287.02
1,1,-1,-72,-372,3899,0.03,0.58,0.13,-0.72,-3.72,38.99,-5.50,1.05,8.00,15781.08,-4575.44,-33113.89
1,0,0,-73,-375,3905,0.03,0.52,0.12,-0.73,-3.75,39.05,-5.49,1.07,8.00,15733.49,-4432.44,-33101.62
1,0,-1,-68,-373,3905,0.03,0.47,0.10,-0.68,-3.73,39.05,-5.48,1.05,8.00,15703.94,-4254.04,-32947.68
1,0,0,-70,-373,3912,0.04,0.42,0.09,-0.70,-3.73,39.12,-5.47,1.04,8.00,15656.90,-4102.25,-32951.96
0,0,1,-71,-372,3910,0.03,0.38,0.09,-0.71,-3.72,39.10,-5.45,1.04,8.00,15648.40,-3989.59,-32993.71
0,-1,2,-76,-376,3910,0.03,0.34,0.09,-0.76,-3.76,39.10,-5.46,1.06,8.00,15685.19,-3888.97,-33071.43
0,-1,3,-72,-378,3910,0.03,0.30,0.10,-0.72,-3.78,39.10,-5.48,1.06,8.00,15745.23,-3784.38,-33180.18
-1,-1,1,-71,-381,3907,0.02,0.26,0.09,-0.71,-3.81,39.07,-5.49,1.05,8.00,15854.00,-3683.87,-33043.86
-1,0,1,-71,-383,3903,0.01,0.23,0.09,-0.71,-3.83,39.03,-5.51,1.05,8.00,15926.73,-3645.88,-33026.12
-1,1,2,-71,-373,3895,0.00,0.22,0.09,-0.71,-3.73,38.95,-5.49,1.05,8.00,15894.47,-3623.66,-33098.34
-1,0,1,-76,-371,3898,-0.00,0.20,0.09,-0.76,-3.71,38.98,-5.48,1.06,8.00,15875.97,-3574.56,-33020.16
1,1,0,-71,-379,3903,0.00,0.18,0.08,-0.71,-3.79,39.03,-5.50,1.06,8.00,15839.73,-3557.31,-32913.49
1,1,-1,-67,-373,3910,0.01,0.17,0.07,-0.67,-3.73,39.10,-5.49,1.04,8.00,15796.17,-3483.33,-32777.30
0,0,-1,-65,-379,3899,0.01,0.15,0.05,-0.65,-3.79,38.99,-5.50,1.03,8.00,15862.80,-3362.97,-32708.70
0,0,-1,-67,-375,3891,0.01,0.14,0.04,-0.67,-3.75,38.91,-5.50,1.01,8.00,15870.65,-3272.20,-32646.53
2,0,-1,-64,-377,3907,0.02,0.12,0.03,-0.64,-3.77,39.07,-5.50,0.99,8.00,15778.54,-3185.34,-32590.70
2,-2,-1,-67,-373,3910,0.03,0.10,0.02,-0.67,-3.73,39.10,-5.49,0.99,8.00,15700.31,-3040.61,-32539.14
2,-2,0,-78,-382,3910,0.04,0.08,0.02,-0.78,-3.82,39.10,-5.50,1.00,8.00,15703.64,-3028.82,-32585.40
2,-3,0,-92,-388,3925,0.05,0.05,0.02,-0.92,-3.88,39.25,-5.50,1.02,8.00,15703.00,-2975.59,-32574.47
2,-4,-2,-56,-374,3880,0.05,0.02,0.00,-0.56,-3.74,38.80,-5.50,1.00,8.00,15683.49,-2811.73,-32382.56
2,-4,-1,-64,-385,3892,0.06,-0.00,-0.00,-0.64,-3.85,38.92,-5.52,0.99,8.00,15713.49,-2721.32,-32406.87
3,-21,-4,-66,-383,3913,0.07,-0.13,-0.03,-0.66,-3.83,39.13,-5.54,0.99,8.00,15694.41,-1780.84,-32103.95
2,-26,-7,-66,-375,3916,0.08,-0.28,-0.07,-0.66,-3.75,39.16,-5.52,0.98,8.00,15665.93,-1208.81,-31714.26
2,-36,-27,-128,-346,3969,0.08,-0.47,-0.22,-1.28,-3.46,39.69,-5.51,0.99,8.00,15625.63,-405.13,-29706.06
4,-39,-50,-112,-354,3835,0.10,-0.66,-0.51,-1.12,-3.54,38.35,-5.50,1.01,8.00,15496.36,152.93,-26862.41
3,33,-71,-62,-391,3891,0.11,-0.39,-0.89,-0.62,-3.91,38.91,-5.52,1.00,8.01,15556.47,-2993.41,-23610.13
1,34,-70,-55,-376,3896,0.10,-0.15,-1.23,-0.55,-3.76,38.96,-5.52,0.98,8.01,15634.58,-3613.72,-21881.73
2,29,-45,-22,-403,3946,0.10,0.05,-1.38,-0.22,-4.03,39.46,-5.53,0.96,8.02,15616.87,-3891.23,-22550.98
3,17,-28,-50,-405,3897,0.11,0.14,-1.41,-0.50,-4.05,38.97,-5.54,0.95,8.02,15607.00,-3710.65,-23390.26
-2,1,-6,-92,-340,3863,0.09,0.14,-1.31,-0.92,-3.40,38.63,-5.53,0.96,8.03,15797.81,-3171.66,-25251.78
2,10,-9,-87,-308,3919,0.09,0.18,-1.23,-0.87,-3.08,39.19,-5.51,0.97,8.03,15600.17,-3620.22,-25501.05
-1,0,-21,-96,-368,3948,0.08,0.16,-1.24,-0.96,-3.68,39.48,-5.50,0.99,8.04,15721.30,-3277.57,-24794.88
1,0,-15,-89,-396,3921,0.08,0.15,-1.20,-0.89,-3.96,39.21,-5.51,1.00,8.04,15690.55,-3274.95,-25336.89
0,11,-20,-148,-271,3878,0.07,0.20,-1.21,-1.48,-2.71,38.78,-5.50,1.01,8.05,15702.31,-3822.72,-25055.83
1,8,-43,-136,-258,3856,0.07,0.23,-1.35,-1.36,-2.58,38.56,-5.48,1.02,8.05,15623.92,-3822.63,-22979.07
5,7,-88,-95,-414,3955,0.09,0.25,-1.75,-0.95,-4.14,39.55,-5.50,1.03,8.06,15466.90,-3870.90,-18237.87
6,7,-78,-57,-424,3945,0.12,0.27,-2.05,-0.57,-4.24,39.45,-5.51,1.03,8.07,15410.12,-3901.49,-17248.32
-4,-1,-10,-32,-390,3915,0.08,0.23,-1.91,-0.32,-3.90,39.15,-5.52,1.01,8.08,15863.57,-3491.01,-22013.13
0,2,-7,-65,-392,3911,0.07,0.22,-1.76,-0.65,-3.92,39.11,-5.54,1.00,8.08,15797.32,-3550.23,-23008.41
1,3,2,-71,-394,3901,0.07,0.22,-1.57,-0.71,-3.94,39.01,-5.55,1.01,8.09,15817.94,-3582.41,-24564.69
0,2,-2,-68,-378,3899,0.07,0.21,-1.43,-0.68,-3.78,38.99,-5.54,1.00,8.10,15828.78,-3491.68,-25127.72
0,1,1,-79,-375,3901,0.06,0.19,-1.28,-0.79,-3.75,39.01,-5.53,1.01,8.10,15829.74,-3470.11,-26117.37
1,0,-2,-72,-370,3914,0.06,0.18,-1.16,-0.72,-3.70,39.14,-5.52,1.02,8.11,15743.27,-3399.07,-26577.32
3,-2,-3,-82,-382,3923,0.07,0.15,-1.06,-0.82,-3.82,39.23,-5.52,1.04,8.11,15655.05,-3304.68,-27059.53
4,1,-2,-59,-396,3934,0.09,0.14,-0.97,-0.59,-3.96,39.34,-5.53,1.03,8.11,15616.17,-3353.37,-27637.80
2,1,-1,-63,-370,3905,0.09,0.13,-0.88,-0.63,-3.70,39.05,-5.52,1.01,8.12,15635.52,-3299.60,-28194.83
0,1,0,-69,-364,3909,0.08,0.12,-0.79,-0.69,-3.64,39.09,-5.50,1.01,8.12,15674.79,-3280.47,-28734.19
1,1,-1,-79,-361,3914,0.08,0.12,-0.72,-0.79,-3.61,39.14,-5.49,1.02,8.12,15599.85,-3291.94,-29076.42
2,1,-2,-69,-367,3905,0.08,0.11,-0.66,-0.69,-3.67,39.05,-5.47,1.02,8.12,15501.58,-3271.26,-29345.91
5,0,-4,-73,-373,3894,0.11,0.10,-0.62,-0.73,-3.73,38.94,-5.47,1.04,8.13,15344.17,-3261.28,-29460.84
5,-1,-5,-69,-356,3899,0.13,0.08,-0.59,-0.69,-3.56,38.99,-5.45,1.04,8.13,15238.92,-3179.21,-29577.39
2,-4,0,-77,-374,3899,0.13,0.05,-0.53,-0.77,-3.74,38.99,-5.46,1.05,8.13,15358.35,-3041.08,-30190.71
2,-3,-1,-73,-368,3905,0.13,0.03,-0.48,-0.73,-3.68,39.05,-5.44,1.06,8.13,15305.99,-3022.69,-30387.86
-2,1,-1,-73,-385,3897,0.10,0.03,-0.44,-0.73,-3.85,38.97,-5.45,1.06,8.14,15559.61,-3171.53,-30620.45
0,5,0,-42,-412,3930,0.09,0.06,-0.39,-0.42,-4.12,39.30,-5.47,1.05,8.14,15556.43,-3346.49,-30920.52
3,11,-1,-71,-340,3914,0.10,0.12,-0.36,-0.71,-3.40,39.14,-5.45,1.05,8.14,15375.49,-3712.07,-31045.14
8,13,-3,-48,-404,3903,0.14,0.19,-0.34,-0.48,-4.04,39.03,-5.46,1.04,8.14,15143.29,-3926.09,-31030.71
7,11,-4,-122,-325,3904,0.17,0.24,-0.33,-1.22,-3.25,39.04,-5.45,1.05,8.14,15064.59,-4024.05,-31030.40
4,9,-2,-139,-311,3922,0.18,0.27,-0.31,-1.39,-3.11,39.22,-5.44,1.06,8.14,15109.72,-4078.10,-31264.49
0,5,-2,-93,-343,3911,0.16,0.27,-0.29,-0.93,-3.43,39.11,-5.42,1.08,8.14,15247.62,-3983.20,-31370.20
0,4,0,-72,-376,3902,0.14,0.27,-0.26,-0.72,-3.76,39.02,-5.44,1.07,8.14,15337.78,-3930.05,-31649.51
-2,5,-5,-99,-355,3928,0.12,0.27,-0.27,-0.99,-3.55,39.28,-5.43,1.09,8.15,15442.24,-4019.27,-31340.05
-3,6,-7,-91,-360,3896,0.09,0.28,-0.28,-0.91,-3.60,38.96,-5.42,1.10,8.15,15526.01,-4126.44,-31142.86
18,-10,-3,-409,-532,3824,0.19,0.19,-0.27,-4.09,-5.32,38.24,-5.43,1.12,8.15,14562.02,-3393.41,-31435.34
-4,-3,16,-450,-543,3903,0.14,0.15,-0.15,-4.50,-5.43,39.03,-5.43,1.14,8.15,15451.36,-3586.29,-33213.84
3,3,26,-34,-403,3975,0.15,0.16,0.02,-0.34,-4.03,39.75,-5.44,1.12,8.15,15224.14,-3755.54,-34724.17
3,1,15,57,-367,3943,0.15,0.15,0.11,0.57,-3.67,39.43,-5.44,1.11,8.15,15209.88,-3610.69,-34557.00
2,-5,-31,93,-252,3962,0.15,0.10,-0.09,0.93,-2.52,39.62,-5.43,1.09,8.15,15218.92,-3245.09,-30805.43
2,-2,-29,51,-256,3897,0.15,0.08,-0.26,0.51,-2.56,38.97,-5.41,1.08,8.15,15188.67,-3251.45,-30026.58
-1,-8,-24,-24,-335,3890,0.13,0.02,-0.38,-0.24,-3.35,38.90,-5.40,1.06,8.15,15314.61,-2853.46,-29677.45
-3,-9,-28,-38,-343,3915,0.09,-0.03,-0.51,-0.38,-3.43,39.15,-5.39,1.05,8.15,15430.08,-2627.63,-28739.96
0,-7,-37,-77,-364,3916,0.08,-0.07,-0.68,-0.77,-3.64,39.16,-5.38,1.06,8.16,15311.41,-2628.13,-27291.48
-2,-6,-42,-123,-361,3903,0.06,-0.10,-0.87,-1.23,-3.61,39.03,-5.38,1.08,8.16,15426.79,-2636.80,-26010.42
0,-5,-60,-144,-401,3891,0.06,-0.12,-1.15,-1.44,-4.01,38.91,-5.38,1.09,8.16,15397.62,-2663.31,-23490.58
4,-6,-65,-153,-416,3905,0.08,-0.15,-1.43,-1.53,-4.16,39.05,-5.39,1.11,8.17,15238.59,-2607.49,-21719.16
-3,-8,-116,-159,-447,3880,0.05,-0.18,-2.00,-1.59,-4.47,38.80,-5.41,1.12,8.18,15583.30,-2483.82,-15764.04
4,-7,-136,-155,-432,3911,0.07,-0.21,-2.63,-1.55,-4.32,39.11,-5.42,1.13,8.19,15324.66,-2490.52,-11275.66
9,-4,-201,-13,-321,3946,0.12,-0.21,-3.59,-0.13,-3.21,39.46,-5.41,1.11,8.20,14994.14,-2536.48,-2396.24
6,-2,-203,27,-325,3919,0.14,-0.20,-4.47,0.27,-3.25,39.19,-5.40,1.10,8.22,15010.76,-2572.52,2346.85
-1,-12,-186,-108,-364,3886,0.12,-0.25,-5.16,-1.08,-3.64,38.86,-5.40,1.11,8.24,15299.23,-2134.57,4947.16
0,-13,-196,-107,-349,3888,0.11,-0.31,-5.84,-1.07,-3.49,38.88,-5.39,1.12,8.26,15270.11,-1995.86,9069.43
1,-8,-253,-86,-395,3907,0.11,-0.33,-6.80,-0.86,-3.95,39.07,-5.40,1.13,8.29,15298.68,-2126.83,17408.07
4,-7,-258,-58,-400,3925,0.12,-0.34,-7.69,-0.58,-4.00,39.25,-5.42,1.11,8.32,15203.35,-2092.92,22351.69
3,-7,-250,-86,-417,3917,0.13,-0.35,-8.45,-0.86,-4.17,39.17,-5.44,1.11,8.35,15273.07,-2067.03,25786.72
0,-5,-251,-118,-442,3908,0.11,-0.34,-9.13,-1.18,-4.42,39.08,-5.45,1.11,8.39,15454.83,-2159.44,29364.12
5,-3,-274,-159,-376,3876,0.13,-0.33,-9.89,-1.59,-3.76,38.76,-5.45,1.13,8.43,15237.33,-2307.56,34595.57
4,-2,-283,-175,-403,3883,0.14,-0.30,-10.63,-1.75,-4.03,38.83,-5.46,1.14,8.47,15259.80,-2429.93,38886.94
6,-2,-312,-230,-443,3898,0.17,-0.29,-11.47,-2.30,-4.43,38.98,-5.47,1.15,8.52,15155.91,-2509.62,44881.58
0,6,-328,-204,-395,3922,0.15,-0.22,-12.32,-2.04,-3.95,39.22,-5.47,1.16,8.57,15414.64,-2990.76,50177.41
5,1,-351,-146,-356,3915,0.16,-0.19,-13.23,-1.46,-3.56,39.15,-5.47,1.18,8.62,15188.69,-2926.36,56160.51
15,-2,-363,-147,-286,3980,0.24,-0.19,-14.12,-1.47,-2.86,39.80,-5.45,1.18,8.68,14606.55,-2854.01,61394.37
12,-15,-412,-106,-236,3952,0.29,-0.26,-15.22,-1.06,-2.36,39.52,-5.43,1.18,8.74,14529.94,-2206.61,69888.27
9,-17,-408,-87,-237,3935,0.31,-0.34,-16.19,-0.87,-2.37,39.35,-5.42,1.17,8.80,14512.94,-1916.21,74558.81
11,-14,-468,-78,-223,3878,0.35,-0.39,-17.43,-0.78,-2.23,38.78,-5.40,1.16,8.87,14298.79,-1860.95,84379.02
1,-12,-520,-81,-301,3884,0.32,-0.42,-18.86,-0.81,-3.01,38.84,-5.38,1.15,8.94,14666.02,-1816.70,94744.22
6,-14,-609,-41,-163,3947,0.33,-0.47,-20.68,-0.41,-1.63,39.47,-5.36,1.14,9.03,14431.61,-1598.44,109373.41
11,-11,-609,-38,-162,3917,0.36,-0.49,-22.33,-0.38,-1.62,39.17,-5.34,1.13,9.11,14119.02,-1608.54,117810.91
-2,-21,-620,-7,-389,3863,0.31,-0.57,-23.88,-0.07,-3.89,38.63,-5.35,1.10,9.21,14712.94,-976.43,126341.52
-2,-17,-646,51,-403,3900,0.27,-0.61,-25.43,0.51,-4.03,39.00,-5.36,1.07,9.31,14843.40,-906.23,135741.39
7,-9,-720,-62,-305,3867,0.28,-0.61,-27.28,-0.62,-3.05,38.67,-5.34,1.05,9.42,14443.29,-1152.37,149493.17
1,-17,-668,-164,-330,3844,0.26,-0.65,-28.63,-1.64,-3.30,38.44,-5.34,1.06,9.53,14695.00,-777.50,153195.48
0,-19,-632,-92,-421,3866,0.24,-0.70,-29.62,-0.92,-4.21,38.66,-5.35,1.05,9.65,14851.07,-553.22,155920.05
6,-8,-555,-82,-366,3910,0.25,-0.68,-30.04,-0.82,-3.66,39.10,-5.36,1.05,9.77,14611.70,-999.57,153209.58
10,-10,-553,-20,-443,3901,0.29,-0.67,-30.41,-0.20,-4.43,39.01,-5.37,1.03,9.89,14427.01,-878.60,154572.19
8,-12,-637,16,-421,3903,0.31,-0.68,-31.26,0.16,-4.21,39.03,-5.38,1.00,10.02,14473.79,-707.73,163474.92
13,-10,-652,-60,-456,3923,0.35,-0.67,-32.11,-0.60,-4.56,39.23,-5.40,0.98,10.14,14229.71,-746.33,168379.12
7,-14,-710,-94,-427,3920,0.36,-0.69,-33.23,-0.94,-4.27,39.20,-5.42,0.97,10.28,14467.21,-539.58,177207.08
13,-12,-716,-89,-380,3889,0.40,-0.69,-34.27,-0.89,-3.80,38.89,-5.43,0.98,10.41,14173.92,-599.42,182584.88
13,-9,-662,-113,-315,3900,0.44,-0.68,-34.88,-1.13,-3.15,39.00,-5.41,0.97,10.55,14034.07,-728.42,182138.91
5,-14,-652,-64,-322,3918,0.43,-0.70,-35.37,-0.64,-3.22,39.18,-5.40,0.95,10.69,14294.48,-461.67,183597.80
10,-4,-577,-111,-310,3891,0.45,-0.65,-35.36,-1.11,-3.10,38.91,-5.38,0.95,10.83,14035.92,-910.70,178562.39
8,-20,-564,-59,-314,3925,0.45,-0.71,-35.26,-0.59,-3.14,39.25,-5.36,0.93,10.97,14043.26,-160.27,176728.52
10,-12,-534,-46,-382,3867,0.47,-0.71,-34.99,-0.46,-3.82,38.67,-5.38,0.90,11.11,13973.29,-347.60,172979.14
1,-13,-518,5,-389,3959,0.43,-0.72,-34.65,0.05,-3.89,39.59,-5.38,0.87,11.25,14402.15,-194.52,169674.00
23,-8,-509,22,-401,3931,0.52,-0.70,-34.29,0.22,-4.01,39.31,-5.39,0.84,11.38,13409.70,-331.79,166670.55
2,-4,-514,37,-451,3916,0.48,-0.65,-34.00,0.37,-4.51,39.16,-5.40,0.81,11.52,14271.20,-502.41,164843.02
-1,-4,-557,-32,-365,3864,0.43,-0.61,-34.00,-0.32,-3.65,38.64,-5.40,0.77,11.65,14515.82,-511.30,166789.50
14,-2,-566,-68,-306,3897,0.47,-0.56,-34.05,-0.68,-3.06,38.97,-5.38,0.76,11.79,13838.03,-676.16,167048.59
2,-10,-603,-42,-325,3921,0.44,-0.57,-34.32,-0.42,-3.25,39.21,-5.37,0.74,11.93,14290.70,-332.57,170112.89
11,-7,-609,-12,-377,3932,0.46,-0.55,-34.61,-0.12,-3.77,39.32,-5.37,0.71,12.06,13930.12,-376.24,171413.97
0,-8,-594,-121,-370,3942,0.41,-0.55,-34.77,-1.21,-3.70,39.42,-5.37,0.71,12.20,14428.10,-367.63,170848.67
6,-15,-583,-157,-412,3912,0.41,-0.58,-34.85,-1.57,-4.12,39.12,-5.38,0.72,12.34,14254.61,-35.37,170069.41
2,-8,-531,-158,-415,3899,0.38,-0.57,-34.60,-1.58,-4.15,38.99,-5.38,0.72,12.48,14488.85,-305.15,165167.09
1,-4,-519,-105,-453,3921,0.35,-0.54,-34.31,-1.05,-4.53,39.21,-5.40,0.71,12.62,14651.20,-514.27,162340.84
14,5,-512,-30,-494,3936,0.40,-0.46,-34.00,-0.30,-4.94,39.36,-5.42,0.69,12.75,14124.89,-993.22,159739.84
-6,-3,-509,-46,-512,3895,0.32,-0.43,-33.70,-0.46,-5.12,38.95,-5.44,0.68,12.88,15065.58,-746.66,157443.30
7,2,-482,14,-399,3893,0.33,-0.37,-33.27,0.14,-3.99,38.93,-5.44,0.65,13.02,14614.42,-973.23,153032.92
1,2,-464,-8,-415,3873,0.31,-0.32,-32.78,-0.08,-4.15,38.73,-5.46,0.62,13.15,14933.71,-1029.64,148798.17
6,4,-390,11,-298,3900,0.31,-0.27,-31.88,0.11,-2.98,39.00,-5.44,0.60,13.27,14703.63,-1177.25,139168.83
9,9,-358,-23,-313,3934,0.34,-0.19,-30.87,-0.23,-3.13,39.34,-5.43,0.58,13.40,14488.06,-1510.58,131441.08
7,4,-291,-67,-299,3893,0.34,-0.14,-29.56,-0.67,-2.99,38.93,-5.41,0.58,13.51,14483.36,-1435.50,120047.27
-1,-3,-286,-116,-368,3900,0.30,-0.15,-28.35,-1.16,-3.68,39.00,-5.41,0.58,13.63,14863.03,-1204.58,112824.45
-3,-2,-261,-134,-363,3918,0.26,-0.14,-27.11,-1.34,-3.63,39.18,-5.41,0.59,13.74,15054.38,-1266.97,104288.56
0,-3,-261,-95,-380,3915,0.23,-0.15,-25.99,-0.95,-3.80,39.15,-5.41,0.60,13.84,15027.13,-1244.62,97891.85
8,-2,-343,-84,-503,3940,0.26,-0.15,-25.48,-0.84,-5.03,39.40,-5.43,0.60,13.94,14735.03,-1272.76,99552.51
1,-4,-375,-91,-485,3835,0.24,-0.16,-25.22,-0.91,-4.85,38.35,-5.44,0.59,14.04,15075.32,-1169.49,99616.55
1,-5,-427,-134,-444,3883,0.22,-0.17,-25.30,-1.34,-4.44,38.83,-5.46,0.60,14.14,15154.06,-1107.96,102679.25
1,-13,-440,-115,-445,3898,0.20,-0.23,-25.46,-1.15,-4.45,38.98,-5.47,0.60,14.24,15232.70,-677.90,103845.86
6,-4,-450,-113,-398,3893,0.22,-0.23,-25.66,-1.13,-3.98,38.93,-5.48,0.61,14.35,15036.29,-1003.50,105078.52
1,-10,-446,-98,-390,3888,0.20,-0.27,-25.81,-0.98,-3.90,38.88,-5.48,0.61,14.45,15265.65,-718.25,105255.91
2,-11,-468,-63,-355,3933,0.20,-0.31,-26.09,-0.63,-3.55,39.33,-5.47,0.61,14.55,15214.76,-583.60,107579.48
9,-8,-467,-65,-321,3946,0.23,-0.33,-26.33,-0.65,-3.21,39.46,-5.45,0.61,14.66,14833.54,-627.71,108379.97
-1,-12,-467,-49,-281,3876,0.20,-0.37,-26.54,-0.49,-2.81,38.76,-5.43,0.60,14.76,15201.76,-356.52,109107.00
0,-10,-465,-60,-306,3930,0.18,-0.39,-26.72,-0.60,-3.06,39.30,-5.42,0.59,14.87,15170.07,-343.12,109533.84
3,-11,-440,-63,-328,3889,0.18,-0.42,-26.74,-0.63,-3.28,38.89,-5.40,0.59,14.97,15021.43,-228.29,107707.66
8,-4,-451,-107,-347,3916,0.21,-0.40,-26.81,-1.07,-3.47,39.16,-5.39,0.60,15.08,14753.09,-531.37,108330.48
4,-7,-460,-132,-343,3877,0.22,-0.41,-26.94,-1.32,-3.43,38.77,-5.39,0.60,15.19,14870.23,-439.47,109086.54
5,-15,-448,-72,-379,3920,0.22,-0.46,-26.98,-0.72,-3.79,39.20,-5.40,0.61,15.29,14828.17,-48.02,108159.87
13,-4,-407,-53,-380,3915,0.28,-0.44,-26.76,-0.53,-3.80,39.15,-5.41,0.61,15.40,14440.27,-486.97,104188.97
3,-2,-400,-113,-363,3885,0.27,-0.40,-26.53,-1.13,-3.63,38.85,-5.41,0.62,15.51,14806.38,-656.61,102090.91
-3,-4,-387,-121,-412,3901,0.23,-0.39,-26.23,-1.21,-4.12,39.01,-5.42,0.62,15.61,15156.72,-642.94,99349.93
1,-6,-387,-123,-395,3919,0.21,-0.39,-25.97,-1.23,-3.95,39.19,-5.42,0.63,15.71,15077.62,-597.93,97527.03
-2,-10,-390,-88,-332,3922,0.18,-0.41,-25.75,-0.88,-3.32,39.22,-5.41,0.63,15.82,15233.08,-408.75,96121.46
8,-10,-391,-37,-316,3915,0.21,-0.43,-25.56,-0.37,-3.16,39.15,-5.39,0.62,15.92,14756.42,-317.71,94751.77
-4,-8,-388,-131,-293,3843,0.16,-0.43,-25.37,-1.31,-2.93,38.43,-5.38,0.62,16.02,15255.51,-380.32,93155.54
3,-14,-400,-105,-348,3894,0.16,-0.48,-25.28,-1.05,-3.48,38.94,-5.38,0.62,16.12,14995.49,-82.67,92927.31
8,-6,-461,-132,-440,3904,0.20,-0.47,-25.56,-1.32,-4.40,39.04,-5.39,0.63,16.22,14773.51,-394.55,97589.92
9,-5,-473,-115,-422,3948,0.23,-0.45,-25.89,-1.15,-4.22,39.48,-5.40,0.63,16.32,14678.10,-480.85,99630.15
1,-14,-460,-84,-366,3931,0.21,-0.49,-26.11,-0.84,-3.66,39.31,-5.40,0.64,16.43,14991.52,-84.47,99610.70
3,-11,-455,-34,-366,3926,0.21,-0.51,-26.27,-0.34,-3.66,39.26,-5.39,0.61,16.53,14908.50,-58.70,99776.28
4,-11,-436,26,-330,3903,0.21,-0.52,-26.30,0.26,-3.30,39.03,-5.38,0.58,16.64,14840.44,64.37,98418.05
1,-6,-438,-14,-279,3894,0.20,-0.51,-26.35,-0.14,-2.79,38.94,-5.36,0.56,16.74,14933.80,-99.62,98331.37
3,-4,-457,5,-224,3894,0.20,-0.48,-26.50,0.05,-2.24,38.94,-5.35,0.55,16.85,14819.57,-187.58,99830.15
12,-13,-459,33,-270,3900,0.25,-0.51,-26.65,0.33,-2.70,39.00,-5.33,0.52,16.95,14328.64,268.96,100318.87
4,-7,-388,-34,-300,3894,0.25,-0.50,-26.35,-0.34,-3.00,38.94,-5.31,0.51,17.06,14552.85,75.66,94163.32
4,-19,-372,-50,-253,3908,0.25,-0.57,-25.98,-0.50,-2.53,39.08,-5.29,0.50,17.16,14502.05,685.86,90857.48
5,-12,-363,9,-384,3889,0.26,-0.59,-25.60,0.09,-3.84,38.89,-5.30,0.47,17.26,14478.16,567.78,87867.05
9,-4,-354,-2,-383,3937,0.28,-0.55,-25.20,-0.02,-3.83,39.37,-5.31,0.45,17.36,14289.41,282.86,84795.02
2,-1,-305,-13,-485,3911,0.27,-0.50,-24.54,-0.13,-4.85,39.11,-5.33,0.43,17.46,14623.77,91.68,78018.88
5,-2,-295,-25,-438,3925,0.27,-0.46,-23.89,-0.25,-4.38,39.25,-5.35,0.42,17.56,14562.60,61.59,73553.01
10,-1,-255,-35,-338,3876,0.31,-0.42,-23.05,-0.35,-3.38,38.76,-5.33,0.42,17.65,14250.06,-61.43,66399.09
1,-5,-244,-47,-340,3919,0.28,-0.41,-22.24,-0.47,-3.40,39.19,-5.31,0.42,17.73,14579.22,42.64,61035.20
6,-1,-265,-56,-440,3878,0.29,-0.38,-21.63,-0.56,-4.40,38.78,-5.33,0.41,17.82,14433.46,-176.28,58666.21
7,-2,-263,-44,-405,3946,0.30,-0.35,-21.07,-0.44,-4.05,39.46,-5.35,0.41,17.90,14410.25,-202.05,55224.76
2,-5,-220,-19,-389,3923,0.29,-0.35,-20.31,-0.19,-3.89,39.23,-5.36,0.39,17.99,14676.38,-64.49,48302.88
-7,-10,-210,-27,-374,3898,0.21,-0.37,-19.56,-0.27,-3.74,38.98,-5.38,0.39,18.06,15223.08,201.11,43399.50
-2,-11,-178,-38,-357,3908,0.18,-0.40,-18.69,-0.38,-3.57,39.08,-5.37,0.39,18.14,15101.44,299.54,36586.29
2,-8,-174,-24,-361,3882,0.17,-0.41,-17.88,-0.24,-3.61,38.82,-5.35,0.37,18.21,14934.91,272.30,31752.62
5,-7,-165,-26,-323,3882,0.19,-0.41,-17.10,-0.26,-3.23,38.82,-5.33,0.36,18.28,14744.20,264.11,26778.14
4,-8,-172,-59,-362,3892,0.19,-0.42,-16.44,-0.59,-3.62,38.92,-5.33,0.37,18.34,14760.82,287.56,23392.08
-3,-3,-231,-152,-396,3909,0.16,-0.40,-16.20,-1.52,-3.96,39.09,-5.34,0.38,18.41,15111.55,24.31,25316.39
1,5,-265,-167,-373,3880,0.15,-0.33,-16.20,-1.67,-3.73,38.80,-5.34,0.40,18.47,15002.12,-465.10,27016.92
1,4,-353,-87,-371,3915,0.14,-0.27,-16.73,-0.87,-3.71,39.15,-5.34,0.41,18.54,15028.60,-610.83,34726.25
14,5,-369,-84,-282,3942,0.21,-0.21,-17.31,-0.84,-2.82,39.42,-5.32,0.41,18.61,14349.82,-802.47,38466.27
11,-9,-419,-4,-359,4053,0.26,-0.25,-18.13,-0.04,-3.59,40.53,-5.31,0.39,18.68,14299.90,-168.60,45495.53
8,-1,-405,-52,-397,3963,0.28,-0.23,-18.79,-0.52,-3.97,39.63,-5.33,0.39,18.75,14380.40,-504.12,47885.98
0,-19,-367,-42,-300,3841,0.25,-0.32,-19.15,-0.42,-3.00,38.41,-5.31,0.39,18.83,14675.79,367.76,47283.24
12,-7,-367,-118,-316,3967,0.30,-0.33,-19.47,-1.18,-3.16,39.67,-5.30,0.40,18.91,14109.59,-38.58,48697.92
4,-17,-325,23,-260,3971,0.29,-0.40,-19.51,0.23,-2.60,39.71,-5.28,0.38,18.98,14349.41,536.77,46122.54
9,0,-296,-21,-277,3910,0.32,-0.36,-19.36,-0.21,-2.77,39.10,-5.26,0.37,19.06,14056.08,-124.72,43343.41
0,-4,-328,-72,-330,3947,0.29,-0.35,-19.43,-0.72,-3.30,39.47,-5.25,0.38,19.14,14415.97,-36.12,45239.18
7,-12,-341,-108,-303,3882,0.30,-0.39,-19.57,-1.08,-3.03,38.82,-5.24,0.38,19.22,14108.03,319.23,46414.58
11,-2,-332,-31,-420,3923,0.34,-0.36,-19.63,-0.31,-4.20,39.23,-5.26,0.37,19.29,13924.37,-73.17,45939.08
3,-7,-328,-1,-356,3869,0.32,-0.37,-19.67,-0.01,-3.56,38.69,-5.26,0.35,19.37,14237.62,193.88,45587.91
-1,-9,-295,-10,-389,3936,0.28,-0.39,-19.50,-0.10,-3.89,39.36,-5.27,0.33,19.45,14519.82,359.33,42453.31
5,-4,-290,-86,-369,3895,0.29,-0.37,-19.32,-0.86,-3.69,38.95,-5.27,0.34,19.53,14313.93,122.82,40880.67
6,-6,-309,-110,-296,3913,0.29,-0.37,-19.28,-1.10,-2.96,39.13,-5.26,0.35,19.60,14225.04,172.47,41424.21
10,-3,-322,-110,-291,3903,0.33,-0.35,-19.31,-1.10,-2.91,39.03,-5.25,0.35,19.68,13970.13,3.28,42066.38
8,-2,-333,-59,-359,3920,0.34,-0.33,-19.41,-0.59,-3.59,39.20,-5.25,0.36,19.76,13992.38,-119.69,42928.98
-7,-10,-319,-70,-389,3922,0.27,-0.36,-19.42,-0.70,-3.89,39.22,-5.26,0.37,19.83,14735.09,208.49,41824.29
9,-10,-289,-40,-359,3929,0.29,-0.38,-19.24,-0.40,-3.59,39.29,-5.25,0.38,19.91,14099.86,246.78,38810.00
2,-10,-285,-68,-405,3908,0.28,-0.41,-19.05,-0.68,-4.05,39.08,-5.27,0.38,19.99,14422.29,294.88,37279.02
9,-9,-285,-39,-367,3906,0.30,-0.42,-18.89,-0.39,-3.67,39.06,-5.27,0.39,20.06,14133.64,276.14,36083.04
-2,-8,-288,-75,-358,3846,0.26,-0.43,-18.75,-0.75,-3.58,38.46,-5.28,0.40,20.14,14624.38,231.46,35251.14
5,-15,-280,-41,-413,3919,0.27,-0.48,-18.59,-0.41,-4.13,39.19,-5.29,0.40,20.21,14421.56,610.99,33590.07
4,-11,-270,-30,-402,3900,0.26,-0.50,-18.38,-0.30,-4.02,39.00,-5.31,0.39,20.28,14512.53,545.76,31579.43
5,-3,-292,-76,-384,3858,0.27,-0.46,-18.32,-0.76,-3.84,38.58,-5.32,0.40,20.36,14489.63,167.21,32265.28
9,-8,-303,-104,-410,3890,0.30,-0.47,-18.34,-1.04,-4.10,38.90,-5.33,0.40,20.43,14304.71,325.55,32698.18
6,-6,-323,-103,-513,3929,0.30,-0.46,-18.47,-1.03,-5.13,39.29,-5.34,0.40,20.50,14434.50,231.62,34296.35
3,-6,-330,-155,-481,3913,0.29,-0.45,-18.64,-1.55,-4.81,39.13,-5.35,0.41,20.58,14602.32,194.10,35289.24
3,-8,-355,-131,-435,3877,0.28,-0.45,-18.94,-1.31,-4.35,38.77,-5.36,0.41,20.65,14658.72,255.64,38052.63
-3,-9,-372,-146,-482,3873,0.23,-0.46,-19.31,-1.46,-4.82,38.73,-5.38,0.42,20.73,15021.79,304.30,40736.50
21,-6,-416,-115,-354,3994,0.34,-0.45,-19.92,-1.15,-3.54,39.94,-5.37,0.43,20.81,13908.54,151.81,46218.31
3,3,-420,-112,-424,3884,0.32,-0.39,-20.49,-1.12,-4.24,38.84,-5.38,0.43,20.89,14596.63,-339.38,49165.32
16,-2,-443,-66,-462,3886,0.39,-0.36,-21.14,-0.66,-4.62,38.86,-5.40,0.43,20.97,14026.14,-228.36,53654.14
17,-3,-446,-66,-472,3962,0.45,-0.34,-21.75,-0.66,-4.72,39.62,-5.41,0.43,21.06,13869.00,-231.15,56716.14
0,-5,-460,16,-356,3908,0.41,-0.34,-22.38,0.16,-3.56,39.08,-5.41,0.40,21.15,14552.83,-93.66,60542.16
-6,4,-460,-31,-395,3871,0.33,-0.28,-22.95,-0.31,-3.95,38.71,-5.42,0.39,21.24,15010.72,-534.11,63205.12
17,-2,-470,-11,-301,3885,0.40,-0.27,-23.52,-0.11,-3.01,38.85,-5.40,0.38,21.33,13981.55,-328.66,66465.20
17,-2,-474,-19,-340,3915,0.46,-0.25,-24.06,-0.19,-3.40,39.15,-5.39,0.36,21.43,13761.09,-325.34,69191.49
1,1,-469,-4,-384,3869,0.42,-0.22,-24.52,-0.04,-3.84,38.69,-5.40,0.34,21.53,14449.25,-441.86,70933.91
8,-8,-459,-2,-352,3903,0.43,-0.25,-24.86,-0.02,-3.52,39.03,-5.38,0.31,21.63,14155.86,8.81,71810.98
10,1,-404,28,-384,3873,0.45,-0.22,-24.84,0.28,-3.84,38.73,-5.39,0.29,21.73,14055.60,-301.94,68086.37
-13,-5,-390,-8,-375,3931,0.32,-0.22,-24.74,-0.08,-3.75,39.31,-5.40,0.26,21.82,15184.65,7.08,66308.81
-3,-1,-289,3,-310,3892,0.27,-0.21,-24.03,0.03,-3.10,38.92,-5.38,0.24,21.92,14921.13,-126.78,56236.56
3,0,-286,86,-244,3937,0.26,-0.19,-23.37,0.86,-2.44,39.37,-5.36,0.22,22.01,14695.45,-154.62,52169.16
10,-6,-273,-4,-279,3929,0.30,-0.21,-22.70,-0.04,-2.79,39.29,-5.34,0.21,22.10,14310.04,131.60,47457.60
-1,-6,-280,-21,-310,3889,0.26,-0.22,-22.13,-0.21,-3.10,38.89,-5.32,0.20,22.19,14727.65,193.20,44507.82
2,-5,-344,-83,-283,3892,0.25,-0.23,-22.02,-0.83,-2.83,38.92,-5.31,0.21,22.28,14619.36,172.06,47268.12
11,-2,-369,10,-275,3944,0.29,-0.22,-22.07,0.10,-2.75,39.44,-5.29,0.19,22.37,14146.57,80.45,48630.57
9,3,-405,-6,-341,3895,0.32,-0.18,-22.33,-0.06,-3.41,38.95,-5.27,0.18,22.45,14095.92,-152.22,51776.98
4,-3,-427,-33,-345,3913,0.31,-0.18,-22.70,-0.33,-3.45,39.13,-5.26,0.18,22.54,14251.75,39.59,54677.37
13,4,-480,-53,-262,3918,0.36,-0.14,-23.36,-0.53,-2.62,39.18,-5.24,0.18,22.64,13764.36,-305.08,60902.91
17,-4,-486,-56,-210,3925,0.43,-0.15,-23.99,-0.56,-2.10,39.25,-5.22,0.18,22.73,13395.43,10.17,64222.89
12,-9,-541,-42,-300,3932,0.46,-0.19,-24.89,-0.42,-3.00,39.32,-5.21,0.18,22.83,13436.24,291.16,71841.15
24,-9,-566,-5,-341,3883,0.56,-0.22,-25.85,-0.05,-3.41,38.83,-5.19,0.16,22.94,12709.43,439.95,78028.56
1,-10,-578,-140,-293,3886,0.51,-0.26,-26.79,-1.40,-2.93,38.86,-5.18,0.16,23.04,13602.51,557.72,83319.26
2,-21,-578,-21,-363,3888,0.47,-0.36,-27.64,-0.21,-3.63,38.88,-5.19,0.16,23.15,13702.39,1197.89,87394.29
22,-3,-583,-73,-259,3953,0.56,-0.35,-28.43,-0.73,-2.59,39.53,-5.17,0.16,23.26,12736.95,537.42,91459.04
12,-1,-572,-136,-214,3912,0.57,-0.32,-29.08,-1.36,-2.14,39.12,-5.16,0.16,23.38,12990.17,393.09,93798.94
-3,-8,-647,-39,-232,3941,0.50,-0.33,-30.12,-0.39,-2.32,39.41,-5.14,0.15,23.50,13646.80,701.62,103234.12
16,-8,-697,10,-202,3951,0.55,-0.35,-31.36,0.10,-2.02,39.51,-5.12,0.14,23.63,12811.31,784.95,112266.56
-3,-10,-811,-30,-380,3907,0.47,-0.38,-33.17,-0.30,-3.80,39.07,-5.13,0.14,23.76,13693.52,930.09,128052.69
19,-1,-809,-8,-388,3933,0.54,-0.34,-34.79,-0.08,-3.88,39.33,-5.15,0.12,23.90,12805.69,580.60,136018.25
-1,-5,-691,49,-311,3947,0.48,-0.34,-35.52,0.49,-3.11,39.47,-5.14,0.09,24.04,13613.26,790.40,132500.53
32,-2,-654,39,-405,3943,0.63,-0.32,-35.96,0.39,-4.05,39.43,-5.15,0.07,24.18,12128.16,706.59,132097.72
65,38,-514,-29,-191,3879,0.96,-0.06,-35.50,-0.29,-1.91,38.79,-5.13,0.06,24.32,10062.26,-1326.01,120902.20
65,37,-491,-110,-166,3876,1.26,0.18,-34.95,-1.10,-1.66,38.76,-5.10,0.05,24.46,9221.33,-1885.86,116031.66
34,28,-370,-217,-305,3894,1.34,0.33,-33.71,-2.17,-3.05,38.94,-5.10,0.06,24.60,10051.00,-1995.89,101821.62
36,25,-345,-235,-333,3916,1.43,0.45,-32.44,-2.35,-3.33,39.16,-5.09,0.07,24.72,9740.68,-2228.48,93074.01
32,28,-237,-120,-402,3945,1.48,0.57,-30.64,-1.20,-4.02,39.45,-5.09,0.08,24.85,9746.76,-2682.90,76674.02
24,25,-210,-136,-370,3918,1.48,0.67,-28.86,-1.36,-3.70,39.18,-5.09,0.09,24.96,10018.15,-2857.32,65105.05
12,2,-118,-21,-343,3905,1.40,0.62,-26.69,-0.21,-3.43,39.05,-5.08,0.10,25.07,10594.00,-1953.99,47736.94
7,-1,-112,-71,-289,3905,1.31,0.55,-24.71,-0.71,-2.89,39.05,-5.06,0.11,25.17,10970.43,-1695.35,36375.70
-15,-22,-194,-178,-276,3906,1.08,0.36,-23.42,-1.78,-2.76,39.06,-5.05,0.12,25.26,12273.23,-510.78,33898.40
-18,-26,-194,-113,-299,3915,0.87,0.16,-22.26,-1.13,-2.99,39.15,-5.04,0.13,25.35,12913.32,105.02,27348.25
-20,-25,-182,-57,-328,3946,0.66,-0.00,-21.15,-0.57,-3.28,39.46,-5.03,0.14,25.43,13497.83,482.53,20344.84
-20,-25,-170,-96,-313,3909,0.47,-0.16,-20.07,-0.96,-3.13,39.09,-5.02,0.14,25.51,13963.77,850.22,13564.14
-23,-27,-187,-92,-323,3914,0.28,-0.31,-19.20,-0.92,-3.23,39.14,-5.01,0.15,25.59,14538.57,1278.27,9617.79
-18,-24,-211,-123,-256,3889,0.14,-0.42,-18.57,-1.23,-2.56,38.89,-5.00,0.16,25.66,14692.83,1457.74,7334.82
-5,-20,-236,-26,-332,3922,0.10,-0.50,-18.15,-0.26,-3.32,39.22,-4.99,0.17,25.74,14330.14,1509.72,6269.94
-8,-14,-230,-104,-274,3948,0.04,-0.54,-17.74,-1.04,-2.74,39.48,-4.98,0.17,25.81,14554.26,1377.00,3432.23
-11,-15,-245,-18,-344,3932,-0.03,-0.57,-17.46,-0.18,-3.44,39.32,-4.99,0.18,25.88,14854.70,1482.15,2532.05
-2,-19,-234,-7,-368,3942,-0.04,-0.63,-17.14,-0.07,-3.68,39.42,-5.00,0.17,25.94,14621.42,1808.36,-87.81
-19,-30,-266,-152,-270,3902,-0.15,-0.75,-17.05,-1.52,-2.70,39.02,-5.00,0.18,26.01,15475.79,2476.78,1013.84
-21,-30,-277,-55,-222,3899,-0.26,-0.86,-17.03,-0.55,-2.22,38.99,-4.98,0.17,26.08,15792.48,2766.07,1299.31
-6,-6,-363,122,-358,3931,-0.27,-0.81,-17.55,1.22,-3.58,39.31,-4.98,0.15,26.15,15312.75,1891.44,8758.79
13,-3,-388,66,-345,3931,-0.17,-0.75,-18.16,0.66,-3.45,39.31,-4.98,0.12,26.22,14385.45,1704.63,13194.52
15,14,-440,-27,-282,3917,-0.06,-0.59,-19.03,-0.27,-2.82,39.17,-4.97,0.12,26.30,13985.79,712.96,20557.49
28,10,-442,32,-356,3920,0.12,-0.47,-19.82,0.32,-3.56,39.20,-4.97,0.09,26.38,13096.69,613.59,24594.08
33,29,-381,23,-413,3916,0.31,-0.24,-20.16,0.23,-4.13,39.16,-4.99,0.08,26.46,12477.22,-579.07,22540.64
42,29,-353,-13,-422,3938,0.53,-0.04,-20.30,-0.13,-4.22,39.38,-5.01,0.07,26.54,11627.60,-1087.21,21312.87
15,16,-182,-105,-432,3907,0.57,0.06,-19.38,-1.05,-4.32,39.07,-5.02,0.08,26.61,12485.66,-925.73,6118.41
6,10,-132,-125,-448,3902,0.55,0.11,-18.25,-1.25,-4.48,39.02,-5.03,0.08,26.69,12877.29,-885.33,-3143.05
-30,-16,-47,-38,-407,3880,0.31,0.00,-16.71,-0.38,-4.07,38.80,-5.04,0.09,26.75,14778.83,286.12,-16584.60
-31,-21,-39,-24,-377,3896,0.09,-0.12,-15.28,-0.24,-3.77,38.96,-5.06,0.09,26.81,15431.96,784.37,-24953.58
-57,-48,-40,14,-364,3887,-0.27,-0.40,-13.99,0.14,-3.64,38.87,-5.07,0.07,26.87,17295.22,2499.09,-31978.60
-34,-38,-39,40,-385,3896,-0.45,-0.60,-12.83,0.40,-3.85,38.96,-5.08,0.05,26.92,17014.76,2712.81,-38447.96
-14,-15,-70,32,-400,3947,-0.49,-0.63,-11.97,0.32,-4.00,39.47,-5.10,0.03,26.97,16481.37,2055.42,-41407.43
-12,-13,-85,28,-406,3947,-0.51,-0.64,-11.30,0.28,-4.06,39.47,-5.12,0.02,27.01,16528.28,2074.72,-44342.33
-4,-11,-138,-95,-284,3911,-0.48,-0.65,-11.01,-0.95,-2.84,39.11,-5.11,0.03,27.06,16158.76,1988.50,-42967.46
-6,-14,-137,-91,-292,3895,-0.47,-0.67,-10.74,-0.91,-2.92,38.95,-5.10,0.03,27.10,16174.08,2119.57,-44614.79
-8,-8,-124,-73,-335,3929,-0.47,-0.65,-10.42,-0.73,-3.35,39.29,-5.10,0.05,27.14,16240.85,1833.03,-47238.48
-4,-7,-116,-50,-311,3930,-0.45,-0.63,-10.09,-0.50,-3.11,39.30,-5.09,0.05,27.18,16014.53,1717.97,-49656.20
8,0,-184,-83,-270,3930,-0.36,-0.56,-10.20,-0.83,-2.70,39.30,-5.08,0.06,27.22,15324.19,1293.70,-45250.86
5,0,-211,-117,-307,3916,-0.29,-0.51,-10.47,-1.17,-3.07,39.16,-5.07,0.07,27.26,15240.54,1113.64,-42420.41
4,-8,-308,-83,-358,3944,-0.24,-0.51,-11.30,-0.83,-3.58,39.44,-5.08,0.08,27.31,15143.89,1348.28,-32504.54
2,-14,-271,-28,-380,3916,-0.20,-0.54,-11.82,-0.28,-3.80,39.16,-5.09,0.09,27.35,15165.03,1633.36,-32058.06
1,-10,-225,-99,-347,3889,-0.18,-0.55,-12.01,-0.99,-3.47,38.89,-5.09,0.10,27.40,15133.58,1479.44,-33917.68
0,-3,-235,-134,-352,3883,-0.16,-0.51,-12.25,-1.34,-3.52,38.83,-5.10,0.11,27.45,15126.87,1109.32,-32292.56
20,8,-334,-104,-320,3911,-0.02,-0.41,-13.06,-1.04,-3.20,39.11,-5.09,0.12,27.50,14065.94,438.37,-22390.50
5,5,-355,-79,-396,3932,0.01,-0.34,-13.92,-0.79,-3.96,39.32,-5.10,0.13,27.56,14526.26,328.97,-16798.91
19,15,-456,-151,-366,3913,0.13,-0.21,-15.31,-1.51,-3.66,39.13,-5.10,0.14,27.62,13751.57,-375.82,-3734.44
10,6,-482,-173,-356,3917,0.18,-0.16,-16.72,-1.73,-3.56,39.17,-5.10,0.16,27.69,13936.02,-251.13,5040.45
19,8,-647,-123,-470,3911,0.27,-0.09,-18.99,-1.23,-4.70,39.11,-5.12,0.16,27.76,13406.63,-502.97,26504.83
13,15,-676,-135,-445,3884,0.33,0.01,-21.22,-1.35,-4.45,38.84,-5.13,0.17,27.85,13507.44,-1025.55,39735.58
31,19,-695,5,-366,3899,0.48,0.12,-23.34,0.05,-3.66,38.99,-5.14,0.15,27.94,12513.29,-1401.96,51779.88
42,23,-694,-17,-379,3910,0.69,0.25,-25.23,-0.17,-3.79,39.10,-5.15,0.14,28.04,11637.79,-1861.91,61463.41
73,28,-636,8,-289,3944,1.07,0.40,-26.59,0.08,-2.89,39.44,-5.13,0.13,28.15,9530.08,-2376.00,64897.42
51,34,-627,-7,-313,3907,1.27,0.57,-27.76,-0.07,-3.13,39.07,-5.11,0.12,28.26,9688.29,-2993.68,70150.62
63,46,-591,-18,-352,3928,1.53,0.79,-28.59,-0.18,-3.52,39.28,-5.10,0.13,28.37,8594.72,-4021.81,72020.19
80,46,-578,-57,-319,3927,1.86,0.99,-29.25,-0.57,-3.19,39.27,-5.09,0.14,28.49,7088.13,-4572.02,74352.57
48,27,-544,-22,-207,3930,1.97,1.06,-29.65,-0.22,-2.07,39.30,-5.06,0.14,28.61,7837.40,-4075.56,73989.96
27,26,-537,-11,-192,3879,1.94,1.11,-29.96,-0.11,-1.92,38.79,-5.03,0.13,28.73,8569.41,-4161.82,74757.95
30,19,-548,-17,-259,3944,1.93,1.11,-30.30,-0.17,-2.59,39.44,-5.01,0.13,28.85,8420.18,-3920.83,76761.77
22,14,-552,-19,-242,3920,1.87,1.09,-30.64,-0.19,-2.42,39.20,-4.98,0.12,28.97,8774.19,-3668.13,78297.09
7,6,-573,-108,-331,3924,1.72,1.02,-31.07,-1.08,-3.31,39.24,-4.97,0.13,29.09,9640.12,-3238.20,81320.77
17,9,-591,-188,-231,3969,1.66,0.97,-31.57,-1.88,-2.31,39.69,-4.96,0.14,29.22,9428.21,-3244.05,84517.97
6,-3,-620,-141,-313,3883,1.53,0.85,-32.20,-1.41,-3.13,38.83,-4.95,0.15,29.35,10115.92,-2561.30,89025.40
-8,9,-605,-203,-341,3921,1.33,0.82,-32.67,-2.03,-3.41,39.21,-4.94,0.16,29.48,11107.69,-2924.56,90137.72
5,-7,-468,28,-438,3922,1.22,0.70,-32.25,0.28,-4.38,39.22,-4.96,0.15,29.61,10961.80,-2005.16,79429.02
6,-4,-420,30,-372,3942,1.14,0.60,-31.59,0.30,-3.72,39.42,-4.96,0.13,29.73,11169.69,-1796.14,72574.70
9,-10,-344,9,-313,3907,1.08,0.48,-30.53,0.09,-3.13,39.07,-4.94,0.11,29.85,11163.94,-1219.55,61983.43
5,-10,-344,-2,-355,3877,1.00,0.37,-29.58,-0.02,-3.55,38.77,-4.96,0.09,29.97,11542.75,-896.40,56404.16
14,-5,-319,0,-352,3942,0.99,0.31,-28.56,0.00,-3.52,39.42,-4.97,0.07,30.09,11304.96,-838.24,49079.43
-2,-5,-277,-85,-289,3849,0.88,0.24,-27.40,-0.85,-2.89,38.49,-4.96,0.08,30.20,12107.83,-700.77,39954.61
-27,-40,-217,-63,-376,3951,0.62,-0.02,-25.98,-0.63,-3.76,39.51,-4.96,0.09,30.30,13643.74,1181.99,28471.69
-20,-36,-220,-79,-343,3894,0.44,-0.24,-24.73,-0.79,-3.43,38.94,-4.96,0.10,30.40,13881.34,1584.16,21535.95
-27,-30,-268,-23,-308,3909,0.23,-0.40,-23.89,-0.23,-3.08,39.09,-4.95,0.10,30.49,14615.77,1795.21,19472.48
-14,-24,-279,-78,-324,3893,0.12,-0.51,-23.20,-0.78,-3.24,38.93,-4.94,0.10,30.59,14440.36,1842.47,16069.55
-17,-19,-325,-94,-263,3871,0.01,-0.57,-22.86,-0.94,-2.63,38.71,-4.93,0.11,30.68,14811.88,1828.76,16578.48
-17,-14,-329,-139,-285,3959,-0.10,-0.60,-22.58,-1.39,-2.85,39.59,-4.93,0.11,30.77,15064.01,1710.92,14954.48
-37,-41,-282,-113,-378,3963,-0.31,-0.79,-22.05,-1.13,-3.78,39.63,-4.93,0.12,30.85,16335.02,3115.19,8984.15
-35,-49,-281,-152,-399,3917,-0.50,-1.01,-21.56,-1.52,-3.99,39.17,-4.94,0.13,30.94,16766.80,3946.77,5958.26
-23,-32,-340,-142,-334,3874,-0.59,-1.10,-21.47,-1.42,-3.34,38.74,-4.94,0.13,31.02,16596.89,3588.25,8616.07
-20,-32,-343,-123,-287,3925,-0.65,-1.19,-21.42,-1.23,-2.87,39.25,-4.94,0.14,31.11,16644.39,3795.75,8152.12
-56,-45,-345,-80,-308,3863,-0.93,-1.34,-21.38,-0.80,-3.08,38.63,-4.94,0.14,31.19,18595.40,4634.75,7725.24
-48,-51,-349,-146,-298,3905,-1.13,-1.52,-21.37,-1.46,-2.98,39.05,-4.94,0.15,31.28,18839.86,5288.57,7565.65
1,-23,-349,-130,-490,3960,-1.01,-1.51,-21.36,-1.30,-4.90,39.60,-4.96,0.14,31.36,16898.62,4300.05,7177.78
-12,-12,-366,-172,-414,3946,-0.98,-1.43,-21.46,-1.72,-4.14,39.46,-4.97,0.15,31.45,17307.30,3708.97,8337.65
10,5,-435,-145,-274,3934,-0.82,-1.26,-21.97,-1.45,-2.74,39.34,-4.96,0.15,31.54,16123.21,2661.59,14717.57
6,13,-530,-83,-282,3901,-0.70,-1.05,-23.00,-0.83,-2.82,39.01,-4.95,0.15,31.63,15928.25,1846.19,25420.92
47,25,-555,-95,-212,3917,-0.35,-0.80,-24.09,-0.95,-2.12,39.17,-4.94,0.15,31.72,13550.05,766.71,32287.28
78,44,-615,-61,-359,3907,0.16,-0.45,-25.43,-0.61,-3.59,39.07,-4.95,0.16,31.82,11175.37,-810.25,42546.96
83,51,-638,-38,-321,3924,0.65,-0.09,-26.78,-0.38,-3.21,39.24,-4.93,0.16,31.93,9692.45,-1992.59,50660.08
51,38,-607,73,-400,3891,0.90,0.15,-27.80,0.73,-4.00,38.91,-4.94,0.14,32.04,10176.49,-2104.14,53877.62
38,36,-600,26,-293,3894,1.04,0.35,-28.68,0.26,-2.93,38.94,-4.92,0.12,32.16,10202.62,-2509.86,57704.24
61,39,-621,68,-367,3902,1.31,0.56,-29.60,0.68,-3.67,39.02,-4.93,0.10,32.27,8719.81,-3067.75,63362.09
55,54,-629,53,-267,3891,1.51,0.83,-30.48,0.53,-2.67,38.91,-4.91,0.08,32.40,8337.41,-4240.41,68017.11
9,15,-556,109,-260,3919,1.42,0.84,-30.82,1.09,-2.60,39.19,-4.89,0.05,32.52,10125.53,-2856.15,65097.78
22,10,-531,143,-355,3951,1.41,0.82,-30.98,1.43,-3.55,39.51,-4.89,0.03,32.64,9688.10,-2550.90,63975.44
-2,-7,-506,23,-253,3921,1.26,0.69,-30.97,0.23,-2.53,39.21,-4.86,0.02,32.77,10847.38,-1604.94,61954.98
-8,-2,-510,-4,-288,3931,1.08,0.61,-30.98,-0.04,-2.88,39.31,-4.84,0.01,32.89,11442.65,-1545.27,61761.28
10,1,-561,82,-264,3924,1.04,0.56,-31.31,0.82,-2.64,39.24,-4.83,-0.01,33.01,10900.80,-1440.68,65956.51
15,-4,-574,67,-236,3909,1.02,0.48,-31.68,0.67,-2.36,39.09,-4.81,-0.03,33.14,10704.96,-1005.03,68181.59
14,-3,-577,9,-178,3896,1.01,0.41,-32.03,0.09,-1.78,38.96,-4.78,-0.04,33.27,10718.80,-839.51,69717.81
16,-2,-566,52,-253,3918,1.00,0.36,-32.28,0.52,-2.53,39.18,-4.77,-0.06,33.40,10601.82,-679.66,69887.51
-4,2,-495,-43,-259,3877,0.88,0.33,-32.07,-0.43,-2.59,38.77,-4.75,-0.06,33.53,11561.19,-760.73,64116.03
6,-6,-490,7,-283,3918,0.83,0.26,-31.85,0.07,-2.83,39.18,-4.73,-0.07,33.65,11287.93,-272.78,62143.59
6,7,-444,-18,-270,3867,0.78,0.28,-31.38,-0.18,-2.70,38.67,-4.71,-0.07,33.78,11350.50,-758.12,56406.36
-1,-5,-435,-47,-237,3870,0.70,0.22,-30.89,-0.47,-2.37,38.70,-4.69,-0.07,33.90,11757.36,-195.06,52795.16
2,-8,-407,120,-300,3895,0.64,0.15,-30.29,1.20,-3.00,38.95,-4.68,-0.10,34.02,11787.09,171.66,47432.54
7,-7,-404,136,-383,3946,0.62,0.09,-29.72,1.36,-3.83,39.46,-4.69,-0.13,34.14,11684.76,362.41,43762.70
5,-7,-468,-73,-215,3894,0.59,0.04,-29.60,-0.73,-2.15,38.94,-4.67,-0.12,34.26,11785.95,492.34,46387.16
3,-6,-544,-81,-210,3907,0.55,-0.00,-29.96,-0.81,-2.10,39.07,-4.65,-0.12,34.38,11911.95,558.25,52244.88
1,3,-482,1,-348,3914,0.50,0.02,-29.91,0.01,-3.48,39.14,-4.67,-0.13,34.50,12151.76,216.07,47848.02
13,-5,-474,-53,-330,3957,0.53,-0.01,-29.81,-0.53,-3.30,39.57,-4.67,-0.12,34.62,11661.26,550.88,46369.45
11,6,-582,39,-285,3880,0.54,0.02,-30.38,0.39,-2.85,38.80,-4.65,-0.14,34.74,11647.84,138.79,55215.72
10,22,-564,114,-260,3901,0.55,0.16,-30.78,1.14,-2.60,39.01,-4.64,-0.17,34.86,11631.76,-681.08,55820.01
25,-2,-442,11,-375,3970,0.65,0.13,-30.40,0.11,-3.75,39.70,-4.66,-0.18,34.98,10906.06,243.09,46177.59
5,-4,-413,3,-280,3875,0.61,0.09,-29.88,0.03,-2.80,38.75,-4.64,-0.18,35.10,11623.44,422.70,41222.94
9,-14,-390,1,-280,3872,0.61,-0.00,-29.27,0.01,-2.80,38.72,-4.62,-0.18,35.22,11444.10,1023.13,36156.41
16,-14,-387,-79,-348,3932,0.64,-0.09,-28.70,-0.79,-3.48,39.32,-4.62,-0.18,35.33,11115.25,1221.80,32492.65
-2,-10,-302,-32,-362,3878,0.57,-0.14,-27.67,-0.32,-3.62,38.78,-4.63,-0.17,35.44,11965.04,1211.72,21598.34
1,-3,-278,-101,-314,3908,0.52,-0.15,-26.60,-1.01,-3.14,39.08,-4.63,-0.16,35.55,11985.31,955.42,14043.83
-12,-2,-284,-192,-430,3953,0.39,-0.14,-25.67,-1.92,-4.30,39.53,-4.63,-0.16,35.65,12776.88,894.02,9021.22
-7,-4,-277,-81,-360,3893,0.31,-0.15,-24.80,-0.81,-3.60,38.93,-4.64,-0.15,35.75,12836.41,966.41,3522.64
9,2,-407,-29,-390,3941,0.33,-0.13,-24.80,-0.29,-3.90,39.41,-4.65,-0.15,35.85,12265.13,687.27,10715.29
3,14,-471,-53,-357,3890,0.32,-0.03,-25.19,-0.53,-3.57,38.90,-4.66,-0.14,35.95,12534.58,-0.98,16138.46
15,0,-483,-71,-329,3890,0.38,-0.02,-25.62,-0.71,-3.29,38.90,-4.66,-0.13,36.05,11969.08,445.38,18704.78
-8,2,-457,-116,-438,3904,0.29,-0.01,-25.85,-1.16,-4.38,39.04,-4.67,-0.13,36.15,13017.92,324.55,17976.97
-5,-9,-302,-110,-286,3870,0.23,-0.06,-25.10,-1.10,-2.86,38.70,-4.67,-0.12,36.25,13053.43,816.20,4569.81
-2,-4,-299,-146,-206,3885,0.20,-0.08,-24.42,-1.46,-2.06,38.85,-4.66,-0.11,36.35,13008.51,672.01,332.47
7,5,-408,-178,-167,3936,0.22,-0.04,-24.46,-1.78,-1.67,39.36,-4.64,-0.11,36.45,12602.20,244.39,6541.76
3,9,-450,-92,-228,3914,0.22,0.02,-24.76,-0.92,-2.28,39.14,-4.63,-0.10,36.55,12710.78,-63.55,10184.38
2,-2,-390,-28,-215,3869,0.21,0.00,-24.67,-0.28,-2.15,38.69,-4.61,-0.10,36.65,12716.92,356.03,5768.11
6,8,-373,-8,-217,3891,0.22,0.05,-24.47,-0.08,-2.17,38.91,-4.59,-0.11,36.74,12482.55,-100.26,3359.19
-10,-1,-410,-6,-248,3927,0.14,0.04,-24.53,-0.06,-2.48,39.27,-4.58,-0.11,36.84,13195.51,250.35,5405.07
8,-14,-436,53,-252,3960,0.17,-0.05,-24.73,0.53,-2.52,39.60,-4.56,-0.13,36.94,12439.71,983.64,7625.23
0,-6,-510,2,-278,3937,0.16,-0.08,-25.37,0.02,-2.78,39.37,-4.54,-0.13,37.04,12705.83,804.95,14934.06
-2,-4,-535,-29,-275,3880,0.13,-0.10,-26.10,-0.29,-2.75,38.80,-4.53,-0.13,37.14,12810.29,763.46,19849.23
12,12,-508,-84,-303,3927,0.19,-0.01,-26.59,-0.84,-3.03,39.27,-4.53,-0.12,37.25,12164.42,-31.08,20457.50
16,-1,-454,-28,-374,3922,0.27,-0.02,-26.70,-0.28,-3.74,39.22,-4.54,-0.12,37.36,11864.26,426.54,17469.16
13,-13,-327,-118,-314,3895,0.32,-0.10,-26.02,-1.18,-3.14,38.95,-4.54,-0.11,37.46,11828.49,1012.57,6038.58
3,-10,-315,-97,-264,3943,0.31,-0.15,-25.34,-0.97,-2.64,39.43,-4.53,-0.10,37.56,12181.68,1019.84,1291.84
0,-7,-290,20,-299,3939,0.28,-0.18,-24.58,0.20,-2.99,39.39,-4.52,-0.12,37.66,12323.53,1051.05,-4651.29
2,-7,-275,44,-264,3893,0.26,-0.20,-23.80,0.44,-2.64,38.93,-4.50,-0.14,37.75,12250.33,1173.90,-10078.94
-1,-8,-261,-4,-251,3862,0.23,-0.23,-23.01,-0.04,-2.51,38.62,-4.48,-0.15,37.85,12382.73,1293.25,-15475.04
-1,-12,-256,12,-284,3954,0.20,-0.28,-22.27,0.12,-2.84,39.54,-4.46,-0.16,37.94,12402.38,1588.72,-20076.66
1,-21,-272,-8,-187,3921,0.19,-0.38,-21.70,-0.08,-1.87,39.21,-4.44,-0.16,38.02,12314.61,2174.37,-22528.52
-5,-10,-282,-33,-225,3882,0.14,-0.40,-21.25,-0.33,-2.25,38.82,-4.43,-0.16,38.11,12600.54,1853.14,-24693.52
7,-14,-241,-8,-369,3943,0.17,-0.45,-20.60,-0.08,-3.69,39.43,-4.44,-0.16,38.19,12160.22,2116.47,-30915.98
8,-5,-242,-36,-463,3948,0.20,-0.43,-20.01,-0.36,-4.63,39.48,-4.46,-0.17,38.27,12089.53,1777.26,-34298.30
13,15,-318,55,-318,3880,0.26,-0.30,-19.95,0.55,-3.18,38.80,-4.46,-0.19,38.35,11776.53,809.74,-30519.66
12,1,-348,31,-291,3864,0.30,-0.26,-20.08,0.31,-2.91,38.64,-4.45,-0.21,38.43,11656.34,1264.36,-28414.03
7,7,-297,-94,-282,3846,0.32,-0.19,-19.88,-0.94,-2.82,38.46,-4.45,-0.20,38.51,11783.60,846.28,-32756.95
1,0,-272,-129,-244,3901,0.29,-0.17,-19.55,-1.29,-2.44,39.01,-4.44,-0.19,38.58,12032.13,1007.26,-36288.97
-5,-3,-221,-99,-327,3936,0.23,-0.18,-18.95,-0.99,-3.27,39.36,-4.44,-0.18,38.66,12400.15,1079.59,-42812.77
5,-4,-213,-85,-310,3918,0.24,-0.18,-18.35,-0.85,-3.10,39.18,-4.44,-0.17,38.73,12036.74,1097.49,-46756.80
1,10,-238,-92,-304,3915,0.22,-0.10,-17.97,-0.92,-3.04,39.15,-4.44,-0.16,38.80,12217.42,374.13,-47638.39
3,3,-237,-18,-293,3900,0.22,-0.07,-17.62,-0.18,-2.93,39.00,-4.43,-0.14,38.87,12138.24,507.09,-49857.66
7,6,-250,-23,-351,3882,0.24,-0.03,-17.38,-0.23,-3.51,38.82,-4.45,-0.14,38.94,11987.01,276.13,-50645.65
9,0,-237,-28,-341,3867,0.27,-0.03,-17.09,-0.28,-3.41,38.67,-4.46,-0.13,39.01,11872.43,454.13,-53241.62
8,-6,-160,-91,-420,3925,0.29,-0.06,-16.36,-0.91,-4.20,39.25,-4.47,-0.13,39.08,11885.82,729.05,-61909.48
5,-8,-144,-94,-346,3921,0.29,-0.10,-15.60,-0.94,-3.46,39.21,-4.48,-0.11,39.14,12000.55,874.67,-67139.38
9,-4,-215,-49,-243,3870,0.32,-0.12,-15.35,-0.49,-2.43,38.70,-4.46,-0.11,39.20,11753.87,752.37,-64575.89
3,-1,-239,-122,-252,3905,0.30,-0.11,-15.27,-1.22,-2.52,39.05,-4.46,-0.09,39.26,11971.65,600.38,-63835.84
0,-2,-277,-85,-341,3897,0.27,-0.11,-15.44,-0.85,-3.41,38.97,-4.46,-0.08,39.32,12170.64,603.46,-61002.71
11,0,-262,-66,-272,3910,0.31,-0.10,-15.49,-0.66,-2.72,39.10,-4.45,-0.07,39.38,11663.10,472.21,-61835.50
0,-9,-208,-124,-223,3893,0.28,-0.15,-15.21,-1.24,-2.23,38.93,-4.44,-0.06,39.45,12091.81,868.45,-66726.05
8,0,-226,-155,-253,3900,0.30,-0.13,-15.07,-1.55,-2.53,39.00,-4.43,-0.05,39.51,11743.72,485.21,-66681.22
4,4,-268,-120,-345,3938,0.30,-0.09,-15.20,-1.20,-3.45,39.38,-4.44,-0.04,39.57,11909.26,214.07,-63794.66
9,7,-273,-61,-362,3923,0.32,-0.04,-15.34,-0.61,-3.62,39.23,-4.45,-0.03,39.63,11703.35,-49.80,-62972.68
15,22,-233,-50,-435,3831,0.38,0.10,-15.23,-0.50,-4.35,38.31,-4.47,-0.03,39.69,11387.67,-932.07,-66153.51
14,15,-210,20,-290,3910,0.43,0.18,-14.99,0.20,-2.90,39.10,-4.45,-0.04,39.75,11260.11,-852.40,-69029.00
5,2,-162,-43,-344,3866,0.42,0.17,-14.48,-0.43,-3.44,38.66,-4.46,-0.03,39.81,11633.04,-418.31,-74788.49
-1,-2,-150,-77,-331,3868,0.37,0.14,-13.94,-0.77,-3.31,38.68,-4.47,-0.02,39.86,11977.50,-242.93,-78559.35
-11,-7,-84,8,-278,3884,0.26,0.09,-13.06,0.08,-2.78,38.84,-4.45,-0.03,39.91,12537.73,101.34,-87329.86
-12,-11,-68,3,-254,3884,0.17,0.01,-12.17,0.03,-2.54,38.84,-4.43,-0.03,39.96,12776.67,447.75,-93221.70
-11,-6,-30,13,-261,3903,0.08,-0.03,-11.14,0.13,-2.61,39.03,-4.41,-0.04,40.01,12907.65,397.19,-101141.29
-10,-8,-26,-1,-291,3911,0.01,-0.07,-10.18,-0.01,-2.91,39.11,-4.39,-0.04,40.05,13003.21,577.89,-106641.51
-8,-7,-25,-57,-281,3910,-0.04,-0.11,-9.32,-0.57,-2.81,39.10,-4.39,-0.02,40.08,13048.56,594.65,-111475.14
-6,-9,-31,-51,-272,3910,-0.07,-0.15,-8.57,-0.51,-2.72,39.10,-4.38,-0.01,40.12,13041.11,740.59,-115230.63
-9,-8,-30,-29,-331,3937,-0.12,-0.19,-7.90,-0.29,-3.31,39.37,-4.39,-0.00,40.15,13307.21,764.84,-119019.15
-10,-5,-16,-23,-319,3924,-0.17,-0.20,-7.21,-0.23,-3.19,39.24,-4.41,0.01,40.18,13503.29,658.96,-123650.20
7,24,-113,-149,-380,3894,-0.11,-0.03,-7.18,-1.49,-3.80,38.94,-4.41,0.02,40.21,12790.20,-810.83,-118279.70
14,21,-152,-82,-305,3948,-0.01,0.10,-7.38,-0.82,-3.05,39.48,-4.41,0.04,40.24,12299.45,-1096.73,-115005.83
5,8,-146,-18,-340,3850,0.02,0.14,-7.54,-0.18,-3.40,38.50,-4.43,0.04,40.27,12576.13,-763.38,-114665.05
0,3,-129,-37,-306,3874,0.02,0.14,-7.57,-0.37,-3.06,38.74,-4.44,0.06,40.30,12761.93,-650.14,-115601.30
-2,0,-134,68,-320,3922,0.00,0.13,-7.63,0.68,-3.20,39.22,-4.44,0.04,40.33,12878.43,-452.76,-115110.95
4,-1,-139,64,-299,3903,0.03,0.11,-7.72,0.64,-2.99,39.03,-4.44,0.02,40.36,12606.15,-310.59,-114491.16
6,4,-219,23,-275,3930,0.06,0.12,-8.28,0.23,-2.75,39.30,-4.42,0.01,40.39,12407.77,-478.16,-106947.06
7,5,-243,62,-202,3891,0.10,0.14,-8.93,0.62,-2.02,38.91,-4.41,-0.00,40.43,12232.56,-525.34,-102197.08
10,7,-319,-71,-282,3919,0.15,0.17,-9.99,-0.71,-2.82,39.19,-4.40,0.01,40.47,11980.20,-712.57,-92305.88
0,2,-259,-51,-374,3912,0.13,0.16,-10.57,-0.51,-3.74,39.12,-4.42,0.02,40.51,12404.97,-550.76,-92869.10
2,-6,-130,-162,-310,3894,0.13,0.11,-10.30,-1.62,-3.10,38.94,-4.42,0.03,40.55,12340.96,-182.43,-101964.62
-4,-6,-96,-146,-269,3881,0.10,0.06,-9.86,-1.46,-2.69,38.81,-4.41,0.05,40.59,12633.39,-101.87,-106482.53
-6,-6,-23,-82,-274,3896,0.05,0.02,-9.01,-0.82,-2.74,38.96,-4.41,0.06,40.63,12804.83,-32.37,-115401.41
-5,-5,-15,-71,-290,3891,0.01,-0.01,-8.20,-0.71,-2.90,38.91,-4.40,0.08,40.66,12854.84,-26.91,-120327.22
-7,-3,-7,-45,-299,3897,-0.03,-0.03,-7.43,-0.45,-2.99,38.97,-4.40,0.10,40.69,13037.30,-97.11,-125068.55
-8,-4,-5,-49,-303,3904,-0.08,-0.05,-6.71,-0.49,-3.03,39.04,-4.41,0.11,40.71,13194.73,-53.03,-129098.27
-5,-5,-4,-36,-306,3907,-0.10,-0.08,-6.07,-0.36,-3.06,39.07,-4.41,0.13,40.74,13161.61,1.77,-132711.38
-5,-4,-4,-43,-305,3919,-0.12,-0.09,-5.48,-0.43,-3.05,39.19,-4.41,0.14,40.76,13221.13,-35.68,-135911.08
-2,0,-2,-49,-295,3919,-0.12,-0.08,-4.95,-0.49,-2.95,39.19,-4.41,0.16,40.78,13110.47,-244.04,-138972.72
5,2,-3,-101,-335,3887,-0.08,-0.06,-4.47,-1.01,-3.35,38.87,-4.41,0.17,40.80,12779.51,-410.83,-141532.73
8,8,-6,1,-271,3896,-0.02,-0.01,-4.06,0.01,-2.71,38.96,-4.40,0.17,40.81,12481.22,-735.73,-143617.08
7,6,-1,-11,-283,3886,0.02,0.03,-3.66,-0.11,-2.83,38.86,-4.38,0.17,40.83,12346.19,-760.21,-146104.80
-4,-6,35,-112,-388,3951,-0.00,-0.01,-3.08,-1.12,-3.88,39.51,-4.39,0.18,40.84,12828.59,-282.03,-151349.95
3,9,25,-142,-146,3777,0.02,0.05,-2.62,-1.42,-1.46,37.77,-4.38,0.19,40.85,12500.23,-977.11,-153270.52
5,6,2,-6,-278,3900,0.04,0.08,-2.35,-0.06,-2.78,39.00,-4.36,0.18,40.86,12305.75,-939.08,-153433.20
10,4,-9,-41,-274,3940,0.10,0.09,-2.17,-0.41,-2.74,39.40,-4.35,0.20,40.87,11949.60,-951.38,-153787.48
-1,9,-20,-17,-177,3895,0.09,0.14,-2.07,-0.17,-1.77,38.95,-4.33,0.20,40.88,12316.50,-1242.99,-153685.64
-1,3,-37,-26,-154,3902,0.07,0.14,-2.09,-0.26,-1.54,39.02,-4.31,0.20,40.89,12301.16,-1052.31,-152629.80
-3,4,-106,-11,-233,3896,0.05,0.15,-2.53,-0.11,-2.33,38.96,-4.29,0.20,40.90,12382.71,-1110.02,-146311.14
-2,4,-127,45,-210,3863,0.03,0.16,-3.05,0.45,-2.10,38.63,-4.28,0.19,40.91,12348.92,-1101.39,-142348.25
2,5,-88,-9,-325,3923,0.04,0.18,-3.28,-0.09,-3.25,39.23,-4.30,0.18,40.92,12239.09,-1165.50,-143436.73
3,4,-82,-1,-271,3911,0.05,0.18,-3.45,-0.01,-2.71,39.11,-4.28,0.18,40.94,12119.38,-1123.52,-142923.39
3,6,-146,-41,-205,3840,0.07,0.20,-4.00,-0.41,-2.05,38.40,-4.26,0.18,40.95,12034.98,-1256.24,-136344.83
5,6,-157,-31,-230,3890,0.09,0.22,-4.56,-0.31,-2.30,38.90,-4.24,0.19,40.97,11852.57,-1313.21,-132797.42
5,-3,-188,-61,-319,3893,0.11,0.18,-5.25,-0.61,-3.19,38.93,-4.25,0.20,40.99,11823.31,-941.63,-127383.44
1,2,-185,-88,-336,3905,0.11,0.17,-5.85,-0.88,-3.36,39.05,-4.26,0.22,41.01,12000.51,-1141.01,-124427.99
3,6,-140,-67,-388,3896,0.11,0.19,-6.12,-0.67,-3.88,38.96,-4.28,0.22,41.04,11957.16,-1350.79,-125714.36
3,0,-137,-64,-344,3909,0.12,0.17,-6.34,-0.64,-3.44,39.09,-4.29,0.23,41.06,11976.38,-1127.29,-124797.46
6,-6,-125,-38,-452,3893,0.15,0.12,-6.47,-0.38,-4.52,38.93,-4.31,0.24,41.09,11860.27,-783.67,-124917.89
-1,0,-76,-39,-363,3933,0.12,0.11,-6.29,-0.39,-3.63,39.33,-4.33,0.24,41.11,12203.49,-971.96,-128857.34
-6,-3,-94,-120,-408,3892,0.08,0.08,-6.23,-1.20,-4.08,38.92,-4.34,0.25,41.14,12541.52,-824.42,-128205.69
-1,-8,-70,-64,-654,4017,0.06,0.02,-6.04,-0.64,-6.54,40.17,-4.36,0.25,41.16,12456.95,-507.07,-130751.57
10,0,-40,-85,-338,3904,0.12,0.02,-5.68,-0.85,-3.38,39.04,-4.37,0.27,41.19,11962.01,-817.32,-134514.03
-7,-3,-12,-25,-402,3891,0.06,-0.00,-5.18,-0.25,-4.02,38.91,-4.38,0.27,41.21,12740.42,-660.37,-138872.38
-8,-4,-20,-77,-325,3894,0.01,-0.03,-4.79,-0.77,-3.25,38.94,-4.39,0.28,41.23,12939.77,-606.50,-140600.78
-7,-5,-22,-27,-275,3892,-0.04,-0.05,-4.44,-0.27,-2.75,38.92,-4.37,0.28,41.24,12968.88,-511.41,-142395.95
-8,-16,-57,-2,-211,3865,-0.08,-0.15,-4.35,-0.02,-2.11,38.65,-4.36,0.28,41.26,13070.25,123.09,-140941.16
-8,-16,-87,17,-239,3904,-0.12,-0.23,-4.44,0.17,-2.39,39.04,-4.34,0.27,41.28,13132.75,373.46,-138750.06
13,13,-260,106,-373,3959,-0.03,-0.13,-5.58,1.06,-3.73,39.59,-4.35,0.25,41.30,12199.54,-837.67,-122656.11
11,8,-308,44,-338,3885,0.04,-0.06,-6.90,0.44,-3.38,38.85,-4.36,0.23,41.33,12115.85,-775.22,-112915.37
-4,0,-253,-60,-281,3839,0.01,-0.06,-7.76,-0.60,-2.81,38.39,-4.36,0.25,41.36,12692.25,-560.62,-111689.86
1,-7,-213,-119,-250,3863,0.02,-0.10,-8.28,-1.19,-2.50,38.63,-4.35,0.26,41.39,12486.56,-264.19,-111357.75
-1,0,-179,-259,-317,3916,0.01,-0.09,-8.54,-2.59,-3.17,39.16,-4.35,0.28,41.43,12579.98,-574.06,-112068.12
5,5,-193,-211,-296,3912,0.04,-0.05,-8.87,-2.11,-2.96,39.12,-4.35,0.29,41.46,12296.06,-892.34,-109670.57
7,9,-202,-27,-350,3917,0.08,0.01,-9.21,-0.27,-3.50,39.17,-4.37,0.29,41.50,12178.08,-1184.02,-107449.72
4,7,-174,-27,-304,3922,0.09,0.05,-9.35,-0.27,-3.04,39.22,-4.38,0.30,41.54,12264.99,-1260.42,-108484.80
3,5,-160,-33,-309,3877,0.10,0.08,-9.39,-0.33,-3.09,38.77,-4.39,0.31,41.57,12312.52,-1287.27,-109235.74
3,-7,-131,-69,-307,3888,0.11,0.03,-9.25,-0.69,-3.07,38.88,-4.39,0.33,41.61,12300.13,-787.05,-111825.30
2,-7,-121,-92,-325,3889,0.11,-0.02,-9.07,-0.92,-3.25,38.89,-4.40,0.34,41.65,12349.48,-709.82,-113555.42
13,12,-156,-117,-326,3901,0.18,0.06,-9.11,-1.17,-3.26,39.01,-4.41,0.36,41.68,11806.51,-1601.80,-111422.55
13,14,-164,-132,-344,3876,0.24,0.14,-9.20,-1.32,-3.44,38.76,-4.41,0.37,41.72,11665.44,-1919.86,-110628.49
2,-3,-148,15,-278,3884,0.23,0.11,-9.18,0.15,-2.78,38.84,-4.40,0.36,41.76,12047.95,-1198.08,-111801.71
-1,-7,-140,-10,-290,3889,0.20,0.05,-9.12,-0.10,-2.90,38.89,-4.39,0.34,41.79,12195.88,-870.31,-112759.04
-1,-13,-131,-41,-312,3931,0.17,-0.03,-9.01,-0.41,-3.12,39.31,-4.40,0.35,41.83,12288.58,-481.68,-114032.16
-1,-8,-138,-84,-342,3936,0.15,-0.08,-8.95,-0.84,-3.42,39.36,-4.41,0.36,41.86,12377.56,-570.56,-114083.27
7,1,-148,-39,-287,3904,0.18,-0.06,-8.96,-0.39,-2.87,39.04,-4.40,0.37,41.90,11991.94,-945.21,-113601.76
8,0,-145,-15,-234,3901,0.21,-0.06,-8.94,-0.15,-2.34,39.01,-4.38,0.37,41.94,11823.08,-910.59,-113979.80
3,-10,-114,20,-255,3887,0.21,-0.11,-8.75,0.20,-2.55,38.87,-4.36,0.35,41.97,11963.85,-375.45,-116991.19
4,-6,-106,-45,-234,3902,0.21,-0.14,-8.52,-0.45,-2.34,39.02,-4.35,0.35,42.00,11867.76,-454.71,-118812.51
4,-5,-76,-34,-255,3902,0.21,-0.15,-8.13,-0.34,-2.55,39.02,-4.33,0.35,42.04,11805.74,-449.05,-122765.78
-6,-5,-75,8,-282,3906,0.16,-0.17,-7.77,0.08,-2.82,39.06,-4.32,0.33,42.07,12278.73,-352.48,-124848.45
-1,-4,-79,-1,-275,3898,0.13,-0.18,-7.48,-0.01,-2.75,38.98,-4.31,0.32,42.10,12126.90,-319.56,-126314.45
-4,-4,-80,-76,-240,3891,0.10,-0.18,-7.22,-0.76,-2.40,38.91,-4.29,0.33,42.13,12290.90,-331.70,-127760.70
-3,-5,-84,-99,-236,3908,0.07,-0.20,-7.01,-0.99,-2.36,39.08,-4.28,0.34,42.15,12297.12,-299.83,-128759.54
2,6,-94,23,-303,3927,0.07,-0.14,-6.88,0.23,-3.03,39.27,-4.29,0.32,42.18,12120.68,-764.84,-128969.16
1,6,-82,40,-304,3906,0.07,-0.09,-6.69,0.40,-3.04,39.06,-4.29,0.30,42.21,12167.36,-837.51,-130781.11
6,6,-65,-26,-319,3927,0.10,-0.04,-6.42,-0.26,-3.19,39.27,-4.31,0.30,42.23,11969.75,-961.41,-133334.09
4,7,-65,-31,-311,3911,0.12,0.00,-6.18,-0.31,-3.11,39.11,-4.32,0.31,42.26,12045.16,-1141.30,-134746.39
-11,-2,-13,-111,-119,3805,0.04,-0.01,-5.64,-1.11,-1.19,38.05,-4.31,0.32,42.28,12719.25,-819.15,-140743.81
1,9,-36,58,-279,3868,0.04,0.05,-5.29,0.58,-2.79,38.68,-4.30,0.30,42.30,12292.11,-1286.35,-141327.20
-8,-4,-8,-33,-303,3905,-0.01,0.02,-4.81,-0.33,-3.03,39.05,-4.31,0.31,42.32,12770.10,-802.67,-145604.52
-9,-3,-1,-20,-297,3908,-0.07,-0.00,-4.34,-0.20,-2.97,39.08,-4.33,0.30,42.34,12991.16,-755.45,-148621.56
-3,-2,7,-36,-286,3912,-0.08,-0.01,-3.86,-0.36,-2.86,39.12,-4.32,0.31,42.35,12786.99,-799.35,-151695.47
1,-1,6,-43,-290,3907,-0.06,-0.02,-3.44,-0.43,-2.90,39.07,-4.32,0.33,42.37,12601.67,-869.89,-153950.98
5,3,15,-34,-290,3894,-0.03,0.00,-3.00,-0.34,-2.90,38.94,-4.31,0.35,42.38,12351.22,-1107.49,-156849.75
4,3,14,-42,-279,3878,-0.00,0.02,-2.62,-0.42,-2.79,38.78,-4.30,0.36,42.39,12284.22,-1195.65,-158894.16
1,16,18,-75,-314,3892,0.01,0.11,-2.25,-0.75,-3.14,38.92,-4.31,0.38,42.40,12392.11,-1939.85,-161148.81
1,16,18,-60,-315,3912,0.01,0.20,-1.91,-0.60,-3.15,39.12,-4.32,0.39,42.41,12404.76,-2210.00,-162966.66
5,15,17,-50,-300,3905,0.04,0.27,-1.62,-0.50,-3.00,39.05,-4.32,0.41,42.41,12202.01,-2414.72,-164510.09
8,9,11,-26,-306,3896,0.09,0.30,-1.39,-0.26,-3.06,38.96,-4.34,0.41,42.42,12033.54,-2273.07,-165405.84
2,-1,14,-60,-313,3888,0.09,0.26,-1.16,-0.60,-3.13,38.88,-4.35,0.43,42.42,12255.29,-1883.36,-166797.80
1,-1,12,-68,-313,3886,0.09,0.23,-0.97,-0.68,-3.13,38.86,-4.35,0.44,42.43,12317.77,-1848.89,-167710.20
-2,-1,6,-55,-301,3888,0.07,0.20,-0.84,-0.55,-3.01,38.88,-4.36,0.46,42.43,12484.73,-1826.31,-168090.33
-3,-1,5,-46,-297,3889,0.04,0.18,-0.73,-0.46,-2.97,38.89,-4.36,0.48,42.43,12585.61,-1812.11,-168655.75
-2,-2,3,-49,-299,3907,0.02,0.15,-0.63,-0.49,-2.99,39.07,-4.36,0.50,42.44,12597.23,-1754.13,-169035.05
-2,-2,1,-49,-296,3908,0.01,0.12,-0.57,-0.49,-2.96,39.08,-4.36,0.52,42.44,12628.32,-1737.75,-169299.30
2,1,2,-36,-300,3910,0.02,0.11,-0.50,-0.36,-3.00,39.10,-4.38,0.52,42.44,12512.37,-1840.18,-169733.52
2,2,3,-43,-303,3904,0.03,0.11,-0.43,-0.43,-3.03,39.04,-4.38,0.54,42.44,12512.69,-1923.25,-170162.17
-1,2,4,-50,-310,3892,0.02,0.12,-0.36,-0.50,-3.10,38.92,-4.40,0.55,42.44,12674.35,-1966.11,-170586.17
0,1,3,-51,-310,3885,0.02,0.11,-0.31,-0.51,-3.10,38.85,-4.41,0.57,42.45,12679.54,-1959.02,-170824.16
-3,-3,3,-34,-312,3902,-0.00,0.08,-0.26,-0.34,-3.12,39.02,-4.42,0.56,42.45,12884.06,-1725.20,-171090.77
-3,-4,3,-35,-307,3902,-0.02,0.05,-0.21,-0.35,-3.07,39.02,-4.44,0.55,42.45,12975.96,-1577.77,-171330.34
-4,-3,5,-39,-308,3907,-0.04,0.02,-0.16,-0.39,-3.08,39.07,-4.46,0.56,42.45,13120.14,-1566.88,-171727.36
-3,-3,5,-41,-305,3918,-0.06,0.00,-0.12,-0.41,-3.05,39.18,-4.46,0.57,42.45,13114.73,-1565.01,-171978.58
5,5,9,-32,-354,3901,-0.02,0.03,-0.05,-0.32,-3.54,39.01,-4.47,0.57,42.45,12798.25,-1911.24,-172568.14
1,7,16,-23,-333,3903,-0.01,0.07,0.05,-0.23,-3.33,39.03,-4.49,0.56,42.45,12960.68,-2056.50,-173523.48
0,-2,65,-21,-361,3886,-0.01,0.05,0.44,-0.21,-3.61,38.86,-4.51,0.56,42.45,13042.61,-1681.42,-178462.88
0,-2,70,-68,-304,3901,-0.01,0.04,0.83,-0.68,-3.04,39.01,-4.50,0.58,42.44,13033.85,-1689.42,-180784.50
0,-12,32,-50,-287,3893,-0.01,-0.04,0.94,-0.50,-2.87,38.93,-4.49,0.58,42.44,12985.06,-1171.31,-179154.45
-3,-12,32,-44,-321,3904,-0.03,-0.11,1.04,-0.44,-3.21,39.04,-4.51,0.59,42.44,13184.75,-1005.17,-179678.95
-3,-18,22,-44,-270,3890,-0.04,-0.21,1.07,-0.44,-2.70,38.90,-4.49,0.59,42.43,13173.49,-545.80,-179238.47
-2,-15,16,-30,-269,3915,-0.05,-0.28,1.06,-0.30,-2.69,39.15,-4.47,0.59,42.43,13109.57,-448.95,-178819.66
-3,-7,6,-35,-286,3922,-0.06,-0.29,0.99,-0.35,-2.86,39.22,-4.45,0.58,42.42,13128.10,-670.27,-177847.94
-1,-4,6,-37,-294,3930,-0.06,-0.29,0.93,-0.37,-2.94,39.30,-4.44,0.58,42.42,13008.10,-771.55,-177497.33
4,4,12,-37,-303,3908,-0.03,-0.24,0.91,-0.37,-3.03,39.08,-4.43,0.56,42.42,12753.00,-1130.65,-177726.48
3,5,14,-47,-309,3912,-0.01,-0.18,0.90,-0.47,-3.09,39.12,-4.44,0.57,42.41,12759.59,-1349.21,-177798.83
-1,3,10,-28,-287,3894,-0.02,-0.15,0.87,-0.28,-2.87,38.94,-4.43,0.56,42.41,12867.10,-1344.08,-177393.59
-2,1,7,-28,-291,3900,-0.03,-0.12,0.83,-0.28,-2.91,39.00,-4.42,0.55,42.41,12890.62,-1292.31,-176965.38
-6,-2,6,-37,-321,3891,-0.06,-0.12,0.78,-0.37,-3.21,38.91,-4.43,0.55,42.40,13170.00,-1188.20,-176647.08
-7,-4,2,-43,-304,3907,-0.10,-0.14,0.72,-0.43,-3.04,39.07,-4.44,0.56,42.40,13310.19,-1139.43,-176048.80
-9,1,1,23,-254,3860,-0.14,-0.12,0.65,0.23,-2.54,38.60,-4.43,0.55,42.40,13466.63,-1319.54,-175628.69
-7,-1,-1,17,-305,3887,-0.17,-0.11,0.58,0.17,-3.05,38.87,-4.43,0.53,42.39,13477.74,-1211.62,-175121.80
-4,-3,1,-26,-309,3926,-0.18,-0.12,0.53,-0.26,-3.09,39.26,-4.44,0.51,42.39,13417.78,-1075.10,-174952.44
-3,-3,4,-37,-308,3931,-0.18,-0.12,0.50,-0.37,-3.08,39.31,-4.45,0.52,42.39,13432.93,-1082.81,-174967.59
-2,0,4,-34,-279,3952,-0.17,-0.11,0.47,-0.34,-2.79,39.52,-4.44,0.52,42.39,13333.15,-1213.61,-174822.31
1,-1,1,-24,-283,3934,-0.15,-0.11,0.43,-0.24,-2.83,39.34,-4.42,0.51,42.39,13124.25,-1166.77,-174418.80
8,3,2,-58,-291,3915,-0.09,-0.08,0.40,-0.58,-2.91,39.15,-4.41,0.53,42.38,12694.50,-1426.40,-174303.91
10,4,2,-53,-300,3913,-0.02,-0.05,0.37,-0.53,-3.00,39.13,-4.41,0.55,42.38,12438.54,-1596.96,-174148.14
10,6,6,-52,-299,3892,0.05,-0.00,0.37,-0.52,-2.99,38.92,-4.41,0.56,42.38,12270.57,-1825.93,-174370.88
3,0,1,-60,-262,3914,0.06,-0.00,0.34,-0.60,-2.62,39.14,-4.39,0.57,42.38,12428.54,-1646.01,-173906.42
4,-2,-7,-59,-327,3889,0.08,-0.02,0.27,-0.59,-3.27,38.89,-4.41,0.58,42.38,12388.49,-1577.15,-173025.59
1,-2,-5,-53,-308,3882,0.08,-0.03,0.21,-0.53,-3.08,38.82,-4.42,0.60,42.38,12524.36,-1593.65,-172834.59
-2,-1,-15,-60,-277,3935,0.06,-0.03,0.10,-0.60,-2.77,39.35,-4.40,0.61,42.38,12635.19,-1649.01,-171649.45
-6,-6,-12,-31,-324,3891,0.01,-0.06,0.01,-0.31,-3.24,38.91,-4.42,0.60,42.38,12931.10,-1367.87,-171382.48
-10,-14,-16,-26,-297,3898,-0.05,-0.14,-0.09,-0.26,-2.97,38.98,-4.41,0.58,42.38,13217.45,-834.40,-170621.98
-10,-15,-18,-41,-289,3891,-0.10,-0.22,-0.19,-0.41,-2.89,38.91,-4.40,0.59,42.38,13312.41,-602.01,-169966.70
-12,-11,-31,-81,-304,3882,-0.17,-0.27,-0.36,-0.81,-3.04,38.82,-4.40,0.60,42.38,13553.54,-671.35,-168304.14
-14,-11,-37,-49,-316,3902,-0.24,-0.31,-0.55,-0.49,-3.16,39.02,-4.42,0.61,42.38,13851.12,-585.32,-166948.78
-25,-18,-26,-29,-316,3909,-0.36,-0.38,-0.65,-0.29,-3.16,39.09,-4.43,0.59,42.39,14608.42,-97.88,-167045.73
-21,-19,-44,-99,-365,3889,-0.46,-0.46,-0.85,-0.99,-3.65,38.89,-4.45,0.61,42.39,14753.47,108.18,-164924.38
-17,-13,-32,18,-280,3936,-0.51,-0.50,-0.96,0.18,-2.80,39.36,-4.44,0.59,42.39,14751.87,42.90,-165052.20
-16,-11,-21,5,-300,3933,-0.56,-0.51,-1.00,0.05,-3.00,39.33,-4.44,0.57,42.40,14837.77,79.15,-165539.58
-2,-3,-5,-26,-299,3928,-0.52,-0.48,-0.93,-0.26,-2.99,39.28,-4.44,0.55,42.40,14225.46,-227.74,-166855.44
3,0,-4,-30,-291,3918,-0.45,-0.43,-0.86,-0.30,-2.91,39.18,-4.42,0.54,42.40,13831.02,-423.57,-167291.36
17,10,-2,-69,-319,3908,-0.30,-0.33,-0.78,-0.69,-3.19,39.08,-4.43,0.55,42.41,12991.30,-1081.12,-167814.09
12,8,-3,-41,-264,3932,-0.20,-0.25,-0.72,-0.41,-2.64,39.32,-4.41,0.55,42.41,12844.95,-1225.12,-168088.08
9,11,-1,-19,-303,3881,-0.12,-0.15,-0.66,-0.19,-3.03,38.81,-4.42,0.53,42.41,12765.49,-1512.46,-168569.86
9,11,-1,-22,-312,3902,-0.05,-0.07,-0.60,-0.22,-3.12,39.02,-4.43,0.52,42.41,12623.11,-1683.09,-168899.00
5,7,2,-33,-321,3877,-0.02,-0.02,-0.53,-0.33,-3.21,38.77,-4.45,0.51,42.42,12720.14,-1669.28,-169468.06
2,5,4,-43,-320,3878,-0.00,0.01,-0.45,-0.43,-3.20,38.78,-4.46,0.52,42.42,12835.34,-1706.57,-170004.19
-3,2,5,-30,-310,3900,-0.02,0.02,-0.37,-0.30,-3.10,39.00,-4.48,0.51,42.42,13091.07,-1594.33,-170472.16
-1,1,7,-18,-318,3888,-0.03,0.03,-0.29,-0.18,-3.18,38.88,-4.49,0.49,42.42,13066.14,-1529.09,-171021.91
3,1,15,-47,-283,3915,-0.00,0.03,-0.17,-0.47,-2.83,39.15,-4.47,0.50,42.42,12827.82,-1563.56,-172136.34
5,2,13,-57,-278,3921,0.03,0.04,-0.08,-0.57,-2.78,39.21,-4.46,0.51,42.42,12636.52,-1655.10,-172536.69
11,8,14,-14,-296,3928,0.09,0.08,0.02,-0.14,-2.96,39.28,-4.45,0.50,42.42,12238.44,-1931.68,-173091.64
5,12,17,18,-251,3902,0.11,0.15,0.12,0.18,-2.51,39.02,-4.44,0.49,42.42,12350.18,-2202.61,-173809.50
9,13,22,-46,-307,3916,0.16,0.21,0.24,-0.46,-3.07,39.16,-4.44,0.50,42.42,12109.81,-2458.76,-174751.08
10,14,32,-26,-276,3918,0.20,0.28,0.41,-0.26,-2.76,39.18,-4.42,0.50,42.42,11904.37,-2648.11,-176241.12
10,13,39,-40,-306,3892,0.24,0.33,0.61,-0.40,-3.06,38.92,-4.43,0.52,42.42,11829.35,-2792.61,-177691.05
10,8,36,-43,-311,3898,0.28,0.34,0.77,-0.43,-3.11,38.98,-4.45,0.53,42.41,11769.88,-2701.80,-178352.67
0,-7,91,-26,-362,3909,0.25,0.27,1.25,-0.26,-3.62,39.09,-4.46,0.53,42.41,12235.35,-1980.09,-184095.08
-3,-3,80,-89,-324,3893,0.21,0.22,1.61,-0.89,-3.24,38.93,-4.47,0.55,42.40,12467.64,-2054.01,-185369.95
-1,1,44,-28,-309,3910,0.18,0.21,1.72,-0.28,-3.09,39.10,-4.47,0.53,42.40,12484.61,-2103.83,-183818.47
3,2,45,-14,-330,3873,0.18,0.20,1.82,-0.14,-3.30,38.73,-4.49,0.52,42.39,12385.05,-2086.75,-184397.47
-6,-2,127,41,-433,3897,0.13,0.17,2.41,0.41,-4.33,38.97,-4.50,0.51,42.38,12880.44,-1842.74,-192305.72
0,-11,137,-82,-394,3891,0.11,0.08,3.01,-0.82,-3.94,38.91,-4.52,0.52,42.37,12751.77,-1344.19,-196016.67
1,-4,78,-62,-323,3934,0.11,0.05,3.18,-0.62,-3.23,39.34,-4.52,0.54,42.35,12751.82,-1551.55,-193462.09
1,-2,78,-11,-313,3925,0.10,0.03,3.34,-0.11,-3.13,39.25,-4.53,0.52,42.34,12767.37,-1526.42,-194250.22
1,3,152,61,-417,3902,0.10,0.05,3.93,0.61,-4.17,39.02,-4.54,0.51,42.33,12816.23,-1706.40,-201670.02
-7,-6,181,29,-314,3901,0.05,0.01,4.64,0.29,-3.14,39.01,-4.54,0.50,42.31,13230.88,-1240.76,-207082.97
-4,-5,202,-3,-327,3899,0.02,-0.03,5.41,-0.03,-3.27,38.99,-4.55,0.48,42.29,13228.52,-1152.77,-212322.02
-4,-6,211,-21,-331,3915,-0.01,-0.06,6.16,-0.21,-3.31,39.15,-4.56,0.47,42.26,13341.08,-1006.91,-216732.78
3,9,277,-24,-344,3896,0.01,0.00,7.23,-0.24,-3.44,38.96,-4.58,0.47,42.23,13100.86,-1674.81,-226201.23
-6,6,287,-16,-379,3915,-0.03,0.04,8.26,-0.16,-3.79,39.15,-4.60,0.47,42.20,13559.16,-1661.61,-232140.97
-8,-2,297,1,-313,3909,-0.07,0.02,9.24,0.01,-3.13,39.09,-4.60,0.45,42.16,13745.54,-1300.70,-237841.06
-11,-5,297,-30,-264,3912,-0.13,-0.01,10.13,-0.30,-2.64,39.12,-4.58,0.46,42.12,13952.11,-1120.52,-242416.64
-11,-4,259,-81,-303,3911,-0.19,-0.03,10.70,-0.81,-3.03,39.11,-4.58,0.48,42.08,14082.51,-1155.52,-243056.08
-2,2,266,-120,-360,3894,-0.18,-0.02,11.25,-1.20,-3.60,38.94,-4.59,0.50,42.03,13782.60,-1458.98,-246235.36
-4,-2,283,-108,-429,3878,-0.19,-0.03,11.85,-1.08,-4.29,38.78,-4.60,0.51,41.99,13913.61,-1333.23,-250246.72
-12,-4,271,-122,-291,3924,-0.24,-0.05,12.32,-1.22,-2.91,39.24,-4.60,0.53,41.94,14317.64,-1270.18,-251847.11
2,5,230,-96,-377,3900,-0.20,-0.01,12.49,-0.96,-3.77,39.00,-4.61,0.55,41.89,13781.06,-1719.83,-250169.00
-9,-9,214,-102,-309,3965,-0.24,-0.07,12.55,-1.02,-3.09,39.65,-4.61,0.57,41.84,14241.52,-1162.36,-249333.70
-4,0,201,-51,-360,3912,-0.24,-0.06,12.52,-0.51,-3.60,39.12,-4.63,0.58,41.79,14123.09,-1514.17,-248220.84
-1,-2,200,-93,-377,3908,-0.22,-0.07,12.49,-0.93,-3.77,39.08,-4.64,0.60,41.74,14014.15,-1475.38,-247790.53
-1,1,192,-40,-302,3955,-0.21,-0.05,12.41,-0.40,-3.02,39.55,-4.62,0.60,41.69,13920.52,-1619.54,-246708.50
-1,-20,146,-116,-67,3817,-0.19,-0.17,12.06,-1.16,-0.67,38.17,-4.61,0.61,41.64,13833.26,-619.18,-241959.23
-14,-8,142,-114,-181,3842,-0.26,-0.20,11.72,-1.14,-1.81,38.42,-4.59,0.62,41.59,14408.49,-984.26,-239720.42
-1,-1,115,-95,-288,3923,-0.24,-0.19,11.25,-0.95,-2.88,39.23,-4.58,0.64,41.55,13887.39,-1317.27,-235450.53
-3,-4,106,-111,-360,3924,-0.23,-0.19,10.77,-1.11,-3.60,39.24,-4.59,0.66,41.51,13972.78,-1251.20,-232196.41
4,2,154,-104,-368,3914,-0.18,-0.16,10.63,-1.04,-3.68,39.14,-4.61,0.67,41.46,13644.23,-1586.99,-234087.03
8,-3,161,-75,-332,3928,-0.12,-0.16,10.55,-0.75,-3.32,39.28,-4.61,0.69,41.42,13356.66,-1464.13,-233890.64
0,2,132,0,-222,3877,-0.11,-0.14,10.30,0.00,-2.22,38.77,-4.60,0.69,41.38,13554.15,-1694.42,-230696.94
1,-4,124,23,-220,3883,-0.09,-0.15,10.03,0.23,-2.20,38.83,-4.58,0.68,41.34,13433.88,-1435.67,-228604.70
-2,3,101,-9,-236,3911,-0.09,-0.11,9.64,-0.09,-2.36,39.11,-4.57,0.67,41.30,13497.85,-1746.86,-225041.05
-3,3,104,0,-271,3901,-0.10,-0.08,9.31,0.00,-2.71,39.01,-4.55,0.66,41.26,13520.77,-1792.03,-223302.84
0,-3,57,7,-193,3909,-0.09,-0.09,8.73,0.07,-1.93,39.09,-4.54,0.66,41.23,13342.79,-1545.50,-217303.86
-2,1,51,25,-218,3921,-0.09,-0.08,8.17,0.25,-2.18,39.21,-4.52,0.65,41.20,13377.38,-1698.19,-213820.08
2,6,31,9,-243,3918,-0.07,-0.03,7.54,0.09,-2.43,39.18,-4.51,0.64,41.17,13142.10,-1959.31,-209178.84
5,7,26,-15,-263,3915,-0.03,0.01,6.94,-0.15,-2.63,39.15,-4.49,0.63,41.14,12895.45,-2091.97,-205593.92
14,10,28,-39,-309,3924,0.05,0.07,6.42,-0.39,-3.09,39.24,-4.50,0.61,41.11,12360.97,-2304.97,-202809.55
16,9,31,-57,-329,3922,0.15,0.12,5.97,-0.57,-3.29,39.22,-4.51,0.63,41.09,12092.75,-2432.33,-200468.89
16,14,65,-57,-359,3913,0.23,0.19,5.77,-0.57,-3.59,39.13,-4.53,0.63,41.07,11924.35,-2817.00,-201288.73
13,7,68,-40,-313,3909,0.29,0.22,5.61,-0.40,-3.13,39.09,-4.54,0.62,41.04,11914.86,-2607.93,-200508.81
7,4,66,17,-356,3906,0.30,0.22,5.45,0.17,-3.56,39.06,-4.55,0.61,41.02,12112.52,-2477.45,-199461.28
1,2,94,54,-429,3890,0.28,0.21,5.48,0.54,-4.29,38.90,-4.56,0.60,41.00,12418.35,-2357.69,-201158.84
-6,-10,189,112,-339,3882,0.21,0.13,6.08,1.12,-3.39,38.82,-4.56,0.59,40.98,12832.87,-1686.78,-209832.14
-2,-5,200,93,-280,3870,0.18,0.08,6.69,0.93,-2.80,38.70,-4.56,0.57,40.95,12768.04,-1701.63,-213634.03
-8,-8,173,-26,-259,3871,0.11,0.03,7.08,-0.26,-2.59,38.71,-4.54,0.57,40.92,13094.54,-1443.14,-214007.20
-7,-9,162,-61,-254,3929,0.06,-0.03,7.36,-0.61,-2.54,39.29,-4.52,0.58,40.89,13149.33,-1283.90,-214743.77
1,3,208,-95,-419,3973,0.06,-0.01,7.89,-0.95,-4.19,39.73,-4.54,0.59,40.86,12918.51,-1783.78,-220144.83
3,2,230,-72,-436,3957,0.07,0.00,8.51,-0.72,-4.36,39.57,-4.55,0.60,40.83,12866.54,-1804.40,-224569.48
8,10,346,-11,-442,3923,0.11,0.06,9.77,-0.11,-4.42,39.23,-4.57,0.60,40.79,12634.92,-2234.96,-237905.53
20,8,380,20,-389,3905,0.22,0.11,11.11,0.20,-3.89,39.05,-4.58,0.59,40.74,11971.47,-2254.90,-246874.94
2,-5,456,-98,-142,3790,0.21,0.07,12.78,-0.98,-1.42,37.90,-4.57,0.60,40.69,12563.33,-1731.26,-260024.30
-2,-26,522,-168,-13,3769,0.18,-0.10,14.68,-1.68,-0.13,37.69,-4.55,0.61,40.63,12735.99,-613.17,-273817.94
-25,-9,590,-93,-233,3909,0.01,-0.14,16.82,-0.93,-2.33,39.09,-4.53,0.63,40.57,13924.22,-1123.78,-288891.22
-15,5,527,-103,-250,3981,-0.08,-0.10,18.35,-1.03,-2.50,39.81,-4.52,0.64,40.49,13780.12,-1773.41,-293112.56
-2,11,299,-139,-236,3951,-0.09,-0.02,18.34,-1.39,-2.36,39.51,-4.51,0.66,40.42,13308.46,-2237.89,-279466.94
2,9,252,-96,-225,3932,-0.07,0.03,18.04,-0.96,-2.25,39.32,-4.49,0.68,40.35,13069.36,-2361.53,-274850.25
11,-3,278,-66,-126,3883,0.01,0.01,17.93,-0.66,-1.26,38.83,-4.47,0.69,40.28,12512.95,-1914.34,-275496.12
4,-2,324,-80,-180,3908,0.03,-0.00,18.12,-0.80,-1.80,39.08,-4.45,0.70,40.20,12638.24,-1943.41,-278861.75
-7,5,360,-1,-329,3901,-0.01,0.03,18.50,-0.01,-3.29,39.01,-4.46,0.69,40.13,13158.56,-2234.07,-282715.00
9,6,342,-36,-308,3910,0.04,0.06,18.74,-0.36,-3.08,39.10,-4.46,0.68,40.06,12472.56,-2322.40,-282624.62
0,5,366,-46,-275,3863,0.04,0.09,19.10,-0.46,-2.75,38.63,-4.44,0.68,39.98,12737.14,-2369.64,-285631.56
8,1,395,-31,-235,3863,0.08,0.09,19.60,-0.31,-2.35,38.63,-4.43,0.68,39.90,12289.68,-2231.67,-289675.09
-6,3,461,-88,-243,3861,0.04,0.09,20.45,-0.88,-2.43,38.61,-4.41,0.70,39.82,12842.38,-2377.00,-297745.50
6,2,463,-81,-248,3874,0.07,0.10,21.23,-0.81,-2.48,38.74,-4.39,0.72,39.74,12296.26,-2398.77,-301682.50
-8,-4,421,-55,-276,3893,0.01,0.06,21.67,-0.55,-2.76,38.93,-4.37,0.73,39.65,12868.69,-2136.79,-301262.06
-10,-4,402,-85,-342,3924,-0.05,0.03,21.96,-0.85,-3.42,39.24,-4.39,0.75,39.56,13137.87,-2110.39,-301322.12
9,8,237,-72,-289,3914,0.01,0.08,21.21,-0.72,-2.89,39.14,-4.38,0.77,39.48,12300.42,-2707.75,-287353.44
-2,8,228,-71,-296,3911,-0.00,0.12,20.48,-0.71,-2.96,39.11,-4.37,0.80,39.39,12700.81,-2885.85,-282597.38
-2,11,267,-14,-329,3920,-0.01,0.17,20.06,-0.14,-3.29,39.20,-4.38,0.79,39.31,12759.95,-3109.28,-282307.75
5,4,284,-36,-345,3908,0.02,0.18,19.79,-0.36,-3.45,39.08,-4.40,0.79,39.24,12482.08,-2886.73,-281518.56
-1,-4,420,47,-327,3908,0.01,0.14,20.37,0.47,-3.27,39.08,-4.40,0.78,39.16,12719.13,-2469.31,-292233.84
-1,-2,436,71,-336,3927,0.00,0.11,20.99,0.71,-3.36,39.27,-4.41,0.77,39.07,12748.21,-2439.06,-296154.12
-5,3,422,20,-209,3917,-0.03,0.12,21.47,0.20,-2.09,39.17,-4.39,0.76,38.99,12921.43,-2617.14,-297528.03
2,-8,382,93,-210,3907,-0.01,0.06,21.65,0.93,-2.10,39.07,-4.38,0.75,38.90,12610.77,-2055.48,-295826.19
-6,3,267,-7,-316,3911,-0.05,0.07,21.11,-0.07,-3.16,39.11,-4.38,0.74,38.82,12993.57,-2435.90,-285916.34
-4,2,252,9,-314,3915,-0.07,0.08,20.54,0.09,-3.14,39.15,-4.39,0.73,38.73,12985.37,-2382.10,-281642.19
0,-4,260,20,-456,3945,-0.06,0.04,20.07,0.20,-4.56,39.45,-4.40,0.73,38.65,12875.92,-2088.45,-279284.34
2,2,295,-18,-484,3874,-0.04,0.05,19.86,-0.18,-4.84,38.74,-4.42,0.73,38.57,12809.18,-2324.35,-279894.50
-2,-2,370,-75,-393,3873,-0.05,0.03,20.13,-0.75,-3.93,38.73,-4.44,0.75,38.49,13016.01,-2173.55,-285386.94
-1,7,386,-64,-354,3873,-0.05,0.07,20.48,-0.64,-3.54,38.73,-4.45,0.76,38.41,13033.05,-2617.26,-287811.78
-9,-17,324,41,-327,3875,-0.10,-0.04,20.40,0.41,-3.27,38.75,-4.46,0.74,38.33,13449.60,-1469.49,-283487.53
-12,-2,302,77,-349,3898,-0.16,-0.05,20.21,0.77,-3.49,38.98,-4.46,0.73,38.25,13733.33,-1931.05,-280819.19
-21,-6,296,37,-302,3894,-0.28,-0.08,19.99,0.37,-3.02,38.94,-4.46,0.72,38.17,14332.43,-1674.27,-278996.88
-20,-13,309,44,-281,3930,-0.37,-0.15,19.88,0.44,-2.81,39.30,-4.46,0.71,38.09,14531.00,-1212.51,-278822.19
-35,-28,382,4,-334,3897,-0.55,-0.31,20.22,0.04,-3.34,38.97,-4.47,0.70,38.01,15535.75,-259.75,-284579.91
-44,-35,407,27,-308,3944,-0.76,-0.49,20.68,0.27,-3.08,39.44,-4.47,0.68,37.93,16406.99,497.04,-288163.34
-44,-38,400,-20,-381,3932,-0.95,-0.67,21.05,-0.20,-3.81,39.32,-4.49,0.68,37.84,16965.00,1083.39,-289401.88
-32,-21,394,-88,-377,3853,-1.05,-0.73,21.35,-0.88,-3.77,38.53,-4.51,0.69,37.76,16867.31,620.38,-290299.41
-31,-28,434,49,-310,3891,-1.14,-0.83,21.86,0.49,-3.10,38.91,-4.52,0.68,37.67,17062.72,1157.66,-295013.44
-46,-36,459,10,-314,3869,-1.30,-0.97,22.48,0.10,-3.14,38.69,-4.52,0.67,37.58,18032.87,1831.32,-299384.06
-74,-50,548,-9,-252,3919,-1.62,-1.17,23.57,-0.09,-2.52,39.19,-4.51,0.66,37.49,19802.19,2875.30,-310039.06
-75,-62,562,-105,-140,3921,-1.92,-1.44,24.64,-1.05,-1.40,39.21,-4.50,0.67,37.39,20573.23,3942.86,-316175.84
-19,-4,532,-62,-394,3956,-1.84,-1.32,25.42,-0.62,-3.94,39.56,-4.53,0.67,37.29,18518.80,1619.99,-318187.09
-2,0,442,-117,-228,3892,-1.67,-1.18,25.58,-1.17,-2.28,38.92,-4.52,0.69,37.18,17462.53,1095.10,-313346.84
-7,0,424,-94,-242,3865,-1.55,-1.07,25.61,-0.94,-2.42,38.65,-4.51,0.70,37.08,17282.80,744.15,-312034.19
-10,6,412,-106,-242,3893,-1.45,-0.92,25.56,-1.06,-2.42,38.93,-4.50,0.72,36.98,17116.02,117.28,-310665.91
-2,13,417,-119,-320,3964,-1.32,-0.75,25.55,-1.19,-3.20,39.64,-4.50,0.74,36.88,16512.17,-636.99,-310477.97
3,12,429,-100,-288,3909,-1.17,-0.60,25.61,-1.00,-2.88,39.09,-4.50,0.77,36.78,15938.92,-1053.85,-311094.34
-5,8,437,-57,-333,3924,-1.08,-0.49,25.71,-0.57,-3.33,39.24,-4.52,0.77,36.67,16049.56,-1227.28,-311704.88
-8,3,423,-14,-306,3898,-1.02,-0.43,25.72,-0.14,-3.06,38.98,-4.52,0.76,36.57,16002.62,-1197.07,-310519.62
-4,6,426,22,-347,3910,-0.95,-0.35,25.75,0.22,-3.47,39.10,-4.53,0.75,36.47,15693.05,-1478.61,-310418.47
-6,11,404,84,-357,3892,-0.89,-0.25,25.64,0.84,-3.57,38.92,-4.54,0.74,36.36,15635.16,-1886.17,-308130.91
-2,7,407,108,-377,3902,-0.81,-0.18,25.56,1.08,-3.77,39.02,-4.55,0.73,36.26,15324.43,-1896.01,-307458.72
-2,7,430,40,-311,3873,-0.74,-0.12,25.62,0.40,-3.11,38.73,-4.55,0.72,36.16,15151.51,-2022.61,-308743.91
-3,9,421,81,-338,3923,-0.69,-0.05,25.63,0.81,-3.38,39.23,-4.56,0.71,36.06,15054.76,-2235.75,-307834.72
-8,8,355,57,-434,3853,-0.67,0.00,25.23,0.57,-4.34,38.53,-4.57,0.71,35.96,15219.86,-2330.95,-301456.19
1,13,339,40,-371,3916,-0.59,0.08,24.78,0.40,-3.71,39.16,-4.59,0.70,35.86,14753.15,-2687.84,-297690.34
1,9,336,-20,-361,3904,-0.53,0.13,24.35,-0.20,-3.61,39.04,-4.60,0.70,35.76,14631.05,-2668.98,-294834.97
4,10,338,-7,-353,3946,-0.45,0.18,23.98,-0.07,-3.53,39.46,-4.61,0.70,35.67,14363.04,-2812.56,-292570.88
-15,-2,377,41,-354,3905,-0.50,0.15,23.88,0.41,-3.54,39.05,-4.62,0.69,35.57,15160.89,-2297.43,-293935.16
-7,3,382,64,-395,3927,-0.49,0.15,23.82,0.64,-3.95,39.27,-4.63,0.68,35.48,14899.94,-2459.25,-293534.03
-5,5,378,-29,-373,3937,-0.47,0.17,23.74,-0.29,-3.73,39.37,-4.65,0.68,35.38,14835.19,-2575.60,-292510.22
-20,1,386,-42,-368,3866,-0.55,0.16,23.72,-0.42,-3.68,38.66,-4.67,0.69,35.29,15601.44,-2430.53,-292487.78
-2,10,397,-122,-211,3899,-0.50,0.20,23.77,-1.22,-2.11,38.99,-4.66,0.71,35.19,14830.97,-2913.28,-293006.91
-4,-3,369,-105,-270,3958,-0.48,0.16,23.65,-1.05,-2.70,39.58,-4.65,0.73,35.10,14798.05,-2428.90,-290316.00
-9,7,377,-113,-568,3928,-0.49,0.19,23.58,-1.13,-5.68,39.28,-4.66,0.74,35.01,15041.75,-2878.84,-290054.47
-15,4,400,-170,-412,3903,-0.53,0.19,23.66,-1.70,-4.12,39.03,-4.68,0.77,34.91,15395.03,-2856.06,-291449.91
-9,1,433,-84,-360,3934,-0.53,0.18,23.94,-0.84,-3.60,39.34,-4.69,0.79,34.82,15237.31,-2776.26,-294455.75
-8,8,454,-143,-405,3894,-0.53,0.21,24.31,-1.43,-4.05,38.94,-4.70,0.81,34.72,15230.56,-3160.54,-297293.56
-11,5,568,-156,-343,3926,-0.54,0.22,25.35,-1.56,-3.43,39.26,-4.71,0.84,34.62,15383.77,-3160.07,-309049.69
-24,-4,585,-81,-389,3922,-0.63,0.17,26.38,-0.81,-3.89,39.22,-4.73,0.85,34.51,16123.69,-2774.35,-315137.72
-17,-2,593,-127,-245,3877,-0.67,0.14,27.36,-1.27,-2.45,38.77,-4.71,0.87,34.40,15952.15,-2829.46,-320391.91
-28,-14,597,-100,-283,3900,-0.78,0.05,28.27,-1.00,-2.83,39.00,-4.70,0.90,34.29,16567.15,-2222.43,-325005.44
-22,-29,691,-53,-225,3965,-0.83,-0.14,29.65,-0.53,-2.25,39.65,-4.69,0.90,34.17,16459.50,-1256.28,-337421.44
-13,-26,692,-24,-237,3924,-0.83,-0.28,30.91,-0.24,-2.37,39.24,-4.67,0.90,34.05,16095.26,-986.59,-343686.94
-24,-11,704,-59,-269,3887,-0.89,-0.32,32.11,-0.59,-2.69,38.87,-4.65,0.91,33.92,16590.48,-1424.89,-350294.16
10,-74,673,-103,-243,4020,-0.74,-0.74,33.01,-1.03,-2.43,40.20,-4.64,0.93,33.79,14984.53,1788.60,-352726.78
-5,-15,599,-135,-306,3867,-0.70,-0.76,33.36,-1.35,-3.06,38.67,-4.64,0.95,33.66,15382.77,-270.31,-349758.94
-11,1,569,-125,-320,3841,-0.70,-0.68,33.50,-1.25,-3.20,38.41,-4.64,0.98,33.52,15590.70,-1109.46,-348187.72
-4,10,464,-93,-284,3902,-0.65,-0.55,32.98,-0.93,-2.84,39.02,-4.63,1.00,33.39,15191.95,-1810.89,-338758.19
3,14,451,-86,-290,3915,-0.57,-0.41,32.43,-0.86,-2.90,39.15,-4.61,1.02,33.26,14689.95,-2367.27,-334553.88
-5,12,419,-74,-360,3899,-0.54,-0.29,31.74,-0.74,-3.60,38.99,-4.63,1.03,33.13,14949.12,-2625.91,-328504.88
2,20,423,-87,-383,3888,-0.47,-0.14,31.15,-0.87,-3.83,38.88,-4.65,1.04,33.01,14586.05,-3334.76,-325061.50
-2,24,470,-31,-365,3875,-0.44,0.02,30.90,-0.31,-3.65,38.75,-4.66,1.04,32.89,14671.74,-3886.18,-325977.62
-7,20,487,-30,-376,3900,-0.44,0.14,30.78,-0.30,-3.76,39.00,-4.67,1.04,32.76,14882.12,-4060.87,-325833.72
-1,15,534,40,-314,3945,-0.40,0.22,30.96,0.40,-3.14,39.45,-4.67,1.04,32.64,14571.71,-4069.60,-329030.03
-12,21,550,31,-368,3930,-0.43,0.32,31.22,0.31,-3.68,39.30,-4.68,1.03,32.52,15056.79,-4537.81,-330841.66
0,21,548,43,-309,3906,-0.39,0.42,31.44,0.43,-3.09,39.06,-4.68,1.02,32.39,14524.24,-4768.76,-331396.47
-8,17,538,104,-323,3890,-0.40,0.48,31.58,1.04,-3.23,38.90,-4.68,1.02,32.27,14824.41,-4774.33,-331039.06
-12,34,478,117,-315,3865,-0.43,0.64,31.34,1.17,-3.15,38.65,-4.68,1.01,32.14,15046.62,-5757.52,-325742.31
-18,39,453,101,-303,3876,-0.50,0.81,30.97,1.01,-3.03,38.76,-4.68,1.01,32.02,15421.06,-6367.68,-321806.34
-9,54,315,43,-263,3874,-0.50,1.06,29.79,0.43,-2.63,38.74,-4.67,1.00,31.90,15101.15,-7521.45,-307003.03
-3,52,283,45,-290,3910,-0.47,1.27,28.54,0.45,-2.90,39.10,-4.66,1.00,31.79,14797.69,-7991.80,-297984.09
-1,32,203,-14,-355,3910,-0.43,1.34,26.92,-0.14,-3.55,39.10,-4.67,1.00,31.68,14650.56,-7477.07,-284256.66
4,29,192,-1,-374,3922,-0.36,1.38,25.40,-0.01,-3.74,39.22,-4.68,1.00,31.58,14334.72,-7483.52,-275080.53
6,14,216,-11,-378,3930,-0.29,1.33,24.18,-0.11,-3.78,39.30,-4.70,1.00,31.48,14111.32,-6829.87,-269559.16
3,11,246,12,-386,3924,-0.24,1.26,23.26,0.12,-3.86,39.24,-4.71,1.00,31.39,14122.11,-6550.04,-266033.06
-2,8,305,-39,-309,3896,-0.23,1.19,22.80,-0.39,-3.09,38.96,-4.70,0.99,31.30,14240.86,-6230.97,-266616.41
-5,0,325,1,-279,3892,-0.24,1.07,22.50,0.01,-2.79,38.92,-4.69,0.99,31.21,14334.51,-5635.10,-265831.53
-2,2,394,1,-288,3889,-0.23,0.97,22.65,0.01,-2.88,38.89,-4.68,0.98,31.12,14177.33,-5442.09,-270307.78
-15,-2,413,5,-325,3897,-0.30,0.86,22.91,0.05,-3.25,38.97,-4.68,0.98,31.03,14806.71,-4998.22,-272403.16
-9,-2,487,-21,-326,3908,-0.32,0.77,23.59,-0.21,-3.26,39.08,-4.68,0.97,30.94,14672.11,-4720.23,-279969.25
3,4,492,-28,-281,3918,-0.27,0.71,24.23,-0.28,-2.81,39.18,-4.67,0.97,30.84,14088.57,-4785.33,-283301.50
-3,4,470,-63,-334,3933,-0.26,0.67,24.67,-0.63,-3.34,39.33,-4.69,0.97,30.74,14321.16,-4679.69,-283994.56
-8,6,451,-37,-302,3922,-0.28,0.64,24.96,-0.37,-3.02,39.22,-4.68,0.97,30.64,14521.41,-4656.97,-283999.50
-2,7,392,-40,-312,3882,-0.27,0.62,24.85,-0.40,-3.12,38.82,-4.67,0.96,30.54,14259.91,-4615.63,-279600.53
-6,6,383,-37,-321,3916,-0.28,0.59,24.70,-0.37,-3.21,39.16,-4.67,0.95,30.44,14423.15,-4493.47,-277881.16
0,9,416,15,-262,3898,-0.25,0.59,24.77,0.15,-2.62,38.98,-4.66,0.95,30.35,14112.13,-4572.70,-279763.12
-3,10,428,-46,-310,3907,-0.24,0.59,24.90,-0.46,-3.10,39.07,-4.65,0.94,30.25,14174.15,-4595.18,-280774.25
-8,5,465,-23,-264,3856,-0.27,0.56,25.25,-0.23,-2.64,38.56,-4.64,0.94,30.15,14367.14,-4346.08,-284370.91
-3,11,482,-17,-251,3909,-0.26,0.57,25.67,-0.17,-2.51,39.09,-4.62,0.94,30.04,14128.29,-4580.98,-287164.16
-5,15,518,-57,-405,3913,-0.26,0.61,26.26,-0.57,-4.05,39.13,-4.64,0.95,29.94,14259.60,-4834.92,-292008.94
-3,9,522,-65,-372,3937,-0.26,0.60,26.82,-0.65,-3.72,39.37,-4.66,0.96,29.83,14220.32,-4645.22,-294792.97
9,13,532,-103,-324,3906,-0.18,0.62,27.38,-1.03,-3.24,39.06,-4.66,0.99,29.72,13602.90,-4918.12,-297944.19
-16,16,545,-120,-352,3868,-0.26,0.66,27.97,-1.20,-3.52,38.68,-4.67,1.02,29.61,14698.53,-5191.34,-301383.97
-11,16,630,-128,-281,3928,-0.30,0.69,29.01,-1.28,-2.81,39.28,-4.66,1.04,29.50,14602.23,-5353.71,-311459.06
-9,20,658,-152,-306,3862,-0.32,0.74,30.13,-1.52,-3.06,38.62,-4.65,1.08,29.38,14590.73,-5719.35,-318547.94
6,21,674,-113,-380,3913,-0.25,0.79,31.22,-1.13,-3.80,39.13,-4.67,1.10,29.25,13936.30,-5961.32,-324847.94
-6,19,674,-143,-372,3915,-0.26,0.83,32.21,-1.43,-3.72,39.15,-4.68,1.13,29.13,14406.48,-6069.09,-329612.03
-6,15,671,-84,-424,3886,-0.27,0.84,33.09,-0.84,-4.24,38.86,-4.70,1.14,28.99,14481.15,-5997.83,-333561.66
3,19,675,-52,-459,3928,-0.23,0.87,33.89,-0.52,-4.59,39.28,-4.71,1.15,28.86,14099.13,-6250.50,-337570.88
10,33,677,-64,-437,3940,-0.15,0.99,34.63,-0.64,-4.37,39.40,-4.73,1.17,28.72,13685.99,-7065.98,-341084.72
10,33,668,-55,-411,3882,-0.07,1.09,35.25,-0.55,-4.11,38.82,-4.74,1.18,28.58,13533.03,-7365.55,-343258.78
7,33,616,-94,-428,3893,-0.02,1.18,35.48,-0.94,-4.28,38.93,-4.76,1.20,28.44,13551.16,-7660.44,-340901.53
6,30,594,-64,-416,3907,0.02,1.25,35.55,-0.64,-4.16,39.07,-4.77,1.21,28.30,13528.16,-7764.32,-339450.44
22,28,507,-46,-340,3893,0.15,1.29,35.09,-0.46,-3.40,38.93,-4.78,1.21,28.16,12643.35,-7815.42,-331341.44
20,27,493,-22,-358,3907,0.26,1.33,34.59,-0.22,-3.58,39.07,-4.78,1.21,28.02,12447.02,-7874.96,-327286.88
12,29,542,-93,-408,3871,0.31,1.37,34.44,-0.93,-4.08,38.71,-4.79,1.23,27.89,12639.26,-8114.39,-328772.84
12,26,564,-106,-430,3886,0.35,1.39,34.43,-1.06,-4.30,38.86,-4.81,1.25,27.75,12567.29,-8127.34,-329483.81
0,18,637,-108,-388,3910,0.31,1.36,34.88,-1.08,-3.88,39.10,-4.82,1.27,27.61,13107.50,-7843.59,-335541.06
0,16,648,-106,-389,3899,0.28,1.32,35.34,-1.06,-3.89,38.99,-4.83,1.30,27.47,13226.94,-7739.46,-338099.12
-8,14,662,-159,-384,3937,0.20,1.28,35.85,-1.59,-3.84,39.37,-4.84,1.33,27.33,13721.82,-7640.46,-341030.91
-11,5,662,-119,-349,3897,0.12,1.18,36.30,-1.19,-3.49,38.97,-4.85,1.36,27.19,14071.11,-7170.76,-342869.88
-16,-8,669,-108,-407,3901,0.01,1.01,36.75,-1.08,-4.07,39.01,-4.86,1.38,27.04,14569.10,-6347.30,-345095.84
-26,-2,679,-98,-366,3894,-0.15,0.90,37.22,-0.98,-3.66,38.94,-4.88,1.40,26.89,15371.58,-6310.82,-347574.00
-27,-7,725,-115,-396,3918,-0.30,0.77,37.92,-1.15,-3.96,39.18,-4.89,1.42,26.74,15838.25,-5855.22,-353388.69
-30,-10,760,-108,-372,3878,-0.45,0.63,38.76,-1.08,-3.72,38.78,-4.91,1.44,26.59,16384.05,-5453.74,-359314.66
-50,-25,852,-75,-351,3912,-0.71,0.41,40.08,-0.75,-3.51,39.12,-4.92,1.44,26.43,17772.42,-4376.99,-371087.88
-37,-21,871,-51,-345,3907,-0.87,0.24,41.39,-0.51,-3.45,39.07,-4.92,1.44,26.26,17734.65,-4065.35,-378497.47
-27,6,905,-21,-444,3921,-0.95,0.26,42.77,-0.21,-4.44,39.21,-4.93,1.44,26.09,17634.55,-5039.74,-387171.12
-13,5,890,-89,-339,3976,-0.93,0.26,43.92,-0.89,-3.39,39.76,-4.93,1.44,25.92,17093.38,-5014.75,-391740.88
-13,12,883,-104,-379,3900,-0.92,0.31,44.92,-1.04,-3.79,39.00,-4.94,1.46,25.74,17107.45,-5432.73,-395919.75
-21,13,887,-122,-431,3892,-0.95,0.36,45.83,-1.22,-4.31,38.92,-4.96,1.48,25.56,17526.21,-5655.07,-400324.19
-7,20,937,-154,-375,3899,-0.90,0.44,46.97,-1.54,-3.75,38.99,-4.97,1.51,25.37,16934.13,-6215.82,-408529.41
-13,22,961,-140,-386,3889,-0.89,0.53,48.13,-1.40,-3.86,38.89,-4.98,1.54,25.18,17149.88,-6604.91,-415378.16
-17,21,999,-70,-618,3884,-0.90,0.61,49.41,-0.70,-6.18,38.84,-5.00,1.56,24.98,17373.17,-6814.97,-423638.59
-6,21,966,-61,-675,3913,-0.85,0.68,50.36,-0.61,-6.75,39.13,-5.01,1.58,24.78,16900.93,-7041.21,-425985.47
-10,10,757,-37,-762,3887,-0.83,0.67,49.95,-0.37,-7.62,38.87,-5.03,1.60,24.59,17021.58,-6695.17,-410760.81
-23,2,670,-34,-743,3905,-0.88,0.61,49.04,-0.34,-7.43,39.05,-5.05,1.61,24.39,17664.98,-6324.64,-400050.38
-10,0,459,-67,-453,3923,-0.86,0.55,46.93,-0.67,-4.53,39.23,-5.06,1.62,24.20,17189.90,-6129.93,-375754.34
-5,3,447,-73,-391,3893,-0.80,0.52,44.97,-0.73,-3.91,38.93,-5.07,1.63,24.03,16909.76,-6155.12,-363822.28
-5,8,449,-96,-237,3926,-0.75,0.51,43.21,-0.96,-2.37,39.26,-5.05,1.65,23.85,16722.82,-6362.37,-353846.81
-6,1,443,-61,-214,3925,-0.71,0.47,41.59,-0.61,-2.14,39.25,-5.03,1.66,23.69,16602.14,-6032.44,-344174.91
1,7,418,-62,-143,3913,-0.64,0.46,39.98,-0.62,-1.43,39.13,-5.01,1.67,23.53,16102.80,-6261.04,-333471.44
-11,12,417,-70,-165,3890,-0.64,0.49,38.53,-0.70,-1.65,38.90,-5.00,1.68,23.37,16467.91,-6534.72,-325017.69
0,14,420,-118,-334,3868,-0.58,0.53,37.24,-1.18,-3.34,38.68,-4.98,1.71,23.23,15880.70,-6779.87,-317693.38
1,15,421,-130,-425,3902,-0.51,0.57,36.08,-1.30,-4.25,39.02,-5.00,1.72,23.08,15726.36,-6966.06,-310997.09
4,18,422,-96,-373,3932,-0.44,0.62,35.05,-0.96,-3.73,39.32,-5.01,1.73,22.94,15461.07,-7217.53,-304967.28
-4,19,426,-85,-337,3930,-0.42,0.67,34.14,-0.85,-3.37,39.30,-5.00,1.72,22.81,15668.00,-7382.90,-299807.44
5,12,397,-216,-119,3907,-0.34,0.68,33.15,-2.16,-1.19,39.07,-4.98,1.75,22.67,15114.72,-7220.04,-292277.53
-4,9,426,-120,-242,3878,-0.33,0.67,32.43,-1.20,-2.42,38.78,-4.96,1.76,22.54,15337.76,-7124.11,-289615.12
0,9,367,80,-337,3894,-0.30,0.65,31.43,0.80,-3.37,38.94,-4.96,1.75,22.42,15105.21,-7079.71,-280301.50
-4,0,326,75,-363,3914,-0.30,0.59,30.27,0.75,-3.63,39.14,-4.96,1.75,22.30,15226.94,-6584.39,-271256.53
7,-7,108,108,-335,3935,-0.22,0.49,27.91,1.08,-3.35,39.35,-4.96,1.74,22.19,14651.93,-6059.92,-245444.19
-6,-17,44,100,-298,3916,-0.24,0.33,25.38,1.00,-2.98,39.16,-4.95,1.73,22.09,15120.29,-5296.63,-227828.31
12,-28,-161,153,-192,3905,-0.14,0.13,21.86,1.53,-1.92,39.05,-4.94,1.73,22.00,14217.93,-4363.56,-196716.23
1,-54,-222,121,-184,3975,-0.12,-0.21,18.32,1.21,-1.84,39.75,-4.93,1.72,21.93,14509.79,-2550.04,-173947.16
2,-120,-313,154,-330,3952,-0.10,-0.92,14.58,1.54,-3.30,39.52,-4.93,1.70,21.87,14406.32,1618.37,-148416.00
-9,-84,-306,145,-365,3785,-0.14,-1.34,11.26,1.45,-3.65,37.85,-4.93,1.68,21.82,14908.12,1529.67,-130877.88
3,-19,-345,249,-416,3708,-0.11,-1.32,8.03,2.49,-4.16,37.08,-4.93,1.66,21.79,14423.17,-695.57,-111216.20
14,-10,-373,251,-373,3892,-0.01,-1.25,4.95,2.51,-3.73,38.92,-4.93,1.64,21.77,13798.10,-1128.85,-93058.48
-3,-27,-486,91,-324,3789,-0.03,-1.29,1.49,0.91,-3.24,37.89,-4.93,1.62,21.76,14426.17,-375.29,-67963.60
2,-25,-496,33,-275,3971,-0.01,-1.32,-1.69,0.33,-2.75,39.71,-4.93,1.59,21.77,14193.10,-318.84,-50445.28
-6,-19,-427,36,-174,3886,-0.05,-1.30,-4.12,0.36,-1.74,38.86,-4.91,1.57,21.79,14522.29,-511.67,-41515.36
8,-15,-376,34,-140,3943,0.00,-1.26,-6.00,0.34,-1.40,39.43,-4.90,1.56,21.81,13859.77,-698.21,-34530.18
6,-8,-139,-34,-62,4008,0.04,-1.18,-6.25,-0.34,-0.62,40.08,-4.88,1.55,21.83,13784.87,-1106.87,-47119.60
2,4,-24,-52,-104,3889,0.05,-1.04,-5.77,-0.52,-1.04,38.89,-4.86,1.54,21.85,13850.99,-1861.61,-56470.38
10,14,169,-115,-160,3897,0.10,-0.85,-4.16,-1.15,-1.60,38.97,-4.85,1.53,21.87,13377.09,-2688.04,-76376.02
-3,0,196,-116,-210,3888,0.08,-0.77,-2.55,-1.16,-2.10,38.88,-4.83,1.53,21.88,13846.42,-2422.04,-86600.54
3,10,232,-90,-255,3865,0.09,-0.63,-0.88,-0.90,-2.55,38.65,-4.81,1.52,21.88,13559.55,-3106.30,-97634.82
-11,-4,231,-147,-309,3904,0.01,-0.59,0.62,-1.47,-3.09,39.04,-4.80,1.54,21.88,14216.05,-2766.94,-105564.34
-2,-5,164,-124,-298,3938,-0.00,-0.56,1.55,-1.24,-2.98,39.38,-4.78,1.54,21.87,13894.24,-2827.35,-106647.22
-9,-2,154,-115,-326,3910,-0.06,-0.52,2.34,-1.15,-3.26,39.10,-4.78,1.56,21.86,14269.73,-3093.71,-110213.91
2,3,145,-127,-263,3934,-0.04,-0.45,2.99,-1.27,-2.63,39.34,-4.76,1.57,21.85,13793.59,-3460.76,-113114.64
1,-2,147,-149,-332,3879,-0.03,-0.42,3.59,-1.49,-3.32,38.79,-4.77,1.58,21.84,13811.65,-3424.05,-116366.84
-2,-5,160,-110,-229,3899,-0.04,-0.40,4.20,-1.10,-2.29,38.99,-4.75,1.58,21.82,13885.30,-3350.05,-120352.06
-7,-2,167,-173,-272,3915,-0.08,-0.38,4.80,-1.73,-2.72,39.15,-4.74,1.60,21.80,14124.05,-3567.78,-123876.95
-5,0,173,-147,-289,3981,-0.10,-0.34,5.38,-1.47,-2.89,39.81,-4.72,1.61,21.78,14074.05,-3770.43,-127209.97
0,2,175,-141,-320,3929,-0.09,-0.29,5.91,-1.41,-3.20,39.29,-4.72,1.63,21.75,13867.09,-4013.59,-130060.48
-2,9,170,-136,-310,3973,-0.09,-0.21,6.35,-1.36,-3.10,39.73,-4.71,1.64,21.73,13910.21,-4518.31,-132048.89
-2,6,159,-135,-319,3849,-0.10,-0.15,6.69,-1.35,-3.19,38.49,-4.71,1.66,21.70,13920.85,-4621.85,-133086.78
-6,0,109,-187,-301,3878,-0.12,-0.14,6.68,-1.87,-3.01,38.78,-4.71,1.68,21.67,14114.99,-4510.85,-130042.55
2,8,95,-197,-304,3890,-0.10,-0.07,6.60,-1.97,-3.04,38.90,-4.70,1.70,21.65,13764.75,-5005.65,-128644.19
0,6,51,-287,-305,3919,-0.09,-0.03,6.25,-2.87,-3.05,39.19,-4.70,1.72,21.62,13801.42,-5109.40,-124116.59
2,5,35,-281,-313,3914,-0.07,0.00,5.84,-2.81,-3.13,39.14,-4.70,1.74,21.60,13673.72,-5220.43,-120892.56
0,-1,6,-91,-338,3906,-0.06,-0.00,5.29,-0.91,-3.38,39.06,-4.71,1.73,21.58,13750.95,-4956.67,-116195.49
1,3,3,-55,-342,3900,-0.05,0.02,4.78,-0.55,-3.42,39.00,-4.71,1.71,21.56,13700.33,-5096.94,-113216.22
0,0,1,-29,-348,3895,-0.04,0.01,4.31,-0.29,-3.48,38.95,-4.72,1.70,21.54,13736.54,-4943.18,-110510.42
1,-1,0,-54,-346,3908,-0.03,0.01,3.88,-0.54,-3.46,39.08,-4.72,1.68,21.53,13692.60,-4843.36,-108089.42
0,-1,1,-55,-346,3907,-0.03,0.00,3.49,-0.55,-3.46,39.07,-4.73,1.67,21.51,13736.49,-4779.59,-106053.85
1,0,2,-49,-334,3911,-0.02,0.00,3.16,-0.49,-3.34,39.11,-4.73,1.65,21.50,13685.95,-4764.68,-104259.70
1,-1,2,-44,-355,3896,-0.01,-0.01,2.85,-0.44,-3.55,38.96,-4.74,1.63,21.49,13686.44,-4669.16,-102592.88
1,0,1,-54,-344,3889,-0.01,-0.01,2.57,-0.54,-3.44,38.89,-4.75,1.62,21.48,13685.07,-4657.93,-101001.71
0,-1,4,-49,-350,3908,-0.00,-0.01,2.34,-0.49,-3.50,39.08,-4.75,1.60,21.47,13737.56,-4562.23,-99894.48
0,-1,2,-57,-352,3906,-0.00,-0.02,2.12,-0.57,-3.52,39.06,-4.76,1.59,21.46,13759.98,-4504.01,-98558.85
0,0,2,-58,-355,3897,-0.00,-0.01,1.92,-0.58,-3.55,38.97,-4.77,1.57,21.46,13785.64,-4498.91,-97461.70
1,-1,2,-48,-346,3903,0.00,-0.02,1.74,-0.48,-3.46,39.03,-4.78,1.55,21.45,13750.87,-4403.71,-96473.77
-1,-1,2,-50,-336,3889,-0.00,-0.02,1.58,-0.50,-3.36,38.89,-4.78,1.54,21.44,13846.04,-4342.11,-95584.23
0,-1,4,-44,-339,3909,-0.00,-0.03,1.44,-0.44,-3.39,39.09,-4.78,1.52,21.44,13820.57,-4281.43,-94965.06
0,-1,2,-30,-348,3917,-0.00,-0.03,1.31,-0.30,-3.48,39.17,-4.79,1.50,21.43,13833.24,-4222.41,-94121.06
0,-1,2,-43,-351,3905,-0.00,-0.03,1.19,-0.43,-3.51,39.05,-4.79,1.48,21.43,13851.79,-4166.05,-93466.43
0,-1,2,-54,-345,3894,-0.00,-0.04,1.09,-0.54,-3.45,38.94,-4.80,1.47,21.42,13869.95,-4110.16,-92877.09
0,0,3,-52,-340,3898,-0.00,-0.03,1.00,-0.52,-3.40,38.98,-4.80,1.45,21.42,13882.43,-4103.34,-92437.16
0,1,2,-46,-343,3907,-0.00,-0.02,0.91,-0.46,-3.43,39.07,-4.81,1.43,21.42,13895.55,-4111.61,-91897.74
0,0,3,-53,-344,3904,-0.00,-0.02,0.84,-0.53,-3.44,39.04,-4.82,1.42,21.41,13912.00,-4033.75,-91555.45
0,1,1,-51,-348,3903,-0.00,-0.01,0.76,-0.51,-3.48,39.03,-4.82,1.40,21.41,13931.74,-4041.18,-91013.27
0,0,0,-39,-347,3912,-0.00,-0.01,0.68,-0.39,-3.47,39.12,-4.83,1.38,21.41,13946.22,-3959.87,-90539.22
1,1,0,-43,-343,3905,0.00,-0.00,0.61,-0.43,-3.43,39.05,-4.83,1.36,21.40,13908.44,-3962.35,-90165.01
1,2,-1,-43,-349,3902,0.01,0.01,0.55,-0.43,-3.49,39.02,-4.84,1.35,21.40,13912.33,-3980.71,-89737.70
0,1,-3,-38,-352,3899,0.01,0.01,0.47,-0.38,-3.52,38.99,-4.85,1.33,21.40,13969.07,-3911.53,-89224.20
-1,2,-3,-51,-347,3904,0.00,0.02,0.41,-0.51,-3.47,39.04,-4.85,1.31,21.40,14041.31,-3925.63,-88867.35
0,2,-3,-51,-347,3899,0.00,0.03,0.35,-0.51,-3.47,38.99,-4.86,1.30,21.40,14027.58,-3902.77,-88546.56
1,5,-4,-11,-362,3927,0.01,0.06,0.29,-0.11,-3.62,39.27,-4.87,1.28,21.40,13995.57,-4027.55,-88167.40
48,27,-73,122,-450,3777,0.30,0.22,-0.18,1.22,-4.50,37.77,-4.87,1.27,21.40,11643.71,-5154.14,-81615.74
-4,-4,-50,55,-294,3944,0.25,0.17,-0.47,0.55,-2.94,39.44,-4.87,1.25,21.40,13556.14,-3917.96,-81432.88
6,8,33,-206,-253,3928,0.26,0.20,-0.22,-2.06,-2.53,39.28,-4.86,1.26,21.40,13148.30,-4458.54,-87601.00
6,5,6,63,-310,3893,0.27,0.21,-0.16,0.63,-3.10,38.93,-4.85,1.25,21.40,13109.78,-4331.27,-86344.43
1,1,2,-125,-339,3874,0.25,0.20,-0.14,-1.25,-3.39,38.74,-4.86,1.27,21.40,13345.72,-4207.13,-86266.82
3,5,7,-197,-366,3943,0.24,0.21,-0.08,-1.97,-3.66,39.43,-4.86,1.28,21.40,13305.36,-4425.40,-86860.67
0,5,5,-87,-343,3940,0.22,0.22,-0.04,-0.87,-3.43,39.40,-4.88,1.28,21.40,13520.57,-4442.10,-86951.84
4,-1,1,-80,-351,3886,0.22,0.19,-0.03,-0.80,-3.51,38.86,-4.89,1.28,21.40,13422.94,-4146.39,-86775.30
0,1,-2,-25,-356,3876,0.20,0.18,-0.04,-0.25,-3.56,38.76,-4.90,1.26,21.40,13634.71,-4133.92,-86552.98
1,2,0,-60,-335,3911,0.18,0.17,-0.04,-0.60,-3.35,39.11,-4.90,1.24,21.40,13633.30,-4102.65,-86691.54
-1,1,1,-48,-345,3925,0.16,0.16,-0.03,-0.48,-3.45,39.25,-4.90,1.22,21.41,13775.90,-3989.38,-86802.45
1,1,0,-35,-350,3899,0.15,0.15,-0.02,-0.35,-3.50,38.99,-4.91,1.21,21.41,13747.17,-3914.49,-86759.12
0,0,0,-41,-341,3889,0.13,0.14,-0.02,-0.41,-3.41,38.89,-4.91,1.19,21.41,13827.96,-3790.02,-86772.41
0,-1,0,-43,-335,3899,0.12,0.12,-0.02,-0.43,-3.35,38.99,-4.91,1.17,21.41,13861.76,-3652.65,-86784.12
1,-2,3,-48,-350,3902,0.12,0.09,0.00,-0.48,-3.50,39.02,-4.92,1.16,21.41,13863.89,-3509.15,-87067.60
0,-5,2,-24,-336,3906,0.10,0.05,0.01,-0.24,-3.36,39.06,-4.92,1.14,21.41,13927.09,-3250.15,-87073.67
-1,-5,22,96,-121,3903,0.09,0.02,0.15,0.96,-1.21,39.03,-4.90,1.13,21.40,13962.29,-3124.11,-88945.84
1,-9,39,129,-76,3908,0.08,-0.04,0.37,1.29,-0.76,39.08,-4.89,1.11,21.40,13857.97,-2806.24,-91122.49
-3,-9,49,133,-411,3918,0.06,-0.09,0.63,1.33,-4.11,39.18,-4.89,1.10,21.40,14082.38,-2623.45,-93095.05
-1,-5,58,169,-372,3883,0.05,-0.11,0.92,1.69,-3.72,38.83,-4.90,1.08,21.40,14052.25,-2652.55,-95157.68
2,-2,102,38,-349,3871,0.05,-0.11,1.45,0.38,-3.49,38.71,-4.90,1.06,21.39,13936.54,-2700.92,-100530.50
6,2,101,-3,-388,3885,0.08,-0.09,1.92,-0.03,-3.88,38.85,-4.91,1.05,21.38,13749.16,-2859.00,-102957.62
-4,9,89,-174,-426,3889,0.05,-0.03,2.27,-1.74,-4.26,38.89,-4.92,1.06,21.37,14212.81,-3307.18,-104095.41
-1,6,89,-200,-391,3889,0.04,0.01,2.59,-2.00,-3.91,38.89,-4.93,1.08,21.36,14159.23,-3356.99,-105739.92
-2,10,91,-104,-361,3920,0.02,0.07,2.89,-1.04,-3.61,39.20,-4.94,1.09,21.35,14267.22,-3695.33,-107393.21
-1,6,92,-47,-339,3925,0.02,0.10,3.16,-0.47,-3.39,39.25,-4.94,1.08,21.34,14253.92,-3585.27,-108857.32
-4,8,232,-111,-266,3891,-0.01,0.14,4.26,-1.11,-2.66,38.91,-4.92,1.09,21.32,14377.37,-3785.24,-122821.57
-2,9,262,-130,-270,3852,-0.02,0.18,5.43,-1.30,-2.70,38.52,-4.91,1.10,21.30,14297.84,-3969.06,-130745.64
-9,3,215,-113,-305,3852,-0.07,0.18,6.20,-1.13,-3.05,38.52,-4.90,1.12,21.28,14646.05,-3815.25,-132011.12
-7,4,212,-126,-268,3899,-0.11,0.19,6.87,-1.26,-2.68,38.99,-4.88,1.14,21.25,14626.51,-3906.48,-135321.72
-3,2,247,-57,-2,3921,-0.12,0.18,7.69,-0.57,-0.02,39.21,-4.86,1.14,21.22,14455.01,-3826.86,-141614.62
-1,7,307,-65,-18,3919,-0.11,0.21,8.79,-0.65,-0.18,39.19,-4.85,1.14,21.18,14318.26,-4071.55,-150864.47
4,14,463,25,-258,3876,-0.08,0.27,10.74,0.25,-2.58,38.76,-4.83,1.13,21.14,14022.37,-4450.93,-170173.80
0,12,500,103,-352,3922,-0.07,0.32,12.72,1.03,-3.52,39.22,-4.84,1.12,21.09,14144.07,-4465.50,-182682.56
-3,16,540,-8,-400,3874,-0.08,0.38,14.74,-0.08,-4.00,38.74,-4.85,1.11,21.03,14313.25,-4756.99,-195582.36
-7,14,554,-39,-412,3885,-0.11,0.43,16.64,-0.39,-4.12,38.85,-4.86,1.11,20.97,14587.05,-4810.39,-206311.86
-7,14,651,-87,-373,3891,-0.15,0.47,18.95,-0.87,-3.73,38.91,-4.88,1.12,20.89,14716.80,-4958.36,-223985.34
-2,11,687,-50,-351,3949,-0.14,0.49,21.25,-0.50,-3.51,39.49,-4.89,1.12,20.81,14558.95,-4885.90,-238006.22
-26,9,813,-64,-389,3877,-0.29,0.50,24.08,-0.64,-3.89,38.77,-4.91,1.12,20.71,15809.40,-4850.51,-260107.81
-7,24,844,-71,-375,3861,-0.30,0.59,26.82,-0.71,-3.75,38.61,-4.92,1.13,20.60,15241.97,-5645.04,-276123.66
13,39,959,-52,-324,3849,-0.19,0.77,29.99,-0.52,-3.24,38.49,-4.92,1.13,20.48,14249.21,-6613.25,-299266.72
-22,21,992,-9,-466,3939,-0.31,0.82,33.04,-0.09,-4.66,39.39,-4.93,1.13,20.35,15794.72,-6143.20,-316965.56
-21,18,1084,-121,-458,3922,-0.40,0.85,36.35,-1.21,-4.58,39.22,-4.95,1.16,20.21,16059.68,-6175.11,-339417.56
-17,20,1146,-75,-476,3870,-0.47,0.89,39.71,-0.75,-4.76,38.70,-4.96,1.17,20.05,16135.54,-6388.29,-360319.91
-25,11,1331,-37,-620,3937,-0.57,0.87,43.85,-0.37,-6.20,39.37,-4.98,1.19,19.88,16734.13,-6067.75,-392561.03
-14,17,1384,-47,-618,3909,-0.60,0.88,47.91,-0.47,-6.18,39.09,-5.00,1.21,19.69,16476.55,-6370.19,-416553.31
-34,25,1630,-97,-613,3930,-0.75,0.95,53.06,-0.97,-6.13,39.30,-5.01,1.23,19.48,17595.95,-6879.27,-457561.69
-22,22,1693,-63,-639,3975,-0.81,0.99,58.08,-0.63,-6.39,39.75,-5.03,1.25,19.25,17384.99,-6944.54,-487122.91
-26,36,1972,-166,-724,3923,-0.89,1.11,64.30,-1.66,-7.24,39.23,-5.05,1.28,18.99,17770.46,-7829.41,-535584.19
-41,29,2054,-128,-754,3867,-1.05,1.17,70.40,-1.28,-7.54,38.67,-5.06,1.32,18.71,18752.85,-7850.88,-571812.69
-42,27,2391,-120,-784,3918,-1.20,1.22,77.95,-1.20,-7.84,39.18,-5.08,1.35,18.40,19226.95,-8002.23,-630507.56
-39,38,2734,3,-720,3929,-1.32,1.33,86.83,0.03,-7.20,39.29,-5.09,1.38,18.06,19473.29,-8756.75,-696556.06
-47,39,2826,-21,-711,3858,-1.47,1.44,95.39,-0.21,-7.11,38.58,-5.11,1.42,17.68,20193.76,-9167.90,-746088.56
-52,52,3142,-26,-658,3868,-1.64,1.61,105.01,-0.26,-6.58,38.68,-5.12,1.46,17.26,20848.23,-10181.69,-814249.88
-57,44,3187,-93,-600,3920,-1.83,1.72,113.95,-0.93,-6.00,39.20,-5.13,1.50,16.81,21537.62,-10321.84,-862793.50
-63,55,3310,-169,-381,4030,-2.03,1.88,122.75,-1.69,-3.81,40.30,-5.13,1.57,16.32,22269.64,-11325.56,-914972.88
-74,45,3319,-245,-346,3983,-2.28,1.97,130.72,-2.45,-3.46,39.83,-5.13,1.65,15.80,23274.45,-11416.86,-955971.69
-94,32,3296,-266,-253,4041,-2.62,1.97,137.75,-2.66,-2.53,40.41,-5.11,1.72,15.25,24814.66,-11173.14,-989982.25
-45,24,3200,-216,-126,4127,-2.63,1.92,143.50,-2.16,-1.26,41.27,-5.09,1.78,14.68,23091.97,-10955.67,-1012756.94
-49,38,3161,-233,-202,3734,-2.67,1.96,148.43,-2.33,-2.02,37.34,-5.07,1.85,14.09,23259.22,-11751.52,-1034434.56
-41,62,2984,-116,-146,3788,-2.65,2.14,151.79,-1.16,-1.46,37.88,-5.04,1.92,13.48,22860.69,-13229.34,-1039609.81
-15,84,2745,-389,-66,3807,-2.48,2.44,153.36,-3.89,-0.66,38.07,-5.01,1.99,12.87,21444.91,-14982.97,-1031562.69
-50,62,2682,-304,-69,4104,-2.54,2.57,154.38,-3.04,-0.69,41.04,-4.99,2.07,12.25,22717.64,-14786.91,-1030867.81
-25,52,2336,-196,188,3883,-2.43,2.63,153.19,-1.96,1.88,38.83,-4.96,2.13,11.64,21505.83,-14788.51,-1001872.12
-27,65,2225,-242,188,3749,-2.36,2.76,151.44,-2.42,1.88,37.49,-4.92,2.20,11.04,21279.33,-15775.55,-983620.00
-10,56,1778,-284,77,3752,-2.18,2.83,147.15,-2.84,0.77,37.52,-4.89,2.27,10.45,20149.78,-15830.98,-932217.62
-27,45,1629,-272,-59,3875,-2.13,2.82,142.37,-2.72,-0.59,38.75,-4.86,2.33,9.89,20505.95,-15624.01,-895703.00
-21,21,1058,-145,6,3890,-2.04,2.67,134.59,-1.45,0.06,38.90,-4.83,2.39,9.35,19986.31,-14557.76,-818659.50
-2,26,913,-151,-25,3951,-1.85,2.56,126.70,-1.51,-0.25,39.51,-4.80,2.44,8.84,18740.18,-14598.42,-766007.00
2,8,497,-98,-134,3986,-1.65,2.35,117.06,-0.98,-1.34,39.86,-4.77,2.48,8.38,18000.87,-13562.46,-688371.31
-3,-2,242,-111,-321,3893,-1.51,2.10,106.83,-1.11,-3.21,38.93,-4.75,2.51,7.95,17750.82,-12648.69,-617126.88
-10,0,197,-78,-367,3871,-1.42,1.89,97.35,-0.78,-3.67,38.71,-4.75,2.53,7.56,17748.67,-12237.31,-562276.75
-2,2,81,2,-393,3971,-1.29,1.72,88.11,0.02,-3.93,39.71,-4.75,2.55,7.21,17124.14,-11899.13,-504722.06
-2,1,51,-45,-371,3836,-1.17,1.55,79.61,-0.45,-3.71,38.36,-4.74,2.57,6.90,16813.84,-11478.92,-456277.09
0,3,18,-60,-364,3933,-1.05,1.41,71.76,-0.60,-3.64,39.33,-4.74,2.58,6.61,16431.75,-11226.12,-411249.53
-4,-2,12,-20,-375,3912,-0.97,1.26,64.65,-0.20,-3.75,39.12,-4.74,2.59,6.35,16352.59,-10680.22,-371909.62
-1,3,27,74,-436,3922,-0.88,1.15,58.35,0.74,-4.36,39.22,-4.74,2.59,6.12,16013.31,-10592.26,-338179.31
1,0,38,46,-443,3915,-0.79,1.04,52.75,0.46,-4.43,39.15,-4.74,2.60,5.91,15705.57,-10204.53,-308031.47
-13,-14,67,31,-524,3903,-0.79,0.85,47.88,0.31,-5.24,39.03,-4.75,2.60,5.72,16209.24,-9248.02,-282951.00
4,3,82,-23,-481,3826,-0.68,0.78,43.60,-0.23,-4.81,38.26,-4.76,2.61,5.55,15379.79,-9674.19,-260212.72
-5,19,148,27,-516,3889,-0.65,0.82,40.14,0.27,-5.16,38.89,-4.76,2.61,5.39,15613.16,-10331.82,-244945.00
-4,8,172,14,-499,4012,-0.61,0.79,37.17,0.14,-4.99,40.12,-4.77,2.61,5.24,15495.27,-9871.12,-229905.95
-4,7,239,-55,-384,3929,-0.57,0.75,34.91,-0.55,-3.84,39.29,-4.77,2.61,5.10,15410.84,-9737.03,-221176.55
-4,9,284,-49,-373,3856,-0.54,0.73,33.16,-0.49,-3.73,38.56,-4.78,2.61,4.97,15334.38,-9744.47,-213866.88
-8,6,319,29,-336,3895,-0.53,0.69,31.79,0.29,-3.36,38.95,-4.78,2.60,4.84,15451.23,-9532.19,-208075.81
1,6,318,30,-364,3907,-0.47,0.66,30.55,0.30,-3.64,39.07,-4.77,2.60,4.72,14986.12,-9431.75,-200905.95
-8,-3,286,79,-463,3873,-0.47,0.58,29.24,0.79,-4.63,38.73,-4.78,2.59,4.61,15315.07,-8890.80,-191570.20
-3,0,275,86,-475,3901,-0.45,0.52,27.99,0.86,-4.75,39.01,-4.79,2.59,4.50,15083.73,-8830.72,-183820.12
-6,6,243,111,-480,3879,-0.44,0.50,26.67,1.11,-4.80,38.79,-4.79,2.58,4.39,15182.54,-8982.17,-174490.12
-6,10,247,50,-423,3884,-0.43,0.51,25.51,0.50,-4.23,38.84,-4.80,2.58,4.29,15176.56,-9129.28,-168110.94
-2,3,281,-79,-368,3906,-0.40,0.48,24.68,-0.79,-3.68,39.06,-4.80,2.57,4.19,14970.75,-8782.70,-165222.08
-8,-5,290,-25,-379,3923,-0.41,0.40,23.98,-0.25,-3.79,39.23,-4.80,2.56,4.09,15208.87,-8280.44,-161627.58
-9,-4,313,24,-466,3934,-0.42,0.34,23.49,0.24,-4.66,39.34,-4.81,2.56,4.00,15302.17,-8129.28,-159980.58
-2,6,325,-15,-428,3857,-0.39,0.34,23.12,-0.15,-4.28,38.57,-4.82,2.55,3.91,15004.80,-8462.51,-158350.31
-10,16,341,0,-450,3908,-0.41,0.40,22.89,0.00,-4.50,39.08,-4.83,2.55,3.82,15359.63,-8954.96,-157674.31
2,11,340,-10,-463,3961,-0.36,0.43,22.68,-0.10,-4.63,39.61,-4.83,2.54,3.73,14832.20,-8837.36,-156102.56
-3,8,310,-4,-489,3892,-0.34,0.44,22.30,-0.04,-4.89,38.92,-4.84,2.54,3.64,14986.83,-8737.16,-151983.94
-5,6,302,-19,-475,3896,-0.34,0.43,21.91,-0.19,-4.75,38.96,-4.85,2.53,3.55,15074.70,-8637.62,-149094.39
-6,1,267,-66,-489,3854,-0.34,0.39,21.35,-0.66,-4.89,38.54,-4.87,2.53,3.47,15153.49,-8366.17,-143707.08
-3,2,244,-69,-472,3926,-0.33,0.37,20.70,-0.69,-4.72,39.26,-4.88,2.53,3.39,15044.21,-8322.38,-138580.42
2,-2,186,-26,-401,3927,-0.28,0.32,19.77,-0.26,-4.01,39.27,-4.89,2.52,3.31,14770.36,-8032.57,-129882.64
1,-1,185,5,-377,3921,-0.25,0.28,18.92,0.05,-3.77,39.21,-4.89,2.51,3.23,14721.15,-7938.94,-124987.71
-6,-2,190,-93,-454,3908,-0.26,0.24,18.19,-0.93,-4.54,39.08,-4.90,2.51,3.16,15030.86,-7791.61,-121072.39
-2,-4,177,-68,-349,3897,-0.25,0.19,17.45,-0.68,-3.49,38.97,-4.90,2.50,3.09,14859.31,-7564.19,-116085.38
-4,2,217,-94,-267,3942,-0.25,0.18,17.03,-0.94,-2.67,39.42,-4.89,2.49,3.03,14886.68,-7732.51,-115890.21
2,2,228,-69,-276,3914,-0.21,0.18,16.71,-0.69,-2.76,39.14,-4.88,2.48,2.96,14552.52,-7689.16,-114593.66
-3,8,259,-66,-368,3904,-0.21,0.21,16.62,-0.66,-3.68,39.04,-4.88,2.47,2.89,14728.95,-7944.83,-115643.91
3,7,269,-57,-375,3913,-0.17,0.23,16.60,-0.57,-3.75,39.13,-4.88,2.46,2.83,14433.26,-7936.44,-115845.34
1,10,250,-43,-486,3932,-0.14,0.27,16.47,-0.43,-4.86,39.32,-4.89,2.45,2.76,14476.72,-8123.44,-113752.19
3,6,244,-34,-494,3904,-0.11,0.28,16.31,-0.34,-4.94,39.04,-4.91,2.45,2.70,14356.57,-7996.39,-112295.99
-3,9,237,-55,-552,3858,-0.12,0.31,16.12,-0.55,-5.52,38.58,-4.92,2.45,2.63,14622.26,-8165.65,-110641.34
-1,13,227,-50,-577,3871,-0.11,0.35,15.90,-0.50,-5.77,38.71,-4.93,2.44,2.57,14579.69,-8427.07,-108588.58
-4,8,177,-72,-401,3914,-0.13,0.37,15.39,-0.72,-4.01,39.14,-4.94,2.44,2.51,14739.99,-8265.18,-102703.52
0,6,160,-147,-345,3869,-0.11,0.37,14.82,-1.47,-3.45,38.69,-4.95,2.43,2.45,14589.94,-8168.98,-98469.28
-1,-5,71,-147,-216,3900,-0.11,0.30,13.77,-1.47,-2.16,39.00,-4.93,2.43,2.40,14553.09,-7624.95,-87450.49
10,-1,83,-94,-143,3880,-0.04,0.26,12.90,-0.94,-1.43,38.80,-4.91,2.43,2.34,13932.53,-7666.17,-83284.68
-9,7,248,-120,-350,3897,-0.09,0.28,13.13,-1.20,-3.50,38.97,-4.91,2.42,2.29,14730.68,-7949.69,-93880.18
-8,15,291,-149,-393,3903,-0.13,0.34,13.59,-1.49,-3.93,39.03,-4.93,2.42,2.24,14846.12,-8392.74,-98641.54
-12,6,428,-57,-429,3905,-0.19,0.35,14.84,-0.57,-4.29,39.05,-4.94,2.41,2.18,15170.12,-8067.24,-113078.52
-20,3,462,-80,-442,3923,-0.29,0.33,16.17,-0.80,-4.42,39.23,-4.95,2.41,2.12,15749.87,-7907.53,-121929.62
-3,16,564,-161,-481,3850,-0.28,0.39,18.00,-1.61,-4.81,38.50,-4.97,2.41,2.05,15184.30,-8544.69,-137327.06
-2,17,583,-114,-445,3899,-0.26,0.46,19.75,-1.14,-4.45,38.99,-4.98,2.41,1.97,15149.78,-8748.27,-147503.12
-20,7,651,-194,-493,3839,-0.36,0.46,21.75,-1.94,-4.93,38.39,-5.00,2.43,1.88,16062.86,-8433.34,-161780.94
-23,-4,673,-144,-426,3984,-0.46,0.39,23.68,-1.44,-4.26,39.84,-5.01,2.43,1.79,16481.34,-7884.62,-172996.77
-11,12,719,-175,-356,3883,-0.49,0.42,25.70,-1.75,-3.56,38.83,-5.03,2.45,1.69,16160.12,-8583.80,-186046.44
-11,15,727,-159,-321,3924,-0.50,0.47,27.56,-1.59,-3.21,39.24,-5.01,2.46,1.58,16151.67,-8829.67,-196027.94
-6,25,752,-165,-364,3852,-0.49,0.58,29.39,-1.65,-3.64,38.52,-5.02,2.47,1.46,15987.78,-9482.65,-206795.42
-9,19,752,-151,-389,3964,-0.50,0.63,31.04,-1.51,-3.89,39.64,-5.04,2.47,1.34,16143.83,-9442.86,-215100.53
-9,21,698,-13,-434,3922,-0.50,0.70,32.20,-0.13,-4.34,39.22,-5.04,2.47,1.21,16173.39,-9674.60,-217597.95
-11,27,676,21,-483,3872,-0.52,0.79,33.10,0.21,-4.83,38.72,-5.05,2.47,1.08,16307.62,-10128.09,-220613.09
-11,22,602,-23,-394,3910,-0.53,0.85,33.46,-0.23,-3.94,39.10,-5.05,2.47,0.94,16353.61,-10092.39,-217695.86
-10,12,587,-35,-328,3869,-0.54,0.84,33.70,-0.35,-3.28,38.69,-5.05,2.47,0.81,16323.18,-9709.52,-217530.06
-12,8,561,-44,-400,3844,-0.56,0.80,33.75,-0.44,-4.00,38.44,-5.05,2.46,0.68,16454.90,-9477.33,-215751.34
-13,7,556,-28,-437,3907,-0.58,0.76,33.77,-0.28,-4.37,39.07,-5.06,2.46,0.54,16568.74,-9344.21,-215005.62
-8,4,504,-70,-394,3920,-0.57,0.71,33.46,-0.70,-3.94,39.20,-5.06,2.46,0.41,16384.66,-9100.10,-209821.19
-14,4,493,-24,-359,3851,-0.60,0.67,33.12,-0.24,-3.59,38.51,-5.06,2.46,0.28,16661.13,-8967.22,-206833.97
-17,0,469,-39,-415,3846,-0.65,0.60,32.67,-0.39,-4.15,38.46,-5.07,2.46,0.15,16895.60,-8651.03,-202496.38
-11,17,471,-86,-457,3865,-0.65,0.64,32.28,-0.86,-4.57,38.65,-5.08,2.46,0.02,16730.62,-9359.55,-199988.12
-5,8,439,-34,-404,3928,-0.61,0.63,31.73,-0.34,-4.04,39.28,-5.08,2.46,-0.11,16446.31,-9000.33,-194673.23
-7,1,427,-12,-422,3943,-0.60,0.57,31.16,-0.12,-4.22,39.43,-5.09,2.45,-0.23,16479.80,-8602.44,-190436.11
0,10,377,-7,-421,3922,-0.54,0.57,30.34,-0.07,-4.21,39.22,-5.09,2.45,-0.35,16096.95,-8911.57,-182671.20
6,15,361,5,-433,3903,-0.45,0.61,29.51,0.05,-4.33,39.03,-5.10,2.45,-0.47,15670.07,-9161.90,-176816.48
6,14,349,-72,-437,3966,-0.36,0.63,28.69,-0.72,-4.37,39.66,-5.10,2.44,-0.58,15483.31,-9187.66,-171262.52
-3,7,364,-34,-432,3905,-0.35,0.61,28.04,-0.34,-4.32,39.05,-5.11,2.44,-0.69,15763.94,-8884.16,-168220.58
-1,5,384,-99,-346,3881,-0.32,0.58,27.58,-0.99,-3.46,38.81,-5.11,2.43,-0.80,15610.28,-8717.55,-166474.11
-5,-1,380,-99,-375,3843,-0.32,0.52,27.14,-0.99,-3.75,38.43,-5.11,2.43,-0.91,15758.03,-8330.15,-163453.45
-16,0,390,-71,-378,3906,-0.38,0.47,26.80,-0.71,-3.78,39.06,-5.11,2.42,-1.02,16314.52,-8212.15,-161814.66
