gyroADC_X,gyroADC_Y,gyroADC_Z,accADC_X,accADC_Y,accADC_Z,GyroX,GyroY,GyroZ,AccX,AccY,AccZ,roll_IMU,pitch_IMU,yaw_IMU,roll_PID,pitch_PID,yaw_PID
34,3,-444,-182,-363,4001,-0.92,-1.68,-29.97,-1.82,-3.63,40.01,-4.03,-2.22,64.12,2.22,1.86,3.72
25,-3,-516,-83,-247,3990,-0.67,-1.53,-30.12,-0.83,-2.47,39.90,-4.02,-2.22,64.24,2.33,1.94,4.35
-5,-26,-561,-65,-119,3869,-0.63,-1.53,-30.53,-0.65,-1.19,38.69,-4.01,-2.21,64.36,2.92,2.41,4.80
-15,-34,-564,7,-140,3871,-0.66,-1.59,-30.92,0.07,-1.40,38.71,-4.00,-2.22,64.48,3.12,2.59,4.88
-8,-25,-566,-38,-180,3931,-0.65,-1.58,-31.28,-0.38,-1.80,39.31,-3.99,-2.22,64.61,2.97,2.40,4.96
-15,-31,-575,43,-183,3856,-0.67,-1.61,-31.66,0.43,-1.83,38.56,-3.97,-2.22,64.73,3.11,2.53,5.10
52,2,-558,-103,-256,3727,-0.29,-1.44,-31.90,-1.03,-2.56,37.27,-3.97,-2.21,64.86,1.64,1.81,4.99
15,9,-531,-88,-256,3680,-0.17,-1.24,-31.95,-0.88,-2.56,36.80,-3.96,-2.21,64.99,2.36,1.61,4.76
-17,-16,-463,121,-282,3881,-0.25,-1.21,-31.58,1.21,-2.82,38.81,-3.97,-2.20,65.11,3.03,2.11,4.10
14,12,-450,65,-414,4033,-0.14,-1.02,-31.16,0.65,-4.14,40.33,-3.98,-2.21,65.24,2.38,1.49,3.90
21,6,-368,-3,-518,3887,-0.00,-0.88,-30.29,-0.03,-5.18,38.87,-3.99,-2.21,65.36,2.21,1.58,3.02
14,2,-341,-31,-537,3891,0.08,-0.78,-29.34,-0.31,-5.37,38.91,-4.00,-2.21,65.47,2.33,1.63,2.60
8,5,-283,-49,-545,3875,0.12,-0.67,-28.14,-0.49,-5.45,38.75,-4.01,-2.21,65.58,2.45,1.54,1.87
19,10,-189,-47,-527,3870,0.23,-0.54,-26.47,-0.47,-5.27,38.70,-4.02,-2.21,65.69,2.20,1.40,0.75
14,12,-160,-40,-496,3894,0.29,-0.42,-24.80,-0.40,-4.96,38.94,-4.03,-2.20,65.79,2.30,1.32,0.17
13,13,-119,2,-369,3940,0.34,-0.30,-23.05,0.02,-3.69,39.40,-4.03,-2.20,65.88,2.30,1.27,-0.52
8,11,-129,22,-325,3923,0.36,-0.20,-21.53,0.22,-3.25,39.23,-4.04,-2.19,65.97,2.40,1.27,-0.73
-4,-5,-208,57,-180,3860,0.30,-0.21,-20.65,0.57,-1.80,38.60,-4.02,-2.18,66.05,2.65,1.60,-0.24
1,-4,-228,34,-218,3893,0.27,-0.21,-19.97,0.34,-2.18,38.93,-4.01,-2.17,66.13,2.55,1.57,-0.20
5,-10,-269,28,-137,3930,0.28,-0.25,-19.62,0.28,-1.37,39.30,-3.99,-2.16,66.21,2.46,1.70,0.07
-2,-16,-288,12,-171,3919,0.24,-0.32,-19.41,0.12,-1.71,39.19,-3.97,-2.16,66.28,2.60,1.84,0.18
16,-3,-300,-68,-245,3902,0.31,-0.31,-19.30,-0.68,-2.45,39.02,-3.97,-2.15,66.36,2.21,1.56,0.26
57,40,-282,-109,-397,3936,0.63,-0.04,-19.09,-1.09,-3.97,39.36,-3.97,-2.13,66.44,1.29,0.60,0.06
9,2,-252,-7,-470,3895,0.62,-0.02,-18.72,-0.07,-4.70,38.95,-3.98,-2.13,66.51,2.27,1.37,-0.27
13,9,-240,-30,-415,3940,0.64,0.04,-18.31,-0.30,-4.15,39.40,-3.99,-2.12,66.58,2.19,1.21,-0.46
2,1,-172,-113,-515,3916,0.58,0.04,-17.53,-1.13,-5.15,39.16,-3.99,-2.11,66.65,2.44,1.36,-1.19
-2,2,-154,-87,-480,3884,0.51,0.05,-16.72,-0.87,-4.80,38.84,-4.00,-2.10,66.72,2.54,1.33,-1.51
4,5,-79,-26,-426,3888,0.49,0.07,-15.53,-0.26,-4.26,38.88,-4.01,-2.09,66.78,2.43,1.26,-2.37
3,7,-65,-19,-408,3901,0.46,0.11,-14.37,-0.19,-4.08,39.01,-4.02,-2.08,66.84,2.47,1.20,-2.72
-1,-4,-68,-118,-313,3906,0.40,0.07,-13.35,-1.18,-3.13,39.06,-4.02,-2.07,66.89,2.56,1.43,-2.89
2,-5,-75,-134,-268,3892,0.38,0.04,-12.47,-1.34,-2.68,38.92,-4.01,-2.05,66.94,2.50,1.45,-3.01
10,-2,-124,-61,-233,3940,0.40,0.02,-11.98,-0.61,-2.33,39.40,-4.00,-2.04,66.99,2.33,1.38,-2.69
8,-3,-170,-76,-269,3887,0.41,-0.00,-11.82,-0.76,-2.69,38.87,-4.00,-2.02,67.04,2.37,1.40,-2.33
-1,-6,-256,-70,-268,3925,0.36,-0.04,-12.20,-0.70,-2.68,39.25,-4.00,-2.01,67.09,2.56,1.46,-1.54
1,-6,-265,-75,-256,3949,0.33,-0.07,-12.60,-0.75,-2.56,39.49,-3.99,-1.99,67.14,2.52,1.46,-1.39
18,13,-280,18,-346,3826,0.41,0.02,-13.04,0.18,-3.46,38.26,-4.00,-1.98,67.19,2.16,1.04,-1.18
4,-10,-285,-32,-377,3903,0.39,-0.05,-13.48,-0.32,-3.77,39.03,-4.01,-1.97,67.24,2.46,1.52,-1.06
-7,-8,-268,33,-466,3954,0.31,-0.09,-13.76,0.33,-4.66,39.54,-4.02,-1.96,67.30,2.71,1.48,-1.16
-1,-1,-264,4,-426,3991,0.27,-0.09,-14.00,0.04,-4.26,39.91,-4.03,-1.96,67.35,2.61,1.34,-1.15
19,11,-261,-3,-339,3843,0.36,-0.01,-14.19,-0.03,-3.39,38.43,-4.03,-1.94,67.41,2.18,1.06,-1.14
13,7,-246,9,-348,3908,0.40,0.03,-14.27,0.09,-3.48,39.08,-4.04,-1.93,67.46,2.29,1.12,-1.26
-3,-9,-263,-11,-379,3915,0.35,-0.03,-14.45,-0.11,-3.79,39.15,-4.05,-1.92,67.52,2.64,1.46,-1.09
-20,-29,-315,52,-424,3926,0.19,-0.20,-14.93,0.52,-4.24,39.26,-4.06,-1.92,67.58,3.03,1.91,-0.56
-22,-34,-423,110,-346,3949,0.04,-0.39,-16.01,1.10,-3.46,39.49,-4.08,-1.92,67.64,3.13,2.06,0.56
-6,-8,-423,68,-99,4259,-0.00,-0.40,-16.99,0.68,-0.99,42.59,-4.06,-1.92,67.71,2.80,1.54,0.74
1,-5,-423,-57,-372,3782,0.00,-0.39,-17.87,-0.57,-3.72,37.82,-4.06,-1.91,67.78,2.66,1.47,0.90
-17,-31,-437,-45,-333,3911,-0.10,-0.54,-18.75,-0.45,-3.33,39.11,-4.07,-1.90,67.86,3.06,2.03,1.18
69,52,-456,-78,-363,3611,0.33,-0.17,-19.66,-0.78,-3.63,36.11,-4.07,-1.89,67.94,1.19,0.23,1.51
6,2,-476,-127,-325,3815,0.33,-0.14,-20.60,-1.27,-3.25,38.15,-4.07,-1.88,68.02,2.47,1.24,1.85
-39,-48,-495,-42,-165,4121,0.06,-0.42,-21.56,-0.42,-1.65,41.21,-4.06,-1.87,68.10,3.45,2.32,2.18
42,65,-458,-122,-61,4333,0.31,0.02,-22.19,-1.22,-0.61,43.33,-4.04,-1.86,68.19,1.73,-0.10,1.98
16,1,-458,-108,-276,3861,0.38,0.02,-22.77,-1.08,-2.76,38.61,-4.04,-1.85,68.28,2.24,1.19,2.09
-4,-27,-443,32,-372,3951,0.32,-0.14,-23.19,0.32,-3.72,39.51,-4.04,-1.84,68.38,2.66,1.81,2.03
-34,-21,-292,-30,-278,4109,0.08,-0.26,-22.66,-0.30,-2.78,41.09,-4.04,-1.83,68.47,3.34,1.71,0.64
37,24,-252,-72,-374,3835,0.30,-0.08,-21.93,-0.72,-3.74,38.35,-4.04,-1.82,68.55,1.84,0.74,0.16
-26,-32,-225,15,-277,3879,0.11,-0.27,-21.11,0.15,-2.77,38.79,-4.04,-1.81,68.64,3.17,1.92,-0.24
-25,-32,-234,-28,-234,3891,-0.06,-0.44,-20.42,-0.28,-2.34,38.91,-4.03,-1.80,68.72,3.19,1.96,-0.30
-15,-22,-263,-58,-223,3949,-0.14,-0.53,-19.99,-0.58,-2.23,39.49,-4.03,-1.79,68.80,3.00,1.78,-0.14
-19,-27,-260,-31,-299,3893,-0.24,-0.64,-19.57,-0.31,-2.99,38.93,-4.03,-1.78,68.88,3.11,1.90,-0.26
10,9,-235,-61,-360,3914,-0.16,-0.52,-19.05,-0.61,-3.60,39.14,-4.03,-1.77,68.95,2.50,1.13,-0.57
1,5,-234,-46,-347,3898,-0.14,-0.44,-18.57,-0.46,-3.47,38.98,-4.04,-1.76,69.03,2.68,1.18,-0.68
-9,-18,-296,6,-241,3944,-0.18,-0.51,-18.52,0.06,-2.41,39.44,-4.03,-1.75,69.10,2.89,1.66,-0.17
-7,-19,-302,-14,-277,3959,-0.20,-0.57,-18.51,-0.14,-2.77,39.59,-4.03,-1.74,69.17,2.86,1.69,-0.13
-10,-16,-340,-1,-280,3867,-0.24,-0.61,-18.73,-0.01,-2.80,38.67,-4.03,-1.73,69.25,2.93,1.64,0.23
-3,-13,-362,-48,-231,3892,-0.24,-0.63,-19.07,-0.48,-2.31,38.92,-4.03,-1.72,69.33,2.78,1.57,0.47
-6,-21,-420,-76,-327,3939,-0.25,-0.69,-19.72,-0.76,-3.27,39.39,-4.03,-1.71,69.40,2.85,1.75,1.08
-7,-10,-456,-81,-337,3925,-0.27,-0.69,-20.53,-0.81,-3.37,39.25,-4.03,-1.70,69.49,2.88,1.52,1.53
32,14,-551,-74,-333,3814,-0.05,-0.53,-21.84,-0.74,-3.33,38.14,-4.04,-1.69,69.57,2.03,0.98,2.58
48,34,-548,-155,-263,3946,0.25,-0.27,-23.00,-1.55,-2.63,39.46,-4.03,-1.68,69.66,1.62,0.49,2.77
28,33,-461,-27,-510,3764,0.40,-0.04,-23.51,-0.27,-5.10,37.64,-4.04,-1.68,69.76,1.99,0.45,2.12
22,9,-452,6,-491,4003,0.49,0.02,-23.92,0.06,-4.91,40.03,-4.05,-1.68,69.85,2.09,0.92,2.11
20,-1,-428,-9,-360,3890,0.56,0.01,-24.14,-0.09,-3.60,38.90,-4.06,-1.67,69.95,2.12,1.12,1.94
16,6,-416,-136,-340,3956,0.61,0.04,-24.26,-1.36,-3.40,39.56,-4.06,-1.66,70.04,2.19,0.96,1.86
19,10,-413,0,-155,3999,0.66,0.10,-24.35,0.00,-1.55,39.99,-4.04,-1.65,70.14,2.10,0.86,1.84
4,6,-383,-3,-78,3932,0.62,0.13,-24.25,-0.03,-0.78,39.32,-4.02,-1.65,70.24,2.40,0.93,1.56
3,6,-309,-19,-221,3934,0.58,0.15,-23.71,-0.19,-2.21,39.34,-4.01,-1.64,70.33,2.43,0.92,0.82
6,7,-289,4,-141,3911,0.55,0.18,-23.11,0.04,-1.41,39.11,-3.99,-1.63,70.43,2.36,0.89,0.53
11,5,-297,21,-136,3907,0.57,0.19,-22.61,0.21,-1.36,39.07,-3.97,-1.63,70.52,2.24,0.92,0.49
3,-6,-280,83,33,3980,0.53,0.14,-22.05,0.83,0.33,39.80,-3.94,-1.63,70.61,2.40,1.16,0.23
-6,-4,-278,71,-191,3888,0.44,0.10,-21.54,0.71,-1.91,38.88,-3.92,-1.63,70.69,2.59,1.13,0.11
9,-16,-287,130,-254,3930,0.45,-0.01,-21.14,1.30,-2.54,39.30,-3.91,-1.65,70.78,2.27,1.42,0.10
1,-2,-251,72,-277,3924,0.41,-0.02,-20.56,0.72,-2.77,39.24,-3.91,-1.64,70.86,2.45,1.13,-0.32
3,-7,-236,-14,-178,3883,0.39,-0.06,-19.94,-0.14,-1.78,38.83,-3.89,-1.63,70.94,2.40,1.23,-0.57
-4,-8,-272,-80,-185,3922,0.32,-0.10,-19.61,-0.80,-1.85,39.22,-3.88,-1.62,71.02,2.56,1.26,-0.34
6,-6,-276,-88,-208,3954,0.33,-0.13,-19.33,-0.88,-2.08,39.54,-3.87,-1.61,71.10,2.34,1.22,-0.37
-1,4,-276,-111,-295,3918,0.29,-0.09,-19.08,-1.11,-2.95,39.18,-3.87,-1.59,71.17,2.50,1.00,-0.42
17,5,-265,-67,-275,3928,0.36,-0.05,-18.79,-0.67,-2.75,39.28,-3.87,-1.58,71.25,2.11,0.96,-0.58
2,0,-256,-47,-314,3885,0.34,-0.05,-18.47,-0.47,-3.14,38.85,-3.87,-1.57,71.32,2.42,1.05,-0.72
2,-7,-251,26,-313,3924,0.32,-0.09,-18.16,0.26,-3.13,39.24,-3.88,-1.56,71.39,2.43,1.19,-0.83
-10,-17,-238,4,-278,3858,0.23,-0.18,-17.79,0.04,-2.78,38.58,-3.88,-1.55,71.46,2.70,1.41,-1.02
-16,-20,-232,25,-272,3890,0.11,-0.28,-17.43,0.25,-2.72,38.90,-3.88,-1.53,71.53,2.86,1.50,-1.14
-15,-29,-279,8,-254,3910,0.00,-0.43,-17.39,0.08,-2.54,39.10,-3.87,-1.52,71.60,2.86,1.71,-0.76
-31,-34,-313,7,-180,3904,-0.19,-0.60,-17.56,0.07,-1.80,39.04,-3.86,-1.51,71.67,3.23,1.85,-0.44
-16,-19,-366,-4,-193,3896,-0.26,-0.65,-18.03,-0.04,-1.93,38.96,-3.85,-1.51,71.74,2.94,1.56,0.09
-11,-15,-378,-13,-180,3922,-0.31,-0.68,-18.54,-0.13,-1.80,39.22,-3.84,-1.50,71.82,2.84,1.48,0.28
19,4,-387,-115,-217,3943,-0.16,-0.59,-19.04,-1.15,-2.17,39.43,-3.83,-1.49,71.89,2.19,1.06,0.45
9,13,-382,-147,-374,3855,-0.09,-0.45,-19.47,-1.47,-3.74,38.55,-3.84,-1.48,71.97,2.38,0.83,0.48
10,4,-423,-72,-362,3957,-0.02,-0.38,-20.10,-0.72,-3.62,39.57,-3.85,-1.47,72.05,2.34,0.99,0.94
10,19,-419,-89,-344,3885,0.04,-0.23,-20.65,-0.89,-3.44,38.85,-3.85,-1.46,72.13,2.33,0.64,1.00
43,26,-402,-49,-375,3667,0.30,-0.04,-21.04,-0.49,-3.75,36.67,-3.86,-1.45,72.22,1.59,0.44,0.93
-40,-25,-431,-4,-459,3976,0.03,-0.19,-21.56,-0.04,-4.59,39.76,-3.87,-1.45,72.30,3.36,1.52,1.26
16,13,-423,-52,-418,4018,0.12,-0.09,-21.99,-0.52,-4.18,40.18,-3.88,-1.44,72.39,2.20,0.71,1.27
14,22,-398,-112,-340,3961,0.20,0.05,-22.21,-1.12,-3.40,39.61,-3.89,-1.43,72.48,2.23,0.48,1.09
24,21,-386,-14,-316,3900,0.32,0.17,-22.35,-0.14,-3.16,39.00,-3.89,-1.42,72.57,1.99,0.46,1.01
10,6,-382,-50,-248,3876,0.35,0.19,-22.44,-0.50,-2.48,38.76,-3.89,-1.41,72.66,2.27,0.75,0.99
10,0,-382,-11,-275,3916,0.38,0.17,-22.53,-0.11,-2.75,39.16,-3.88,-1.39,72.75,2.26,0.87,0.99
15,3,-366,-160,-363,3943,0.43,0.17,-22.51,-1.60,-3.63,39.43,-3.89,-1.38,72.84,2.14,0.80,0.85
12,1,-405,-1,-457,3915,0.46,0.16,-22.73,-0.01,-4.57,39.15,-3.90,-1.38,72.93,2.20,0.85,1.21
2,-4,-401,-31,-436,3922,0.43,0.12,-22.90,-0.31,-4.36,39.22,-3.91,-1.37,73.02,2.42,0.96,1.20
3,13,-342,-21,-489,3875,0.40,0.19,-22.70,-0.21,-4.89,38.75,-3.92,-1.37,73.11,2.42,0.59,0.66
3,4,-302,28,-516,3915,0.38,0.19,-22.27,0.28,-5.16,39.15,-3.94,-1.37,73.20,2.43,0.77,0.23
0,-3,-168,2,-467,3906,0.34,0.16,-21.07,0.02,-4.67,39.06,-3.95,-1.37,73.28,2.51,0.92,-1.15
0,-4,-138,9,-391,3924,0.31,0.12,-19.80,0.09,-3.91,39.24,-3.96,-1.36,73.36,2.53,0.95,-1.65
-7,-8,-115,-54,-355,3874,0.23,0.06,-18.52,-0.54,-3.55,38.74,-3.97,-1.35,73.43,2.70,1.04,-2.09
-3,-8,-123,-60,-290,3970,0.19,0.00,-17.42,-0.60,-2.90,39.70,-3.97,-1.34,73.50,2.63,1.05,-2.24
24,6,-134,-100,-459,3674,0.32,0.04,-16.50,-1.00,-4.59,36.74,-3.98,-1.33,73.57,2.05,0.75,-2.33
-8,-14,-164,-84,-526,3797,0.24,-0.05,-15.85,-0.84,-5.26,37.97,-3.99,-1.33,73.63,2.73,1.17,-2.21
-5,-3,-323,-92,-458,3929,0.18,-0.06,-16.23,-0.92,-4.58,39.29,-4.00,-1.32,73.70,2.69,0.95,-0.79
9,4,-350,-148,-332,3912,0.22,-0.03,-16.75,-1.48,-3.32,39.12,-4.00,-1.30,73.76,2.40,0.79,-0.47
-13,-14,-316,-105,-366,3822,0.12,-0.12,-17.00,-1.05,-3.66,38.22,-4.01,-1.29,73.83,2.88,1.17,-0.72
1,-18,-299,20,-417,3934,0.11,-0.21,-17.12,0.20,-4.17,39.34,-4.02,-1.29,73.90,2.60,1.28,-0.85
5,-21,-283,-105,-254,3937,0.13,-0.32,-17.14,-1.05,-2.54,39.37,-4.02,-1.28,73.97,2.51,1.36,-0.98
17,-10,-300,-108,64,3978,0.22,-0.35,-17.25,-1.08,0.64,39.78,-4.00,-1.28,74.04,2.23,1.14,-0.82
0,-5,-317,-164,-209,4005,0.20,-0.34,-17.46,-1.64,-2.09,40.05,-3.99,-1.27,74.11,2.58,1.03,-0.65
3,8,-364,-181,-207,3908,0.20,-0.26,-17.94,-1.81,-2.07,39.08,-3.99,-1.25,74.18,2.52,0.74,-0.16
7,4,-457,-171,-288,3913,0.22,-0.21,-18.93,-1.71,-2.88,39.13,-3.99,-1.24,74.25,2.43,0.80,0.81
-2,1,-470,-170,-377,3841,0.19,-0.18,-19.90,-1.70,-3.77,38.41,-3.99,-1.23,74.33,2.62,0.84,1.10
1,-6,-476,79,-415,3957,0.18,-0.20,-20.82,0.79,-4.15,39.57,-4.01,-1.24,74.41,2.58,0.99,1.31
12,-2,-477,171,-382,3861,0.23,-0.19,-21.64,1.71,-3.82,38.61,-4.02,-1.25,74.50,2.34,0.92,1.47
-2,-9,-340,76,-429,3886,0.20,-0.23,-21.55,0.76,-4.29,38.86,-4.03,-1.26,74.59,2.65,1.08,0.29
0,-1,-332,133,-489,3980,0.18,-0.21,-21.42,1.33,-4.89,39.80,-4.05,-1.27,74.67,2.62,0.92,0.19
4,6,-337,57,-404,3913,0.18,-0.15,-21.34,0.57,-4.04,39.13,-4.06,-1.27,74.76,2.55,0.76,0.20
3,4,-312,27,-367,3901,0.18,-0.11,-21.11,0.27,-3.67,39.01,-4.08,-1.27,74.84,2.58,0.79,-0.06
-2,6,-256,179,-309,3896,0.15,-0.07,-20.56,1.79,-3.09,38.96,-4.08,-1.29,74.92,2.69,0.75,-0.65
11,2,-244,78,-292,3887,0.20,-0.05,-19.99,0.78,-2.92,38.87,-4.09,-1.29,75.00,2.42,0.82,-0.86
1,-1,-227,-10,-239,3910,0.19,-0.05,-19.38,-0.10,-2.39,39.10,-4.08,-1.28,75.08,2.62,0.88,-1.13
-6,-8,-220,-20,-240,3915,0.13,-0.09,-18.78,-0.20,-2.40,39.15,-4.07,-1.27,75.15,2.77,1.02,-1.31
-5,-11,-238,-72,-192,3981,0.09,-0.15,-18.35,-0.72,-1.92,39.81,-4.06,-1.26,75.23,2.76,1.09,-1.25
9,-4,-250,-90,-101,3958,0.14,-0.16,-18.04,-0.90,-1.01,39.58,-4.05,-1.25,75.30,2.45,0.95,-1.21
-3,-2,-292,21,-296,3950,0.10,-0.16,-18.02,0.21,-2.96,39.50,-4.05,-1.24,75.37,2.71,0.90,-0.87
-4,-4,-288,-53,-312,3895,0.07,-0.17,-17.98,-0.53,-3.12,38.95,-4.05,-1.22,75.44,2.74,0.93,-0.91
-8,-7,-167,341,-497,3912,0.01,-0.19,-17.20,3.41,-4.97,39.12,-4.06,-1.24,75.51,2.84,1.02,-2.09
-3,-17,-87,217,-440,3911,-0.01,-0.28,-16.01,2.17,-4.40,39.11,-4.08,-1.26,75.57,2.75,1.25,-3.01
-5,-20,-78,-7,-362,3947,-0.04,-0.37,-14.88,-0.07,-3.62,39.47,-4.09,-1.25,75.63,2.81,1.33,-3.30
-6,-19,-92,-4,-349,3947,-0.07,-0.45,-13.96,-0.04,-3.49,39.47,-4.10,-1.24,75.69,2.85,1.33,-3.37
-1,-2,-132,19,-280,3950,-0.07,-0.42,-13.37,0.19,-2.80,39.50,-4.10,-1.23,75.74,2.74,0.97,-3.14
1,2,-133,54,-236,3911,-0.06,-0.36,-12.84,0.54,-2.36,39.11,-4.08,-1.23,75.79,2.69,0.87,-3.24
2,1,-156,-3,-246,3889,-0.04,-0.32,-12.51,-0.03,-2.46,38.89,-4.07,-1.21,75.84,2.66,0.87,-3.11
7,2,-155,3,-188,3899,0.01,-0.28,-12.20,0.03,-1.88,38.99,-4.06,-1.21,75.89,2.53,0.83,-3.19
-1,1,-136,-15,-330,3890,0.00,-0.24,-11.81,-0.15,-3.30,38.90,-4.07,-1.19,75.94,2.70,0.83,-3.43
0,-1,-141,-25,-341,3921,0.00,-0.22,-11.49,-0.25,-3.41,39.21,-4.07,-1.18,75.99,2.69,0.86,-3.45
0,4,-121,-74,-356,3910,0.00,-0.18,-11.08,-0.74,-3.56,39.10,-4.08,-1.17,76.03,2.69,0.74,-3.70
1,-4,-139,-61,-379,3888,0.01,-0.18,-10.82,-0.61,-3.79,38.88,-4.09,-1.16,76.07,2.68,0.90,-3.60
11,-6,-201,73,-235,3905,0.07,-0.20,-10.96,0.73,-2.35,39.05,-4.07,-1.16,76.12,2.44,0.94,-3.05
7,-2,-195,-36,-225,3898,0.11,-0.19,-11.06,-0.36,-2.25,38.98,-4.06,-1.15,76.16,2.51,0.85,-3.09
1,-2,-195,-32,-195,3889,0.10,-0.19,-11.14,-0.32,-1.95,38.89,-4.05,-1.14,76.21,2.62,0.84,-3.08
6,5,-196,-83,-176,3908,0.13,-0.14,-11.22,-0.83,-1.76,39.08,-4.04,-1.13,76.25,2.51,0.68,-3.06
4,7,-217,-133,-163,3901,0.14,-0.08,-11.42,-1.33,-1.63,39.01,-4.03,-1.11,76.30,2.54,0.61,-2.84
2,3,-226,-149,-202,3910,0.14,-0.05,-11.66,-1.49,-2.02,39.10,-4.02,-1.10,76.34,2.58,0.68,-2.73
8,15,-217,-5,-342,3930,0.17,0.04,-11.82,-0.05,-3.42,39.30,-4.03,-1.09,76.39,2.45,0.40,-2.78
10,3,-204,33,-329,3925,0.22,0.06,-11.88,0.33,-3.29,39.25,-4.04,-1.08,76.44,2.41,0.64,-2.88
0,2,-170,-57,-348,3954,0.20,0.06,-11.73,-0.57,-3.48,39.54,-4.05,-1.07,76.48,2.62,0.65,-3.20
2,-8,-185,-39,-267,3790,0.19,0.01,-11.68,-0.39,-2.67,37.90,-4.05,-1.05,76.53,2.58,0.85,-3.09
-7,3,-257,-21,-219,3926,0.13,0.03,-12.08,-0.21,-2.19,39.26,-4.04,-1.04,76.58,2.77,0.62,-2.41
7,1,-278,44,-284,3983,0.16,0.03,-12.57,0.44,-2.84,39.83,-4.04,-1.02,76.63,2.48,0.65,-2.14
-2,4,-360,-11,-266,3837,0.13,0.05,-13.51,-0.11,-2.66,38.37,-4.04,-1.01,76.68,2.67,0.57,-1.27
3,-3,-372,-44,-421,3930,0.13,0.03,-14.43,-0.44,-4.21,39.30,-4.05,-1.00,76.74,2.57,0.71,-1.00
5,9,-367,-58,-387,3891,0.15,0.08,-15.22,-0.58,-3.87,38.91,-4.06,-0.99,76.80,2.54,0.45,-0.89
-1,0,-366,0,-399,3886,0.13,0.07,-15.93,0.00,-3.99,38.86,-4.07,-0.99,76.86,2.67,0.63,-0.77
0,2,-313,-6,-344,3912,0.12,0.08,-16.25,-0.06,-3.44,39.12,-4.08,-0.98,76.93,2.66,0.58,-1.17
-2,6,-320,-50,-367,3925,0.09,0.11,-16.58,-0.50,-3.67,39.25,-4.09,-0.97,76.99,2.72,0.49,-1.05
5,1,-331,-103,-206,3886,0.11,0.10,-16.94,-1.03,-2.06,38.86,-4.09,-0.96,77.06,2.56,0.58,-0.89
-2,-13,-360,-83,-240,3906,0.09,0.01,-17.44,-0.83,-2.40,39.06,-4.08,-0.94,77.13,2.71,0.88,-0.56
-1,-4,-364,-79,-269,3867,0.08,-0.01,-17.92,-0.79,-2.69,38.67,-4.08,-0.93,77.20,2.69,0.70,-0.44
3,1,-347,-48,-361,3985,0.09,-0.01,-18.24,-0.48,-3.61,39.85,-4.09,-0.92,77.28,2.61,0.59,-0.53
8,1,-354,52,-461,3895,0.13,0.00,-18.58,0.52,-4.61,38.95,-4.10,-0.92,77.35,2.51,0.59,-0.41
0,-5,-353,-1,-425,3954,0.11,-0.03,-18.87,-0.01,-4.25,39.54,-4.12,-0.92,77.42,2.69,0.72,-0.37
-6,-8,-321,-11,-394,3878,0.07,-0.08,-18.94,-0.11,-3.94,38.78,-4.13,-0.92,77.50,2.83,0.79,-0.64
-4,-8,-314,-72,-433,3911,0.03,-0.12,-18.96,-0.72,-4.33,39.11,-4.14,-0.91,77.58,2.81,0.80,-0.70
0,-9,-324,-19,-409,3904,0.03,-0.16,-19.04,-0.19,-4.09,39.04,-4.16,-0.91,77.65,2.74,0.83,-0.60
-5,-6,-332,-84,-348,3840,-0.00,-0.18,-19.17,-0.84,-3.48,38.40,-4.16,-0.90,77.73,2.85,0.76,-0.52
4,-7,-348,68,-140,3977,0.02,-0.21,-19.37,0.68,-1.40,39.77,-4.14,-0.90,77.80,2.65,0.80,-0.35
1,3,-372,297,-140,3937,0.03,-0.17,-19.70,2.97,-1.40,39.37,-4.13,-0.93,77.88,2.70,0.60,-0.09
15,3,-238,-2,-332,3896,0.12,-0.13,-19.19,-0.02,-3.32,38.96,-4.14,-0.92,77.96,2.40,0.58,-1.33
4,10,-186,62,-299,3908,0.13,-0.06,-18.40,0.62,-2.99,39.08,-4.16,-0.92,78.03,2.63,0.42,-1.93
-3,6,-136,13,-360,3937,0.10,-0.02,-17.39,0.13,-3.60,39.37,-4.17,-0.92,78.10,2.79,0.49,-2.55
-3,11,-122,79,-372,3895,0.07,0.05,-16.40,0.79,-3.72,38.95,-4.19,-0.92,78.17,2.81,0.37,-2.87
-6,1,-18,37,-328,3919,0.03,0.05,-14.87,0.37,-3.28,39.19,-4.20,-0.92,78.23,2.89,0.57,-4.05
-1,2,-17,20,-346,3908,0.02,0.06,-13.48,0.20,-3.46,39.08,-4.22,-0.91,78.28,2.80,0.54,-4.32
1,4,-2,-3,-325,3906,0.02,0.08,-12.15,-0.03,-3.25,39.06,-4.23,-0.90,78.33,2.76,0.49,-4.71
0,3,0,2,-314,3897,0.02,0.09,-10.93,0.02,-3.14,38.97,-4.23,-0.89,78.37,2.79,0.50,-4.96
0,0,-2,-2,-310,3910,0.02,0.08,-9.85,-0.02,-3.10,39.10,-4.24,-0.87,78.41,2.79,0.55,-5.16
0,1,-3,-16,-313,3902,0.02,0.08,-8.88,-0.16,-3.13,39.02,-4.24,-0.86,78.45,2.80,0.52,-5.34
-1,0,-2,-13,-308,3900,0.01,0.07,-8.01,-0.13,-3.08,39.00,-4.25,-0.84,78.48,2.82,0.53,-5.52
-1,1,0,-4,-309,3896,0.00,0.07,-7.21,-0.04,-3.09,38.96,-4.25,-0.82,78.51,2.83,0.50,-5.69
-1,2,6,-3,-310,3910,-0.01,0.08,-6.45,-0.03,-3.10,39.10,-4.26,-0.81,78.53,2.83,0.47,-5.89
-2,1,6,-6,-309,3909,-0.02,0.07,-5.77,-0.06,-3.09,39.09,-4.26,-0.79,78.56,2.86,0.48,-6.02
-3,0,7,-6,-308,3898,-0.03,0.07,-5.15,-0.06,-3.08,38.98,-4.27,-0.78,78.58,2.89,0.49,-6.15
-3,0,9,-9,-309,3902,-0.05,0.06,-4.58,-0.09,-3.09,39.02,-4.27,-0.76,78.59,2.89,0.48,-6.27
-7,0,14,-18,-319,3902,-0.09,0.05,-4.04,-0.18,-3.19,39.02,-4.28,-0.74,78.61,2.99,0.48,-6.42
-8,0,13,-16,-313,3908,-0.13,0.05,-3.55,-0.16,-3.13,39.08,-4.28,-0.73,78.62,3.02,0.47,-6.51
-2,8,60,161,-436,3898,-0.13,0.09,-2.83,1.61,-4.36,38.98,-4.30,-0.74,78.64,2.91,0.30,-7.04
-4,7,132,135,-463,3923,-0.14,0.13,-1.74,1.35,-4.63,39.23,-4.32,-0.75,78.64,2.97,0.32,-7.86
-2,10,290,160,-441,3877,-0.14,0.17,0.20,1.60,-4.41,38.77,-4.33,-0.76,78.64,2.94,0.25,-9.57
-2,-8,317,130,-417,3936,-0.13,0.11,2.11,1.30,-4.17,39.36,-4.35,-0.77,78.63,2.95,0.64,-10.17
-5,7,377,-50,-293,3902,-0.15,0.14,4.20,-0.50,-2.93,39.02,-4.35,-0.75,78.62,3.01,0.31,-11.07
-8,-4,376,-36,-248,3933,-0.19,0.10,6.08,-0.36,-2.48,39.33,-4.34,-0.73,78.59,3.08,0.53,-11.42
-2,-1,304,-135,-191,3878,-0.18,0.09,7.32,-1.35,-1.91,38.78,-4.33,-0.71,78.56,2.95,0.46,-11.05
2,0,281,-89,-203,3910,-0.15,0.08,8.30,-0.89,-2.03,39.10,-4.32,-0.69,78.53,2.85,0.44,-11.04
2,4,217,-88,-272,3929,-0.12,0.09,8.80,-0.88,-2.72,39.29,-4.32,-0.67,78.50,2.84,0.34,-10.58
-4,0,209,-42,-282,3871,-0.13,0.08,9.19,-0.42,-2.82,38.71,-4.32,-0.65,78.46,2.97,0.41,-10.59
-3,5,252,76,-438,3982,-0.14,0.11,9.81,0.76,-4.38,39.82,-4.34,-0.65,78.42,2.96,0.30,-11.07
-8,0,300,148,-461,3899,-0.17,0.10,10.66,1.48,-4.61,38.99,-4.35,-0.66,78.38,3.08,0.41,-11.63
-4,5,444,68,-450,3932,-0.18,0.12,12.30,0.68,-4.50,39.32,-4.37,-0.65,78.33,3.02,0.30,-13.16
-13,-2,462,65,-449,3951,-0.24,0.09,13.89,0.65,-4.49,39.51,-4.39,-0.65,78.27,3.23,0.45,-13.61
-4,5,543,-85,-496,3904,-0.24,0.11,15.81,-0.85,-4.96,39.04,-4.41,-0.64,78.21,3.06,0.29,-14.66
-6,10,573,-127,-504,3859,-0.25,0.16,17.73,-1.27,-5.04,38.59,-4.43,-0.62,78.14,3.11,0.16,-15.27
-9,4,623,-101,-398,3920,-0.28,0.17,19.75,-1.01,-3.98,39.20,-4.44,-0.60,78.06,3.19,0.27,-16.08
-16,1,610,-121,-352,3887,-0.35,0.16,21.50,-1.21,-3.52,38.87,-4.45,-0.57,77.97,3.36,0.31,-16.29
-15,3,496,-225,-96,3790,-0.41,0.16,22.38,-2.25,-0.96,37.90,-4.44,-0.55,77.88,3.35,0.26,-15.49
1,5,450,-285,-54,3912,-0.36,0.18,22.88,-2.85,-0.54,39.12,-4.43,-0.53,77.79,3.00,0.20,-15.19
-11,1,230,-86,30,3928,-0.39,0.17,22.00,-0.86,0.30,39.28,-4.41,-0.51,77.71,3.24,0.27,-13.15
3,-1,124,60,72,3853,-0.34,0.14,20.55,0.60,0.72,38.53,-4.40,-0.51,77.62,2.93,0.32,-11.96
-4,-3,34,13,-264,3921,-0.33,0.11,18.71,0.13,-2.64,39.21,-4.38,-0.49,77.55,3.06,0.36,-10.84
-8,-1,32,-2,-294,3919,-0.34,0.09,17.03,-0.02,-2.94,39.19,-4.38,-0.47,77.48,3.15,0.30,-10.50
-2,-3,89,-106,-487,3931,-0.32,0.07,15.87,-1.06,-4.87,39.31,-4.40,-0.45,77.42,3.03,0.34,-10.75
-6,2,113,-96,-485,3926,-0.33,0.07,14.97,-0.96,-4.85,39.26,-4.42,-0.44,77.36,3.12,0.23,-10.78
-4,-4,272,-253,-343,3779,-0.32,0.04,15.13,-2.53,-3.43,37.79,-4.42,-0.41,77.30,3.09,0.34,-12.15
-6,-11,354,-171,-280,3908,-0.32,-0.03,15.78,-1.71,-2.80,39.08,-4.42,-0.39,77.23,3.13,0.49,-12.97
-11,1,457,-28,-286,3929,-0.36,-0.02,16.99,-0.28,-2.86,39.29,-4.42,-0.37,77.17,3.24,0.23,-14.06
-1,6,432,-66,-326,3943,-0.33,0.02,17.93,-0.66,-3.26,39.43,-4.42,-0.35,77.10,3.03,0.10,-14.02
-3,14,329,67,-329,3895,-0.31,0.10,18.14,0.67,-3.29,38.95,-4.43,-0.35,77.02,3.07,-0.08,-13.19
-1,10,293,135,-261,3952,-0.29,0.15,18.11,1.35,-2.61,39.52,-4.43,-0.37,76.95,3.02,-0.00,-12.87
-5,1,264,33,-342,3892,-0.29,0.14,17.91,0.33,-3.42,38.92,-4.45,-0.36,76.88,3.12,0.18,-12.58
-7,-1,249,84,-314,3926,-0.30,0.12,17.64,0.84,-3.14,39.26,-4.45,-0.38,76.81,3.16,0.23,-12.39
-2,-1,193,-17,-289,3873,-0.29,0.10,17.05,-0.17,-2.89,38.73,-4.45,-0.35,76.74,3.05,0.22,-11.80
-6,0,184,-51,-313,3882,-0.29,0.09,16.47,-0.51,-3.13,38.82,-4.45,-0.33,76.68,3.14,0.19,-11.61
-1,-4,133,13,-261,3912,-0.27,0.06,15.64,0.13,-2.61,39.12,-4.44,-0.32,76.61,3.02,0.28,-11.01
-2,-2,139,-22,-315,3887,-0.26,0.04,14.92,-0.22,-3.15,38.87,-4.44,-0.30,76.55,3.04,0.23,-10.92
2,2,181,-3,-326,3925,-0.22,0.05,14.53,-0.03,-3.26,39.25,-4.46,-0.28,76.50,2.96,0.13,-11.20
-1,8,187,-9,-350,3921,-0.20,0.09,14.22,-0.09,-3.50,39.21,-4.47,-0.26,76.44,3.03,-0.01,-11.18
-4,12,257,8,-251,3934,-0.21,0.16,14.36,0.08,-2.51,39.34,-4.46,-0.26,76.38,3.08,-0.12,-11.80
-4,16,292,64,-265,3895,-0.21,0.24,14.71,0.64,-2.65,38.95,-4.45,-0.26,76.32,3.07,-0.22,-12.15
-7,10,335,46,-317,3845,-0.23,0.28,15.28,0.46,-3.17,38.45,-4.46,-0.27,76.26,3.15,-0.10,-12.62
-10,6,342,12,-365,3953,-0.27,0.29,15.84,0.12,-3.65,39.53,-4.48,-0.27,76.20,3.23,-0.02,-12.78
-1,3,394,92,-348,3903,-0.25,0.27,16.66,0.92,-3.48,39.03,-4.49,-0.28,76.13,3.05,0.05,-13.37
-8,3,422,146,-382,3882,-0.27,0.27,17.57,1.46,-3.82,38.82,-4.50,-0.28,76.06,3.21,0.05,-13.78
-16,6,559,196,-443,3819,-0.34,0.28,19.22,1.96,-4.43,38.19,-4.51,-0.29,75.99,3.40,-0.00,-15.25
-9,20,610,97,-438,4001,-0.36,0.37,21.02,0.97,-4.38,40.01,-4.53,-0.29,75.90,3.27,-0.31,-16.02
5,12,747,123,-479,3934,-0.30,0.41,23.47,1.23,-4.79,39.34,-4.55,-0.29,75.81,2.98,-0.16,-17.64
-17,0,791,131,-456,3888,-0.37,0.37,25.95,1.31,-4.56,38.88,-4.56,-0.29,75.71,3.46,0.09,-18.47
-4,11,940,126,-454,3844,-0.36,0.40,29.09,1.26,-4.54,38.44,-4.58,-0.29,75.59,3.20,-0.14,-20.00
-4,10,997,155,-374,3866,-0.35,0.42,32.26,1.55,-3.74,38.66,-4.59,-0.30,75.46,3.20,-0.12,-20.00
-15,-4,1038,-11,-303,3775,-0.40,0.35,35.37,-0.11,-3.03,37.75,-4.59,-0.27,75.32,3.45,0.16,-20.00
-25,-9,1000,-80,-337,4027,-0.52,0.26,37.93,-0.80,-3.37,40.27,-4.60,-0.24,75.17,3.68,0.27,-20.00
-18,9,886,-135,-158,3906,-0.57,0.29,39.54,-1.35,-1.58,39.06,-4.59,-0.21,75.01,3.55,-0.12,-20.00
-4,3,870,-130,-108,3905,-0.54,0.28,40.90,-1.30,-1.08,39.05,-4.57,-0.19,74.85,3.25,-0.01,-20.00
-6,-2,833,-24,-156,3884,-0.52,0.24,41.89,-0.24,-1.56,38.84,-4.56,-0.17,74.68,3.27,0.09,-20.00
3,10,814,-73,-243,3946,-0.45,0.28,42.66,-0.73,-2.43,39.46,-4.55,-0.14,74.51,3.06,-0.19,-20.00
-10,-2,689,-116,-248,3888,-0.47,0.24,42.60,-1.16,-2.48,38.88,-4.54,-0.11,74.34,3.33,0.05,-20.00
-11,7,655,-130,-348,3893,-0.49,0.26,42.34,-1.30,-3.48,38.93,-4.55,-0.08,74.17,3.36,-0.16,-20.00
-21,-16,546,-261,-209,3890,-0.57,0.13,41.43,-2.61,-2.09,38.90,-4.55,-0.04,74.01,3.58,0.32,-19.20
-42,-25,454,-278,-288,3892,-0.77,-0.03,40.06,-2.78,-2.88,38.92,-4.55,-0.01,73.85,4.07,0.53,-18.15
-28,-18,291,-197,-220,3935,-0.86,-0.14,37.83,-1.97,-2.20,39.35,-4.54,0.01,73.70,3.80,0.39,-16.33
-24,-16,259,-152,-175,3870,-0.92,-0.22,35.63,-1.52,-1.75,38.70,-4.54,0.04,73.56,3.73,0.36,-15.62
3,7,167,-77,-237,3920,-0.81,-0.16,33.08,-0.77,-2.37,39.20,-4.53,0.06,73.42,3.15,-0.14,-14.35
4,10,155,-65,-278,3883,-0.71,-0.08,30.72,-0.65,-2.78,38.83,-4.52,0.09,73.30,3.09,-0.24,-13.78
12,20,195,-108,-288,3929,-0.56,0.05,28.84,-1.08,-2.88,39.29,-4.52,0.11,73.19,2.89,-0.50,-13.75
13,18,231,-79,-281,3931,-0.43,0.15,27.36,-0.79,-2.81,39.31,-4.51,0.14,73.08,2.83,-0.50,-13.76
17,30,408,-39,-229,3962,-0.28,0.32,27.11,-0.39,-2.29,39.62,-4.50,0.16,72.97,2.70,-0.80,-15.21
26,26,457,-29,-267,3936,-0.09,0.45,27.19,-0.29,-2.67,39.36,-4.48,0.17,72.86,2.45,-0.77,-15.63
-19,15,528,114,-513,3891,-0.20,0.49,27.69,1.14,-5.13,38.91,-4.50,0.17,72.75,3.41,-0.56,-16.31
2,22,485,95,-430,4072,-0.17,0.58,27.88,0.95,-4.30,40.72,-4.51,0.17,72.64,2.98,-0.72,-15.98
3,9,474,108,-477,3851,-0.13,0.58,27.99,1.08,-4.77,38.51,-4.52,0.17,72.53,2.96,-0.45,-15.89
-3,12,477,5,-323,3987,-0.14,0.59,28.10,0.05,-3.23,39.87,-4.53,0.17,72.42,3.09,-0.52,-15.93
-29,-13,494,83,-381,3938,-0.30,0.45,28.30,0.83,-3.81,39.38,-4.54,0.16,72.30,3.67,0.03,-16.10
-4,-1,479,17,-401,3906,-0.30,0.40,28.39,0.17,-4.01,39.06,-4.56,0.17,72.19,3.17,-0.20,-15.98
-28,-15,455,49,-364,3949,-0.44,0.27,28.33,0.49,-3.64,39.49,-4.57,0.17,72.08,3.71,0.12,-15.76
-2,2,445,-59,-305,3938,-0.41,0.26,28.21,-0.59,-3.05,39.38,-4.57,0.19,71.96,3.17,-0.24,-15.64
-2,-4,416,-73,-219,3845,-0.38,0.21,27.93,-0.73,-2.19,38.45,-4.56,0.21,71.85,3.15,-0.12,-15.33
-3,6,444,-68,-148,3905,-0.36,0.22,27.84,-0.68,-1.48,39.05,-4.54,0.23,71.74,3.16,-0.33,-15.54
-18,1,494,-69,-282,3917,-0.43,0.21,28.07,-0.69,-2.82,39.17,-4.53,0.25,71.63,3.48,-0.24,-16.00
-13,3,500,-81,-293,3966,-0.47,0.20,28.31,-0.81,-2.93,39.66,-4.53,0.28,71.52,3.38,-0.30,-16.08
-38,-19,525,-9,-404,3915,-0.65,0.07,28.69,-0.09,-4.04,39.15,-4.55,0.29,71.40,3.95,0.18,-16.36
-40,-24,499,-47,-380,3937,-0.83,-0.09,28.86,-0.47,-3.80,39.37,-4.57,0.30,71.29,4.06,0.31,-16.16
-42,-32,427,37,-291,3856,-1.00,-0.27,28.58,0.37,-2.91,38.56,-4.57,0.30,71.17,4.14,0.53,-15.49
-40,-35,433,-37,-197,3886,-1.15,-0.46,28.36,-0.37,-1.97,38.86,-4.55,0.30,71.06,4.13,0.64,-15.48
-45,-39,415,-42,-302,3926,-1.31,-0.65,28.06,-0.42,-3.02,39.26,-4.55,0.33,70.95,4.27,0.75,-15.26
-45,-34,411,-11,-351,3883,-1.45,-0.79,27.76,-0.11,-3.51,38.83,-4.57,0.33,70.84,4.33,0.69,-15.16
-60,-48,341,-69,-455,3813,-1.67,-1.01,27.06,-0.69,-4.55,38.13,-4.60,0.34,70.73,4.71,1.03,-14.43
-90,-63,323,-26,-355,3917,-2.05,-1.29,26.33,-0.26,-3.55,39.17,-4.62,0.34,70.62,5.44,1.41,-14.12
0,12,302,-52,-358,3969,-1.85,-1.09,25.54,-0.52,-3.58,39.69,-4.64,0.36,70.52,3.57,-0.18,-13.79
-8,-2,315,31,-416,3856,-1.71,-0.99,24.90,0.31,-4.16,38.56,-4.67,0.35,70.42,3.71,0.08,-13.77
-9,3,341,32,-365,3917,-1.60,-0.87,24.49,0.32,-3.65,39.17,-4.68,0.34,70.33,3.71,-0.05,-13.90
-18,-5,337,88,-442,3858,-1.55,-0.82,24.10,0.88,-4.42,38.58,-4.70,0.34,70.23,3.89,0.10,-13.78
15,10,330,-91,-331,3859,-1.30,-0.67,23.70,-0.91,-3.31,38.59,-4.71,0.36,70.13,3.16,-0.26,-13.64
-7,7,334,-56,-330,4000,-1.21,-0.56,23.37,-0.56,-3.30,40.00,-4.72,0.38,70.04,3.59,-0.24,-13.60
-3,6,271,-45,-341,3922,-1.11,-0.47,22.69,-0.45,-3.41,39.22,-4.73,0.40,69.95,3.49,-0.26,-12.93
-9,0,259,-7,-330,3891,-1.05,-0.42,22.00,-0.07,-3.30,38.91,-4.74,0.39,69.86,3.60,-0.14,-12.69
-6,3,233,-42,-269,3851,-0.99,-0.36,21.22,-0.42,-2.69,38.51,-4.73,0.40,69.78,3.51,-0.23,-12.31
-3,8,215,-60,-309,3905,-0.90,-0.28,20.41,-0.60,-3.09,39.05,-4.72,0.42,69.70,3.43,-0.37,-11.99
0,13,167,-116,-243,3873,-0.81,-0.17,19.39,-1.16,-2.43,38.73,-4.71,0.44,69.62,3.33,-0.51,-11.39
28,40,233,-219,-110,3923,-0.56,0.09,18.87,-2.19,-1.10,39.23,-4.70,0.46,69.54,2.69,-1.14,-11.84
-6,21,288,125,-494,3935,-0.54,0.21,18.74,1.25,-4.94,39.35,-4.72,0.46,69.47,3.38,-0.79,-12.27
69,48,260,-96,-408,3961,-0.07,0.48,18.45,-0.96,-4.08,39.61,-4.73,0.48,69.40,1.74,-1.42,-11.97
28,28,308,-81,-358,3847,0.11,0.60,18.48,-0.81,-3.58,38.47,-4.74,0.50,69.32,2.53,-1.06,-12.38
-1,37,326,-25,-378,3948,0.09,0.77,18.63,-0.25,-3.78,39.48,-4.76,0.50,69.25,3.14,-1.30,-12.55
-20,21,426,51,-346,3952,-0.04,0.82,19.36,0.51,-3.46,39.52,-4.76,0.50,69.17,3.56,-0.98,-13.53
-2,8,449,110,-342,3837,-0.05,0.79,20.16,1.10,-3.42,38.37,-4.76,0.49,69.09,3.20,-0.70,-13.88
-19,-8,476,-92,-573,3833,-0.16,0.66,21.05,-0.92,-5.73,38.33,-4.78,0.50,69.01,3.59,-0.35,-14.27
-28,-9,491,-134,-419,3917,-0.31,0.54,21.94,-1.34,-4.19,39.17,-4.79,0.52,68.92,3.82,-0.31,-14.56
-46,-29,480,-112,-422,3950,-0.56,0.31,22.68,-1.12,-4.22,39.50,-4.81,0.55,68.83,4.26,0.15,-14.59
-38,-23,447,-167,-345,3927,-0.74,0.14,23.13,-1.67,-3.45,39.27,-4.81,0.57,68.74,4.15,0.05,-14.39
-36,-18,416,-40,-277,3952,-0.88,0.01,23.36,-0.40,-2.77,39.52,-4.80,0.58,68.65,4.14,-0.02,-14.17
-21,2,387,72,-255,3869,-0.92,0.02,23.38,0.72,-2.55,38.69,-4.79,0.57,68.55,3.84,-0.43,-13.92
-8,2,262,-5,-188,3946,-0.88,0.03,22.64,-0.05,-1.88,39.46,-4.78,0.58,68.46,3.55,-0.43,-12.71
-6,4,234,57,-181,3918,-0.83,0.05,21.81,0.57,-1.81,39.18,-4.76,0.57,68.37,3.49,-0.47,-12.30
-4,-1,125,97,-184,3934,-0.77,0.04,20.39,0.97,-1.84,39.34,-4.75,0.57,68.29,3.43,-0.37,-11.10
1,-1,100,79,-183,3902,-0.69,0.03,18.96,0.79,-1.83,39.02,-4.74,0.56,68.22,3.30,-0.36,-10.61
1,-4,51,16,-343,3908,-0.61,0.01,17.37,0.16,-3.43,39.08,-4.75,0.55,68.15,3.28,-0.28,-9.89
-1,-2,57,20,-377,3877,-0.56,-0.01,15.98,0.20,-3.77,38.77,-4.76,0.54,68.08,3.32,-0.32,-9.67
0,-2,80,-21,-332,3892,-0.50,-0.02,14.87,-0.21,-3.32,38.92,-4.77,0.53,68.03,3.29,-0.30,-9.64
-2,2,83,-27,-340,3869,-0.46,-0.00,13.89,-0.27,-3.40,38.69,-4.79,0.53,67.97,3.33,-0.39,-9.48
-2,10,80,-2,-357,3910,-0.43,0.06,12.99,-0.02,-3.57,39.10,-4.80,0.52,67.92,3.33,-0.56,-9.27
5,12,88,2,-380,3898,-0.36,0.12,12.23,0.02,-3.80,38.98,-4.82,0.51,67.87,3.18,-0.62,-9.19
0,5,83,-23,-277,3923,-0.32,0.14,11.51,-0.23,-2.77,39.23,-4.80,0.51,67.82,3.26,-0.48,-9.01
4,3,72,-45,-304,3900,-0.26,0.15,10.80,-0.45,-3.04,39.00,-4.79,0.52,67.78,3.15,-0.45,-8.77
5,8,92,14,-397,3897,-0.21,0.18,10.28,0.14,-3.97,38.97,-4.80,0.52,67.74,3.12,-0.55,-8.84
4,9,109,54,-377,3931,-0.16,0.22,9.92,0.54,-3.77,39.31,-4.81,0.51,67.70,3.14,-0.58,-8.91
-5,2,147,-27,-403,3898,-0.18,0.21,9.82,-0.27,-4.03,38.98,-4.83,0.51,67.66,3.34,-0.43,-9.21
2,8,158,-50,-379,3937,-0.15,0.24,9.80,-0.50,-3.79,39.37,-4.85,0.52,67.62,3.20,-0.57,-9.30
-1,1,156,-27,-314,3913,-0.14,0.22,9.78,-0.27,-3.14,39.13,-4.83,0.51,67.58,3.25,-0.42,-9.27
3,0,148,-59,-270,3937,-0.11,0.20,9.70,-0.59,-2.70,39.37,-4.81,0.52,67.54,3.14,-0.40,-9.19
-1,2,150,-86,-299,3942,-0.10,0.19,9.65,-0.86,-2.99,39.42,-4.80,0.54,67.51,3.22,-0.45,-9.19
-4,0,155,-83,-322,3884,-0.12,0.17,9.63,-0.83,-3.22,38.84,-4.80,0.57,67.47,3.28,-0.42,-9.23
1,1,190,-53,-317,3909,-0.10,0.16,9.82,-0.53,-3.17,39.09,-4.79,0.58,67.43,3.17,-0.45,-9.56
-6,3,208,-32,-321,3905,-0.12,0.16,10.11,-0.32,-3.21,39.05,-4.78,0.57,67.39,3.31,-0.48,-9.76
-9,0,263,-31,-340,3898,-0.17,0.15,10.70,-0.31,-3.40,38.98,-4.79,0.57,67.35,3.39,-0.41,-10.33
-9,-4,285,-17,-331,3903,-0.21,0.11,11.37,-0.17,-3.31,39.03,-4.80,0.55,67.30,3.41,-0.31,-10.64
-3,0,320,-16,-386,3886,-0.20,0.10,12.19,-0.16,-3.86,38.86,-4.82,0.55,67.25,3.29,-0.39,-11.09
-16,-2,321,0,-356,3928,-0.28,0.07,12.93,0.00,-3.56,39.28,-4.83,0.54,67.20,3.59,-0.34,-11.24
4,3,340,29,-372,3886,-0.23,0.08,13.71,0.29,-3.72,38.86,-4.84,0.53,67.15,3.17,-0.44,-11.54
-17,-4,351,117,-308,3884,-0.31,0.05,14.48,1.17,-3.08,38.84,-4.83,0.52,67.09,3.62,-0.28,-11.78
17,2,384,-37,-146,3849,-0.17,0.06,15.37,-0.37,-1.46,38.49,-4.82,0.52,67.03,2.88,-0.40,-12.22
-13,5,433,24,-254,3851,-0.24,0.08,16.48,0.24,-2.54,38.51,-4.80,0.52,66.96,3.50,-0.47,-12.84
-23,6,553,68,-319,3922,-0.35,0.11,18.20,0.68,-3.19,39.22,-4.80,0.51,66.89,3.73,-0.49,-14.18
-22,16,556,73,-346,3934,-0.45,0.20,19.77,0.73,-3.46,39.34,-4.81,0.50,66.81,3.74,-0.71,-14.50
12,32,612,-46,-243,3905,-0.33,0.37,21.53,-0.46,-2.43,39.05,-4.79,0.51,66.72,3.01,-1.09,-15.30
-14,21,676,-26,-56,3897,-0.39,0.46,23.50,-0.26,-0.56,38.97,-4.77,0.52,66.63,3.54,-0.89,-16.22
-45,6,529,69,-754,3913,-0.62,0.45,24.38,0.69,-7.54,39.13,-4.79,0.52,66.53,4.25,-0.59,-15.13
-40,13,412,4,-718,3999,-0.80,0.49,24.45,0.04,-7.18,39.99,-4.81,0.53,66.44,4.21,-0.75,-14.14
-31,2,350,79,-374,3899,-0.91,0.45,24.14,0.79,-3.74,38.99,-4.82,0.52,66.34,4.06,-0.51,-13.55
-25,-4,343,109,-448,3869,-0.97,0.38,23.82,1.09,-4.48,38.69,-4.83,0.52,66.25,3.96,-0.37,-13.42
80,59,400,-3,510,3949,-0.39,0.70,23.88,-0.03,5.10,39.49,-4.82,0.53,66.15,1.66,-1.74,-13.91
26,-8,622,-9,632,3519,-0.19,0.58,25.28,-0.09,6.32,35.19,-4.80,0.54,66.05,2.69,-0.35,-16.05
22,-10,1032,-203,-734,4096,-0.04,0.47,29.05,-2.03,-7.34,40.96,-4.81,0.56,65.93,2.74,-0.29,-20.00
-52,0,896,127,-988,4388,-0.35,0.42,31.61,1.27,-9.88,43.88,-4.83,0.57,65.81,4.34,-0.49,-19.56
2,0,737,-153,-278,4029,-0.30,0.38,32.95,-1.53,-2.78,40.29,-4.82,0.59,65.68,3.23,-0.49,-18.45
-24,-14,703,-162,-418,3826,-0.42,0.25,33.94,-1.62,-4.18,38.26,-4.83,0.62,65.54,3.79,-0.19,-18.34
-16,-4,512,-215,-558,3778,-0.48,0.20,33.67,-2.15,-5.58,37.78,-4.85,0.64,65.41,3.66,-0.40,-16.66
-16,-6,447,-250,-456,3947,-0.53,0.15,33.03,-2.50,-4.56,39.47,-4.86,0.67,65.28,3.68,-0.36,-15.97
3,0,364,-185,-288,3854,-0.45,0.13,31.95,-1.85,-2.88,38.54,-4.86,0.70,65.15,3.27,-0.50,-15.05
-1,7,331,-123,-385,3912,-0.42,0.16,30.77,-1.23,-3.85,39.12,-4.87,0.73,65.03,3.34,-0.67,-14.54
0,14,227,-60,-425,3892,-0.37,0.23,29.08,-0.60,-4.25,38.92,-4.88,0.74,64.91,3.33,-0.84,-13.32
-2,8,192,-44,-393,3931,-0.35,0.26,27.34,-0.44,-3.93,39.31,-4.90,0.75,64.80,3.37,-0.73,-12.68
-6,3,105,20,-379,3902,-0.35,0.25,25.25,0.20,-3.79,39.02,-4.91,0.74,64.70,3.46,-0.62,-11.54
-4,4,92,24,-374,3903,-0.34,0.25,23.28,0.24,-3.74,39.03,-4.92,0.73,64.61,3.42,-0.63,-11.04
-4,2,57,10,-361,3906,-0.33,0.24,21.30,0.10,-3.61,39.06,-4.93,0.73,64.53,3.42,-0.58,-10.36
-5,1,50,-9,-363,3904,-0.33,0.22,19.48,-0.09,-3.63,39.04,-4.94,0.72,64.45,3.45,-0.55,-9.95
-1,6,57,-41,-353,3924,-0.30,0.23,17.88,-0.41,-3.53,39.24,-4.95,0.72,64.38,3.37,-0.66,-9.69
-1,7,61,-28,-346,3888,-0.28,0.25,16.46,-0.28,-3.46,38.88,-4.96,0.70,64.31,3.37,-0.68,-9.45
-6,15,97,-31,-335,3899,-0.29,0.32,15.41,-0.31,-3.35,38.99,-4.96,0.69,64.25,3.47,-0.85,-9.55
-4,14,88,-12,-334,3924,-0.28,0.37,14.40,-0.12,-3.34,39.24,-4.96,0.68,64.19,3.43,-0.84,-9.28
-3,16,76,8,-327,3910,-0.27,0.43,13.43,0.08,-3.27,39.10,-4.95,0.67,64.14,3.40,-0.89,-8.98
-3,13,75,42,-324,3916,-0.26,0.47,12.54,0.42,-3.24,39.16,-4.95,0.66,64.09,3.40,-0.83,-8.80
-1,6,44,21,-294,3894,-0.24,0.46,11.56,0.21,-2.94,38.94,-4.94,0.65,64.04,3.35,-0.68,-8.35
-1,6,40,7,-315,3890,-0.22,0.45,10.64,0.07,-3.15,38.90,-4.93,0.64,64.00,3.34,-0.67,-8.13
0,18,87,64,-436,3876,-0.20,0.51,10.11,0.64,-4.36,38.76,-4.95,0.63,63.96,3.32,-0.92,-8.43
7,26,125,-18,-387,3944,-0.14,0.62,9.86,-0.18,-3.87,39.44,-4.96,0.63,63.92,3.17,-1.11,-8.70
3,18,310,60,-276,3899,-0.11,0.67,10.77,0.60,-2.76,38.99,-4.95,0.62,63.88,3.24,-0.96,-10.43
-10,18,391,62,-319,3862,-0.16,0.71,12.08,0.62,-3.19,38.62,-4.95,0.61,63.83,3.51,-0.96,-11.37
5,21,618,-24,-363,3947,-0.11,0.77,14.64,-0.24,-3.63,39.47,-4.96,0.60,63.77,3.20,-1.03,-13.77
1,16,645,-115,-525,3929,-0.09,0.79,17.11,-1.15,-5.25,39.29,-4.98,0.62,63.71,3.29,-0.95,-14.47
-27,6,688,-34,-298,3841,-0.25,0.75,19.59,-0.34,-2.98,38.41,-4.96,0.62,63.63,3.89,-0.74,-15.30
-7,-7,692,-13,-272,3898,-0.27,0.63,21.86,-0.13,-2.72,38.98,-4.95,0.63,63.54,3.48,-0.44,-15.76
-15,0,703,-54,-296,3887,-0.33,0.57,23.96,-0.54,-2.96,38.87,-4.93,0.64,63.45,3.65,-0.58,-16.24
-15,-7,719,-25,-249,3913,-0.39,0.47,25.95,-0.25,-2.49,39.13,-4.91,0.65,63.34,3.65,-0.41,-16.75
-14,0,754,-98,-481,3925,-0.44,0.42,27.95,-0.98,-4.81,39.25,-4.93,0.67,63.23,3.66,-0.56,-17.42
-20,-13,765,-119,-465,3869,-0.51,0.30,29.82,-1.19,-4.65,38.69,-4.95,0.69,63.11,3.81,-0.27,-17.86
-19,-1,774,-10,-389,3823,-0.58,0.26,31.56,-0.10,-3.89,38.23,-4.96,0.69,62.99,3.82,-0.51,-18.26
-13,17,775,-40,-456,3919,-0.60,0.34,33.13,-0.40,-4.56,39.19,-4.98,0.70,62.86,3.72,-0.90,-18.56
-12,4,746,-83,-386,3916,-0.61,0.33,34.37,-0.83,-3.86,39.16,-5.00,0.73,62.72,3.71,-0.65,-18.53
-15,7,719,-160,-279,3882,-0.64,0.34,35.32,-1.60,-2.79,38.82,-4.99,0.76,62.58,3.77,-0.73,-18.47
3,20,718,-80,-381,3974,-0.56,0.43,36.17,-0.80,-3.81,39.74,-5.00,0.78,62.43,3.39,-1.04,-18.61
-23,-1,701,-72,-318,3895,-0.65,0.38,36.83,-0.72,-3.18,38.95,-4.99,0.81,62.29,3.94,-0.62,-18.58
-4,7,591,-25,-352,3956,-0.61,0.38,36.75,-0.25,-3.52,39.56,-4.99,0.80,62.14,3.54,-0.78,-17.62
-31,-4,568,-124,-436,3947,-0.73,0.32,36.54,-1.24,-4.36,39.47,-5.01,0.83,62.00,4.14,-0.55,-17.37
-4,14,599,48,-321,3881,-0.68,0.37,36.54,0.48,-3.21,38.81,-5.01,0.83,61.85,3.57,-0.93,-17.62
8,15,606,23,-381,3946,-0.57,0.43,36.58,0.23,-3.81,39.46,-5.01,0.82,61.70,3.30,-0.96,-17.68
-4,8,529,34,-483,3858,-0.54,0.43,36.15,0.34,-4.83,38.58,-5.03,0.83,61.56,3.55,-0.83,-16.93
-19,0,507,97,-362,3914,-0.60,0.39,35.63,0.97,-3.62,39.14,-5.03,0.82,61.42,3.87,-0.65,-16.63
-10,14,508,-106,-352,3857,-0.60,0.44,35.16,-1.06,-3.52,38.57,-5.04,0.86,61.28,3.69,-0.97,-16.54
-11,1,534,7,-306,3916,-0.61,0.40,34.91,0.07,-3.06,39.16,-5.03,0.85,61.14,3.71,-0.69,-16.70
-6,13,583,-1,-287,3841,-0.58,0.44,34.97,-0.01,-2.87,38.41,-5.02,0.85,61.00,3.59,-0.95,-17.11
12,15,568,-25,-301,4021,-0.45,0.49,34.94,-0.25,-3.01,40.21,-5.00,0.86,60.86,3.18,-1.00,-16.97
6,20,577,64,-333,3923,-0.37,0.56,34.96,0.64,-3.33,39.23,-5.00,0.85,60.72,3.28,-1.12,-17.04
-11,11,591,28,-345,3882,-0.40,0.57,35.07,0.28,-3.45,38.82,-5.00,0.85,60.58,3.63,-0.94,-17.16
-3,12,625,-25,-510,3893,-0.38,0.59,35.38,-0.25,-5.10,38.93,-5.02,0.86,60.44,3.47,-0.97,-17.50
-22,16,626,-33,-434,3963,-0.47,0.63,35.66,-0.33,-4.34,39.63,-5.03,0.87,60.30,3.90,-1.07,-17.55
7,9,697,27,-239,3880,-0.38,0.62,36.35,0.27,-2.39,38.80,-5.02,0.87,60.16,3.27,-0.93,-18.27
0,22,716,15,-226,3765,-0.35,0.69,37.08,0.15,-2.26,37.65,-5.00,0.88,60.01,3.40,-1.22,-18.55
-4,19,598,59,-186,3924,-0.34,0.74,37.02,0.59,-1.86,39.24,-4.99,0.88,59.86,3.46,-1.17,-17.53
-3,3,519,-42,-93,3941,-0.32,0.68,36.48,-0.42,-0.93,39.41,-4.97,0.90,59.71,3.43,-0.84,-16.74
-6,-3,394,-88,-248,3908,-0.32,0.60,35.24,-0.88,-2.48,39.08,-4.95,0.92,59.57,3.48,-0.71,-15.43
-4,-2,358,-101,-339,3920,-0.32,0.52,33.90,-1.01,-3.39,39.20,-4.95,0.95,59.44,3.43,-0.73,-14.86
-6,-4,299,-117,-392,3885,-0.32,0.45,32.33,-1.17,-3.92,38.85,-4.96,0.98,59.31,3.48,-0.68,-14.05
-7,-2,291,-156,-431,3886,-0.33,0.39,30.87,-1.56,-4.31,38.86,-4.97,1.00,59.19,3.52,-0.73,-13.69
-6,-2,279,-127,-479,3938,-0.34,0.34,29.49,-1.27,-4.79,39.38,-4.99,1.02,59.07,3.51,-0.72,-13.32
1,1,272,-101,-480,3931,-0.30,0.31,28.20,-1.01,-4.80,39.31,-5.01,1.03,58.96,3.36,-0.79,-13.00
-3,11,246,-29,-425,3883,-0.28,0.35,26.88,-0.29,-4.25,38.83,-5.02,1.04,58.85,3.45,-1.00,-12.52
-10,6,248,-74,-350,3861,-0.32,0.35,25.70,-0.74,-3.50,38.61,-5.04,1.05,58.75,3.62,-0.91,-12.30
7,20,308,-67,-426,3925,-0.24,0.44,25.01,-0.67,-4.26,39.25,-5.06,1.06,58.65,3.26,-1.23,-12.67
-8,17,363,-46,-459,3904,-0.27,0.50,24.73,-0.46,-4.59,39.04,-5.07,1.07,58.55,3.58,-1.19,-13.07
-3,16,435,-46,-371,3898,-0.26,0.54,24.91,-0.46,-3.71,38.98,-5.08,1.07,58.45,3.49,-1.18,-13.71
-7,6,443,-78,-439,3943,-0.28,0.53,25.12,-0.78,-4.39,39.43,-5.10,1.08,58.35,3.58,-0.98,-13.81
-15,10,471,-92,-399,3940,-0.34,0.53,25.48,-0.92,-3.99,39.40,-5.12,1.10,58.25,3.78,-1.07,-14.10
-4,16,472,-151,-398,3954,-0.33,0.58,25.81,-1.51,-3.98,39.54,-5.13,1.12,58.15,3.56,-1.22,-14.17
-8,12,496,-123,-346,3826,-0.35,0.59,26.26,-1.23,-3.46,38.26,-5.13,1.15,58.05,3.64,-1.17,-14.44
-2,13,481,-134,-381,3973,-0.32,0.61,26.56,-1.34,-3.81,39.73,-5.13,1.18,57.94,3.52,-1.21,-14.37
-5,9,489,-118,-364,3966,-0.32,0.61,26.89,-1.18,-3.64,39.66,-5.14,1.21,57.83,3.58,-1.15,-14.49
-2,18,490,-116,-425,3857,-0.30,0.66,27.19,-1.16,-4.25,38.57,-5.15,1.23,57.73,3.52,-1.36,-14.54
-1,27,496,22,-366,4012,-0.28,0.76,27.50,0.22,-3.66,40.12,-5.15,1.23,57.62,3.50,-1.56,-14.64
-7,6,519,50,-427,3847,-0.29,0.72,27.91,0.50,-4.27,38.47,-5.16,1.22,57.51,3.63,-1.12,-14.91
12,36,730,90,-427,3947,-0.19,0.86,29.57,0.90,-4.27,39.47,-5.17,1.22,57.39,3.22,-1.77,-17.00
-5,16,800,149,-459,3898,-0.20,0.88,31.50,1.49,-4.59,38.98,-5.17,1.22,57.26,3.57,-1.37,-17.95
-10,28,994,10,-414,3947,-0.24,0.96,34.41,0.10,-4.14,39.47,-5.18,1.22,57.13,3.69,-1.64,-20.00
-9,24,1005,27,-314,4061,-0.27,1.01,37.10,0.27,-3.14,40.61,-5.17,1.22,56.98,3.67,-1.57,-20.00
-2,26,979,58,-321,3924,-0.26,1.07,39.36,0.58,-3.21,39.24,-5.16,1.22,56.82,3.52,-1.63,-20.00
-15,8,982,1,-280,3905,-0.32,1.01,41.42,0.01,-2.80,39.05,-5.15,1.23,56.66,3.79,-1.25,-20.00
-6,21,1043,6,-460,3949,-0.33,1.04,43.64,0.06,-4.60,39.49,-5.16,1.23,56.49,3.62,-1.52,-20.00
-27,17,1062,5,-379,3873,-0.46,1.04,45.75,0.05,-3.79,38.73,-5.16,1.24,56.30,4.08,-1.44,-20.00
-10,3,1107,45,-385,3894,-0.47,0.95,47.93,0.45,-3.85,38.94,-5.17,1.24,56.11,3.74,-1.14,-20.00
-15,10,1127,-2,-357,3892,-0.52,0.92,50.01,-0.02,-3.57,38.92,-5.16,1.24,55.91,3.85,-1.27,-20.00
-8,20,1136,-13,-338,3850,-0.52,0.95,51.94,-0.13,-3.38,38.50,-5.16,1.25,55.71,3.71,-1.49,-20.00
-5,14,1136,-9,-426,3893,-0.49,0.94,53.67,-0.09,-4.26,38.93,-5.17,1.26,55.49,3.65,-1.37,-20.00
-12,27,1190,-92,-549,3950,-0.52,1.01,55.57,-0.92,-5.49,39.50,-5.18,1.28,55.27,3.81,-1.67,-20.00
8,38,1211,-119,-542,3884,-0.42,1.14,57.40,-1.19,-5.42,38.84,-5.20,1.31,55.05,3.38,-1.95,-20.00
3,29,1320,-49,-646,3890,-0.36,1.20,59.71,-0.49,-6.46,38.90,-5.21,1.33,54.81,3.48,-1.80,-20.00
-22,17,1359,-70,-560,3959,-0.46,1.19,62.03,-0.70,-5.60,39.59,-5.23,1.36,54.56,4.02,-1.57,-20.00
-15,19,1454,-6,-367,3890,-0.50,1.18,64.69,-0.06,-3.67,38.90,-5.23,1.37,54.31,3.89,-1.61,-20.00
-18,23,1458,-77,-326,3951,-0.56,1.21,67.12,-0.77,-3.26,39.51,-5.21,1.39,54.04,3.95,-1.71,-20.00
-15,16,1361,-53,-236,3949,-0.60,1.18,68.71,-0.53,-2.36,39.49,-5.18,1.41,53.76,3.89,-1.58,-20.00
-13,15,1274,-96,-124,3873,-0.62,1.16,69.61,-0.96,-1.24,38.73,-5.16,1.44,53.49,3.84,-1.57,-20.00
-12,14,1067,-108,-3,3870,-0.63,1.13,69.16,-1.08,-0.03,38.70,-5.14,1.47,53.21,3.81,-1.56,-20.00
-10,12,1012,-108,12,3895,-0.63,1.09,68.41,-1.08,0.12,38.95,-5.12,1.50,52.94,3.75,-1.53,-20.00
0,17,948,-111,-155,3889,-0.56,1.08,67.36,-1.11,-1.55,38.89,-5.09,1.53,52.67,3.51,-1.65,-20.00
-9,13,959,-154,-228,3905,-0.56,1.05,66.47,-1.54,-2.28,39.05,-5.07,1.57,52.40,3.68,-1.59,-20.00
-3,19,961,-167,-325,3933,-0.52,1.06,65.69,-1.67,-3.25,39.33,-5.06,1.61,52.14,3.54,-1.74,-20.00
-20,16,937,-228,-336,3940,-0.59,1.05,64.83,-2.28,-3.36,39.40,-5.05,1.66,51.88,3.90,-1.71,-20.00
2,7,822,-160,-352,3889,-0.52,0.99,63.36,-1.60,-3.52,38.89,-5.05,1.70,51.63,3.43,-1.54,-20.00
-29,9,796,-77,-498,3952,-0.65,0.95,61.88,-0.77,-4.98,39.52,-5.06,1.72,51.39,4.11,-1.58,-20.00
-25,8,739,-127,-362,3930,-0.73,0.90,60.20,-1.27,-3.62,39.30,-5.07,1.76,51.15,4.06,-1.57,-20.00
-20,2,685,-105,-283,3848,-0.78,0.82,58.36,-1.05,-2.83,38.48,-5.05,1.78,50.91,3.95,-1.44,-20.00
-5,2,561,-105,-275,3953,-0.74,0.75,55.95,-1.05,-2.75,39.53,-5.03,1.79,50.69,3.62,-1.43,-20.00
-13,-1,539,-47,-224,3929,-0.74,0.67,53.64,-0.47,-2.24,39.29,-5.01,1.81,50.48,3.77,-1.35,-19.36
-1,15,461,-108,-250,3918,-0.67,0.70,51.09,-1.08,-2.50,39.18,-4.99,1.82,50.27,3.50,-1.70,-18.19
-2,3,438,-151,-250,3930,-0.62,0.64,48.65,-1.51,-2.50,39.30,-4.97,1.85,50.08,3.49,-1.46,-17.52
3,8,390,-137,-296,3928,-0.54,0.63,46.16,-1.37,-2.96,39.28,-4.95,1.87,49.89,3.35,-1.57,-16.62
2,13,409,-114,-325,3901,-0.47,0.65,44.04,-1.14,-3.25,39.01,-4.93,1.87,49.72,3.34,-1.68,-16.36
-5,6,451,-92,-390,3912,-0.46,0.62,42.39,-0.92,-3.90,39.12,-4.94,1.88,49.55,3.49,-1.53,-16.38
-2,13,452,-35,-459,3907,-0.42,0.64,40.91,-0.35,-4.59,39.07,-4.95,1.89,49.39,3.42,-1.68,-16.09
-8,11,460,-1,-498,3928,-0.43,0.64,39.62,-0.01,-4.98,39.28,-4.96,1.89,49.23,3.55,-1.65,-15.90
-6,12,468,-8,-506,3946,-0.42,0.65,38.52,-0.08,-5.06,39.46,-4.97,1.90,49.08,3.52,-1.67,-15.74
-6,14,476,-67,-555,3912,-0.42,0.67,37.57,-0.67,-5.55,39.12,-4.99,1.91,48.93,3.53,-1.73,-15.62
-2,21,492,-75,-557,3946,-0.39,0.73,36.81,-0.75,-5.57,39.46,-5.00,1.92,48.78,3.45,-1.89,-15.59
-9,22,535,-60,-482,3940,-0.40,0.79,36.39,-0.60,-4.82,39.40,-5.02,1.92,48.64,3.60,-1.93,-15.87
-4,22,568,-45,-526,3906,-0.39,0.85,36.22,-0.45,-5.26,39.06,-5.03,1.93,48.50,3.51,-1.95,-16.10
-7,30,728,-91,-693,3869,-0.39,0.94,37.04,-0.91,-6.93,38.69,-5.04,1.95,48.35,3.58,-2.15,-17.60
-1,26,774,-131,-723,3932,-0.36,1.01,38.06,-1.31,-7.23,39.32,-5.06,1.96,48.20,3.46,-2.10,-18.17
-17,31,906,-125,-581,3950,-0.43,1.10,39.78,-1.25,-5.81,39.50,-5.07,1.98,48.04,3.81,-2.24,-19.60
-10,29,931,-130,-558,3938,-0.44,1.16,41.48,-1.30,-5.58,39.38,-5.09,2.00,47.88,3.68,-2.23,-20.00
-10,20,1025,-67,-401,3945,-0.46,1.17,43.58,-0.67,-4.01,39.45,-5.09,2.01,47.70,3.69,-2.05,-20.00
-39,19,1072,-6,-385,3885,-0.65,1.17,45.76,-0.06,-3.85,38.85,-5.09,2.01,47.52,4.33,-2.03,-20.00
-32,16,1138,83,-233,3867,-0.78,1.15,48.13,0.83,-2.33,38.67,-5.08,2.01,47.33,4.22,-1.97,-20.00
-22,18,1149,144,-279,3916,-0.84,1.14,50.33,1.44,-2.79,39.16,-5.07,2.02,47.13,4.03,-2.01,-20.00
-14,21,1123,80,-258,3819,-0.84,1.16,52.14,0.80,-2.58,38.19,-5.06,2.02,46.92,3.86,-2.08,-20.00
-14,11,1101,16,-284,3900,-0.84,1.11,53.65,0.16,-2.84,39.00,-5.05,2.03,46.71,3.85,-1.87,-20.00
-20,15,1049,14,-312,3871,-0.88,1.09,54.68,0.14,-3.12,38.71,-5.05,2.04,46.49,3.98,-1.95,-20.00
1,28,1043,-3,-289,3849,-0.79,1.15,55.57,-0.03,-2.89,38.49,-5.03,2.04,46.27,3.52,-2.23,-20.00
-6,27,1044,15,-417,3950,-0.74,1.20,56.38,0.15,-4.17,39.50,-5.04,2.05,46.04,3.65,-2.23,-20.00
-24,14,1030,-58,-411,3862,-0.82,1.17,57.03,-0.58,-4.11,38.62,-5.04,2.06,45.82,4.04,-1.96,-20.00
-25,6,989,-15,-406,4011,-0.89,1.09,57.36,-0.15,-4.06,40.11,-5.05,2.07,45.59,4.08,-1.78,-20.00
-29,3,954,-86,-356,3893,-0.97,1.00,57.44,-0.86,-3.56,38.93,-5.05,2.08,45.36,4.19,-1.70,-20.00
-28,7,891,-84,-346,3907,-1.05,0.94,57.13,-0.84,-3.46,39.07,-5.04,2.08,45.13,4.18,-1.77,-20.00
-11,14,880,-118,-396,3919,-1.01,0.93,56.79,-1.18,-3.96,39.19,-5.05,2.10,44.91,3.83,-1.92,-20.00
-21,9,873,-164,-414,3883,-1.04,0.89,56.43,-1.64,-4.14,38.83,-5.07,2.13,44.68,4.05,-1.83,-20.00
-20,9,874,-112,-439,3931,-1.06,0.86,56.12,-1.12,-4.39,39.31,-5.08,2.14,44.46,4.05,-1.83,-20.00
-5,18,850,-187,-402,3905,-0.98,0.88,55.70,-1.87,-4.02,39.05,-5.09,2.18,44.24,3.73,-2.04,-20.00
-14,17,833,-245,-427,3951,-0.97,0.90,55.21,-2.45,-4.27,39.51,-5.10,2.21,44.02,3.91,-2.05,-20.00
-12,14,783,-311,-409,3937,-0.94,0.89,54.46,-3.11,-4.09,39.37,-5.10,2.25,43.80,3.87,-2.02,-20.00
-10,10,759,-298,-369,3935,-0.91,0.86,53.65,-2.98,-3.69,39.35,-5.10,2.29,43.59,3.82,-1.95,-20.00
-12,17,682,-222,-305,3943,-0.89,0.88,52.44,-2.22,-3.05,39.43,-5.08,2.33,43.38,3.84,-2.13,-19.70
-13,15,646,-167,-327,3905,-0.88,0.89,51.14,-1.67,-3.27,39.05,-5.06,2.36,43.18,3.84,-2.10,-19.13
-16,4,574,-200,-281,3918,-0.89,0.82,49.53,-2.00,-2.81,39.18,-5.04,2.39,42.98,3.89,-1.88,-18.20
-7,17,562,-212,-282,3902,-0.85,0.84,48.00,-2.12,-2.82,39.02,-5.02,2.42,42.79,3.69,-2.17,-17.79
-8,17,499,-13,-155,3937,-0.81,0.86,46.25,-0.13,-1.55,39.37,-5.00,2.43,42.60,3.68,-2.18,-16.90
-10,16,471,4,-180,3925,-0.79,0.87,44.49,0.04,-1.80,39.25,-4.98,2.44,42.42,3.71,-2.17,-16.31
-3,7,383,75,-134,3921,-0.73,0.83,42.38,0.75,-1.34,39.21,-4.97,2.44,42.26,3.54,-1.98,-15.15
-14,3,365,111,-123,3883,-0.74,0.76,40.37,1.11,-1.23,38.83,-4.95,2.44,42.09,3.76,-1.88,-14.60
-10,-4,298,-12,-249,3884,-0.73,0.66,38.15,-0.12,-2.49,38.84,-4.94,2.44,41.94,3.66,-1.71,-13.59
-8,-8,286,-97,-339,3898,-0.70,0.55,36.08,-0.97,-3.39,38.98,-4.94,2.44,41.80,3.61,-1.60,-13.08
-14,5,250,-82,-349,3910,-0.72,0.52,34.00,-0.82,-3.49,39.10,-4.94,2.43,41.66,3.74,-1.85,-12.36
-9,11,237,-59,-336,3874,-0.70,0.54,32.04,-0.59,-3.36,38.74,-4.93,2.43,41.54,3.63,-1.97,-11.87
1,-1,164,-182,-242,3891,-0.63,0.48,29.84,-1.82,-2.42,38.91,-4.91,2.44,41.42,3.39,-1.72,-10.82
-2,-2,141,-157,-279,3929,-0.58,0.42,27.72,-1.57,-2.79,39.29,-4.89,2.45,41.30,3.43,-1.69,-10.21
1,-5,89,-110,-346,3897,-0.51,0.35,25.49,-1.10,-3.46,38.97,-4.89,2.44,41.20,3.35,-1.61,-9.33
0,-7,90,-115,-362,3904,-0.46,0.27,23.49,-1.15,-3.62,39.04,-4.90,2.44,41.11,3.36,-1.54,-8.95
-3,-21,71,-174,-343,3931,-0.43,0.11,21.57,-1.74,-3.43,39.31,-4.91,2.46,41.02,3.42,-1.23,-8.42
-4,-22,52,-174,-337,3903,-0.41,-0.03,19.73,-1.74,-3.37,39.03,-4.91,2.48,40.95,3.44,-1.18,-7.90
-1,-11,10,-69,-360,3883,-0.38,-0.10,17.82,-0.69,-3.60,38.83,-4.92,2.47,40.88,3.37,-1.38,-7.17
0,-13,8,-72,-371,3889,-0.34,-0.17,16.09,-0.72,-3.71,38.89,-4.92,2.46,40.81,3.34,-1.31,-6.82
-2,-10,3,-39,-378,3878,-0.32,-0.21,14.50,-0.39,-3.78,38.78,-4.93,2.44,40.75,3.38,-1.35,-6.46
9,-5,6,-3,-390,3950,-0.23,-0.22,13.08,-0.03,-3.90,39.50,-4.93,2.43,40.70,3.14,-1.44,-6.21
-1,-10,53,-97,-363,3896,-0.22,-0.26,12.10,-0.97,-3.63,38.96,-4.94,2.42,40.65,3.34,-1.32,-6.42
-1,-7,49,-150,-344,3938,-0.20,-0.28,11.19,-1.50,-3.44,39.38,-4.94,2.40,40.61,3.34,-1.37,-6.21
-10,1,30,-127,-402,3949,-0.24,-0.24,10.25,-1.27,-4.02,39.49,-4.95,2.39,40.57,3.54,-1.53,-5.86
-15,2,41,-111,-419,3928,-0.31,-0.21,9.48,-1.11,-4.19,39.28,-4.97,2.39,40.53,3.67,-1.56,-5.81
5,8,208,-99,-208,3775,-0.25,-0.14,9.80,-0.99,-2.08,37.75,-4.95,2.38,40.49,3.23,-1.70,-7.28
-1,7,279,-124,-320,3926,-0.23,-0.08,10.52,-1.24,-3.20,39.26,-4.94,2.37,40.45,3.35,-1.68,-8.01
0,17,406,-70,-359,3931,-0.21,0.03,11.94,-0.70,-3.59,39.31,-4.95,2.35,40.40,3.32,-1.91,-9.36
17,24,433,-63,-334,3925,-0.08,0.18,13.39,-0.63,-3.34,39.25,-4.94,2.34,40.35,2.94,-2.08,-9.86
-6,10,503,-66,-422,3983,-0.11,0.22,15.12,-0.66,-4.22,39.83,-4.95,2.33,40.29,3.42,-1.80,-10.78
-10,16,485,-54,-428,3945,-0.16,0.29,16.57,-0.54,-4.28,39.45,-4.96,2.33,40.22,3.52,-1.94,-10.90
-10,5,398,-41,-341,3904,-0.20,0.30,17.34,-0.41,-3.41,39.04,-4.96,2.31,40.15,3.53,-1.71,-10.30
-9,6,362,-96,-400,3917,-0.24,0.30,17.81,-0.96,-4.00,39.17,-4.97,2.31,40.08,3.53,-1.73,-10.08
0,7,278,-153,-275,3905,-0.22,0.31,17.73,-1.53,-2.75,39.05,-4.95,2.31,40.01,3.33,-1.76,-9.34
-5,3,274,-149,-296,3871,-0.22,0.30,17.63,-1.49,-2.96,38.71,-4.93,2.32,39.94,3.42,-1.67,-9.28
-1,13,305,-89,-382,3915,-0.21,0.35,17.72,-0.89,-3.82,39.15,-4.94,2.31,39.87,3.34,-1.88,-9.56
-6,13,320,-79,-333,3913,-0.22,0.40,17.90,-0.79,-3.33,39.13,-4.94,2.30,39.80,3.44,-1.89,-9.71
3,25,469,-201,-458,3874,-0.18,0.51,18.97,-2.01,-4.58,38.74,-4.95,2.31,39.73,3.26,-2.17,-11.17
0,22,515,-177,-536,3890,-0.16,0.59,20.22,-1.77,-5.36,38.90,-4.97,2.33,39.65,3.32,-2.14,-11.80
-13,16,585,-34,-637,3947,-0.23,0.63,21.76,-0.34,-6.37,39.47,-4.98,2.33,39.56,3.61,-2.03,-12.68
-5,18,562,-2,-573,3901,-0.24,0.68,23.02,-0.02,-5.73,39.01,-4.99,2.33,39.47,3.46,-2.09,-12.71
-12,5,489,11,-544,3922,-0.28,0.64,23.70,0.11,-5.44,39.22,-5.00,2.33,39.37,3.62,-1.81,-12.22
-12,-1,445,83,-442,3973,-0.33,0.57,24.04,0.83,-4.42,39.73,-5.01,2.32,39.28,3.64,-1.67,-11.90
-9,-4,293,-91,-333,3868,-0.35,0.49,23.43,-0.91,-3.33,38.68,-5.00,2.31,39.19,3.58,-1.58,-10.49
-13,-6,256,-95,-325,3856,-0.40,0.40,22.64,-0.95,-3.25,38.56,-5.00,2.30,39.10,3.67,-1.51,-10.02
1,-4,143,-18,-269,3918,-0.35,0.34,21.25,-0.18,-2.69,39.18,-4.99,2.30,39.01,3.37,-1.53,-8.78
-4,-1,121,-19,-299,3919,-0.34,0.30,19.87,-0.19,-2.99,39.19,-4.98,2.29,38.93,3.46,-1.57,-8.33
-1,-5,89,-70,-380,3908,-0.31,0.24,18.42,-0.70,-3.80,39.08,-4.99,2.28,38.86,3.40,-1.47,-7.77
-4,-4,93,-101,-403,3893,-0.30,0.19,17.15,-1.01,-4.03,38.93,-5.00,2.27,38.79,3.46,-1.47,-7.56
-6,4,139,-114,-434,3876,-0.31,0.20,16.28,-1.14,-4.34,38.76,-5.01,2.27,38.73,3.52,-1.63,-7.77
-3,3,150,-90,-389,3923,-0.30,0.19,15.57,-0.90,-3.89,39.23,-5.02,2.26,38.66,3.46,-1.61,-7.73
-9,4,176,-81,-430,3879,-0.32,0.20,15.08,-0.81,-4.30,38.79,-5.04,2.26,38.61,3.59,-1.63,-7.85
-5,2,178,-85,-416,3922,-0.32,0.19,14.66,-0.85,-4.16,39.22,-5.05,2.25,38.55,3.52,-1.58,-7.78
-2,0,158,-42,-368,3883,-0.30,0.17,14.16,-0.42,-3.68,38.83,-5.05,2.24,38.49,3.46,-1.52,-7.51
2,-1,150,-18,-312,3901,-0.26,0.15,13.66,-0.18,-3.12,39.01,-5.05,2.23,38.44,3.36,-1.49,-7.34
1,-6,105,1,-343,3897,-0.23,0.10,12.93,0.01,-3.43,38.97,-5.04,2.21,38.39,3.37,-1.36,-6.82
1,-7,96,11,-316,3921,-0.20,0.04,12.23,0.11,-3.16,39.21,-5.04,2.20,38.34,3.36,-1.32,-6.60
0,-8,32,14,-304,3909,-0.18,-0.01,11.20,0.14,-3.04,39.09,-5.03,2.19,38.29,3.37,-1.28,-5.86
1,-8,19,-18,-350,3899,-0.15,-0.06,10.19,-0.18,-3.50,38.99,-5.03,2.17,38.25,3.34,-1.25,-5.55
10,-12,-13,-36,-376,3884,-0.08,-0.12,9.10,-0.36,-3.76,38.84,-5.04,2.16,38.21,3.14,-1.14,-5.07
7,-16,-18,-14,-373,3878,-0.03,-0.21,8.08,-0.14,-3.73,38.78,-5.04,2.14,38.18,3.19,-1.03,-4.83
4,-30,-16,-97,-394,3923,-0.00,-0.37,7.17,-0.97,-3.94,39.23,-5.05,2.13,38.15,3.25,-0.69,-4.67
4,-26,-14,-84,-382,3925,0.02,-0.49,6.37,-0.84,-3.82,39.25,-5.06,2.11,38.13,3.25,-0.73,-4.53
0,-45,-19,-135,-345,3994,0.02,-0.72,5.62,-1.35,-3.45,39.94,-5.05,2.10,38.11,3.33,-0.27,-4.34
6,-123,-38,-142,-335,4170,0.06,-1.40,4.82,-1.42,-3.35,41.70,-5.03,2.09,38.09,3.18,1.51,-4.03
1,-42,-3,-46,-445,3875,0.06,-1.51,4.32,-0.46,-4.45,38.75,-5.04,2.07,38.07,3.29,-0.10,-4.23
2,-27,3,-24,-425,3923,0.06,-1.53,3.91,-0.24,-4.25,39.23,-5.05,2.05,38.05,3.28,-0.39,-4.20
0,-11,29,-32,-409,3908,0.06,-1.44,3.69,-0.32,-4.09,39.08,-5.06,2.03,38.04,3.33,-0.72,-4.38
1,-9,43,1,-432,3901,0.06,-1.35,3.59,0.01,-4.32,39.01,-5.07,2.01,38.02,3.31,-0.77,-4.47
-16,2,84,138,-556,3866,-0.05,-1.20,3.74,1.38,-5.56,38.66,-5.08,1.99,38.01,3.69,-1.03,-4.85
-1,13,130,63,-514,3914,-0.05,-1.00,4.16,0.63,-5.14,39.14,-5.09,1.97,37.99,3.39,-1.29,-5.32
-5,4,209,-7,-383,3930,-0.07,-0.88,5.02,-0.07,-3.83,39.30,-5.10,1.95,37.97,3.49,-1.13,-6.15
1,4,227,-51,-386,3921,-0.06,-0.77,5.90,-0.51,-3.86,39.21,-5.10,1.94,37.95,3.36,-1.15,-6.47
0,12,253,-117,-292,3987,-0.05,-0.62,6.85,-1.17,-2.92,39.87,-5.09,1.93,37.92,3.37,-1.35,-6.87
-7,-7,261,-184,-254,3905,-0.09,-0.60,7.76,-1.84,-2.54,39.05,-5.07,1.94,37.89,3.51,-0.98,-7.10
-23,-5,246,-53,-334,3913,-0.22,-0.57,8.49,-0.53,-3.34,39.13,-5.07,1.92,37.85,3.87,-1.01,-7.11
-14,15,248,18,-344,3945,-0.29,-0.42,9.15,0.18,-3.44,39.45,-5.06,1.91,37.82,3.71,-1.45,-7.25
-15,34,353,84,-232,3933,-0.35,-0.17,10.39,0.84,-2.32,39.33,-5.06,1.89,37.78,3.74,-1.89,-8.38
-19,11,412,87,-165,3925,-0.43,-0.09,11.86,0.87,-1.65,39.25,-5.04,1.88,37.73,3.83,-1.44,-9.15
-20,21,601,54,-208,3813,-0.51,0.05,14.34,0.54,-2.08,38.13,-5.03,1.87,37.67,3.87,-1.68,-11.22
-16,18,711,38,-197,3881,-0.56,0.15,17.25,0.38,-1.97,38.81,-5.02,1.87,37.60,3.79,-1.64,-12.70
-15,14,806,78,-257,3864,-0.59,0.22,20.44,0.78,-2.57,38.64,-5.01,1.86,37.52,3.78,-1.57,-14.11
-14,24,825,-35,-373,3893,-0.62,0.35,23.43,-0.35,-3.73,38.93,-5.02,1.85,37.43,3.77,-1.80,-14.83
-14,15,805,-190,-395,3914,-0.64,0.41,25.99,-1.90,-3.95,39.14,-5.03,1.88,37.32,3.78,-1.65,-15.15
-9,17,808,-104,-453,3948,-0.63,0.47,28.32,-1.04,-4.53,39.48,-5.05,1.88,37.21,3.69,-1.72,-15.61
-15,22,776,-93,-464,3834,-0.66,0.56,30.22,-0.93,-4.64,38.34,-5.06,1.89,37.09,3.83,-1.85,-15.69
-3,27,748,-110,-445,3881,-0.61,0.66,31.76,-1.10,-4.45,38.81,-5.08,1.90,36.97,3.58,-1.99,-15.73
-18,19,714,-167,-544,3868,-0.66,0.71,32.94,-1.67,-5.44,38.68,-5.10,1.92,36.84,3.91,-1.85,-15.66
-9,23,711,-288,-580,3873,-0.65,0.78,33.99,-2.88,-5.80,38.73,-5.11,1.94,36.70,3.73,-1.96,-15.82
-8,17,580,-339,-424,3875,-0.63,0.81,34.13,-3.39,-4.24,38.75,-5.11,1.98,36.57,3.71,-1.87,-14.73
-3,31,544,-255,-495,3899,-0.59,0.92,34.03,-2.55,-4.95,38.99,-5.13,2.00,36.43,3.60,-2.20,-14.39
-18,0,540,-234,-488,3909,-0.64,0.83,33.92,-2.34,-4.88,39.09,-5.14,2.03,36.30,3.93,-1.57,-14.32
5,14,511,-236,-470,3954,-0.55,0.83,33.65,-2.36,-4.70,39.54,-5.15,2.06,36.16,3.45,-1.87,-14.01
-6,-2,381,-155,-430,3936,-0.53,0.73,32.61,-1.55,-4.30,39.36,-5.17,2.08,36.03,3.67,-1.53,-12.70
5,-8,298,-119,-386,3979,-0.44,0.61,31.16,-1.19,-3.86,39.79,-5.18,2.08,35.91,3.44,-1.37,-11.71
-12,10,360,-308,-695,3863,-0.47,0.61,30.24,-3.08,-6.95,38.63,-5.19,2.10,35.79,3.80,-1.75,-12.05
-16,-4,377,-261,-522,3979,-0.52,0.53,29.52,-2.61,-5.22,39.79,-5.20,2.12,35.67,3.90,-1.46,-12.05
-21,-2,327,89,-303,3926,-0.60,0.46,28.56,0.89,-3.03,39.26,-5.20,2.12,35.56,4.02,-1.48,-11.43
-17,0,318,4,-310,3894,-0.64,0.41,27.65,0.04,-3.10,38.94,-5.19,2.11,35.45,3.95,-1.51,-11.17
-11,-1,275,17,-430,3860,-0.65,0.37,26.56,0.17,-4.30,38.60,-5.20,2.10,35.34,3.83,-1.47,-10.59
-15,6,291,-64,-540,3959,-0.67,0.37,25.68,-0.64,-5.40,39.59,-5.21,2.11,35.24,3.93,-1.61,-10.54
-7,9,320,-116,-385,3919,-0.65,0.39,25.06,-1.16,-3.85,39.19,-5.22,2.10,35.14,3.77,-1.68,-10.66
-6,8,322,-99,-394,3818,-0.62,0.40,24.52,-0.99,-3.94,38.18,-5.24,2.10,35.05,3.75,-1.66,-10.57
9,9,335,78,-219,3877,-0.50,0.41,24.11,0.78,-2.19,38.77,-5.22,2.10,34.95,3.40,-1.68,-10.59
-7,13,314,-146,-276,4054,-0.50,0.45,23.62,-1.46,-2.76,40.54,-5.21,2.11,34.85,3.71,-1.78,-10.31
-11,8,315,-141,-441,3903,-0.51,0.45,23.18,-1.41,-4.41,39.03,-5.22,2.12,34.76,3.81,-1.68,-10.23
-7,13,326,-116,-371,3902,-0.50,0.49,22.85,-1.16,-3.71,39.02,-5.23,2.11,34.67,3.73,-1.79,-10.25
-5,7,331,20,-234,3909,-0.48,0.48,22.58,0.20,-2.34,39.09,-5.22,2.11,34.58,3.68,-1.66,-10.23
0,13,357,-91,-349,3886,-0.44,0.51,22.50,-0.91,-3.49,38.86,-5.21,2.10,34.49,3.56,-1.79,-10.43
-10,9,441,-78,-255,3908,-0.45,0.52,22.94,-0.78,-2.55,39.08,-5.20,2.10,34.40,3.76,-1.71,-11.22
-4,7,437,-130,-285,3879,-0.43,0.51,23.31,-1.30,-2.85,38.79,-5.18,2.11,34.31,3.62,-1.67,-11.25
-5,15,474,-120,-363,3946,-0.42,0.55,23.87,-1.20,-3.63,39.46,-5.18,2.10,34.21,3.63,-1.84,-11.66
3,18,483,-60,-378,3796,-0.36,0.60,24.43,-0.60,-3.78,37.96,-5.18,2.09,34.12,3.46,-1.91,-11.83
-4,19,478,9,-257,3887,-0.35,0.66,24.90,0.09,-2.57,38.87,-5.17,2.09,34.02,3.59,-1.94,-11.87
2,7,465,56,-240,3918,-0.30,0.64,25.25,0.56,-2.40,39.18,-5.16,2.08,33.92,3.45,-1.69,-11.82
-10,28,496,54,-432,3879,-0.33,0.74,25.75,0.54,-4.32,38.79,-5.16,2.08,33.81,3.70,-2.14,-12.17
-3,10,506,73,-366,3978,-0.32,0.73,26.26,0.73,-3.66,39.78,-5.16,2.07,33.71,3.55,-1.77,-12.34
-13,-2,452,-41,-359,3914,-0.36,0.64,26.39,-0.41,-3.59,39.14,-5.16,2.07,33.60,3.77,-1.50,-11.90
-26,8,468,-95,-536,3962,-0.49,0.63,26.61,-0.95,-5.36,39.62,-5.18,2.07,33.50,4.08,-1.70,-12.07
-1,14,416,-14,-308,4005,-0.44,0.65,26.49,-0.14,-3.08,40.05,-5.17,2.07,33.39,3.55,-1.83,-11.59
7,20,410,-228,-493,3876,-0.36,0.71,26.34,-2.28,-4.93,38.76,-5.18,2.09,33.29,3.37,-1.98,-11.50
-11,18,487,-144,-494,3844,-0.39,0.75,26.67,-1.44,-4.94,38.44,-5.20,2.10,33.18,3.76,-1.96,-12.21
-12,0,479,30,-254,3932,-0.42,0.67,26.93,0.30,-2.54,39.32,-5.19,2.10,33.08,3.78,-1.57,-12.18
1,26,408,-60,-541,3967,-0.37,0.76,26.73,-0.60,-5.41,39.67,-5.20,2.11,32.97,3.51,-2.13,-11.53
-11,-4,417,23,-475,3965,-0.40,0.66,26.60,0.23,-4.75,39.65,-5.21,2.10,32.87,3.77,-1.49,-11.57
-13,2,404,-65,-525,3959,-0.44,0.61,26.40,-0.65,-5.25,39.59,-5.22,2.11,32.76,3.83,-1.60,-11.42
-3,27,425,-158,-458,3824,-0.42,0.71,26.35,-1.58,-4.58,38.24,-5.24,2.12,32.66,3.63,-2.14,-11.58
-1,9,414,-107,-259,3862,-0.38,0.70,26.24,-1.07,-2.59,38.62,-5.22,2.13,32.55,3.57,-1.78,-11.45
-9,7,417,-60,-322,3835,-0.40,0.67,26.16,-0.60,-3.22,38.35,-5.21,2.12,32.45,3.73,-1.73,-11.45
2,19,481,-112,-351,3881,-0.35,0.72,26.48,-1.12,-3.51,38.81,-5.21,2.12,32.34,3.49,-1.98,-12.05
-12,12,461,-58,-301,3931,-0.38,0.72,26.64,-0.58,-3.01,39.31,-5.19,2.11,32.24,3.78,-1.84,-11.90
-3,8,421,-88,-441,3938,-0.36,0.70,26.55,-0.88,-4.41,39.38,-5.21,2.12,32.13,3.60,-1.75,-11.53
-5,7,410,-117,-486,3935,-0.36,0.67,26.39,-1.17,-4.86,39.35,-5.22,2.12,32.03,3.65,-1.73,-11.40
-12,7,367,-156,-563,3908,-0.40,0.65,25.99,-1.56,-5.63,39.08,-5.24,2.14,31.92,3.81,-1.73,-10.95
-2,18,368,-213,-577,3894,-0.37,0.69,25.64,-2.13,-5.77,38.94,-5.25,2.15,31.82,3.61,-1.98,-10.88
-8,9,347,-100,-485,3905,-0.38,0.68,25.19,-1.00,-4.85,39.05,-5.27,2.16,31.72,3.74,-1.79,-10.61
-2,-2,340,-159,-456,3988,-0.35,0.60,24.75,-1.59,-4.56,39.88,-5.28,2.17,31.63,3.62,-1.56,-10.46
-7,5,373,-92,-405,3928,-0.36,0.57,24.55,-0.92,-4.05,39.28,-5.29,2.17,31.53,3.73,-1.69,-10.69
-8,8,388,-206,-424,3949,-0.37,0.56,24.46,-2.06,-4.24,39.49,-5.30,2.19,31.43,3.76,-1.76,-10.79
8,9,428,-24,-161,3902,-0.29,0.56,24.62,-0.24,-1.61,39.02,-5.28,2.20,31.33,3.40,-1.78,-11.15
-8,15,489,-13,-265,3920,-0.31,0.59,25.14,-0.13,-2.65,39.20,-5.27,2.19,31.23,3.73,-1.91,-11.76
-13,17,634,63,-275,3908,-0.36,0.64,26.50,0.63,-2.75,39.08,-5.26,2.19,31.13,3.83,-1.96,-13.24
-9,21,639,30,-299,3905,-0.38,0.70,27.75,0.30,-2.99,39.05,-5.25,2.18,31.02,3.75,-2.06,-13.51
-15,16,642,2,-463,3879,-0.43,0.73,28.89,0.02,-4.63,38.79,-5.26,2.18,30.90,3.89,-1.96,-13.74
-12,5,641,107,-483,3904,-0.46,0.69,29.91,1.07,-4.83,39.04,-5.27,2.18,30.78,3.85,-1.73,-13.92
-18,16,665,53,-593,3866,-0.52,0.72,30.97,0.53,-5.93,38.66,-5.28,2.18,30.66,3.99,-1.96,-14.31
-13,18,656,118,-457,3924,-0.55,0.75,31.88,1.18,-4.57,39.24,-5.28,2.18,30.53,3.90,-2.01,-14.40
-20,4,662,78,-393,3928,-0.62,0.70,32.73,0.78,-3.93,39.28,-5.28,2.18,30.40,4.06,-1.71,-14.60
-8,13,666,62,-344,3904,-0.60,0.71,33.52,0.62,-3.44,39.04,-5.28,2.17,30.27,3.81,-1.89,-14.77
-15,10,657,-45,-569,3858,-0.64,0.70,34.17,-0.45,-5.69,38.58,-5.29,2.18,30.13,3.97,-1.83,-14.81
-11,12,642,-112,-632,3900,-0.64,0.71,34.67,-1.12,-6.32,39.00,-5.31,2.19,30.00,3.90,-1.88,-14.77
-9,10,509,-123,-491,3850,-0.63,0.70,34.31,-1.23,-4.91,38.50,-5.32,2.20,29.86,3.87,-1.85,-13.56
-4,6,479,-142,-477,3996,-0.59,0.66,33.80,-1.42,-4.77,39.96,-5.34,2.22,29.73,3.77,-1.77,-13.19
-12,-9,401,23,-406,3924,-0.61,0.54,32.87,0.23,-4.06,39.24,-5.34,2.21,29.60,3.93,-1.43,-12.34
-5,14,408,-34,-437,3800,-0.58,0.57,32.07,-0.34,-4.37,38.00,-5.35,2.21,29.47,3.79,-1.90,-12.24
-9,2,421,42,-271,3875,-0.57,0.53,31.43,0.42,-2.71,38.75,-5.34,2.21,29.34,3.86,-1.64,-12.21
0,9,426,31,-315,3955,-0.52,0.53,30.89,0.31,-3.15,39.55,-5.33,2.21,29.22,3.66,-1.78,-12.14
-10,-7,426,16,-366,3929,-0.53,0.43,30.40,0.16,-3.66,39.29,-5.33,2.20,29.10,3.86,-1.43,-12.04
-3,6,413,-46,-363,3839,-0.49,0.43,29.88,-0.46,-3.63,38.39,-5.32,2.20,28.98,3.71,-1.69,-11.82
-5,17,436,-127,-421,3938,-0.47,0.49,29.55,-1.27,-4.21,39.38,-5.34,2.20,28.87,3.75,-1.93,-11.94
-9,-2,416,-43,-270,3861,-0.48,0.43,29.13,-0.43,-2.70,38.61,-5.32,2.20,28.75,3.83,-1.53,-11.68
-7,16,460,-111,-429,3810,-0.47,0.48,29.02,-1.11,-4.29,38.10,-5.34,2.20,28.63,3.79,-1.91,-12.02
-3,10,484,18,-331,3989,-0.45,0.49,29.07,0.18,-3.31,39.89,-5.33,2.20,28.52,3.70,-1.79,-12.22
-8,8,447,-84,-538,3964,-0.45,0.49,28.89,-0.84,-5.38,39.64,-5.35,2.21,28.40,3.81,-1.75,-11.87
-2,14,510,10,-436,3836,-0.42,0.53,29.11,0.10,-4.36,38.36,-5.35,2.20,28.29,3.69,-1.88,-12.43
-8,15,540,-224,-497,3828,-0.42,0.57,29.50,-2.24,-4.97,38.28,-5.36,2.22,28.17,3.82,-1.93,-12.75
-15,20,613,-161,-454,3875,-0.47,0.63,30.29,-1.61,-4.54,38.75,-5.38,2.24,28.05,3.98,-2.06,-13.51
-10,9,634,-172,-297,3921,-0.49,0.63,31.13,-1.72,-2.97,39.21,-5.36,2.26,27.93,3.87,-1.84,-13.83
-17,11,614,-136,-407,3810,-0.54,0.63,31.76,-1.36,-4.07,38.10,-5.37,2.27,27.80,4.04,-1.89,-13.77
-5,16,676,67,-350,3817,-0.52,0.66,32.71,0.67,-3.50,38.17,-5.37,2.26,27.67,3.79,-2.00,-14.47
-3,7,669,-38,-484,3852,-0.48,0.64,33.52,-0.38,-4.84,38.52,-5.38,2.27,27.54,3.74,-1.81,-14.55
-11,5,572,-163,-604,3831,-0.50,0.61,33.65,-1.63,-6.04,38.31,-5.39,2.28,27.41,3.92,-1.77,-13.74
-9,21,610,-145,-575,3856,-0.51,0.67,34.01,-1.45,-5.75,38.56,-5.41,2.30,27.27,3.89,-2.13,-14.12
1,16,618,-110,-278,3952,-0.45,0.70,34.38,-1.10,-2.78,39.52,-5.39,2.30,27.13,3.66,-2.04,-14.25
-11,11,597,-88,-369,3944,-0.47,0.70,34.58,-0.88,-3.69,39.44,-5.38,2.30,27.00,3.91,-1.93,-14.10
1,20,614,32,-451,3978,-0.42,0.75,34.87,0.32,-4.51,39.78,-5.39,2.30,26.86,3.65,-2.13,-14.28
-6,16,628,-20,-445,3888,-0.41,0.78,35.21,-0.20,-4.45,38.88,-5.39,2.30,26.72,3.79,-2.06,-14.45
-2,11,623,-50,-427,3967,-0.39,0.77,35.49,-0.50,-4.27,39.67,-5.40,2.30,26.58,3.71,-1.95,-14.45
-1,24,609,-37,-399,3874,-0.35,0.83,35.66,-0.37,-3.99,38.74,-5.40,2.30,26.44,3.68,-2.23,-14.35
-6,10,558,-88,-390,3895,-0.35,0.81,35.50,-0.88,-3.90,38.95,-5.40,2.30,26.29,3.78,-1.94,-13.88
-13,8,541,-165,-452,3886,-0.40,0.78,35.25,-1.65,-4.52,38.86,-5.41,2.32,26.15,3.94,-1.90,-13.67
-10,20,546,-138,-344,3861,-0.42,0.82,35.05,-1.38,-3.44,38.61,-5.39,2.32,26.01,3.88,-2.16,-13.67
-17,12,542,-111,-470,3865,-0.48,0.81,34.85,-1.11,-4.70,38.65,-5.41,2.33,25.88,4.05,-2.00,-13.58
-3,8,500,-57,-400,3958,-0.45,0.78,34.42,-0.57,-4.00,39.58,-5.41,2.33,25.74,3.75,-1.91,-13.13
-18,7,481,-141,-356,3914,-0.52,0.75,33.91,-1.41,-3.56,39.14,-5.39,2.33,25.60,4.07,-1.88,-12.86
-4,5,465,-86,-437,3960,-0.49,0.70,33.36,-0.86,-4.37,39.60,-5.40,2.33,25.47,3.78,-1.83,-12.61
-2,0,432,-76,-392,3894,-0.45,0.63,32.66,-0.76,-3.92,38.94,-5.40,2.33,25.34,3.73,-1.71,-12.18
-12,6,313,-102,-273,3867,-0.48,0.61,31.30,-1.02,-2.73,38.67,-5.38,2.33,25.22,3.93,-1.83,-10.90
-3,2,303,-181,-383,3910,-0.45,0.56,30.02,-1.81,-3.83,39.10,-5.39,2.36,25.10,3.74,-1.75,-10.56
-16,3,422,-34,-516,3868,-0.50,0.52,29.59,-0.34,-5.16,38.68,-5.40,2.36,24.98,4.03,-1.76,-11.48
-7,16,440,-20,-461,3982,-0.50,0.57,29.32,-0.20,-4.61,39.82,-5.41,2.36,24.87,3.85,-2.04,-11.57
-6,5,403,-4,-386,3940,-0.48,0.54,28.84,-0.04,-3.86,39.40,-5.41,2.36,24.75,3.82,-1.80,-11.15
-4,6,388,-125,-408,3899,-0.46,0.52,28.32,-1.25,-4.08,38.99,-5.42,2.36,24.64,3.78,-1.82,-10.92
-12,8,353,-152,-599,3908,-0.49,0.52,27.65,-1.52,-5.99,39.08,-5.43,2.37,24.53,3.96,-1.87,-10.48
1,12,396,-120,-480,3885,-0.43,0.54,27.30,-1.20,-4.80,38.85,-5.45,2.37,24.42,3.69,-1.96,-10.77
-4,-15,310,70,-227,3905,-0.41,0.39,26.46,0.70,-2.27,39.05,-5.44,2.37,24.32,3.78,-1.37,-9.87
1,-3,256,-89,-429,3929,-0.37,0.34,25.37,-0.89,-4.29,39.29,-5.44,2.37,24.22,3.67,-1.59,-9.20
-11,9,400,-150,-374,3995,-0.40,0.36,25.28,-1.50,-3.74,39.95,-5.43,2.36,24.11,3.92,-1.84,-10.39
-4,12,400,-131,-327,3863,-0.38,0.40,25.19,-1.31,-3.27,38.63,-5.42,2.36,24.01,3.76,-1.91,-10.36
-12,2,403,4,-421,3886,-0.42,0.37,25.13,0.04,-4.21,38.86,-5.42,2.35,23.91,3.93,-1.69,-10.37
-6,4,353,-43,-470,3884,-0.41,0.36,24.77,-0.43,-4.70,38.84,-5.43,2.35,23.82,3.82,-1.73,-9.87
2,28,445,-32,-405,3913,-0.36,0.49,25.01,-0.32,-4.05,39.13,-5.43,2.34,23.72,3.64,-2.25,-10.68
-9,14,453,-68,-351,3959,-0.38,0.53,25.27,-0.68,-3.51,39.59,-5.42,2.34,23.62,3.87,-1.97,-10.79
0,29,496,-92,-366,3898,-0.34,0.65,25.77,-0.92,-3.66,38.98,-5.42,2.33,23.51,3.67,-2.31,-11.24
-13,3,492,20,-294,4008,-0.38,0.60,26.19,0.20,-2.94,40.08,-5.41,2.33,23.41,3.94,-1.76,-11.28
-9,20,513,-78,-458,3911,-0.40,0.67,26.70,-0.78,-4.58,39.11,-5.42,2.33,23.30,3.87,-2.12,-11.55
-16,22,519,-106,-412,3900,-0.46,0.73,27.20,-1.06,-4.12,39.00,-5.43,2.33,23.20,4.03,-2.18,-11.68
-4,22,559,-89,-375,3965,-0.44,0.79,27.89,-0.89,-3.75,39.65,-5.43,2.32,23.08,3.78,-2.20,-12.14
-14,20,559,-68,-414,3919,-0.48,0.84,28.51,-0.68,-4.14,39.19,-5.43,2.32,22.97,4.00,-2.17,-12.25
-6,22,533,-99,-558,3810,-0.47,0.89,28.91,-0.99,-5.58,38.10,-5.45,2.33,22.86,3.84,-2.23,-12.10
-3,17,505,-124,-550,3886,-0.44,0.90,29.10,-1.24,-5.50,38.86,-5.46,2.34,22.74,3.78,-2.14,-11.89
-1,8,479,-68,-397,3882,-0.40,0.86,29.11,-0.68,-3.97,38.82,-5.46,2.34,22.63,3.73,-1.94,-11.66
1,11,470,-73,-495,3859,-0.35,0.84,29.07,-0.73,-4.95,38.59,-5.47,2.34,22.51,3.69,-2.00,-11.56
2,-1,444,-25,-465,3869,-0.31,0.75,28.87,-0.25,-4.65,38.69,-5.48,2.34,22.40,3.66,-1.73,-11.29
-7,3,468,-59,-526,3865,-0.32,0.69,28.84,-0.59,-5.26,38.65,-5.49,2.34,22.28,3.85,-1.80,-11.48
-8,13,527,2,-363,3925,-0.34,0.70,29.17,0.02,-3.63,39.25,-5.49,2.34,22.17,3.88,-2.00,-12.03
-10,19,528,-44,-484,3897,-0.36,0.75,29.47,-0.44,-4.84,38.97,-5.50,2.34,22.05,3.93,-2.14,-12.09
-14,4,507,-92,-360,3944,-0.41,0.70,29.62,-0.92,-3.60,39.44,-5.49,2.34,21.93,4.02,-1.81,-11.93
-5,16,497,-95,-382,3888,-0.40,0.73,29.69,-0.95,-3.82,38.88,-5.49,2.33,21.82,3.83,-2.06,-11.85
-10,19,522,-16,-419,3860,-0.42,0.77,29.90,-0.16,-4.19,38.60,-5.49,2.33,21.70,3.94,-2.13,-12.09
-14,13,545,33,-467,3908,-0.47,0.77,30.24,0.33,-4.67,39.08,-5.50,2.33,21.58,4.04,-2.01,-12.34
-19,24,508,-90,-645,3916,-0.54,0.84,30.31,-0.90,-6.45,39.16,-5.51,2.34,21.46,4.17,-2.26,-12.03
-6,11,481,-11,-356,4002,-0.52,0.82,30.21,-0.11,-3.56,40.02,-5.50,2.34,21.34,3.90,-1.99,-11.77
-9,13,530,-130,-340,3935,-0.52,0.82,30.43,-1.30,-3.40,39.35,-5.49,2.34,21.22,3.95,-2.03,-12.21
-3,9,514,-166,-374,3925,-0.49,0.79,30.52,-1.66,-3.74,39.25,-5.47,2.37,21.09,3.81,-1.96,-12.09
2,20,495,-236,-534,3881,-0.43,0.84,30.49,-2.36,-5.34,38.81,-5.49,2.39,20.97,3.70,-2.21,-11.91
-12,19,523,-163,-625,3871,-0.46,0.87,30.63,-1.63,-6.25,38.71,-5.50,2.41,20.85,4.00,-2.21,-12.16
-6,15,564,-187,-422,4042,-0.45,0.87,31.01,-1.87,-4.22,40.42,-5.52,2.43,20.73,3.88,-2.15,-12.57
-4,9,590,-217,-429,3806,-0.43,0.84,31.50,-2.17,-4.29,38.06,-5.53,2.46,20.60,3.85,-2.03,-12.87
7,2,612,-87,-395,3867,-0.34,0.77,32.09,-0.87,-3.95,38.67,-5.53,2.46,20.48,3.60,-1.87,-13.16
0,-3,655,-29,-396,4022,-0.31,0.67,32.87,-0.29,-3.96,40.22,-5.52,2.45,20.35,3.73,-1.74,-13.66
-16,11,701,2,-309,3947,-0.37,0.67,33.86,0.02,-3.09,39.47,-5.51,2.45,20.21,4.07,-2.03,-14.23
-7,18,715,-117,-283,4025,-0.38,0.72,34.84,-1.17,-2.83,40.25,-5.49,2.46,20.07,3.87,-2.18,-14.52
-54,-15,681,110,-332,3823,-0.67,0.55,35.51,1.10,-3.32,38.23,-5.49,2.46,19.93,4.90,-1.47,-14.35
7,54,663,-161,-552,3803,-0.56,0.83,36.00,-1.61,-5.52,38.03,-5.50,2.47,19.79,3.64,-2.96,-14.28
-9,2,660,136,-257,3945,-0.56,0.76,36.43,1.36,-2.57,39.45,-5.49,2.47,19.64,3.96,-1.88,-14.32
13,36,631,-4,-476,3929,-0.42,0.90,36.63,-0.04,-4.76,39.29,-5.49,2.48,19.50,3.48,-2.61,-14.10
-7,44,500,-55,-426,3853,-0.43,1.08,36.02,-0.55,-4.26,38.53,-5.50,2.48,19.36,3.89,-2.82,-12.86
-32,4,489,-43,-502,3980,-0.58,1.00,35.40,-0.43,-5.02,39.80,-5.51,2.48,19.22,4.44,-1.99,-12.64
-2,8,369,-3,-493,3788,-0.53,0.94,34.11,-0.03,-4.93,37.88,-5.51,2.48,19.08,3.82,-2.06,-11.36
14,-1,320,36,-440,3943,-0.39,0.84,32.65,0.36,-4.40,39.43,-5.51,2.48,18.95,3.46,-1.85,-10.66
-1,0,243,50,-283,3995,-0.36,0.76,30.87,0.50,-2.83,39.95,-5.50,2.48,18.83,3.75,-1.84,-9.65
-2,-10,204,60,-259,3952,-0.34,0.62,29.03,0.60,-2.59,39.52,-5.49,2.48,18.71,3.76,-1.60,-8.96
-17,-3,126,-10,-415,3939,-0.41,0.54,26.89,-0.10,-4.15,39.39,-5.49,2.47,18.60,4.08,-1.72,-7.88
-21,4,155,-157,-558,3795,-0.49,0.51,25.15,-1.57,-5.58,37.95,-5.51,2.48,18.51,4.20,-1.86,-7.79
12,-10,205,-83,-255,3940,-0.37,0.40,23.88,-0.83,-2.55,39.40,-5.49,2.48,18.41,3.48,-1.54,-7.96
-2,-10,184,-54,-479,3863,-0.35,0.30,22.62,-0.54,-4.79,38.63,-5.50,2.48,18.32,3.77,-1.52,-7.53
4,24,274,-101,-458,3850,-0.29,0.42,22.03,-1.01,-4.58,38.50,-5.51,2.48,18.23,3.64,-2.24,-8.17
-4,6,269,-37,-432,4002,-0.28,0.41,21.47,-0.37,-4.32,40.02,-5.52,2.47,18.15,3.80,-1.87,-8.01
3,2,113,-16,-405,3904,-0.24,0.38,20.01,-0.16,-4.05,39.04,-5.52,2.46,18.07,3.64,-1.77,-6.41
-11,11,157,-168,-574,3749,-0.28,0.41,18.97,-1.68,-5.74,37.49,-5.53,2.47,17.99,3.95,-1.97,-6.57
5,-5,130,70,-363,3940,-0.22,0.34,17.86,0.70,-3.63,39.40,-5.53,2.46,17.92,3.61,-1.62,-6.13
-5,-12,101,31,-412,3907,-0.23,0.23,16.69,0.31,-4.12,39.07,-5.53,2.45,17.86,3.81,-1.44,-5.65
-16,12,184,-335,-520,3803,-0.30,0.28,16.15,-3.35,-5.20,38.03,-5.54,2.47,17.79,4.06,-1.95,-6.25
-18,14,285,-286,-460,3814,-0.38,0.34,16.27,-2.86,-4.60,38.14,-5.55,2.49,17.73,4.13,-2.02,-7.12
-13,0,386,91,-312,3946,-0.42,0.31,17.00,0.91,-3.12,39.46,-5.54,2.48,17.66,4.04,-1.72,-8.11
-4,7,378,-29,-356,3924,-0.41,0.32,17.60,-0.29,-3.56,39.24,-5.54,2.47,17.59,3.85,-1.86,-8.15
-11,16,390,-58,-511,3869,-0.43,0.38,18.22,-0.58,-5.11,38.69,-5.55,2.47,17.52,4.01,-2.06,-8.36
-10,16,385,-54,-395,3937,-0.45,0.44,18.75,-0.54,-3.95,39.37,-5.55,2.46,17.44,3.99,-2.07,-8.41
-15,9,392,-140,-591,3849,-0.50,0.45,19.26,-1.40,-5.91,38.49,-5.57,2.47,17.37,4.12,-1.94,-8.57
3,-15,285,35,-344,4048,-0.43,0.32,19.08,0.35,-3.44,40.48,-5.56,2.46,17.29,3.73,-1.41,-7.62
-16,1,401,68,-648,3988,-0.48,0.29,19.61,0.68,-6.48,39.88,-5.58,2.46,17.22,4.14,-1.72,-8.70
4,-1,367,133,-328,3946,-0.41,0.26,19.89,1.33,-3.28,39.46,-5.57,2.45,17.14,3.71,-1.66,-8.45
-9,11,404,3,-532,3797,-0.42,0.30,20.37,0.03,-5.32,37.97,-5.58,2.44,17.06,3.98,-1.92,-8.85
-8,21,406,34,-485,3938,-0.43,0.40,20.81,0.34,-4.85,39.38,-5.59,2.44,16.97,3.97,-2.14,-8.94
-11,9,370,0,-427,4030,-0.46,0.41,20.98,0.00,-4.27,40.30,-5.59,2.43,16.89,4.04,-1.90,-8.66
3,-7,366,75,-277,4001,-0.39,0.33,21.12,0.75,-2.77,40.01,-5.58,2.42,16.81,3.73,-1.54,-8.65
-11,11,476,-33,-367,3910,-0.42,0.36,21.91,-0.33,-3.67,39.10,-5.58,2.41,16.72,4.02,-1.91,-9.72
-10,6,447,8,-407,3967,-0.44,0.36,22.45,0.08,-4.07,39.67,-5.58,2.41,16.63,4.00,-1.81,-9.57
2,-1,416,-20,-378,3866,-0.38,0.32,22.74,-0.20,-3.78,38.66,-5.57,2.40,16.54,3.74,-1.65,-9.36
3,14,435,50,-455,3907,-0.33,0.37,23.12,0.50,-4.55,39.07,-5.58,2.39,16.45,3.71,-1.96,-9.58
-4,-16,497,-13,-265,3946,-0.32,0.24,23.84,-0.13,-2.65,39.46,-5.56,2.39,16.35,3.84,-1.31,-10.24
3,-16,456,-19,-227,3860,-0.27,0.12,24.24,-0.19,-2.27,38.60,-5.55,2.38,16.25,3.67,-1.28,-9.96
0,-15,361,98,-632,3955,-0.24,0.01,24.01,0.98,-6.32,39.55,-5.56,2.38,16.16,3.73,-1.27,-9.10
-10,-16,412,-26,-573,3776,-0.28,-0.09,24.13,-0.26,-5.73,37.76,-5.57,2.38,16.06,3.95,-1.22,-9.55
-1,-11,488,90,-427,3915,-0.26,-0.14,24.69,0.90,-4.27,39.15,-5.57,2.37,15.97,3.77,-1.30,-10.29
-6,-28,474,50,-451,4046,-0.27,-0.30,25.11,0.50,-4.51,40.46,-5.57,2.36,15.87,3.87,-0.91,-10.24
-7,-10,489,-120,-555,3912,-0.28,-0.33,25.58,-1.20,-5.55,39.12,-5.59,2.36,15.76,3.91,-1.27,-10.45
-5,0,521,-47,-666,3937,-0.29,-0.30,26.20,-0.47,-6.66,39.37,-5.60,2.37,15.66,3.87,-1.48,-10.83
-1,34,708,76,-778,4009,-0.26,-0.06,27.90,0.76,-7.78,40.09,-5.61,2.37,15.55,3.80,-2.24,-12.73
0,42,863,25,-674,3881,-0.24,0.20,30.38,0.25,-6.74,38.81,-5.62,2.37,15.43,3.78,-2.47,-14.51
0,45,1062,-121,-427,4010,-0.21,0.46,33.82,-1.21,-4.27,40.10,-5.63,2.37,15.30,3.77,-2.60,-16.84
-24,33,1094,-273,-598,3770,-0.34,0.61,37.11,-2.73,-5.98,37.70,-5.64,2.40,15.15,4.30,-2.42,-17.72
4,49,1106,-97,-307,3921,-0.28,0.85,40.14,-0.97,-3.07,39.21,-5.62,2.40,14.99,3.70,-2.81,-18.39
-25,20,1077,-145,-349,3915,-0.40,0.89,42.70,-1.45,-3.49,39.15,-5.60,2.41,14.82,4.31,-2.24,-18.62
-11,22,879,-265,-335,3889,-0.43,0.93,43.79,-2.65,-3.35,38.89,-5.59,2.45,14.64,4.03,-2.32,-17.13
-12,21,812,-269,-384,3929,-0.46,0.97,44.37,-2.69,-3.84,39.29,-5.58,2.49,14.47,4.05,-2.33,-16.66
1,-1,547,-154,-297,3990,-0.41,0.86,43.27,-1.54,-2.97,39.90,-5.56,2.51,14.29,3.76,-1.87,-14.19
1,30,512,-154,-302,3820,-0.36,0.96,42.06,-1.54,-3.02,38.20,-5.53,2.52,14.13,3.73,-2.54,-13.65
-10,20,487,-71,-402,3928,-0.39,0.99,40.83,-0.71,-4.02,39.28,-5.53,2.53,13.96,3.96,-2.34,-13.19
-12,38,453,-224,-355,3875,-0.42,1.12,39.51,-2.24,-3.55,38.75,-5.52,2.56,13.81,4.00,-2.77,-12.63
-15,21,383,-16,-269,3976,-0.47,1.14,37.89,-0.16,-2.69,39.76,-5.50,2.57,13.66,4.07,-2.43,-11.72
-10,11,353,-96,-434,3894,-0.48,1.09,36.26,-0.96,-4.34,38.94,-5.51,2.57,13.51,3.97,-2.22,-11.14
-10,30,318,-1,-442,3915,-0.50,1.16,34.57,-0.01,-4.42,39.15,-5.51,2.57,13.37,3.98,-2.62,-10.50
-7,11,320,-97,-516,3926,-0.49,1.11,33.07,-0.97,-5.16,39.26,-5.52,2.58,13.24,3.92,-2.23,-10.22
-7,19,299,-154,-544,3770,-0.48,1.12,31.58,-1.54,-5.44,37.70,-5.54,2.59,13.12,3.93,-2.40,-9.75
-17,3,326,1,-471,4012,-0.54,1.03,30.41,0.01,-4.71,40.12,-5.54,2.59,13.00,4.15,-2.05,-9.74
-5,1,284,-29,-510,3843,-0.52,0.93,29.10,-0.29,-5.10,38.43,-5.55,2.59,12.88,3.91,-1.99,-9.13
-8,8,291,-6,-506,3853,-0.51,0.88,27.97,-0.06,-5.06,38.53,-5.56,2.59,12.77,3.97,-2.12,-8.96
-11,19,220,8,-565,3789,-0.53,0.91,26.51,0.08,-5.65,37.89,-5.57,2.60,12.67,4.04,-2.35,-8.07
4,15,275,-99,-422,3972,-0.45,0.91,25.54,-0.99,-4.22,39.72,-5.57,2.59,12.57,3.72,-2.26,-8.34
-4,-2,256,75,-263,3966,-0.43,0.81,24.55,0.75,-2.63,39.66,-5.56,2.59,12.47,3.87,-1.89,-7.98
-3,8,237,24,-339,3921,-0.41,0.78,23.54,0.24,-3.39,39.21,-5.56,2.58,12.38,3.84,-2.08,-7.62
-7,10,270,-52,-437,4010,-0.41,0.76,22.83,-0.52,-4.37,40.10,-5.56,2.58,12.29,3.92,-2.11,-7.76
-5,-6,259,-165,-512,3807,-0.40,0.65,22.13,-1.65,-5.12,38.07,-5.58,2.59,12.20,3.89,-1.76,-7.52
-8,6,273,-43,-523,3906,-0.41,0.62,21.58,-0.43,-5.23,39.06,-5.59,2.59,12.11,3.96,-2.00,-7.53
2,15,270,3,-488,3976,-0.35,0.65,21.07,0.03,-4.88,39.76,-5.59,2.58,12.03,3.75,-2.18,-7.40
-12,-1,266,-24,-520,3841,-0.39,0.58,20.59,-0.24,-5.20,38.41,-5.60,2.58,11.95,4.05,-1.84,-7.26
-5,13,266,0,-361,3970,-0.38,0.60,20.15,0.00,-3.61,39.70,-5.60,2.57,11.87,3.90,-2.12,-7.17
-6,-2,269,-107,-410,3897,-0.38,0.53,19.78,-1.07,-4.10,38.97,-5.60,2.56,11.79,3.93,-1.79,-7.12
-2,-19,261,49,-212,4001,-0.36,0.36,19.39,0.49,-2.12,40.01,-5.59,2.56,11.71,3.83,-1.40,-6.97
-5,-3,235,-34,-460,3828,-0.35,0.30,18.88,-0.34,-4.60,38.28,-5.60,2.55,11.64,3.89,-1.70,-6.65
-7,13,279,-124,-530,3837,-0.36,0.35,18.70,-1.24,-5.30,38.37,-5.61,2.55,11.56,3.95,-2.05,-6.98
1,9,303,-41,-386,3886,-0.32,0.37,18.68,-0.41,-3.86,38.86,-5.61,2.54,11.49,3.77,-1.96,-7.17
-1,4,310,14,-411,3955,-0.29,0.36,18.70,0.14,-4.11,39.55,-5.61,2.53,11.42,3.80,-1.85,-7.23
-1,11,306,69,-481,3992,-0.27,0.39,18.70,0.69,-4.81,39.92,-5.62,2.53,11.34,3.80,-2.00,-7.19
-6,7,316,-76,-557,3834,-0.28,0.39,18.75,-0.76,-5.57,38.34,-5.63,2.53,11.27,3.91,-1.92,-7.28
-11,5,317,-37,-580,3880,-0.32,0.39,18.81,-0.37,-5.80,38.80,-5.64,2.52,11.19,4.04,-1.87,-7.29
-3,9,328,16,-475,3971,-0.30,0.40,18.93,0.16,-4.75,39.71,-5.65,2.52,11.12,3.87,-1.95,-7.40
-7,0,310,-145,-343,3917,-0.32,0.36,18.93,-1.45,-3.43,39.17,-5.63,2.52,11.04,3.95,-1.76,-7.24
-2,-21,243,-52,-222,3918,-0.30,0.20,18.52,-0.52,-2.22,39.18,-5.62,2.51,10.97,3.83,-1.29,-6.59
-13,6,404,60,-454,4017,-0.35,0.21,19.13,0.60,-4.54,40.17,-5.62,2.50,10.89,4.07,-1.83,-8.06
-8,7,427,-96,-599,3746,-0.36,0.24,19.82,-0.96,-5.99,37.46,-5.63,2.51,10.81,3.98,-1.86,-8.38
-5,-2,444,22,-374,3956,-0.35,0.20,20.55,0.22,-3.74,39.56,-5.63,2.50,10.73,3.91,-1.66,-8.65
-5,-4,444,-42,-406,3901,-0.35,0.16,21.20,-0.42,-4.06,39.01,-5.63,2.49,10.65,3.91,-1.60,-8.77
-3,12,468,-28,-602,3830,-0.33,0.21,21.94,-0.28,-6.02,38.30,-5.64,2.49,10.56,3.88,-1.94,-9.11
-4,1,503,153,-449,4045,-0.32,0.20,22.81,1.53,-4.49,40.45,-5.64,2.48,10.47,3.89,-1.71,-9.56
-7,12,531,2,-770,3817,-0.33,0.25,23.77,0.02,-7.70,38.17,-5.66,2.48,10.38,3.97,-1.95,-9.98
-1,-5,559,96,-654,4010,-0.31,0.20,24.80,0.96,-6.54,40.10,-5.67,2.48,10.28,3.84,-1.59,-10.40
1,-14,690,63,-473,4075,-0.27,0.09,26.53,0.63,-4.73,40.75,-5.67,2.47,10.17,3.79,-1.37,-11.83
-7,31,765,1,-586,4012,-0.29,0.27,28.54,0.01,-5.86,40.12,-5.68,2.47,10.06,3.97,-2.34,-12.84
-15,40,811,77,-639,3918,-0.35,0.49,30.64,0.77,-6.39,39.18,-5.69,2.47,9.94,4.15,-2.58,-13.62
-20,-4,832,-4,-430,3917,-0.44,0.41,32.65,-0.04,-4.30,39.17,-5.69,2.47,9.81,4.28,-1.66,-14.17
-20,21,871,49,-358,4018,-0.51,0.50,34.70,0.49,-3.58,40.18,-5.68,2.47,9.67,4.30,-2.19,-14.88
-17,23,884,-89,-369,3818,-0.57,0.59,36.62,-0.89,-3.69,38.18,-5.67,2.47,9.53,4.24,-2.26,-15.35
-14,11,750,-248,-583,3810,-0.60,0.60,37.53,-2.48,-5.83,38.10,-5.69,2.49,9.38,4.20,-2.03,-14.37
-26,10,739,-104,-285,4028,-0.69,0.60,38.29,-1.04,-2.85,40.28,-5.67,2.50,9.22,4.46,-2.02,-14.41
-3,3,745,-83,-400,4057,-0.64,0.56,39.00,-0.83,-4.00,40.57,-5.66,2.50,9.07,3.97,-1.86,-14.58
-17,3,741,-120,-440,3799,-0.68,0.52,39.62,-1.20,-4.40,37.99,-5.67,2.51,8.91,4.28,-1.86,-14.65
-4,33,690,-156,-338,4012,-0.64,0.67,39.87,-1.56,-3.38,40.12,-5.65,2.52,8.75,3.99,-2.52,-14.25
-18,17,622,-233,-537,3529,-0.68,0.71,39.68,-2.33,-5.37,35.29,-5.66,2.54,8.60,4.29,-2.22,-13.63
-7,21,593,1,-504,3959,-0.66,0.76,39.33,0.01,-5.04,39.59,-5.67,2.55,8.44,4.06,-2.32,-13.30
-3,-16,557,99,-77,4157,-0.61,0.59,38.79,0.99,-0.77,41.57,-5.65,2.55,8.28,3.96,-1.52,-12.88
-13,-3,548,-27,-462,3830,-0.63,0.51,38.26,-0.27,-4.62,38.30,-5.66,2.55,8.13,4.17,-1.76,-12.69
-13,6,536,31,-436,3938,-0.65,0.50,37.70,0.31,-4.36,39.38,-5.66,2.55,7.98,4.17,-1.94,-12.46
-8,2,477,-54,-316,3891,-0.63,0.46,36.84,-0.54,-3.16,38.91,-5.64,2.55,7.84,4.06,-1.85,-11.79
-12,0,444,-39,-365,3940,-0.64,0.41,35.86,-0.39,-3.65,39.40,-5.64,2.55,7.69,4.14,-1.80,-11.31
-3,21,388,-61,-396,3961,-0.59,0.50,34.64,-0.61,-3.96,39.61,-5.63,2.55,7.55,3.94,-2.25,-10.59
-3,-9,347,2,-221,4018,-0.55,0.40,33.30,0.02,-2.21,40.18,-5.62,2.55,7.42,3.92,-1.61,-9.97
7,12,175,-86,-313,3908,-0.46,0.43,31.03,-0.86,-3.13,39.08,-5.60,2.55,7.30,3.68,-2.04,-8.07
-6,14,171,-112,-562,3765,-0.45,0.47,28.97,-1.12,-5.62,37.65,-5.62,2.56,7.18,3.95,-2.10,-7.63
-4,2,287,140,-402,3917,-0.43,0.44,27.83,1.40,-4.02,39.17,-5.61,2.55,7.07,3.90,-1.84,-8.39
1,-2,239,137,-362,3901,-0.38,0.38,26.50,1.37,-3.62,39.01,-5.61,2.55,6.97,3.78,-1.74,-7.72
1,-10,130,-7,-368,3884,-0.33,0.28,24.65,-0.07,-3.68,38.84,-5.60,2.54,6.87,3.77,-1.55,-6.43
6,-11,101,-17,-369,3918,-0.26,0.19,22.80,-0.17,-3.69,39.18,-5.60,2.53,6.78,3.65,-1.50,-5.82
-3,-9,138,-31,-624,3830,-0.26,0.11,21.36,-0.31,-6.24,38.30,-5.61,2.53,6.69,3.84,-1.52,-5.85
-7,1,186,-48,-631,3875,-0.27,0.11,20.36,-0.48,-6.31,38.75,-5.63,2.53,6.61,3.93,-1.72,-6.06
-8,-6,250,10,-319,3979,-0.29,0.06,19.85,0.10,-3.19,39.79,-5.62,2.52,6.53,3.95,-1.56,-6.50
-1,-8,201,-57,-304,3956,-0.27,0.01,19.09,-0.57,-3.04,39.56,-5.60,2.51,6.46,3.79,-1.50,-5.93
-1,4,169,-35,-544,3901,-0.25,0.03,18.21,-0.35,-5.44,39.01,-5.62,2.51,6.39,3.80,-1.74,-5.49
-2,5,240,-115,-521,3983,-0.24,0.06,17.85,-1.15,-5.21,39.83,-5.63,2.51,6.32,3.82,-1.77,-6.01
-9,0,313,-75,-437,3996,-0.27,0.05,17.98,-0.75,-4.37,39.96,-5.64,2.50,6.24,3.98,-1.66,-6.65
-9,2,291,60,-444,3949,-0.30,0.06,17.95,0.60,-4.44,39.49,-5.64,2.49,6.17,3.98,-1.70,-6.45
-13,15,333,-10,-607,3840,-0.35,0.14,18.19,-0.10,-6.07,38.40,-5.65,2.48,6.10,4.09,-1.98,-6.85
-18,9,341,49,-456,3991,-0.42,0.18,18.45,0.49,-4.56,39.91,-5.65,2.47,6.03,4.21,-1.87,-6.96
-14,15,360,-39,-534,3954,-0.46,0.26,18.80,-0.39,-5.34,39.54,-5.67,2.47,5.95,4.15,-2.01,-7.18
-5,14,362,77,-391,3877,-0.45,0.32,19.13,0.77,-3.91,38.77,-5.67,2.46,5.88,3.96,-2.00,-7.25
-10,-12,241,17,-340,3931,-0.46,0.21,18.69,0.17,-3.40,39.31,-5.66,2.45,5.80,4.07,-1.43,-6.14
-11,13,243,-72,-589,3736,-0.49,0.27,18.30,-0.72,-5.89,37.36,-5.68,2.45,5.73,4.10,-1.96,-6.07
-4,3,273,-96,-350,3942,-0.46,0.26,18.14,-0.96,-3.50,39.42,-5.67,2.45,5.66,3.95,-1.75,-6.29
4,-13,165,29,-193,3889,-0.39,0.16,17.33,0.29,-1.93,38.89,-5.65,2.44,5.59,3.75,-1.39,-5.21
3,4,73,14,-554,3853,-0.33,0.16,16.04,0.14,-5.54,38.53,-5.66,2.43,5.53,3.77,-1.73,-4.18
0,18,119,-140,-764,3781,-0.30,0.26,15.16,-1.40,-7.64,37.81,-5.68,2.44,5.47,3.83,-2.05,-4.40
-5,-1,271,151,-396,3974,-0.30,0.23,15.30,1.51,-3.96,39.74,-5.68,2.43,5.40,3.93,-1.64,-5.71
-7,-3,236,9,-374,3916,-0.31,0.19,15.21,0.09,-3.74,39.16,-5.67,2.42,5.34,3.97,-1.58,-5.39
-10,-2,121,-26,-446,3908,-0.34,0.15,14.43,-0.26,-4.46,39.08,-5.68,2.41,5.29,4.05,-1.59,-4.26
-10,3,126,-44,-606,3842,-0.37,0.16,13.75,-0.44,-6.06,38.42,-5.70,2.40,5.23,4.06,-1.69,-4.17
-8,18,217,-13,-542,3940,-0.38,0.25,13.70,-0.13,-5.42,39.40,-5.71,2.40,5.18,4.03,-2.02,-4.92
-10,-3,214,-38,-312,3971,-0.40,0.21,13.64,-0.38,-3.12,39.71,-5.70,2.39,5.12,4.07,-1.57,-4.88
-6,14,199,80,-497,3914,-0.40,0.27,13.49,0.80,-4.97,39.14,-5.70,2.38,5.07,4.00,-1.93,-4.72
-10,3,208,-3,-455,3931,-0.42,0.26,13.41,-0.03,-4.55,39.31,-5.71,2.37,5.02,4.09,-1.69,-4.78
-5,5,245,-52,-332,3946,-0.41,0.27,13.56,-0.52,-3.32,39.46,-5.70,2.36,4.96,3.98,-1.73,-5.11
-10,6,232,-136,-300,3868,-0.43,0.28,13.62,-1.36,-3.00,38.68,-5.68,2.36,4.91,4.07,-1.75,-5.01
0,1,136,-80,-503,3840,-0.39,0.26,13.09,-0.80,-5.03,38.40,-5.70,2.36,4.86,3.87,-1.64,-4.09
-2,16,168,-102,-658,3812,-0.36,0.33,12.80,-1.02,-6.58,38.12,-5.71,2.36,4.81,3.91,-1.97,-4.30
-2,4,298,-61,-305,3927,-0.34,0.32,13.34,-0.61,-3.05,39.27,-5.70,2.35,4.75,3.90,-1.72,-5.50
-2,7,267,-67,-284,3942,-0.32,0.33,13.64,-0.67,-2.84,39.42,-5.69,2.35,4.70,3.88,-1.78,-5.29
-2,12,229,-34,-502,3899,-0.30,0.37,13.67,-0.34,-5.02,38.99,-5.70,2.34,4.65,3.88,-1.89,-4.97
-8,9,256,-44,-562,3876,-0.31,0.39,13.86,-0.44,-5.62,38.76,-5.71,2.34,4.59,4.02,-1.83,-5.23
-1,20,259,-114,-392,4019,-0.29,0.47,14.06,-1.14,-3.92,40.19,-5.71,2.32,4.53,3.87,-2.07,-5.29
6,17,253,-79,-369,3884,-0.22,0.53,14.19,-0.79,-3.69,38.84,-5.70,2.31,4.48,3.70,-2.02,-5.26
16,15,198,-145,-414,3974,-0.10,0.57,13.98,-1.45,-4.14,39.74,-5.71,2.31,4.42,3.47,-1.98,-4.75
4,15,196,-148,-461,3855,-0.07,0.60,13.78,-1.48,-4.61,38.55,-5.73,2.32,4.37,3.72,-2.00,-4.69
6,62,258,-90,-289,3932,-0.03,0.92,13.98,-0.90,-2.89,39.32,-5.71,2.32,4.31,3.66,-3.04,-5.25
-1,17,262,-113,-229,4051,-0.03,0.93,14.18,-1.13,-2.29,40.51,-5.69,2.32,4.26,3.79,-2.13,-5.31
0,41,311,-147,-279,3869,-0.03,1.09,14.66,-1.47,-2.79,38.69,-5.67,2.33,4.20,3.75,-2.67,-5.81
-6,31,323,-175,-280,3938,-0.06,1.17,15.16,-1.75,-2.80,39.38,-5.65,2.34,4.14,3.87,-2.49,-6.01
0,40,326,-83,-231,3911,-0.05,1.30,15.63,-0.83,-2.31,39.11,-5.63,2.34,4.07,3.73,-2.71,-6.12
-2,49,367,-83,-200,3940,-0.06,1.47,16.31,-0.83,-2.00,39.40,-5.61,2.35,4.01,3.76,-2.95,-6.59
-2,5,363,-83,-754,3832,-0.07,1.35,16.89,-0.83,-7.54,38.32,-5.63,2.36,3.94,3.77,-2.03,-6.66
-5,-3,298,51,-839,3898,-0.09,1.20,17.02,0.51,-8.39,38.98,-5.64,2.36,3.88,3.85,-1.82,-6.13
-8,12,300,1,-550,3942,-0.13,1.15,17.15,0.01,-5.50,39.42,-5.65,2.36,3.81,3.93,-2.11,-6.16
-5,6,289,31,-613,3880,-0.15,1.07,17.20,0.31,-6.13,38.80,-5.67,2.36,3.74,3.88,-1.97,-6.07
-1,3,238,130,-568,3903,-0.14,0.98,16.93,1.30,-5.68,39.03,-5.67,2.35,3.68,3.80,-1.88,-5.58
5,-1,233,157,-466,3971,-0.09,0.88,16.66,1.57,-4.66,39.71,-5.67,2.35,3.61,3.67,-1.77,-5.48
-12,-5,233,-86,-460,3909,-0.16,0.76,16.41,-0.86,-4.60,39.09,-5.69,2.34,3.55,4.04,-1.65,-5.43
-2,7,218,-54,-414,3959,-0.15,0.73,16.10,-0.54,-4.14,39.59,-5.69,2.33,3.48,3.84,-1.88,-5.24
-3,0,168,21,-413,3949,-0.16,0.65,15.52,0.21,-4.13,39.49,-5.69,2.32,3.42,3.86,-1.71,-4.70
-10,-8,148,47,-424,3889,-0.20,0.54,14.87,0.47,-4.24,38.89,-5.69,2.31,3.36,4.01,-1.51,-4.40
3,8,91,102,-533,3833,-0.16,0.53,13.94,1.02,-5.33,38.33,-5.70,2.31,3.31,3.74,-1.83,-3.73
-3,6,94,24,-609,3880,-0.17,0.52,13.12,0.24,-6.09,38.80,-5.71,2.30,3.25,3.87,-1.78,-3.60
-2,-2,86,-47,-457,3898,-0.16,0.45,12.33,-0.47,-4.57,38.98,-5.72,2.29,3.21,3.86,-1.60,-3.37
-2,13,84,-42,-465,3921,-0.16,0.49,11.61,-0.42,-4.65,39.21,-5.73,2.28,3.16,3.86,-1.90,-3.21
2,-8,59,-88,-430,3877,-0.13,0.39,10.81,-0.88,-4.30,38.77,-5.73,2.27,3.12,3.78,-1.44,-2.85
-3,4,59,-26,-374,3956,-0.14,0.38,10.09,-0.26,-3.74,39.56,-5.73,2.26,3.08,3.88,-1.68,-2.70
-5,0,114,-40,-427,3908,-0.15,0.34,9.77,-0.40,-4.27,39.08,-5.73,2.25,3.04,3.93,-1.58,-3.11
-3,3,99,-22,-370,3901,-0.16,0.32,9.40,-0.22,-3.70,39.01,-5.73,2.24,3.00,3.89,-1.62,-2.91
-2,4,71,-70,-519,3874,-0.15,0.31,8.89,-0.70,-5.19,38.74,-5.75,2.23,2.97,3.87,-1.64,-2.57
-1,9,95,-90,-552,3862,-0.14,0.34,8.58,-0.90,-5.52,38.62,-5.76,2.23,2.93,3.86,-1.75,-2.71
-2,-3,75,59,-445,3915,-0.14,0.29,8.18,0.59,-4.45,39.15,-5.76,2.22,2.90,3.88,-1.48,-2.46
1,1,63,38,-471,3887,-0.12,0.26,7.75,0.38,-4.71,38.87,-5.77,2.20,2.87,3.82,-1.55,-2.27
-2,1,97,-30,-546,3885,-0.12,0.24,7.57,-0.30,-5.46,38.85,-5.78,2.20,2.84,3.89,-1.54,-2.52
2,7,114,-62,-561,3919,-0.10,0.26,7.50,-0.62,-5.61,39.19,-5.80,2.19,2.81,3.81,-1.66,-2.65
-2,2,124,-139,-481,3965,-0.10,0.25,7.51,-1.39,-4.81,39.65,-5.82,2.19,2.78,3.91,-1.55,-2.74
-4,-3,128,-94,-421,3882,-0.11,0.20,7.54,-0.94,-4.21,38.82,-5.82,2.18,2.75,3.96,-1.43,-2.77
-2,11,130,-51,-520,3864,-0.11,0.25,7.58,-0.51,-5.20,38.64,-5.84,2.17,2.72,3.93,-1.73,-2.79
-6,13,149,-69,-599,3868,-0.14,0.31,7.73,-0.69,-5.99,38.68,-5.85,2.17,2.69,4.02,-1.78,-2.98
-2,2,125,15,-431,3899,-0.14,0.29,7.72,0.15,-4.31,38.99,-5.86,2.16,2.66,3.94,-1.54,-2.77
-6,7,139,-9,-482,3880,-0.16,0.30,7.80,-0.09,-4.82,38.80,-5.87,2.14,2.63,4.04,-1.64,-2.90
4,-2,112,27,-369,3862,-0.12,0.26,7.70,0.27,-3.69,38.62,-5.86,2.13,2.60,3.82,-1.44,-2.65
-1,-4,114,-24,-458,3842,-0.11,0.21,7.62,-0.24,-4.58,38.42,-5.87,2.12,2.57,3.93,-1.37,-2.65
2,6,91,9,-344,3862,-0.09,0.22,7.42,0.09,-3.44,38.62,-5.86,2.10,2.54,3.85,-1.57,-2.42
-2,7,94,-47,-394,3915,-0.09,0.24,7.25,-0.47,-3.94,39.15,-5.86,2.09,2.51,3.94,-1.59,-2.41
1,5,104,-46,-478,3893,-0.08,0.25,7.16,-0.46,-4.78,38.93,-5.87,2.08,2.49,3.88,-1.54,-2.47
0,8,100,-27,-470,3900,-0.07,0.27,7.05,-0.27,-4.70,39.00,-5.88,2.07,2.46,3.90,-1.60,-2.42
5,0,46,88,-327,3932,-0.03,0.25,6.63,0.88,-3.27,39.32,-5.87,2.05,2.43,3.78,-1.42,-1.88
4,-1,32,68,-348,3919,-0.01,0.22,6.16,0.68,-3.48,39.19,-5.87,2.04,2.41,3.79,-1.39,-1.67
1,0,9,-22,-472,3909,0.00,0.19,5.60,-0.22,-4.72,39.09,-5.88,2.03,2.39,3.86,-1.39,-1.36
6,2,8,-25,-526,3880,0.04,0.19,5.09,-0.25,-5.26,38.80,-5.89,2.02,2.37,3.76,-1.42,-1.25
5,2,19,-36,-568,3890,0.06,0.18,4.70,-0.36,-5.68,38.90,-5.90,2.01,2.35,3.78,-1.42,-1.27
3,4,24,-11,-530,3876,0.08,0.19,4.37,-0.11,-5.30,38.76,-5.92,2.00,2.33,3.82,-1.45,-1.25
1,5,47,-61,-549,3891,0.07,0.20,4.22,-0.61,-5.49,38.91,-5.93,1.99,2.31,3.87,-1.47,-1.41
1,10,51,-19,-573,3877,0.07,0.24,4.11,-0.19,-5.73,38.77,-5.95,1.99,2.30,3.88,-1.58,-1.42
-1,-5,53,-128,-433,3931,0.06,0.19,4.02,-1.28,-4.33,39.31,-5.96,1.98,2.28,3.94,-1.26,-1.42
2,8,50,-69,-461,3906,0.07,0.22,3.93,-0.69,-4.61,39.06,-5.97,1.97,2.27,3.88,-1.52,-1.38
7,10,68,-49,-481,4009,0.10,0.26,3.95,-0.49,-4.81,40.09,-5.98,1.96,2.25,3.78,-1.57,-1.53
-3,-6,84,-66,-342,3910,0.07,0.19,4.07,-0.66,-3.42,39.10,-5.97,1.95,2.24,3.98,-1.22,-1.69
-14,12,118,-49,-360,3899,-0.02,0.25,4.38,-0.49,-3.60,38.99,-5.96,1.93,2.22,4.22,-1.59,-2.04
-6,6,109,-170,-464,3929,-0.05,0.26,4.61,-1.70,-4.64,39.29,-5.97,1.95,2.20,4.08,-1.48,-2.00
-3,0,95,-92,-457,3896,-0.07,0.23,4.72,-0.92,-4.57,38.96,-5.99,1.94,2.18,4.03,-1.34,-1.90
-5,7,105,-69,-515,3890,-0.09,0.25,4.89,-0.69,-5.15,38.90,-6.00,1.93,2.16,4.09,-1.49,-2.02
-6,3,80,71,-304,3896,-0.12,0.25,4.89,0.71,-3.04,38.96,-5.99,1.92,2.14,4.11,-1.39,-1.81
-3,10,63,57,-332,3899,-0.12,0.28,4.79,0.57,-3.32,38.99,-5.99,1.91,2.13,4.05,-1.54,-1.64
0,2,59,-16,-446,3870,-0.11,0.27,4.67,-0.16,-4.46,38.70,-5.99,1.89,2.11,3.99,-1.36,-1.58
-1,2,63,-19,-434,3870,-0.11,0.25,4.59,-0.19,-4.34,38.70,-6.00,1.88,2.09,4.01,-1.35,-1.60
6,-2,29,34,-366,3925,-0.06,0.21,4.30,0.34,-3.66,39.25,-5.99,1.86,2.07,3.85,-1.25,-1.25
4,0,18,19,-406,3919,-0.03,0.19,3.98,0.19,-4.06,39.19,-5.99,1.85,2.06,3.88,-1.27,-1.10
-5,-5,12,-28,-463,3911,-0.06,0.14,3.66,-0.28,-4.63,39.11,-6.00,1.83,2.04,4.08,-1.15,-0.98
-7,-6,14,-43,-476,3902,-0.09,0.09,3.38,-0.43,-4.76,39.02,-6.01,1.82,2.03,4.14,-1.10,-0.95
1,-4,45,-6,-570,3873,-0.08,0.06,3.31,-0.06,-5.70,38.73,-6.03,1.81,2.02,3.98,-1.13,-1.20
1,1,84,20,-594,3921,-0.06,0.06,3.50,0.20,-5.94,39.21,-6.04,1.80,2.00,3.98,-1.22,-1.56
-2,-13,98,-35,-405,3886,-0.07,-0.03,3.74,-0.35,-4.05,38.86,-6.04,1.78,1.99,4.05,-0.91,-1.72
-6,-9,93,-41,-484,3871,-0.10,-0.08,3.94,-0.41,-4.84,38.71,-6.05,1.77,1.97,4.14,-0.96,-1.72
-7,6,152,-27,-548,3963,-0.13,-0.03,4.47,-0.27,-5.48,39.63,-6.07,1.76,1.95,4.18,-1.28,-2.32
-8,-1,155,-62,-398,3893,-0.17,-0.04,4.97,-0.62,-3.98,38.93,-6.06,1.75,1.94,4.21,-1.12,-2.44
-3,5,101,-89,-393,3957,-0.17,-0.00,5.09,-0.89,-3.93,39.57,-6.05,1.73,1.91,4.10,-1.25,-2.00
-5,-2,83,-68,-380,3926,-0.18,-0.01,5.09,-0.68,-3.80,39.26,-6.04,1.72,1.89,4.14,-1.09,-1.85
-9,5,159,77,-601,3851,-0.22,0.02,5.55,0.77,-6.01,38.51,-6.05,1.71,1.87,4.24,-1.24,-2.58
-8,4,192,48,-625,3914,-0.25,0.04,6.16,0.48,-6.25,39.14,-6.07,1.70,1.85,4.23,-1.22,-2.97
-12,-14,244,170,-482,3822,-0.30,-0.05,7.04,1.70,-4.82,38.22,-6.07,1.69,1.82,4.33,-0.82,-3.58
-9,-31,236,139,-459,3918,-0.32,-0.23,7.77,1.39,-4.59,39.18,-6.07,1.67,1.79,4.28,-0.41,-3.65
-6,28,293,42,-233,3978,-0.33,-0.04,8.78,0.42,-2.33,39.78,-6.06,1.66,1.75,4.21,-1.66,-4.32
-2,-1,293,-73,-376,4030,-0.30,-0.04,9.69,-0.73,-3.76,40.30,-6.05,1.66,1.71,4.11,-1.06,-4.49
-4,-8,258,-72,-445,3950,-0.30,-0.09,10.30,-0.72,-4.45,39.50,-6.06,1.64,1.67,4.16,-0.90,-4.30
-6,-15,258,-19,-526,3838,-0.31,-0.17,10.84,-0.19,-5.26,38.38,-6.07,1.64,1.63,4.21,-0.73,-4.40
0,-2,269,-59,-409,3913,-0.27,-0.16,11.40,-0.59,-4.09,39.13,-6.07,1.62,1.59,4.08,-0.99,-4.60
4,8,278,-40,-331,3937,-0.22,-0.10,11.95,-0.40,-3.31,39.37,-6.05,1.62,1.54,3.98,-1.20,-4.78
-4,7,278,-28,-598,3886,-0.23,-0.05,12.45,-0.28,-5.98,38.86,-6.07,1.61,1.49,4.15,-1.19,-4.87
-12,5,255,-95,-493,3850,-0.28,-0.01,12.76,-0.95,-4.93,38.50,-6.09,1.62,1.44,4.34,-1.16,-4.73
0,2,152,-204,-395,3898,-0.25,0.00,12.41,-2.04,-3.95,38.98,-6.08,1.64,1.39,4.08,-1.12,-3.79
0,8,127,-114,-419,3943,-0.22,0.05,11.95,-1.14,-4.19,39.43,-6.07,1.65,1.34,4.06,-1.27,-3.48
4,8,71,-13,-425,3933,-0.18,0.09,11.19,-0.13,-4.25,39.33,-6.07,1.64,1.30,3.97,-1.27,-2.86
0,5,58,6,-426,3920,-0.16,0.12,10.42,0.06,-4.26,39.20,-6.07,1.62,1.26,4.05,-1.21,-2.60
-4,5,43,-18,-480,3895,-0.17,0.13,9.64,-0.18,-4.80,38.95,-6.08,1.61,1.22,4.14,-1.20,-2.32
-8,3,48,-33,-470,3903,-0.20,0.14,8.97,-0.33,-4.70,39.03,-6.09,1.60,1.18,4.24,-1.16,-2.23
-3,3,76,-92,-462,3909,-0.20,0.14,8.54,-0.92,-4.62,39.09,-6.11,1.60,1.15,4.14,-1.16,-2.38
-6,1,85,-58,-460,3884,-0.21,0.14,8.20,-0.58,-4.60,38.84,-6.12,1.59,1.12,4.22,-1.11,-2.39
-2,2,101,-70,-478,3896,-0.21,0.13,8.00,-0.70,-4.78,38.96,-6.13,1.59,1.08,4.14,-1.12,-2.48
-4,3,114,-79,-489,3880,-0.21,0.14,7.89,-0.79,-4.89,38.80,-6.15,1.58,1.05,4.20,-1.14,-2.57
-2,-7,131,-39,-510,3917,-0.20,0.08,7.90,-0.39,-5.10,39.17,-6.16,1.57,1.02,4.16,-0.92,-2.71
-7,-1,138,-34,-538,3875,-0.22,0.07,7.95,-0.34,-5.38,38.75,-6.18,1.57,0.99,4.28,-1.03,-2.78
-10,2,193,10,-453,3891,-0.26,0.07,8.34,0.10,-4.53,38.91,-6.18,1.55,0.96,4.36,-1.09,-3.31
-7,-4,191,-44,-411,3930,-0.28,0.04,8.67,-0.44,-4.11,39.30,-6.18,1.54,0.92,4.30,-0.95,-3.36
-3,13,198,-38,-438,3894,-0.27,0.12,9.01,-0.38,-4.38,38.94,-6.18,1.53,0.89,4.22,-1.30,-3.48
-4,7,193,80,-344,3903,-0.27,0.15,9.29,0.80,-3.44,39.03,-6.18,1.52,0.85,4.23,-1.18,-3.49
2,13,199,37,-521,3877,-0.23,0.21,9.57,0.37,-5.21,38.77,-6.19,1.51,0.81,4.11,-1.32,-3.59
-3,10,202,8,-530,3894,-0.22,0.25,9.85,0.08,-5.30,38.94,-6.20,1.50,0.78,4.21,-1.26,-3.66
0,10,161,-22,-408,3933,-0.20,0.29,9.84,-0.22,-4.08,39.33,-6.20,1.48,0.74,4.14,-1.26,-3.31
0,9,143,-32,-445,3914,-0.18,0.31,9.73,-0.32,-4.45,39.14,-6.20,1.47,0.70,4.14,-1.24,-3.13
-3,11,106,-64,-522,3929,-0.18,0.35,9.40,-0.64,-5.22,39.29,-6.22,1.47,0.66,4.21,-1.29,-2.75
-6,13,160,57,-530,3977,-0.20,0.39,9.44,0.57,-5.30,39.77,-6.23,1.46,0.62,4.29,-1.34,-3.22
-1,11,199,121,-669,3885,-0.19,0.42,9.71,1.21,-6.69,38.85,-6.24,1.45,0.59,4.19,-1.30,-3.59
-11,3,222,118,-644,3876,-0.23,0.40,10.09,1.18,-6.44,38.76,-6.25,1.45,0.55,4.41,-1.13,-3.86
-11,-1,259,18,-527,3941,-0.28,0.35,10.66,0.18,-5.27,39.41,-6.26,1.44,0.50,4.43,-1.03,-4.28
-9,-8,274,80,-652,3863,-0.30,0.27,11.27,0.80,-6.52,38.63,-6.28,1.43,0.46,4.41,-0.86,-4.52
-10,0,308,-5,-519,3797,-0.34,0.24,12.02,-0.05,-5.19,37.97,-6.29,1.43,0.41,4.45,-1.01,-4.94
-7,3,317,-67,-537,3915,-0.34,0.24,12.75,-0.67,-5.37,39.15,-6.31,1.43,0.36,4.40,-1.07,-5.16
-3,2,265,-116,-275,3920,-0.33,0.22,13.09,-1.16,-2.75,39.20,-6.29,1.44,0.31,4.30,-1.05,-4.78
-4,-10,244,-154,-362,3908,-0.32,0.14,13.27,-1.54,-3.62,39.08,-6.28,1.46,0.26,4.31,-0.80,-4.63
-2,9,269,-102,-370,3909,-0.30,0.18,13.59,-1.02,-3.70,39.09,-6.26,1.46,0.20,4.25,-1.20,-4.89
0,3,263,-112,-282,3917,-0.27,0.18,13.83,-1.12,-2.82,39.17,-6.24,1.47,0.15,4.19,-1.08,-4.88
-5,7,182,-11,-415,3940,-0.27,0.21,13.56,-0.11,-4.15,39.40,-6.24,1.46,0.09,4.29,-1.16,-4.14
-3,-6,188,-1,-498,3879,-0.26,0.15,13.35,-0.01,-4.98,38.79,-6.25,1.45,0.04,4.26,-0.88,-4.15
9,3,135,-9,-288,3926,-0.18,0.15,12.84,-0.09,-2.88,39.26,-6.23,1.45,-0.01,3.98,-1.06,-3.60
10,4,110,-97,-358,3883,-0.10,0.16,12.23,-0.97,-3.58,38.83,-6.21,1.45,-0.06,3.93,-1.09,-3.26
-4,-1,145,-157,-424,3895,-0.12,0.14,11.89,-1.57,-4.24,38.95,-6.21,1.48,-0.11,4.21,-0.99,-3.49
-7,-1,149,-68,-397,3899,-0.15,0.12,11.61,-0.68,-3.97,38.99,-6.20,1.47,-0.15,4.28,-0.98,-3.47
1,2,131,-147,-457,3875,-0.13,0.12,11.25,-1.47,-4.57,38.75,-6.21,1.49,-0.20,4.11,-1.06,-3.24
-3,3,142,-132,-429,3925,-0.13,0.13,10.99,-1.32,-4.29,39.25,-6.21,1.51,-0.24,4.20,-1.09,-3.28
-1,-9,167,25,-524,3881,-0.13,0.06,10.91,0.25,-5.24,38.81,-6.22,1.50,-0.29,4.16,-0.83,-3.47
-3,-2,197,-32,-512,3941,-0.13,0.04,11.02,-0.32,-5.12,39.41,-6.24,1.50,-0.33,4.21,-0.96,-3.75
8,1,206,57,-478,3879,-0.07,0.04,11.17,0.57,-4.78,38.79,-6.24,1.48,-0.37,3.98,-1.01,-3.85
-2,-4,194,86,-549,3947,-0.08,0.01,11.24,0.86,-5.49,39.47,-6.25,1.47,-0.42,4.19,-0.89,-3.75
-8,8,189,128,-522,4007,-0.12,0.06,11.27,1.28,-5.22,40.07,-6.25,1.46,-0.46,4.32,-1.14,-3.71
-6,-18,159,266,-368,3940,-0.14,-0.05,11.11,2.66,-3.68,39.40,-6.25,1.45,-0.51,4.29,-0.57,-3.43
-8,5,183,6,-502,3886,-0.18,-0.02,11.12,0.06,-5.02,38.86,-6.26,1.44,-0.55,4.34,-1.05,-3.63
-3,2,178,50,-499,3925,-0.18,-0.00,11.09,0.50,-4.99,39.25,-6.27,1.43,-0.59,4.25,-0.98,-3.57
-6,4,155,-32,-500,3855,-0.20,0.02,10.93,-0.32,-5.00,38.55,-6.28,1.42,-0.64,4.32,-1.02,-3.34
-5,-2,158,-10,-486,3946,-0.21,0.01,10.80,-0.10,-4.86,39.46,-6.29,1.41,-0.68,4.31,-0.89,-3.34
4,6,104,-9,-392,3902,-0.16,0.04,10.35,-0.09,-3.92,39.02,-6.28,1.40,-0.72,4.11,-1.05,-2.79
0,0,86,-25,-490,3896,-0.15,0.04,9.84,-0.25,-4.90,38.96,-6.29,1.39,-0.76,4.19,-0.93,-2.54
-6,-2,159,56,-592,3878,-0.17,0.02,9.83,0.56,-5.92,38.78,-6.31,1.38,-0.80,4.33,-0.87,-3.15
-3,2,170,12,-469,3935,-0.17,0.03,9.88,0.12,-4.69,39.35,-6.31,1.37,-0.84,4.27,-0.95,-3.25
-2,7,98,-81,-457,3931,-0.16,0.07,9.49,-0.81,-4.57,39.31,-6.33,1.36,-0.88,4.26,-1.06,-2.57
2,-1,104,-5,-541,3928,-0.14,0.06,9.18,-0.05,-5.41,39.28,-6.34,1.35,-0.91,4.18,-0.89,-2.55
-2,6,137,72,-498,3903,-0.13,0.09,9.09,0.72,-4.98,39.03,-6.35,1.34,-0.95,4.27,-1.03,-2.81
4,8,126,19,-454,3929,-0.10,0.13,8.95,0.19,-4.54,39.29,-6.35,1.33,-0.98,4.14,-1.07,-2.69
-2,0,57,-54,-352,3921,-0.10,0.12,8.41,-0.54,-3.52,39.21,-6.33,1.32,-1.02,4.25,-0.90,-2.00
2,2,39,-45,-376,3893,-0.08,0.12,7.80,-0.45,-3.76,38.93,-6.32,1.32,-1.05,4.15,-0.94,-1.73
4,-2,4,-30,-450,3905,-0.04,0.09,7.05,-0.30,-4.50,39.05,-6.32,1.30,-1.08,4.10,-0.84,-1.28
7,-3,-2,-28,-451,3909,0.00,0.07,6.33,-0.28,-4.51,39.09,-6.33,1.29,-1.10,4.03,-0.81,-1.09
6,5,-9,-14,-467,3881,0.04,0.09,5.64,-0.14,-4.67,38.81,-6.34,1.27,-1.12,4.05,-0.97,-0.90
5,6,-11,-12,-480,3924,0.07,0.12,5.01,-0.12,-4.80,39.24,-6.34,1.26,-1.14,4.07,-0.99,-0.76
4,6,-23,-26,-476,3917,0.08,0.14,4.37,-0.26,-4.76,39.17,-6.35,1.25,-1.16,4.09,-0.98,-0.54
5,7,-25,-25,-473,3919,0.11,0.17,3.78,-0.25,-4.73,39.19,-6.36,1.23,-1.17,4.07,-1.00,-0.40
-3,-6,-56,90,-399,3948,0.08,0.12,3.06,0.90,-3.99,39.48,-6.36,1.22,-1.19,4.24,-0.71,-0.00
0,4,-77,71,-390,3876,0.07,0.13,2.28,0.71,-3.90,38.76,-6.35,1.20,-1.20,4.17,-0.91,0.32
11,12,-132,-27,-373,3900,0.13,0.19,1.25,-0.27,-3.73,39.00,-6.34,1.19,-1.20,3.92,-1.08,0.99
4,4,-137,-63,-417,3918,0.14,0.20,0.29,-0.63,-4.17,39.18,-6.33,1.18,-1.20,4.05,-0.91,1.21
12,-6,-155,-20,-391,3984,0.20,0.14,-0.68,-0.20,-3.91,39.84,-6.31,1.16,-1.20,3.87,-0.68,1.55
7,11,-169,-39,-462,3954,0.22,0.19,-1.65,-0.39,-4.62,39.54,-6.32,1.15,-1.19,3.97,-1.03,1.85
3,7,-222,-89,-348,3885,0.22,0.22,-2.84,-0.89,-3.48,38.85,-6.30,1.15,-1.18,4.04,-0.96,2.53
10,10,-242,-54,-369,3918,0.26,0.26,-4.03,-0.54,-3.69,39.18,-6.29,1.14,-1.17,3.87,-1.03,2.93
5,4,-268,-14,-511,3922,0.26,0.25,-5.26,-0.14,-5.11,39.22,-6.30,1.13,-1.15,3.98,-0.90,3.38
1,-9,-275,44,-505,3832,0.24,0.17,-6.41,0.44,-5.05,38.32,-6.31,1.11,-1.12,4.08,-0.60,3.66
10,7,-272,19,-445,3872,0.28,0.20,-7.43,0.19,-4.45,38.72,-6.31,1.09,-1.09,3.89,-0.92,3.82
7,-7,-266,34,-430,3997,0.29,0.14,-8.31,0.34,-4.30,39.97,-6.31,1.07,-1.06,3.94,-0.60,3.94
7,3,-331,-15,-512,3891,0.31,0.14,-9.50,-0.15,-5.12,38.91,-6.32,1.06,-1.02,3.95,-0.80,4.71
14,15,-320,-13,-565,3878,0.36,0.22,-10.50,-0.13,-5.65,38.78,-6.34,1.05,-0.98,3.80,-1.05,4.81
7,0,-327,-95,-408,3972,0.37,0.20,-11.44,-0.95,-4.08,39.72,-6.32,1.05,-0.93,3.93,-0.75,5.04
-2,-7,-346,-125,-472,3948,0.32,0.13,-12.41,-1.25,-4.72,39.48,-6.33,1.06,-0.88,4.13,-0.60,5.38
1,-7,-485,-118,-438,3936,0.29,0.08,-14.13,-1.18,-4.38,39.36,-6.33,1.07,-0.83,4.08,-0.59,6.88
-1,-20,-502,3,-452,3932,0.26,-0.05,-15.78,0.03,-4.52,39.32,-6.34,1.05,-0.76,4.13,-0.27,7.34
-1,-2,-540,77,-405,3898,0.23,-0.06,-17.49,0.77,-4.05,38.98,-6.33,1.02,-0.69,4.14,-0.62,7.98
20,4,-542,35,-470,3992,0.33,-0.03,-19.05,0.35,-4.70,39.92,-6.34,1.00,-0.62,3.69,-0.73,8.29
6,3,-550,-22,-490,4000,0.33,-0.01,-20.50,-0.22,-4.90,40.00,-6.35,0.97,-0.54,3.98,-0.70,8.63
17,-9,-568,-42,-475,3833,0.40,-0.06,-21.92,-0.42,-4.75,38.33,-6.37,0.96,-0.45,3.75,-0.43,9.04
12,0,-606,-180,-375,3890,0.43,-0.06,-23.42,-1.80,-3.75,38.90,-6.36,0.96,-0.36,3.83,-0.62,9.64
10,-9,-619,-142,-420,3929,0.45,-0.10,-24.85,-1.42,-4.20,39.29,-6.35,0.97,-0.26,3.87,-0.43,10.02
6,-17,-684,-75,-396,3880,0.44,-0.20,-26.54,-0.75,-3.96,38.80,-6.34,0.96,-0.15,3.94,-0.23,10.88
10,-13,-696,-102,-515,3838,0.46,-0.26,-28.13,-1.02,-5.15,38.38,-6.35,0.95,-0.04,3.86,-0.30,11.28
2,3,-637,-24,-186,3939,0.43,-0.21,-29.21,-0.24,-1.86,39.39,-6.34,0.94,0.08,4.02,-0.62,10.97
3,-18,-603,84,-271,4022,0.40,-0.30,-29.96,0.84,-2.71,40.22,-6.32,0.91,0.20,4.00,-0.15,10.82
3,-22,-610,-43,-629,3860,0.38,-0.41,-30.69,-0.43,-6.29,38.60,-6.34,0.89,0.32,4.02,-0.03,11.00
17,-7,-635,-73,-613,3881,0.45,-0.41,-31.49,-0.73,-6.13,38.81,-6.36,0.88,0.44,3.73,-0.33,11.36
0,-27,-665,-57,-624,3853,0.40,-0.53,-32.40,-0.57,-6.24,38.53,-6.38,0.86,0.57,4.10,0.12,11.77
6,-33,-682,-12,-652,3823,0.40,-0.68,-33.32,-0.12,-6.52,38.23,-6.40,0.84,0.70,3.99,0.30,12.08
17,-15,-640,66,-503,3917,0.46,-0.70,-33.89,0.66,-5.03,39.17,-6.40,0.81,0.84,3.76,-0.04,11.82
23,-6,-628,-22,-407,3987,0.56,-0.67,-34.33,-0.22,-4.07,39.87,-6.39,0.78,0.97,3.60,-0.21,11.79
-18,-24,-582,-12,-605,3883,0.39,-0.75,-34.45,-0.12,-6.05,38.83,-6.41,0.76,1.11,4.49,0.19,11.41
-2,-11,-586,-40,-549,3858,0.34,-0.74,-34.58,-0.40,-5.49,38.58,-6.43,0.73,1.25,4.19,-0.06,11.46
1,-14,-545,71,-427,3883,0.31,-0.75,-34.45,0.71,-4.27,38.83,-6.43,0.70,1.39,4.14,0.03,11.08
-2,-6,-523,77,-371,3918,0.27,-0.71,-34.19,0.77,-3.71,39.18,-6.42,0.66,1.52,4.20,-0.12,10.83
4,0,-426,58,-288,4010,0.27,-0.64,-33.37,0.58,-2.88,40.10,-6.40,0.64,1.65,4.07,-0.25,9.84
-2,2,-406,92,-352,3811,0.23,-0.57,-32.51,0.92,-3.52,38.11,-6.39,0.60,1.78,4.20,-0.29,9.49
2,-7,-337,-24,-495,3962,0.22,-0.55,-31.32,-0.24,-4.95,39.62,-6.41,0.58,1.91,4.13,-0.09,8.67
15,-1,-328,-26,-438,3830,0.29,-0.50,-30.18,-0.26,-4.38,38.30,-6.42,0.55,2.03,3.85,-0.21,8.37
12,-2,-354,1,-414,3896,0.33,-0.46,-29.33,0.01,-4.14,38.96,-6.41,0.52,2.14,3.90,-0.18,8.41
9,-11,-348,-44,-400,3942,0.35,-0.49,-28.52,-0.44,-4.00,39.42,-6.39,0.51,2.26,3.94,0.02,8.20
7,-4,-370,-69,-472,3895,0.36,-0.46,-27.92,-0.69,-4.72,38.95,-6.41,0.51,2.37,3.99,-0.13,8.26
14,6,-388,-93,-413,3955,0.41,-0.38,-27.50,-0.93,-4.13,39.55,-6.40,0.51,2.48,3.82,-0.36,8.32
2,5,-409,-50,-451,3893,0.38,-0.31,-27.24,-0.50,-4.51,38.93,-6.41,0.51,2.58,4.08,-0.35,8.44
-3,-3,-422,-98,-465,3861,0.32,-0.30,-27.09,-0.98,-4.65,38.61,-6.42,0.51,2.69,4.21,-0.20,8.51
4,0,-486,-257,-436,3874,0.32,-0.27,-27.35,-2.57,-4.36,38.74,-6.42,0.52,2.80,4.07,-0.27,9.09
1,-16,-506,-199,-509,3945,0.29,-0.34,-27.70,-1.99,-5.09,39.45,-6.42,0.52,2.91,4.14,0.07,9.32
-6,-16,-623,-220,-486,3917,0.23,-0.40,-28.73,-2.20,-4.86,39.17,-6.43,0.52,3.02,4.30,0.09,10.50
4,-26,-638,-157,-465,3939,0.23,-0.52,-29.75,-1.57,-4.65,39.39,-6.43,0.53,3.14,4.10,0.32,10.81
5,3,-641,-82,-428,3840,0.23,-0.45,-30.68,-0.82,-4.28,38.40,-6.43,0.53,3.26,4.08,-0.29,11.00
15,-22,-642,-43,-385,4018,0.30,-0.54,-31.53,-0.43,-3.85,40.18,-6.41,0.51,3.39,3.84,0.25,11.16
4,-28,-713,3,-475,3893,0.30,-0.66,-32.73,0.03,-4.75,38.93,-6.42,0.48,3.52,4.08,0.43,11.98
24,-10,-731,-36,-449,3844,0.41,-0.65,-33.91,-0.36,-4.49,38.44,-6.44,0.47,3.65,3.65,0.07,12.35
0,-8,-651,9,-267,3843,0.37,-0.64,-34.49,0.09,-2.67,38.43,-6.42,0.45,3.79,4.14,0.04,11.77
6,-10,-627,71,-336,3973,0.37,-0.63,-34.87,0.71,-3.36,39.73,-6.41,0.42,3.93,4.01,0.10,11.62
-7,-14,-643,-66,-557,3880,0.29,-0.65,-35.30,-0.66,-5.57,38.80,-6.43,0.40,4.07,4.30,0.20,11.83
3,-26,-651,-41,-582,3890,0.28,-0.75,-35.74,-0.41,-5.82,38.90,-6.44,0.39,4.21,4.11,0.48,11.97
9,-14,-674,-27,-498,3827,0.31,-0.76,-36.28,-0.27,-4.98,38.27,-6.46,0.37,4.35,4.00,0.25,12.25
14,-10,-672,2,-517,3905,0.36,-0.74,-36.75,0.02,-5.17,39.05,-6.48,0.34,4.50,3.89,0.18,12.31
13,-11,-641,-21,-522,3892,0.41,-0.74,-36.99,-0.21,-5.22,38.92,-6.50,0.32,4.65,3.91,0.21,12.08
6,-13,-626,-58,-495,3857,0.40,-0.74,-37.11,-0.58,-4.95,38.57,-6.51,0.31,4.79,4.06,0.26,11.96
14,-24,-587,42,-482,3929,0.45,-0.81,-36.98,0.42,-4.82,39.29,-6.52,0.28,4.94,3.89,0.53,11.60
9,-23,-565,43,-508,3913,0.46,-0.87,-36.73,0.43,-5.08,39.13,-6.53,0.24,5.09,4.00,0.55,11.35
0,-15,-486,-33,-560,3805,0.41,-0.88,-36.02,-0.33,-5.60,38.05,-6.55,0.23,5.23,4.21,0.40,10.53
1,-8,-449,29,-593,3893,0.38,-0.84,-35.16,0.29,-5.93,38.93,-6.56,0.20,5.37,4.21,0.26,10.04
-1,-33,-328,51,-248,4063,0.33,-0.96,-33.64,0.51,-2.48,40.63,-6.54,0.18,5.50,4.25,0.82,8.71
13,-4,-336,43,-370,3681,0.38,-0.88,-32.33,0.43,-3.70,36.81,-6.53,0.14,5.63,3.94,0.23,8.52
3,-2,-289,11,-473,3841,0.36,-0.81,-30.86,0.11,-4.73,38.41,-6.54,0.12,5.75,4.16,0.18,7.83
5,16,-274,-51,-557,3892,0.35,-0.63,-29.44,-0.51,-5.57,38.92,-6.56,0.11,5.87,4.13,-0.23,7.42
11,-18,-289,20,-432,3945,0.39,-0.68,-28.26,0.20,-4.32,39.45,-6.55,0.08,5.98,3.99,0.50,7.31
16,-1,-294,-132,-468,3875,0.44,-0.62,-27.23,-1.32,-4.68,38.75,-6.55,0.08,6.09,3.88,0.13,7.15
7,7,-237,-212,-457,3886,0.44,-0.51,-25.95,-2.12,-4.57,38.86,-6.55,0.09,6.19,4.06,-0.06,6.41
9,8,-183,-40,-480,3885,0.45,-0.41,-24.47,-0.40,-4.80,38.85,-6.56,0.09,6.29,4.02,-0.11,5.66
-3,5,-167,-53,-380,3925,0.39,-0.34,-23.04,-0.53,-3.80,39.25,-6.54,0.08,6.38,4.27,-0.06,5.24
1,4,-189,-54,-370,3920,0.36,-0.28,-21.89,-0.54,-3.70,39.20,-6.53,0.08,6.47,4.19,-0.06,5.20
10,2,-191,-31,-460,3880,0.38,-0.24,-20.87,-0.31,-4.60,38.80,-6.53,0.09,6.55,4.01,-0.03,5.02
1,1,-188,-52,-485,3883,0.35,-0.21,-19.93,-0.52,-4.85,38.83,-6.55,0.09,6.63,4.20,-0.02,4.80
2,7,-145,-28,-507,3914,0.33,-0.15,-18.82,-0.28,-5.07,39.14,-6.56,0.09,6.70,4.20,-0.16,4.22
-5,6,-132,-36,-517,3893,0.26,-0.10,-17.74,-0.36,-5.17,38.93,-6.58,0.09,6.77,4.37,-0.15,3.90
-8,-17,-191,-142,-565,3844,0.19,-0.19,-17.13,-1.42,-5.65,38.44,-6.59,0.09,6.84,4.46,0.34,4.28
-2,-11,-230,-206,-583,3861,0.16,-0.24,-16.82,-2.06,-5.83,38.61,-6.60,0.10,6.91,4.35,0.22,4.54
2,-22,-341,-167,-540,3860,0.15,-0.35,-17.22,-1.67,-5.40,38.60,-6.61,0.11,6.98,4.28,0.47,5.55
4,-16,-351,-124,-411,3920,0.16,-0.41,-17.64,-1.24,-4.11,39.20,-6.60,0.11,7.05,4.23,0.36,5.71
8,-6,-323,-67,-150,3929,0.20,-0.41,-17.85,-0.67,-1.50,39.29,-6.58,0.11,7.12,4.13,0.16,5.51
3,-15,-309,-3,-207,3929,0.19,-0.46,-17.95,-0.03,-2.07,39.29,-6.56,0.10,7.19,4.22,0.37,5.40
6,-10,-298,8,-309,3899,0.21,-0.47,-17.97,0.08,-3.09,38.99,-6.54,0.08,7.26,4.14,0.28,5.31
5,-7,-318,-7,-331,3918,0.22,-0.47,-18.11,-0.07,-3.31,39.18,-6.52,0.07,7.33,4.14,0.22,5.50
-1,-5,-307,-8,-429,4001,0.19,-0.45,-18.17,-0.08,-4.29,40.01,-6.51,0.07,7.40,4.26,0.18,5.41
1,2,-303,-8,-444,3824,0.18,-0.39,-18.20,-0.08,-4.44,38.24,-6.52,0.06,7.48,4.24,0.02,5.37
6,0,-276,45,-522,3917,0.20,-0.35,-18.07,0.45,-5.22,39.17,-6.54,0.04,7.55,4.14,0.07,5.11
8,3,-285,-5,-537,3853,0.23,-0.30,-18.00,-0.05,-5.37,38.53,-6.55,0.04,7.62,4.10,-0.00,5.17
7,3,-254,-53,-647,3865,0.25,-0.25,-17.75,-0.53,-6.47,38.65,-6.57,0.03,7.69,4.13,-0.01,4.85
3,-9,-215,17,-585,3904,0.24,-0.28,-17.29,0.17,-5.85,39.04,-6.59,0.02,7.76,4.22,0.25,4.43
4,-6,-230,-30,-457,3926,0.24,-0.29,-16.96,-0.30,-4.57,39.26,-6.59,0.03,7.83,4.20,0.18,4.49
6,-7,-206,-30,-394,3945,0.25,-0.30,-16.52,-0.30,-3.94,39.45,-6.57,0.03,7.89,4.15,0.21,4.19
1,-9,-180,179,-224,3943,0.23,-0.33,-15.97,1.79,-2.24,39.43,-6.56,0.01,7.95,4.24,0.27,3.86
3,6,-181,11,-336,3907,0.23,-0.26,-15.47,0.11,-3.36,39.07,-6.54,-0.00,8.02,4.19,-0.05,3.77
0,3,-118,-40,-391,3881,0.21,-0.22,-14.65,-0.40,-3.91,38.81,-6.52,0.00,8.07,4.25,-0.00,3.07
0,1,-100,-66,-467,3907,0.19,-0.19,-13.79,-0.66,-4.67,39.07,-6.53,0.01,8.13,4.26,0.02,2.75
6,-3,-89,-37,-419,3960,0.20,-0.19,-12.96,-0.37,-4.19,39.60,-6.51,0.02,8.18,4.12,0.10,2.49
2,1,-102,-86,-515,3878,0.20,-0.16,-12.28,-0.86,-5.15,38.78,-6.52,0.03,8.23,4.21,0.01,2.47
2,0,-155,-47,-484,3894,0.19,-0.15,-12.00,-0.47,-4.84,38.94,-6.54,0.03,8.28,4.22,0.02,2.86
6,14,-194,-161,-588,3879,0.21,-0.05,-11.98,-1.61,-5.88,38.79,-6.55,0.04,8.32,4.14,-0.30,3.18
3,-14,-179,-41,-487,3844,0.20,-0.13,-11.88,-0.41,-4.87,38.44,-6.56,0.05,8.37,4.21,0.29,3.03
8,-5,-212,4,-456,3950,0.23,-0.14,-11.98,0.04,-4.56,39.50,-6.56,0.02,8.42,4.11,0.13,3.33
3,-6,-213,-96,-471,3929,0.23,-0.17,-12.08,-0.96,-4.71,39.29,-6.57,0.04,8.47,4.21,0.14,3.35
2,-2,-220,-90,-556,3842,0.22,-0.16,-12.22,-0.90,-5.56,38.42,-6.58,0.04,8.51,4.24,0.06,3.43
8,5,-271,-114,-433,3922,0.24,-0.12,-12.65,-1.14,-4.33,39.22,-6.58,0.05,8.56,4.11,-0.10,3.94
1,-3,-285,-147,-476,3939,0.23,-0.12,-13.12,-1.47,-4.76,39.39,-6.58,0.06,8.62,4.26,0.05,4.15
4,-16,-285,-365,-556,4040,0.23,-0.21,-13.55,-3.65,-5.56,40.40,-6.58,0.07,8.67,4.20,0.33,4.22
3,16,-280,-339,-531,3923,0.22,-0.09,-13.90,-3.39,-5.31,39.23,-6.58,0.09,8.73,4.22,-0.36,4.24
-1,-15,-347,-47,-583,3903,0.19,-0.17,-14.63,-0.47,-5.83,39.03,-6.60,0.08,8.78,4.32,0.30,4.94
8,-16,-384,-57,-533,3879,0.22,-0.25,-15.51,-0.57,-5.33,38.79,-6.62,0.08,8.85,4.14,0.34,5.42
16,-4,-360,-52,-282,3926,0.30,-0.25,-16.15,-0.52,-2.82,39.26,-6.60,0.08,8.91,3.95,0.10,5.34
9,-15,-349,-53,-348,3960,0.32,-0.32,-16.67,-0.53,-3.48,39.60,-6.58,0.08,8.98,4.07,0.34,5.33
9,-9,-388,-68,-378,4069,0.35,-0.34,-17.37,-0.68,-3.78,40.69,-6.56,0.08,9.04,4.05,0.22,5.79
3,-7,-368,-71,-355,3895,0.33,-0.35,-17.87,-0.71,-3.55,38.95,-6.55,0.08,9.12,4.17,0.18,5.71
21,-2,-370,70,-382,3822,0.43,-0.33,-18.34,0.70,-3.82,38.22,-6.53,0.06,9.19,3.77,0.09,5.81
-6,-23,-391,66,-342,3936,0.35,-0.43,-18.89,0.66,-3.42,39.36,-6.52,0.04,9.26,4.33,0.56,6.09
-1,-14,-374,-57,-451,3909,0.31,-0.48,-19.29,-0.57,-4.51,39.09,-6.52,0.04,9.34,4.24,0.39,6.01
10,-5,-394,-66,-492,3835,0.34,-0.46,-19.76,-0.66,-4.92,38.35,-6.53,0.05,9.42,4.01,0.20,6.27
4,-8,-395,-115,-427,3888,0.33,-0.46,-20.19,-1.15,-4.27,38.88,-6.52,0.05,9.50,4.14,0.25,6.35
3,-16,-413,-10,-437,3870,0.31,-0.51,-20.69,-0.10,-4.37,38.70,-6.51,0.06,9.58,4.15,0.43,6.59
3,-18,-404,34,-342,3926,0.30,-0.57,-21.09,0.34,-3.42,39.26,-6.49,0.04,9.66,4.14,0.50,6.58
-3,-15,-394,-37,-401,3933,0.25,-0.61,-21.38,-0.37,-4.01,39.33,-6.48,0.04,9.75,4.27,0.45,6.55
3,-17,-406,54,-478,3901,0.24,-0.65,-21.72,0.54,-4.78,39.01,-6.49,0.01,9.83,4.15,0.52,6.71
8,-15,-425,5,-554,3846,0.27,-0.68,-22.14,0.05,-5.54,38.46,-6.50,-0.00,9.92,4.06,0.49,6.94
8,-11,-460,-141,-529,3765,0.29,-0.68,-22.73,-1.41,-5.29,37.65,-6.51,-0.00,10.01,4.06,0.41,7.34
-1,-18,-476,-25,-591,3892,0.26,-0.72,-23.36,-0.25,-5.91,38.92,-6.53,-0.01,10.10,4.26,0.57,7.59
20,-22,-513,32,-419,3956,0.35,-0.78,-24.16,0.32,-4.19,39.56,-6.51,-0.04,10.20,3.80,0.69,8.04
1,-27,-508,30,-421,3911,0.32,-0.87,-24.84,0.30,-4.21,39.11,-6.50,-0.07,10.30,4.18,0.83,8.12
1,-15,-462,56,-320,3903,0.30,-0.87,-25.17,0.56,-3.20,39.03,-6.48,-0.09,10.40,4.18,0.60,7.79
3,-11,-409,113,-232,3993,0.29,-0.85,-25.15,1.13,-2.32,39.93,-6.46,-0.11,10.50,4.13,0.53,7.33
-6,-7,-352,49,-275,3940,0.22,-0.81,-24.78,0.49,-2.75,39.40,-6.45,-0.13,10.60,4.32,0.45,6.77
-2,-7,-331,46,-269,3908,0.19,-0.77,-24.32,0.46,-2.69,39.08,-6.43,-0.15,10.69,4.23,0.45,6.49
4,-6,-299,-126,-437,3865,0.19,-0.73,-23.72,-1.26,-4.37,38.65,-6.43,-0.14,10.79,4.11,0.42,6.09
1,-2,-294,-141,-455,3895,0.18,-0.67,-23.14,-1.41,-4.55,38.95,-6.43,-0.14,10.88,4.17,0.31,5.93
0,-16,-196,-30,-829,3818,0.16,-0.70,-22.02,-0.30,-8.29,38.18,-6.44,-0.15,10.96,4.21,0.61,4.88
5,-17,-161,48,-856,3850,0.18,-0.73,-20.80,0.48,-8.56,38.50,-6.46,-0.16,11.05,4.12,0.65,4.34
1,-20,-133,301,-588,3886,0.16,-0.78,-19.53,3.01,-5.88,38.86,-6.47,-0.19,11.12,4.20,0.75,3.86
-3,-22,-134,304,-559,3890,0.13,-0.84,-18.40,3.04,-5.59,38.90,-6.48,-0.22,11.20,4.30,0.82,3.64
9,-7,-112,102,-435,3929,0.17,-0.80,-17.24,1.02,-4.35,39.29,-6.47,-0.25,11.27,4.04,0.52,3.23
3,-7,-94,-53,-377,3903,0.17,-0.76,-16.09,-0.53,-3.77,39.03,-6.46,-0.25,11.33,4.15,0.51,2.85
0,-14,-65,-276,-369,3898,0.16,-0.77,-14.88,-2.76,-3.69,38.98,-6.45,-0.24,11.39,4.22,0.65,2.37
1,-3,-74,-259,-343,3886,0.15,-0.71,-13.84,-2.59,-3.43,38.86,-6.45,-0.23,11.44,4.19,0.41,2.24
3,-7,-122,-301,-424,3916,0.15,-0.68,-13.20,-3.01,-4.24,39.16,-6.44,-0.22,11.49,4.15,0.47,2.52
6,-13,-138,-268,-453,3964,0.17,-0.69,-12.72,-2.68,-4.53,39.64,-6.44,-0.21,11.54,4.08,0.59,2.56
8,-10,-159,-140,-480,3902,0.20,-0.69,-12.42,-1.40,-4.80,39.02,-6.45,-0.20,11.59,4.04,0.52,2.68
4,-5,-166,-172,-520,3892,0.21,-0.65,-12.19,-1.72,-5.20,38.92,-6.45,-0.19,11.64,4.12,0.40,2.69
-1,0,-119,-64,-360,3854,0.18,-0.58,-11.70,-0.64,-3.60,38.54,-6.44,-0.19,11.69,4.22,0.28,2.19
3,-5,-127,40,-433,3932,0.18,-0.55,-11.30,0.40,-4.33,39.32,-6.43,-0.21,11.73,4.14,0.39,2.18
-3,2,-128,49,-367,3896,0.14,-0.49,-10.95,0.49,-3.67,38.96,-6.42,-0.22,11.78,4.26,0.24,2.12
5,3,-122,-146,-451,3882,0.16,-0.42,-10.60,-1.46,-4.51,38.82,-6.42,-0.21,11.82,4.09,0.19,2.00
-6,-3,-116,-219,-468,3933,0.11,-0.40,-10.25,-2.19,-4.68,39.33,-6.42,-0.20,11.86,4.33,0.30,1.87
-1,2,-114,-198,-511,4015,0.09,-0.34,-9.92,-1.98,-5.11,40.15,-6.42,-0.19,11.90,4.23,0.18,1.79
6,7,-139,48,-490,3848,0.12,-0.27,-9.78,0.48,-4.90,38.48,-6.44,-0.20,11.94,4.09,0.07,1.97
-1,-5,-148,-39,-520,3885,0.10,-0.27,-9.70,-0.39,-5.20,38.85,-6.45,-0.20,11.98,4.25,0.31,2.03
-6,4,-142,-177,-460,3907,0.05,-0.22,-9.60,-1.77,-4.60,39.07,-6.45,-0.19,12.01,4.37,0.10,1.96
3,11,-134,-172,-449,3937,0.07,-0.13,-9.45,-1.72,-4.49,39.37,-6.45,-0.17,12.05,4.18,-0.07,1.86
-4,0,-124,-126,-410,3896,0.04,-0.12,-9.27,-1.26,-4.10,38.96,-6.45,-0.16,12.09,4.33,0.14,1.73
1,0,-129,-100,-469,3905,0.04,-0.11,-9.13,-1.00,-4.69,39.05,-6.45,-0.15,12.12,4.23,0.13,1.75
1,-5,-228,-74,-560,3875,0.04,-0.13,-9.60,-0.74,-5.60,38.75,-6.47,-0.14,12.16,4.24,0.23,2.67
-1,-12,-289,-52,-629,3901,0.03,-0.19,-10.41,-0.52,-6.29,39.01,-6.48,-0.14,12.20,4.29,0.39,3.34
3,-15,-360,-72,-486,3908,0.05,-0.26,-11.56,-0.72,-4.86,39.08,-6.49,-0.13,12.25,4.21,0.46,4.16
6,-8,-364,-95,-485,3960,0.08,-0.28,-12.63,-0.95,-4.85,39.60,-6.50,-0.12,12.30,4.15,0.32,4.39
14,-17,-337,16,-419,3924,0.16,-0.36,-13.42,0.16,-4.19,39.24,-6.48,-0.13,12.35,3.95,0.53,4.31
9,-13,-330,-2,-323,3891,0.19,-0.40,-14.09,-0.02,-3.23,38.91,-6.46,-0.14,12.41,4.03,0.47,4.37
11,-7,-213,52,-337,3914,0.24,-0.40,-13.98,0.52,-3.37,39.14,-6.44,-0.15,12.46,3.96,0.35,3.35
4,-6,-174,59,-270,3943,0.24,-0.40,-13.64,0.59,-2.70,39.43,-6.42,-0.17,12.52,4.09,0.34,2.96
0,-10,-72,-84,-334,3926,0.22,-0.42,-12.72,-0.84,-3.34,39.26,-6.41,-0.16,12.57,4.17,0.42,1.91
2,-11,-67,-69,-373,3922,0.21,-0.45,-11.86,-0.69,-3.73,39.22,-6.40,-0.15,12.61,4.12,0.45,1.70
3,-4,-70,-67,-436,3917,0.21,-0.43,-11.10,-0.67,-4.36,39.17,-6.39,-0.14,12.66,4.10,0.29,1.57
1,0,-73,-75,-459,3909,0.19,-0.38,-10.43,-0.75,-4.59,39.09,-6.40,-0.13,12.70,4.15,0.19,1.47
5,10,-87,-73,-541,3952,0.20,-0.28,-9.92,-0.73,-5.41,39.52,-6.41,-0.12,12.74,4.07,-0.04,1.49
3,-1,-101,-71,-542,3842,0.20,-0.26,-9.54,-0.71,-5.42,38.42,-6.43,-0.12,12.78,4.13,0.17,1.53
4,4,-149,-30,-320,3876,0.21,-0.21,-9.50,-0.30,-3.20,38.76,-6.41,-0.12,12.81,4.09,0.05,1.92
2,3,-149,-31,-278,3903,0.20,-0.17,-9.46,-0.31,-2.78,39.03,-6.39,-0.12,12.85,4.12,0.06,1.91
4,5,-87,-95,-386,3898,0.20,-0.12,-9.04,-0.95,-3.86,38.98,-6.38,-0.11,12.89,4.07,0.00,1.31
-3,3,-69,-106,-419,3872,0.16,-0.09,-8.56,-1.06,-4.19,38.72,-6.38,-0.09,12.92,4.23,0.03,1.06
5,4,-64,-41,-402,3876,0.18,-0.06,-8.09,-0.41,-4.02,38.76,-6.37,-0.08,12.95,4.05,-0.01,0.92
0,3,-72,-30,-393,3883,0.16,-0.04,-7.72,-0.30,-3.93,38.83,-6.35,-0.07,12.99,4.15,-0.00,0.92
3,16,-87,-65,-459,3906,0.16,0.07,-7.48,-0.65,-4.59,39.06,-6.36,-0.06,13.02,4.09,-0.30,1.00
2,22,-70,-41,-496,3863,0.16,0.19,-7.16,-0.41,-4.96,38.63,-6.37,-0.05,13.04,4.12,-0.47,0.79
-3,49,-45,-17,-521,3932,0.12,0.47,-6.72,-0.17,-5.21,39.32,-6.39,-0.05,13.07,4.24,-1.09,0.49
-4,49,-39,-1,-527,3875,0.09,0.72,-6.29,-0.01,-5.27,38.75,-6.41,-0.05,13.10,4.29,-1.16,0.35
1,38,-108,175,-518,3930,0.08,0.88,-6.32,1.75,-5.18,39.30,-6.41,-0.06,13.12,4.19,-0.97,0.94
6,23,-144,136,-480,3959,0.11,0.94,-6.56,1.36,-4.80,39.59,-6.42,-0.08,13.15,4.08,-0.67,1.29
0,-20,-229,-97,-343,3988,0.10,0.72,-7.30,-0.97,-3.43,39.88,-6.40,-0.07,13.18,4.20,0.25,2.15
5,-39,-231,-197,-395,3989,0.12,0.41,-7.98,-1.97,-3.95,39.89,-6.40,-0.05,13.21,4.09,0.71,2.29
-1,-39,-222,-198,-503,3856,0.10,0.13,-8.54,-1.98,-5.03,38.56,-6.40,-0.04,13.24,4.22,0.78,2.32
-1,-39,-238,-190,-487,3882,0.09,-0.12,-9.14,-1.90,-4.87,38.82,-6.41,-0.02,13.28,4.23,0.84,2.57
5,-47,-317,-74,-333,3860,0.11,-0.39,-10.16,-0.74,-3.33,38.60,-6.39,-0.02,13.32,4.09,1.08,3.43
6,-36,-358,-31,-312,3876,0.13,-0.57,-11.32,-0.31,-3.12,38.76,-6.38,-0.02,13.36,4.05,0.90,3.99
6,-31,-406,-7,-335,3912,0.16,-0.71,-12.67,-0.07,-3.35,39.12,-6.36,-0.03,13.41,4.03,0.84,4.65
8,-20,-419,-7,-344,3887,0.19,-0.76,-13.96,-0.07,-3.44,38.87,-6.34,-0.04,13.47,3.97,0.64,5.01
4,-18,-422,99,-317,3943,0.20,-0.79,-15.14,0.99,-3.17,39.43,-6.32,-0.06,13.53,4.04,0.62,5.25
6,-13,-416,133,-355,3929,0.21,-0.79,-16.16,1.33,-3.55,39.29,-6.31,-0.08,13.59,3.99,0.54,5.39
3,-13,-437,50,-457,3931,0.21,-0.79,-17.21,0.50,-4.57,39.31,-6.32,-0.11,13.66,4.05,0.55,5.76
9,-19,-448,-36,-437,3906,0.24,-0.83,-18.22,-0.36,-4.37,39.06,-6.32,-0.10,13.73,3.92,0.68,6.04
6,-21,-517,-255,-491,3936,0.26,-0.87,-19.55,-2.55,-4.91,39.36,-6.32,-0.10,13.81,3.98,0.73,6.87
17,-5,-546,-319,-421,3861,0.33,-0.82,-20.93,-3.19,-4.21,38.61,-6.32,-0.09,13.89,3.74,0.38,7.38
11,-15,-675,-334,-436,3930,0.37,-0.83,-22.95,-3.34,-4.36,39.30,-6.32,-0.09,13.98,3.85,0.59,8.85
-8,-19,-763,-345,-488,3874,0.28,-0.86,-25.31,-3.45,-4.88,38.74,-6.32,-0.08,14.08,4.26,0.68,10.03
17,-15,-1102,-254,-564,3904,0.36,-0.87,-29.50,-2.54,-5.64,39.04,-6.33,-0.08,14.20,3.73,0.60,13.70
20,-15,-1201,-237,-528,3812,0.44,-0.87,-33.88,-2.37,-5.28,38.12,-6.33,-0.08,14.34,3.65,0.60,15.36
29,-20,-1417,19,-305,3928,0.58,-0.91,-39.13,0.19,-3.05,39.28,-6.31,-0.11,14.49,3.42,0.72,18.18
-3,-42,-1429,39,-208,3928,0.50,-1.07,-43.94,0.39,-2.08,39.28,-6.29,-0.13,14.67,4.08,1.23,19.18
14,-17,-1346,-156,-397,3873,0.54,-1.07,-47.75,-1.56,-3.97,38.73,-6.29,-0.14,14.85,3.72,0.73,19.19
25,-7,-1272,-198,-384,3889,0.63,-1.00,-50.74,-1.98,-3.84,38.89,-6.28,-0.15,15.06,3.46,0.51,19.12
-3,-19,-1009,-30,-374,3895,0.55,-1.02,-51.82,-0.30,-3.74,38.95,-6.26,-0.16,15.26,4.04,0.77,17.08
-4,-20,-903,93,-332,3916,0.47,-1.04,-52.15,0.93,-3.32,39.16,-6.25,-0.20,15.47,4.07,0.82,16.22
0,-20,-672,201,-466,3902,0.43,-1.06,-51.03,2.01,-4.66,39.02,-6.25,-0.25,15.67,4.01,0.86,14.04
7,-15,-633,233,-436,3924,0.43,-1.04,-49.79,2.33,-4.36,39.24,-6.24,-0.29,15.87,3.86,0.78,13.45
11,-11,-610,154,-468,3891,0.45,-1.01,-48.53,1.54,-4.68,38.91,-6.25,-0.33,16.06,3.78,0.72,13.00
-2,-14,-602,103,-530,3864,0.39,-0.99,-47.35,1.03,-5.30,38.64,-6.26,-0.37,16.25,4.06,0.80,12.69
2,-13,-544,25,-469,3881,0.37,-0.97,-45.93,0.25,-4.69,38.81,-6.27,-0.39,16.43,4.00,0.79,11.91
12,-8,-509,1,-425,3908,0.40,-0.92,-44.44,0.01,-4.25,39.08,-6.27,-0.40,16.61,3.78,0.68,11.31
15,-4,-389,30,-410,3906,0.45,-0.85,-42.37,0.30,-4.10,39.06,-6.25,-0.42,16.78,3.69,0.59,9.88
4,-6,-356,42,-381,3885,0.43,-0.81,-40.31,0.42,-3.81,38.85,-6.23,-0.45,16.94,3.91,0.64,9.20
13,-4,-275,-56,-486,3885,0.47,-0.75,-37.95,-0.56,-4.86,38.85,-6.23,-0.45,17.09,3.72,0.59,8.05
0,-2,-259,-71,-450,3890,0.42,-0.69,-35.74,-0.71,-4.50,38.90,-6.24,-0.45,17.23,4.00,0.53,7.47
3,33,-235,19,-361,3902,0.40,-0.42,-33.60,0.19,-3.61,39.02,-6.22,-0.47,17.36,3.93,-0.25,6.85
5,19,-262,51,-364,3906,0.39,-0.26,-31.84,0.51,-3.64,39.06,-6.20,-0.49,17.49,3.88,0.01,6.73
8,9,-331,24,-486,3902,0.40,-0.18,-30.67,0.24,-4.86,39.02,-6.21,-0.50,17.61,3.83,0.19,7.08
0,2,-352,-14,-424,3915,0.36,-0.15,-29.75,-0.14,-4.24,39.15,-6.21,-0.49,17.73,4.00,0.33,7.07
1,14,-313,-144,-431,3929,0.33,-0.05,-28.69,-1.44,-4.31,39.29,-6.21,-0.49,17.84,3.99,0.05,6.53
-3,12,-284,-168,-550,3850,0.28,0.03,-27.55,-1.68,-5.50,38.50,-6.21,-0.48,17.95,4.09,0.07,6.06
4,17,-215,-158,-423,3959,0.27,0.13,-26.11,-1.58,-4.23,39.59,-6.21,-0.48,18.06,3.94,-0.07,5.19
0,17,-210,-85,-483,3887,0.25,0.22,-24.78,-0.85,-4.83,38.87,-6.22,-0.47,18.15,4.04,-0.10,4.88
8,0,-235,-115,-508,3911,0.27,0.20,-23.73,-1.15,-5.08,39.11,-6.22,-0.46,18.25,3.87,0.25,4.88
2,-1,-236,-161,-583,3871,0.26,0.17,-22.80,-1.61,-5.83,38.71,-6.23,-0.46,18.34,4.00,0.28,4.71
3,0,-183,-177,-520,3892,0.25,0.16,-21.64,-1.77,-5.20,38.92,-6.24,-0.45,18.43,3.99,0.26,4.03
3,-1,-152,-136,-488,3895,0.24,0.13,-20.40,-1.36,-4.88,38.95,-6.24,-0.44,18.51,3.99,0.28,3.52
3,-2,-209,-37,-404,3920,0.24,0.11,-19.63,-0.37,-4.04,39.20,-6.24,-0.43,18.58,3.99,0.30,3.85
0,-5,-264,-50,-391,3923,0.21,0.07,-19.28,-0.50,-3.91,39.23,-6.23,-0.42,18.66,4.05,0.36,4.24
5,-17,-477,-61,-454,3907,0.22,-0.04,-20.26,-0.61,-4.54,39.07,-6.23,-0.42,18.74,3.95,0.63,6.23
2,-11,-539,-115,-460,3898,0.21,-0.11,-21.52,-1.15,-4.60,38.98,-6.23,-0.41,18.83,4.02,0.52,6.99
6,-21,-786,-204,-528,3828,0.23,-0.22,-24.17,-2.04,-5.28,38.28,-6.24,-0.40,18.92,3.93,0.75,9.57
5,-12,-878,-151,-553,3885,0.24,-0.27,-27.11,-1.51,-5.53,38.85,-6.25,-0.40,19.03,3.96,0.58,10.91
46,-4,-1148,-295,-324,3893,0.49,-0.27,-31.40,-2.95,-3.24,38.93,-6.24,-0.40,19.16,3.05,0.42,14.00
-13,-30,-1189,-335,-339,3856,0.36,-0.43,-35.51,-3.35,-3.39,38.56,-6.23,-0.40,19.30,4.28,0.99,15.12
9,-12,-1113,-340,-196,3883,0.38,-0.46,-38.75,-3.40,-1.96,38.83,-6.22,-0.40,19.45,3.82,0.63,15.08
13,-12,-1009,-263,-229,3901,0.42,-0.49,-41.03,-2.63,-2.29,39.01,-6.21,-0.41,19.61,3.72,0.64,14.62
