gyroADC_X,gyroADC_Y,gyroADC_Z,accADC_X,accADC_Y,accADC_Z,GyroX,GyroY,GyroZ,AccX,AccY,AccZ,roll_IMU,pitch_IMU,yaw_IMU,roll_PID,pitch_PID,yaw_PID
0,4,3,-3,-338,3908,0.00,0.01,0.38,-0.03,-3.38,39.08,-4.96,0.04,58.46,3.27,-0.11,-1.41
-1,-1,3,9,-343,3909,-0.00,0.00,0.36,0.09,-3.43,39.09,-4.96,0.02,58.46,3.30,0.00,-1.45
-1,-3,3,3,-345,3908,-0.01,-0.01,0.34,0.03,-3.45,39.08,-4.98,0.01,58.45,3.31,0.06,-1.48
0,-2,2,-3,-341,3905,-0.01,-0.03,0.32,-0.03,-3.41,39.05,-4.98,0.03,58.45,3.29,0.03,-1.40
-1,2,2,6,-340,3902,-0.01,-0.01,0.30,0.06,-3.40,39.02,-4.98,0.01,58.45,3.31,-0.04,-1.44
-1,3,2,-9,-336,3897,-0.02,0.01,0.28,-0.09,-3.36,38.97,-4.98,0.03,58.45,3.31,-0.08,-1.47
-1,1,3,-14,-336,3902,-0.02,0.01,0.27,-0.14,-3.36,39.02,-4.97,0.04,58.45,3.31,-0.05,-1.61
0,1,2,-21,-341,3905,-0.02,0.02,0.26,-0.21,-3.41,39.05,-4.97,0.06,58.45,3.29,-0.07,-1.52
-1,2,1,-17,-348,3905,-0.02,0.03,0.24,-0.17,-3.48,39.05,-4.98,0.08,58.45,3.31,-0.10,-1.43
-1,-3,0,-6,-348,3899,-0.03,0.01,0.21,-0.06,-3.48,38.99,-5.00,0.08,58.45,3.33,0.01,-1.36
-1,-4,0,6,-349,3893,-0.03,-0.02,0.19,0.06,-3.49,38.93,-5.01,0.07,58.45,3.34,0.04,-1.40
0,-3,2,14,-348,3900,-0.03,-0.03,0.19,0.14,-3.48,39.00,-5.02,0.05,58.45,3.32,0.04,-1.65
0,-4,2,18,-354,3889,-0.03,-0.05,0.18,0.18,-3.54,38.89,-5.03,0.03,58.44,3.32,0.08,-1.66
-1,-5,0,10,-336,3907,-0.03,-0.08,0.16,0.10,-3.36,39.07,-5.02,0.02,58.44,3.34,0.11,-1.46
0,-5,1,11,-334,3915,-0.03,-0.10,0.15,0.11,-3.34,39.15,-5.01,0.00,58.44,3.31,0.13,-1.59
-2,-3,5,-1,-306,3911,-0.04,-0.11,0.17,-0.01,-3.06,39.11,-4.99,0.00,58.44,3.34,0.09,-2.04
0,5,2,0,-331,3907,-0.03,-0.07,0.16,0.00,-3.31,39.07,-4.97,0.00,58.44,3.29,-0.08,-1.69
-3,13,14,3,-330,3889,-0.05,0.02,0.23,0.03,-3.30,38.89,-4.95,-0.01,58.44,3.34,-0.27,-2.99
-3,13,14,-1,-326,3892,-0.06,0.09,0.29,-0.01,-3.26,38.92,-4.93,-0.00,58.44,3.33,-0.29,-2.87
-1,0,8,-11,-347,3935,-0.06,0.09,0.31,-0.11,-3.47,39.35,-4.94,0.01,58.44,3.30,-0.03,-2.13
1,-2,6,-5,-354,3904,-0.05,0.06,0.32,-0.05,-3.54,39.04,-4.96,0.02,58.44,3.27,0.01,-1.88
1,-2,2,-6,-345,3896,-0.04,0.05,0.30,-0.06,-3.45,38.96,-4.98,0.03,58.44,3.28,0.01,-1.44
-1,-1,1,0,-347,3900,-0.04,0.04,0.28,0.00,-3.47,39.00,-5.00,0.02,58.43,3.33,-0.01,-1.37
0,-2,1,2,-342,3897,-0.04,0.02,0.25,0.02,-3.42,38.97,-5.00,0.01,58.43,3.31,0.03,-1.41
-1,0,1,4,-345,3910,-0.04,0.02,0.23,0.04,-3.45,39.10,-5.01,-0.01,58.43,3.34,0.00,-1.44
0,-1,3,7,-340,3908,-0.03,0.01,0.23,0.07,-3.40,39.08,-5.00,-0.02,58.43,3.31,0.03,-1.69
1,0,3,-3,-348,3891,-0.02,0.01,0.22,-0.03,-3.48,38.91,-5.02,-0.01,58.43,3.30,0.01,-1.70
0,-1,2,-3,-343,3909,-0.02,0.00,0.21,-0.03,-3.43,39.09,-5.02,0.00,58.43,3.32,0.02,-1.60
0,-2,2,-10,-346,3900,-0.02,-0.01,0.21,-0.10,-3.46,39.00,-5.02,0.02,58.43,3.32,0.03,-1.61
-1,1,1,-6,-339,3906,-0.02,-0.00,0.19,-0.06,-3.39,39.06,-5.01,0.03,58.43,3.34,-0.04,-1.52
2,1,1,6,-344,3924,-0.01,0.00,0.18,0.06,-3.44,39.24,-5.01,0.02,58.43,3.27,-0.03,-1.55
2,-5,5,9,-336,3889,0.00,-0.03,0.19,0.09,-3.36,38.89,-5.00,-0.00,58.43,3.26,0.11,-2.00
2,-3,2,7,-332,3898,0.02,-0.04,0.18,0.07,-3.32,38.98,-4.99,-0.01,58.43,3.25,0.08,-1.65
0,-2,2,12,-333,3895,0.01,-0.05,0.18,0.12,-3.33,38.95,-4.98,-0.03,58.43,3.28,0.07,-1.66
-1,1,2,4,-353,3900,0.01,-0.04,0.17,0.04,-3.53,39.00,-5.00,-0.03,58.43,3.32,0.01,-1.67
-2,-1,4,-13,-350,3909,-0.01,-0.04,0.18,-0.13,-3.50,39.09,-5.01,-0.01,58.42,3.35,0.04,-1.90
-3,1,3,-10,-334,3911,-0.02,-0.03,0.18,-0.10,-3.34,39.11,-4.99,-0.00,58.42,3.36,-0.01,-1.78
-1,1,2,-5,-345,3905,-0.03,-0.02,0.17,-0.05,-3.45,39.05,-5.01,0.01,58.42,3.33,-0.02,-1.67
-1,-1,1,3,-342,3897,-0.03,-0.03,0.16,0.03,-3.42,38.97,-5.01,-0.00,58.42,3.33,0.03,-1.57
-5,13,12,11,-374,3879,-0.06,0.06,0.22,0.11,-3.74,38.79,-5.03,-0.01,58.42,3.44,-0.27,-2.77
-1,25,20,14,-381,3880,-0.06,0.20,0.32,0.14,-3.81,38.80,-5.04,-0.01,58.42,3.37,-0.55,-3.54
3,-3,15,-15,-318,3937,-0.03,0.16,0.38,-0.15,-3.18,39.37,-5.03,-0.00,58.42,3.27,0.02,-2.84
5,-5,11,0,-311,3910,-0.00,0.12,0.41,0.00,-3.11,39.10,-5.01,-0.00,58.42,3.21,0.07,-2.31
0,2,2,2,-343,3890,-0.00,0.12,0.38,0.02,-3.43,38.90,-5.02,-0.01,58.42,3.32,-0.06,-1.29
1,4,1,-3,-354,3899,0.01,0.13,0.35,-0.03,-3.54,38.99,-5.04,-0.01,58.41,3.31,-0.11,-1.23
5,-1,13,3,-402,3893,0.04,0.11,0.39,0.03,-4.02,38.93,-5.06,-0.01,58.41,3.23,-0.00,-2.57
3,0,20,1,-374,3865,0.05,0.10,0.48,0.01,-3.74,38.65,-5.08,-0.01,58.41,3.28,-0.02,-3.25
0,8,17,-13,-328,3933,0.05,0.14,0.53,-0.13,-3.28,39.33,-5.06,0.00,58.41,3.33,-0.20,-2.79
2,2,14,-9,-329,3946,0.05,0.14,0.56,-0.09,-3.29,39.46,-5.04,0.01,58.41,3.27,-0.08,-2.38
7,-14,7,5,-343,3889,0.09,0.04,0.55,0.05,-3.43,38.89,-5.04,-0.01,58.40,3.16,0.28,-1.57
5,-9,8,17,-366,3879,0.11,-0.02,0.54,0.17,-3.66,38.79,-5.06,-0.02,58.40,3.21,0.20,-1.70
-3,7,30,6,-339,3898,0.08,0.02,0.67,0.06,-3.39,38.98,-5.04,-0.03,58.40,3.37,-0.13,-4.08
-3,10,32,-8,-305,3888,0.06,0.08,0.80,-0.08,-3.05,38.88,-5.03,-0.02,58.40,3.36,-0.21,-4.08
0,21,14,-34,-290,3914,0.05,0.20,0.81,-0.34,-2.90,39.14,-5.01,-0.01,58.39,3.29,-0.47,-1.93
0,22,11,-28,-317,3901,0.05,0.32,0.79,-0.28,-3.17,39.01,-5.00,0.00,58.39,3.29,-0.54,-1.60
-2,22,11,-6,-332,3888,0.03,0.42,0.78,-0.06,-3.32,38.88,-4.98,0.02,58.39,3.32,-0.57,-1.63
0,21,7,-4,-337,3901,0.03,0.51,0.74,-0.04,-3.37,39.01,-4.97,0.03,58.38,3.27,-0.58,-1.22
1,10,0,-1,-345,3905,0.03,0.52,0.67,-0.01,-3.45,39.05,-4.99,0.03,58.38,3.26,-0.36,-0.52
1,10,-3,0,-339,3897,0.03,0.53,0.58,0.00,-3.39,38.97,-4.98,0.02,58.38,3.26,-0.36,-0.32
-1,20,-11,2,-342,3902,0.02,0.59,0.46,0.02,-3.42,39.02,-4.99,0.00,58.38,3.31,-0.57,0.40
-2,15,-9,5,-339,3911,0.01,0.63,0.36,0.05,-3.39,39.11,-4.98,-0.01,58.38,3.33,-0.47,-0.03
-3,18,-7,12,-326,3903,-0.01,0.67,0.28,0.12,-3.26,39.03,-4.97,-0.02,58.38,3.34,-0.54,-0.41
-3,17,-7,-4,-319,3903,-0.03,0.71,0.21,-0.04,-3.19,39.03,-4.95,-0.01,58.38,3.34,-0.53,-0.54
-3,13,-4,-14,-336,3900,-0.04,0.72,0.16,-0.14,-3.36,39.00,-4.95,0.01,58.38,3.34,-0.47,-0.98
-2,14,-4,-10,-331,3901,-0.05,0.73,0.12,-0.10,-3.31,39.01,-4.94,0.03,58.38,3.31,-0.50,-1.05
-8,15,-13,8,-324,3856,-0.09,0.75,0.03,0.08,-3.24,38.56,-4.92,0.02,58.38,3.44,-0.52,-0.15
-9,13,-16,-21,-345,3895,-0.14,0.75,-0.07,-0.21,-3.45,38.95,-4.93,0.04,58.38,3.48,-0.49,0.02
-5,18,-14,-27,-360,3896,-0.16,0.79,-0.15,-0.27,-3.60,38.96,-4.95,0.05,58.38,3.41,-0.62,-0.36
-4,14,-15,-40,-359,3919,-0.17,0.80,-0.22,-0.40,-3.59,39.19,-4.96,0.07,58.38,3.40,-0.55,-0.38
-1,1,-11,-12,-353,3895,-0.16,0.72,-0.27,-0.12,-3.53,38.95,-4.97,0.08,58.38,3.34,-0.27,-0.94
-1,1,-12,-2,-346,3892,-0.15,0.66,-0.32,-0.02,-3.46,38.92,-4.99,0.08,58.38,3.35,-0.25,-0.91
-2,6,-9,-15,-340,3899,-0.14,0.63,-0.34,-0.15,-3.40,38.99,-4.99,0.10,58.38,3.37,-0.36,-1.31
-1,7,-9,-16,-339,3894,-0.14,0.61,-0.36,-0.16,-3.39,38.94,-4.99,0.12,58.38,3.35,-0.39,-1.34
-3,7,-11,-26,-343,3899,-0.14,0.59,-0.39,-0.26,-3.43,38.99,-4.99,0.14,58.39,3.39,-0.39,-1.16
-3,7,-10,-26,-331,3899,-0.14,0.57,-0.41,-0.26,-3.31,38.99,-4.98,0.16,58.39,3.39,-0.40,-1.32
-2,8,-4,-29,-332,3907,-0.14,0.56,-0.40,-0.29,-3.32,39.07,-4.98,0.17,58.39,3.36,-0.43,-2.00
-1,8,-3,-26,-331,3911,-0.13,0.56,-0.37,-0.26,-3.31,39.11,-4.97,0.19,58.39,3.33,-0.44,-2.08
0,5,0,-16,-351,3913,-0.12,0.53,-0.34,-0.16,-3.51,39.13,-4.98,0.20,58.39,3.32,-0.38,-2.37
0,4,1,-17,-353,3902,-0.11,0.50,-0.30,-0.17,-3.53,39.02,-5.00,0.21,58.39,3.33,-0.35,-2.42
-1,0,1,-23,-346,3905,-0.10,0.45,-0.26,-0.23,-3.46,39.05,-5.01,0.22,58.40,3.36,-0.27,-2.35
-1,0,2,-26,-344,3911,-0.10,0.41,-0.22,-0.26,-3.44,39.11,-5.01,0.24,58.40,3.36,-0.27,-2.40
0,-5,4,-20,-343,3912,-0.09,0.34,-0.18,-0.20,-3.43,39.12,-5.01,0.26,58.40,3.33,-0.16,-2.55
-1,-5,4,-16,-345,3900,-0.09,0.27,-0.13,-0.16,-3.45,39.00,-5.03,0.25,58.40,3.36,-0.14,-2.47
-2,-11,3,-7,-339,3905,-0.09,0.18,-0.10,-0.07,-3.39,39.05,-5.02,0.24,58.40,3.38,0.02,-2.30
-3,-11,4,1,-339,3895,-0.10,0.09,-0.07,0.01,-3.39,38.95,-5.02,0.22,58.40,3.40,0.05,-2.35
-2,-3,2,-13,-357,3909,-0.10,0.07,-0.05,-0.13,-3.57,39.09,-5.04,0.22,58.40,3.39,-0.10,-2.08
-1,-5,1,-14,-356,3914,-0.10,0.03,-0.04,-0.14,-3.56,39.14,-5.06,0.22,58.40,3.38,-0.05,-1.94
6,-21,5,1,-341,3893,-0.05,-0.10,-0.00,0.01,-3.41,38.93,-5.05,0.20,58.40,3.23,0.32,-2.35
4,-18,5,-5,-331,3888,-0.02,-0.20,0.03,-0.05,-3.31,38.88,-5.04,0.19,58.40,3.25,0.30,-2.30
2,9,5,-15,-331,3910,-0.01,-0.13,0.05,-0.15,-3.31,39.10,-5.02,0.19,58.40,3.27,-0.27,-2.24
0,4,6,-12,-341,3911,-0.01,-0.09,0.09,-0.12,-3.41,39.11,-5.00,0.18,58.40,3.30,-0.18,-2.31
1,10,8,-31,-343,3907,0.00,-0.02,0.13,-0.31,-3.43,39.07,-5.00,0.20,58.40,3.28,-0.33,-2.47
2,11,6,-33,-354,3926,0.01,0.05,0.15,-0.33,-3.54,39.26,-5.01,0.22,58.40,3.26,-0.38,-2.19
-2,-10,12,-53,-341,3946,-0.00,-0.02,0.21,-0.53,-3.41,39.46,-5.01,0.23,58.40,3.35,0.05,-2.79
0,-18,10,-19,-314,3910,-0.00,-0.12,0.25,-0.19,-3.14,39.10,-4.99,0.24,58.39,3.29,0.24,-2.48
-7,5,3,3,-325,3881,-0.04,-0.08,0.24,0.03,-3.25,38.81,-4.98,0.22,58.39,3.44,-0.23,-1.66
-4,2,1,0,-361,3921,-0.06,-0.06,0.22,0.00,-3.61,39.21,-4.99,0.21,58.39,3.40,-0.16,-1.46
-4,-14,4,-15,-327,3924,-0.08,-0.14,0.23,-0.15,-3.27,39.24,-4.98,0.21,58.39,3.39,0.18,-1.81
-3,-19,4,-5,-350,3913,-0.09,-0.24,0.23,-0.05,-3.50,39.13,-4.99,0.20,58.39,3.38,0.32,-1.81
-2,-5,17,-21,-381,3927,-0.09,-0.25,0.31,-0.21,-3.81,39.27,-5.01,0.20,58.39,3.37,0.04,-3.20
-1,4,18,-9,-345,3855,-0.09,-0.20,0.39,-0.09,-3.45,38.55,-5.02,0.19,58.39,3.36,-0.15,-3.18
2,-7,23,1,-339,3936,-0.07,-0.22,0.49,0.01,-3.39,39.36,-5.02,0.17,58.39,3.29,0.09,-3.58
3,-7,22,-5,-344,3916,-0.04,-0.24,0.57,-0.05,-3.44,39.16,-5.02,0.15,58.38,3.26,0.11,-3.31
0,-2,14,39,-343,3895,-0.04,-0.23,0.60,0.39,-3.43,38.95,-5.02,0.13,58.38,3.32,0.02,-2.31
0,0,10,40,-334,3900,-0.04,-0.21,0.60,0.40,-3.34,39.00,-5.01,0.11,58.38,3.32,-0.02,-1.83
-3,3,0,4,-342,3905,-0.05,-0.17,0.54,0.04,-3.42,39.05,-5.01,0.10,58.38,3.38,-0.08,-0.76
-2,-1,-2,-6,-351,3897,-0.06,-0.16,0.48,-0.06,-3.51,38.97,-5.03,0.09,58.37,3.38,0.00,-0.64
-4,1,-7,-11,-351,3908,-0.08,-0.14,0.39,-0.11,-3.51,39.08,-5.05,0.10,58.37,3.43,-0.05,-0.21
-2,0,-8,-13,-342,3906,-0.08,-0.12,0.30,-0.13,-3.42,39.06,-5.04,0.12,58.37,3.39,-0.05,-0.25
3,-2,-7,-10,-365,3859,-0.05,-0.12,0.23,-0.10,-3.65,38.59,-5.06,0.12,58.37,3.29,-0.01,-0.51
1,0,-7,-13,-372,3905,-0.04,-0.11,0.16,-0.13,-3.72,39.05,-5.08,0.12,58.37,3.34,-0.05,-0.63
3,-1,-5,-7,-363,3930,-0.02,-0.11,0.11,-0.07,-3.63,39.30,-5.09,0.12,58.37,3.31,-0.03,-0.95
4,-5,-3,1,-389,3929,0.01,-0.13,0.08,0.01,-3.89,39.29,-5.11,0.12,58.37,3.29,0.06,-1.24
6,-9,0,-20,-317,3879,0.04,-0.17,0.08,-0.20,-3.17,38.79,-5.10,0.12,58.37,3.23,0.15,-1.61
5,-6,-1,-15,-324,3889,0.07,-0.19,0.06,-0.15,-3.24,38.89,-5.08,0.13,58.37,3.23,0.09,-1.52
3,-2,0,-25,-355,3929,0.08,-0.18,0.06,-0.25,-3.55,39.29,-5.08,0.14,58.37,3.27,-0.00,-1.65
4,-4,-1,-19,-360,3926,0.10,-0.19,0.04,-0.19,-3.60,39.26,-5.10,0.15,58.37,3.26,0.03,-1.55
2,-8,6,-8,-437,3908,0.10,-0.22,0.08,-0.08,-4.37,39.08,-5.11,0.15,58.37,3.31,0.12,-2.32
4,2,15,-9,-465,3875,0.11,-0.18,0.16,-0.09,-4.65,38.75,-5.13,0.15,58.37,3.28,-0.09,-3.24
-2,15,42,0,-382,3879,0.09,-0.07,0.40,0.00,-3.82,38.79,-5.15,0.15,58.37,3.42,-0.38,-6.00
-11,14,45,-22,-286,3866,0.01,0.02,0.63,-0.22,-2.86,38.66,-5.13,0.15,58.36,3.61,-0.39,-5.92
1,27,8,22,-218,3904,0.02,0.18,0.62,0.22,-2.18,39.04,-5.11,0.15,58.36,3.35,-0.70,-1.56
1,17,9,2,-313,3932,0.02,0.27,0.61,0.02,-3.13,39.32,-5.10,0.14,58.36,3.34,-0.51,-1.69
-6,12,2,17,-319,3898,-0.02,0.31,0.56,0.17,-3.19,38.98,-5.08,0.13,58.36,3.48,-0.42,-0.95
-5,14,0,-14,-340,3889,-0.05,0.37,0.51,-0.14,-3.40,38.89,-5.07,0.15,58.35,3.46,-0.48,-0.82
-2,1,-2,-28,-361,3922,-0.05,0.34,0.44,-0.28,-3.61,39.22,-5.08,0.16,58.35,3.41,-0.22,-0.70
-2,0,-3,-30,-366,3910,-0.06,0.30,0.38,-0.30,-3.66,39.10,-5.09,0.18,58.35,3.42,-0.20,-0.69
0,-2,-1,-31,-349,3918,-0.05,0.26,0.34,-0.31,-3.49,39.18,-5.09,0.20,58.35,3.38,-0.16,-1.01
0,0,1,-29,-341,3902,-0.05,0.23,0.31,-0.29,-3.41,39.02,-5.09,0.21,58.35,3.37,-0.21,-1.30
1,1,8,-12,-327,3898,-0.04,0.22,0.33,-0.12,-3.27,38.98,-5.07,0.21,58.35,3.33,-0.22,-2.10
3,1,10,-7,-327,3909,-0.02,0.20,0.36,-0.07,-3.27,39.09,-5.05,0.21,58.35,3.28,-0.21,-2.28
4,6,12,-10,-354,3916,0.01,0.22,0.39,-0.10,-3.54,39.16,-5.07,0.20,58.34,3.26,-0.31,-2.45
2,4,13,-16,-355,3917,0.02,0.22,0.43,-0.16,-3.55,39.17,-5.08,0.21,58.34,3.31,-0.28,-2.50
-7,11,3,-8,-329,3878,-0.02,0.27,0.41,-0.08,-3.29,38.78,-5.07,0.20,58.34,3.49,-0.43,-1.36
-6,17,2,-21,-362,3873,-0.06,0.34,0.38,-0.21,-3.62,38.73,-5.08,0.21,58.34,3.49,-0.58,-1.29
-4,11,4,-2,-363,3926,-0.08,0.38,0.37,-0.02,-3.63,39.26,-5.10,0.20,58.34,3.47,-0.46,-1.55
-1,-3,6,-7,-357,3915,-0.07,0.32,0.37,-0.07,-3.57,39.15,-5.11,0.19,58.34,3.42,-0.15,-1.79
-2,-2,3,0,-341,3896,-0.08,0.28,0.35,0.00,-3.41,38.96,-5.10,0.17,58.34,3.43,-0.15,-1.47
-2,-3,4,3,-339,3916,-0.08,0.23,0.34,0.03,-3.39,39.16,-5.09,0.16,58.33,3.43,-0.11,-1.61
-1,-5,2,-11,-349,3922,-0.08,0.18,0.32,-0.11,-3.49,39.22,-5.08,0.16,58.33,3.39,-0.05,-1.41
-2,-6,1,-24,-346,3900,-0.09,0.12,0.29,-0.24,-3.46,39.00,-5.08,0.18,58.33,3.41,-0.03,-1.34
-1,-4,3,-5,-340,3893,-0.08,0.09,0.28,-0.05,-3.40,38.93,-5.06,0.17,58.33,3.39,-0.05,-1.59
-1,-1,5,-5,-341,3893,-0.08,0.07,0.28,-0.05,-3.41,38.93,-5.06,0.15,58.33,3.38,-0.10,-1.83
-5,2,5,-24,-349,3902,-0.10,0.08,0.28,-0.24,-3.49,39.02,-5.06,0.17,58.33,3.47,-0.17,-1.82
5,2,5,-45,-376,3834,-0.06,0.08,0.29,-0.45,-3.76,38.34,-5.07,0.18,58.33,3.26,-0.18,-1.82
-10,19,24,-11,-358,3896,-0.12,0.19,0.40,-0.11,-3.58,38.96,-5.09,0.18,58.33,3.60,-0.56,-3.85
-5,13,23,-22,-315,3941,-0.14,0.25,0.50,-0.22,-3.15,39.41,-5.08,0.19,58.32,3.49,-0.46,-3.55
3,-8,12,-10,-342,3901,-0.10,0.18,0.53,-0.10,-3.42,39.01,-5.06,0.18,58.32,3.31,-0.00,-2.21
2,-3,12,-9,-352,3892,-0.08,0.14,0.55,-0.09,-3.52,38.92,-5.08,0.17,58.32,3.33,-0.09,-2.17
-3,18,32,-15,-407,3907,-0.09,0.24,0.69,-0.15,-4.07,39.07,-5.10,0.17,58.32,3.45,-0.55,-4.28
-1,19,40,4,-387,3931,-0.09,0.33,0.86,0.04,-3.87,39.31,-5.11,0.17,58.31,3.42,-0.59,-4.91
-4,20,42,-1,-263,3873,-0.10,0.42,1.03,-0.01,-2.63,38.73,-5.10,0.17,58.31,3.47,-0.63,-4.84
-4,25,34,10,-264,3884,-0.12,0.53,1.14,0.10,-2.64,38.84,-5.08,0.17,58.31,3.47,-0.76,-3.70
-3,16,17,-19,-333,3923,-0.12,0.57,1.13,-0.19,-3.33,39.23,-5.06,0.18,58.30,3.44,-0.60,-1.70
-2,10,16,-18,-338,3932,-0.12,0.58,1.11,-0.18,-3.38,39.32,-5.05,0.19,58.30,3.41,-0.48,-1.61
-1,5,11,-20,-344,3910,-0.12,0.55,1.07,-0.20,-3.44,39.10,-5.04,0.21,58.29,3.38,-0.39,-1.09
-1,5,11,-22,-358,3911,-0.11,0.52,1.03,-0.22,-3.58,39.11,-5.06,0.22,58.29,3.39,-0.39,-1.17
1,-1,13,-25,-354,3911,-0.09,0.47,1.00,-0.25,-3.54,39.11,-5.07,0.24,58.29,3.35,-0.26,-1.45
1,-2,14,-23,-340,3891,-0.08,0.41,0.99,-0.23,-3.40,38.91,-5.06,0.25,58.28,3.34,-0.24,-1.59
-1,-1,12,-27,-333,3906,-0.08,0.36,0.96,-0.27,-3.33,39.06,-5.05,0.27,58.28,3.37,-0.25,-1.40
-1,-1,9,-32,-349,3898,-0.08,0.32,0.92,-0.32,-3.49,38.98,-5.05,0.29,58.27,3.38,-0.25,-1.12
3,-11,7,-35,-368,3873,-0.05,0.22,0.87,-0.35,-3.68,38.73,-5.07,0.30,58.27,3.30,-0.03,-0.98
2,-9,7,-30,-387,3890,-0.03,0.14,0.83,-0.30,-3.87,38.90,-5.09,0.30,58.27,3.33,-0.05,-1.06
-2,-4,22,-19,-406,3920,-0.04,0.10,0.88,-0.19,-4.06,39.20,-5.10,0.30,58.26,3.42,-0.15,-2.74
0,-8,25,-19,-383,3934,-0.04,0.04,0.94,-0.19,-3.83,39.34,-5.12,0.30,58.26,3.39,-0.05,-2.98
-1,-20,35,-15,-388,3861,-0.04,-0.08,1.06,-0.15,-3.88,38.61,-5.14,0.30,58.26,3.42,0.23,-3.95
0,-13,28,-34,-304,3921,-0.04,-0.15,1.13,-0.34,-3.04,39.21,-5.12,0.30,58.25,3.39,0.11,-3.00
0,-11,11,-17,-286,3903,-0.03,-0.20,1.08,-0.17,-2.86,39.03,-5.11,0.30,58.25,3.38,0.08,-1.07
0,-12,8,-17,-286,3908,-0.03,-0.26,1.02,-0.17,-2.86,39.08,-5.09,0.30,58.24,3.37,0.12,-0.82
-2,0,7,-10,-330,3892,-0.04,-0.23,0.96,-0.10,-3.30,38.92,-5.07,0.29,58.24,3.40,-0.13,-0.81
-3,4,8,-9,-332,3896,-0.05,-0.18,0.92,-0.09,-3.32,38.96,-5.06,0.28,58.24,3.41,-0.21,-1.02
-2,1,5,-17,-360,3904,-0.06,-0.16,0.85,-0.17,-3.60,39.04,-5.08,0.28,58.23,3.41,-0.16,-0.77
-2,1,4,-23,-351,3913,-0.07,-0.14,0.79,-0.23,-3.51,39.13,-5.09,0.29,58.23,3.42,-0.17,-0.77
-6,0,12,-25,-348,3914,-0.10,-0.12,0.79,-0.25,-3.48,39.14,-5.09,0.31,58.23,3.51,-0.17,-1.73
-3,4,6,-24,-328,3905,-0.10,-0.09,0.75,-0.24,-3.28,39.05,-5.07,0.31,58.22,3.44,-0.26,-1.09
0,2,2,-29,-349,3910,-0.09,-0.07,0.68,-0.29,-3.49,39.10,-5.07,0.33,58.22,3.37,-0.24,-0.73
-2,5,1,-30,-357,3927,-0.10,-0.03,0.62,-0.30,-3.57,39.27,-5.09,0.34,58.22,3.43,-0.32,-0.73
-2,-1,4,-13,-340,3891,-0.10,-0.03,0.58,-0.13,-3.40,38.91,-5.08,0.32,58.22,3.42,-0.19,-1.15
-2,0,4,-3,-339,3892,-0.10,-0.03,0.55,-0.03,-3.39,38.92,-5.07,0.31,58.21,3.42,-0.19,-1.21
-2,5,10,-1,-338,3894,-0.10,0.00,0.56,-0.01,-3.38,38.94,-5.07,0.29,58.21,3.41,-0.29,-1.91
-1,7,13,7,-336,3887,-0.10,0.05,0.58,0.07,-3.36,38.87,-5.06,0.27,58.21,3.39,-0.34,-2.23
1,18,17,-12,-332,3892,-0.08,0.15,0.62,-0.12,-3.32,38.92,-5.05,0.27,58.21,3.33,-0.58,-2.62
2,18,16,-14,-340,3911,-0.06,0.25,0.66,-0.14,-3.40,39.11,-5.03,0.26,58.20,3.30,-0.60,-2.43
-12,26,6,-12,-308,3877,-0.13,0.38,0.63,-0.12,-3.08,38.77,-5.01,0.25,58.20,3.59,-0.80,-1.30
-11,34,1,-33,-374,3875,-0.18,0.55,0.57,-0.33,-3.74,38.75,-5.03,0.26,58.20,3.59,-1.02,-0.81
-6,15,0,-25,-371,3931,-0.20,0.59,0.52,-0.25,-3.71,39.31,-5.05,0.27,58.20,3.51,-0.64,-0.80
-6,5,0,-33,-365,3906,-0.22,0.56,0.46,-0.33,-3.65,39.06,-5.07,0.28,58.20,3.52,-0.44,-0.89
-2,3,3,-15,-336,3906,-0.21,0.52,0.44,-0.15,-3.36,39.06,-5.05,0.28,58.19,3.43,-0.39,-1.30
-3,5,3,-27,-339,3906,-0.21,0.50,0.41,-0.27,-3.39,39.06,-5.04,0.30,58.19,3.44,-0.43,-1.35
-1,5,2,-32,-344,3917,-0.19,0.48,0.38,-0.32,-3.44,39.17,-5.04,0.32,58.19,3.40,-0.44,-1.28
-2,4,2,-33,-344,3912,-0.18,0.46,0.36,-0.33,-3.44,39.12,-5.04,0.34,58.19,3.42,-0.43,-1.33
-1,2,-1,-30,-354,3914,-0.17,0.42,0.31,-0.30,-3.54,39.14,-5.05,0.35,58.19,3.40,-0.39,-1.05
-2,1,-1,-31,-350,3909,-0.17,0.39,0.28,-0.31,-3.50,39.09,-5.06,0.37,58.19,3.43,-0.37,-1.12
-1,-8,-3,-24,-360,3906,-0.16,0.30,0.23,-0.24,-3.60,39.06,-5.08,0.37,58.19,3.42,-0.16,-0.97
-3,-10,-5,-31,-357,3907,-0.16,0.21,0.18,-0.31,-3.57,39.07,-5.10,0.38,58.19,3.47,-0.10,-0.83
2,-16,-6,-17,-399,3901,-0.13,0.09,0.12,-0.17,-3.99,39.01,-5.12,0.37,58.19,3.37,0.05,-0.81
1,-10,-7,0,-367,3884,-0.11,0.02,0.07,0.00,-3.67,38.84,-5.13,0.36,58.19,3.39,-0.04,-0.79
8,-29,2,-21,-363,3940,-0.05,-0.16,0.07,-0.21,-3.63,39.40,-5.14,0.35,58.19,3.25,0.40,-1.85
6,-30,3,-4,-378,3886,-0.01,-0.33,0.08,-0.04,-3.78,38.86,-5.16,0.34,58.19,3.29,0.47,-1.95
-1,3,21,-19,-348,3892,-0.02,-0.28,0.20,-0.19,-3.48,38.92,-5.15,0.33,58.18,3.42,-0.20,-3.86
-2,7,26,-13,-339,3911,-0.03,-0.21,0.34,-0.13,-3.39,39.11,-5.13,0.31,58.18,3.44,-0.29,-4.20
0,-5,19,-8,-241,3916,-0.02,-0.22,0.42,-0.08,-2.41,39.16,-5.12,0.31,58.18,3.38,-0.05,-3.22
1,-4,16,-12,-256,3879,-0.01,-0.22,0.48,-0.12,-2.56,38.79,-5.10,0.31,58.18,3.35,-0.06,-2.76
0,7,5,-25,-339,3924,-0.01,-0.15,0.46,-0.25,-3.39,39.24,-5.08,0.31,58.18,3.36,-0.31,-1.49
0,0,3,-21,-340,3911,-0.01,-0.14,0.43,-0.21,-3.40,39.11,-5.06,0.31,58.18,3.34,-0.17,-1.31
2,4,-2,-10,-348,3906,0.00,-0.10,0.38,-0.10,-3.48,39.06,-5.07,0.29,58.17,3.30,-0.25,-0.81
-1,1,-2,-18,-364,3924,-0.00,-0.08,0.33,-0.18,-3.64,39.24,-5.08,0.29,58.17,3.38,-0.19,-0.91
10,-3,-26,6,-315,3884,0.06,-0.09,0.14,0.06,-3.15,38.84,-5.07,0.28,58.17,3.13,-0.10,1.59
10,3,-31,-12,-353,3892,0.11,-0.07,-0.07,-0.12,-3.53,38.92,-5.08,0.27,58.17,3.12,-0.22,1.81
16,-11,-41,-28,-331,3925,0.20,-0.13,-0.31,-0.28,-3.31,39.25,-5.07,0.27,58.17,2.96,0.08,2.55
14,-16,-39,-33,-351,3910,0.26,-0.21,-0.52,-0.33,-3.51,39.10,-5.07,0.29,58.18,2.99,0.19,1.93
19,5,-12,-55,-464,3865,0.35,-0.16,-0.54,-0.55,-4.64,38.65,-5.09,0.30,58.18,2.87,-0.25,-1.31
5,19,-4,22,-266,3906,0.35,-0.03,-0.51,0.22,-2.66,39.06,-5.07,0.29,58.18,3.15,-0.57,-2.20
12,-25,-23,-24,-325,3994,0.39,-0.18,-0.60,-0.24,-3.25,39.94,-5.05,0.29,58.18,2.98,0.37,-0.11
16,-35,-23,-9,-337,3889,0.45,-0.37,-0.68,-0.09,-3.37,38.89,-5.04,0.27,58.18,2.88,0.63,-0.26
5,-6,-12,-24,-342,3874,0.43,-0.37,-0.68,-0.24,-3.42,38.74,-5.04,0.29,58.19,3.11,0.03,-1.58
-1,3,-4,-27,-344,3936,0.38,-0.32,-0.64,-0.27,-3.44,39.36,-5.03,0.30,58.19,3.24,-0.17,-2.45
-7,-6,12,-42,-363,3941,0.30,-0.32,-0.50,-0.42,-3.63,39.41,-5.04,0.32,58.19,3.39,0.00,-4.09
-9,-11,15,-41,-321,3951,0.22,-0.36,-0.36,-0.41,-3.21,39.51,-5.02,0.33,58.19,3.44,0.11,-4.19
-13,-15,28,-9,-348,3867,0.12,-0.41,-0.15,-0.09,-3.48,38.67,-5.03,0.31,58.19,3.55,0.21,-5.35
-13,-6,30,5,-348,3856,0.02,-0.41,0.04,0.05,-3.48,38.56,-5.04,0.29,58.19,3.58,0.04,-5.22
-19,24,66,-25,-466,3886,-0.09,-0.22,0.44,-0.25,-4.66,38.86,-5.06,0.29,58.19,3.75,-0.62,-8.76
-18,22,75,-2,-462,3912,-0.19,-0.06,0.86,-0.02,-4.62,39.12,-5.08,0.29,58.19,3.77,-0.62,-9.07
-7,-16,46,-20,-209,3871,-0.22,-0.16,1.05,-0.20,-2.09,38.71,-5.06,0.29,58.18,3.54,0.18,-5.27
-3,-8,30,8,-179,3857,-0.21,-0.19,1.13,0.08,-1.79,38.57,-5.04,0.28,58.18,3.45,0.03,-3.23
-5,5,10,-22,-328,3933,-0.22,-0.14,1.08,-0.22,-3.28,39.33,-5.02,0.28,58.17,3.48,-0.25,-0.96
-4,-2,11,-9,-333,3891,-0.23,-0.14,1.04,-0.09,-3.33,38.91,-5.01,0.27,58.17,3.45,-0.10,-1.15
-6,6,16,-5,-337,3888,-0.24,-0.09,1.03,-0.05,-3.37,38.88,-5.01,0.25,58.17,3.49,-0.27,-1.75
-9,3,24,8,-369,3903,-0.27,-0.06,1.07,0.08,-3.69,39.03,-5.02,0.24,58.16,3.57,-0.20,-2.62
-9,-5,36,-3,-339,3884,-0.30,-0.08,1.19,-0.03,-3.39,38.84,-5.02,0.22,58.16,3.58,-0.02,-3.84
-9,-4,41,1,-358,3873,-0.32,-0.10,1.32,0.01,-3.58,38.73,-5.04,0.21,58.15,3.59,-0.03,-4.19
-8,5,85,-28,-511,3897,-0.34,-0.06,1.70,-0.28,-5.11,38.97,-5.05,0.21,58.14,3.59,-0.23,-8.70
-9,9,99,-45,-508,3920,-0.36,0.00,2.14,-0.45,-5.08,39.20,-5.07,0.22,58.14,3.63,-0.33,-9.57
6,-26,186,-129,-485,4002,-0.29,-0.16,3.06,-1.29,-4.85,40.02,-5.09,0.23,58.12,3.32,0.42,-18.19
1,-33,199,49,-465,3993,-0.25,-0.34,3.97,0.49,-4.65,39.93,-5.11,0.22,58.11,3.42,0.62,-18.07
3,-8,164,-60,-289,3846,-0.21,-0.36,4.57,-0.60,-2.89,38.46,-5.09,0.23,58.09,3.36,0.11,-12.81
-4,11,149,25,-350,3900,-0.21,-0.25,5.02,0.25,-3.50,39.00,-5.09,0.21,58.07,3.50,-0.30,-10.20
4,-20,126,-5,-422,3944,-0.17,-0.35,5.29,-0.05,-4.22,39.44,-5.11,0.21,58.05,3.34,0.36,-6.98
7,-30,137,38,-451,3922,-0.11,-0.50,5.60,0.38,-4.51,39.22,-5.13,0.20,58.03,3.27,0.61,-7.73
-6,-8,187,82,-513,3799,-0.13,-0.50,6.18,0.82,-5.13,37.99,-5.15,0.19,58.00,3.55,0.17,-12.59
0,5,194,41,-410,4023,-0.12,-0.42,6.74,0.41,-4.10,40.23,-5.16,0.18,57.97,3.44,-0.11,-12.38
-4,-30,203,55,-327,3956,-0.13,-0.56,7.31,0.55,-3.27,39.56,-5.15,0.17,57.95,3.52,0.65,-12.41
-3,-19,216,102,-351,3828,-0.14,-0.62,7.89,1.02,-3.51,38.28,-5.15,0.15,57.91,3.50,0.46,-12.88
-2,10,221,-3,-214,3928,-0.14,-0.50,8.45,-0.03,-2.14,39.28,-5.13,0.15,57.88,3.47,-0.17,-12.44
-4,-10,216,16,-224,4023,-0.15,-0.51,8.92,0.16,-2.24,40.23,-5.12,0.15,57.84,3.50,0.25,-10.98
1,-15,278,27,-361,3838,-0.13,-0.55,9.73,0.27,-3.61,38.38,-5.13,0.13,57.80,3.40,0.37,-16.86
-4,-1,263,-62,-222,3928,-0.14,-0.50,10.36,-0.62,-2.22,39.28,-5.11,0.14,57.76,3.49,0.07,-13.92
-2,5,254,-27,-354,3898,-0.14,-0.42,10.87,-0.27,-3.54,38.98,-5.11,0.16,57.72,3.45,-0.09,-11.91
-2,-10,258,-75,-421,3940,-0.13,-0.44,11.36,-0.75,-4.21,39.40,-5.13,0.17,57.67,3.46,0.21,-11.49
0,-15,301,-26,-434,3819,-0.12,-0.49,12.06,-0.26,-4.34,38.19,-5.15,0.18,57.63,3.43,0.32,-15.31
1,-15,318,63,-374,3905,-0.10,-0.53,12.79,0.63,-3.74,39.05,-5.15,0.16,57.58,3.41,0.34,-15.98
-5,5,399,96,-466,3848,-0.12,-0.45,13.95,0.96,-4.66,38.48,-5.17,0.15,57.52,3.55,-0.08,-20.00
-24,7,444,101,-493,3881,-0.26,-0.36,15.26,1.01,-4.93,38.81,-5.18,0.15,57.46,3.98,-0.14,-20.00
-7,21,523,-19,-393,3934,-0.27,-0.19,16.93,-0.19,-3.93,39.34,-5.20,0.16,57.39,3.65,-0.48,-20.00
-12,7,539,1,-517,3903,-0.32,-0.13,18.52,0.01,-5.17,39.03,-5.22,0.16,57.32,3.78,-0.21,-20.00
-27,25,627,-16,-406,4053,-0.45,0.03,20.49,-0.16,-4.06,40.53,-5.24,0.17,57.24,4.13,-0.63,-20.00
-10,16,656,-10,-310,3884,-0.47,0.13,22.45,-0.10,-3.10,38.84,-5.22,0.18,57.15,3.78,-0.48,-20.00
-20,20,622,-19,-411,3751,-0.54,0.24,24.00,-0.19,-4.11,37.51,-5.24,0.19,57.05,4.02,-0.60,-20.00
-31,26,632,9,-412,3908,-0.68,0.37,25.45,0.09,-4.12,39.08,-5.26,0.19,56.95,4.29,-0.76,-20.00
-21,82,699,37,-509,3861,-0.74,0.83,27.17,0.37,-5.09,38.61,-5.28,0.20,56.84,4.11,-2.03,-20.00
-20,65,726,48,-450,3980,-0.79,1.15,28.88,0.48,-4.50,39.80,-5.30,0.21,56.73,4.12,-1.77,-20.00
-24,56,764,38,-233,3849,-0.85,1.37,30.65,0.38,-2.33,38.49,-5.29,0.22,56.61,4.21,-1.66,-20.00
-34,54,763,46,-272,3844,-0.98,1.57,32.24,0.46,-2.72,38.44,-5.27,0.22,56.48,4.44,-1.67,-20.00
-18,24,749,-1,-305,4033,-0.99,1.56,33.59,-0.01,-3.05,40.33,-5.26,0.24,56.34,4.11,-1.07,-20.00
1,7,737,-33,-229,3917,-0.88,1.44,34.72,-0.33,-2.29,39.17,-5.24,0.26,56.21,3.68,-0.71,-20.00
-31,35,684,-26,-351,3899,-0.98,1.51,35.42,-0.26,-3.51,38.99,-5.24,0.29,56.07,4.35,-1.32,-17.83
-23,27,668,-100,-281,4015,-1.03,1.53,35.96,-1.00,-2.81,40.15,-5.23,0.32,55.92,4.20,-1.18,-14.95
-10,10,662,-19,-386,3946,-0.98,1.43,36.40,-0.19,-3.86,39.46,-5.25,0.34,55.78,3.93,-0.82,-13.42
-15,8,677,9,-371,3852,-0.98,1.34,36.89,0.09,-3.71,38.52,-5.26,0.34,55.63,4.04,-0.75,-14.30
-33,15,753,-22,-565,3748,-1.08,1.30,37.79,-0.22,-5.65,37.48,-5.28,0.36,55.48,4.45,-0.90,-20.00
-8,27,782,64,-522,3903,-1.02,1.33,38.78,0.64,-5.22,39.03,-5.30,0.37,55.33,3.94,-1.16,-20.00
-27,30,936,-13,-441,3820,-1.08,1.38,40.62,-0.13,-4.41,38.20,-5.32,0.39,55.17,4.36,-1.24,-20.00
-4,27,956,50,-407,4162,-1.00,1.41,42.39,0.50,-4.07,41.62,-5.33,0.39,55.00,3.87,-1.19,-20.00
-3,30,916,-73,-266,4054,-0.92,1.45,43.73,-0.73,-2.66,40.54,-5.31,0.42,54.83,3.82,-1.28,-20.00
-21,19,900,-24,-382,3881,-0.95,1.42,44.85,-0.24,-3.82,38.81,-5.33,0.44,54.65,4.21,-1.07,-20.00
-14,13,889,54,-374,3702,-0.94,1.36,45.79,0.54,-3.74,37.02,-5.34,0.45,54.47,4.07,-0.93,-20.00
7,24,894,-107,-247,4028,-0.81,1.37,46.66,-1.07,-2.47,40.28,-5.33,0.48,54.28,3.59,-1.18,-20.00
-24,9,836,-55,-519,4000,-0.87,1.29,47.10,-0.55,-5.19,40.00,-5.35,0.50,54.09,4.26,-0.87,-14.39
-56,-3,832,-44,-468,3830,-1.13,1.14,47.46,-0.44,-4.68,38.30,-5.37,0.53,53.91,4.99,-0.60,-13.23
31,50,811,9,-357,3909,-0.83,1.33,47.66,0.09,-3.57,39.09,-5.37,0.53,53.72,3.14,-1.73,-10.37
-11,22,807,-45,-458,3965,-0.81,1.33,47.82,-0.45,-4.58,39.65,-5.39,0.56,53.53,4.00,-1.18,-9.60
-38,8,823,23,-356,3973,-0.96,1.25,48.06,0.23,-3.56,39.73,-5.38,0.56,53.33,4.59,-0.87,-11.06
-15,8,801,79,-275,3839,-0.96,1.17,48.14,0.79,-2.75,38.39,-5.37,0.57,53.14,4.11,-0.86,-8.30
-12,23,770,-141,-364,3649,-0.93,1.19,48.02,-1.41,-3.64,36.49,-5.38,0.61,52.95,4.05,-1.20,-4.83
-20,31,759,-73,-394,3909,-0.96,1.26,47.85,-0.73,-3.94,39.09,-5.39,0.65,52.76,4.23,-1.40,-3.83
-12,25,711,-77,-297,4004,-0.94,1.29,47.40,-0.77,-2.97,40.04,-5.38,0.68,52.57,4.05,-1.31,1.05
-19,6,664,-169,-310,3838,-0.96,1.20,46.71,-1.69,-3.10,38.38,-5.37,0.72,52.39,4.19,-0.92,5.36
-11,7,601,-124,-234,3950,-0.93,1.12,45.71,-1.24,-2.34,39.50,-5.36,0.75,52.21,4.01,-0.94,10.99
-1,15,599,-92,-273,3914,-0.85,1.10,44.79,-0.92,-2.73,39.14,-5.34,0.78,52.03,3.78,-1.12,9.56
-17,2,587,-149,-353,3916,-0.86,1.00,43.89,-1.49,-3.53,39.16,-5.34,0.82,51.85,4.11,-0.85,9.34
3,7,583,-132,-311,3871,-0.76,0.95,43.06,-1.32,-3.11,38.71,-5.33,0.85,51.68,3.66,-0.96,8.29
-21,-4,508,-164,-268,3877,-0.81,0.83,41.85,-1.64,-2.68,38.77,-5.32,0.88,51.52,4.16,-0.73,14.97
-8,-2,496,-129,-302,3914,-0.78,0.73,40.69,-1.29,-3.02,39.14,-5.31,0.91,51.35,3.88,-0.76,14.28
-14,12,506,-29,-475,3850,-0.79,0.73,39.71,-0.29,-4.75,38.50,-5.33,0.93,51.20,4.01,-1.06,11.29
-15,12,506,-54,-465,3963,-0.80,0.73,38.83,-0.54,-4.65,39.63,-5.34,0.94,51.04,4.05,-1.07,9.67
-2,13,548,-10,-306,3944,-0.73,0.74,38.29,-0.10,-3.06,39.44,-5.33,0.95,50.89,3.76,-1.09,3.71
6,7,520,0,-265,4008,-0.62,0.71,37.63,0.00,-2.65,40.08,-5.32,0.95,50.74,3.56,-0.97,5.83
-4,1,562,112,-365,3984,-0.58,0.64,37.29,1.12,-3.65,39.84,-5.31,0.95,50.59,3.75,-0.82,0.24
-14,-5,569,103,-420,3794,-0.61,0.55,37.04,1.03,-4.20,37.94,-5.32,0.95,50.44,3.96,-0.68,-1.06
-11,17,570,17,-368,3811,-0.62,0.60,36.81,0.17,-3.68,38.11,-5.32,0.95,50.30,3.91,-1.14,-1.59
-12,4,559,69,-312,4000,-0.63,0.56,36.54,0.69,-3.12,40.00,-5.32,0.95,50.15,3.92,-0.86,-0.78
-13,5,577,-120,-312,3951,-0.65,0.54,36.40,-1.20,-3.12,39.51,-5.30,0.98,50.01,3.94,-0.89,-3.16
-9,9,577,-106,-352,3903,-0.64,0.54,36.28,-1.06,-3.52,39.03,-5.30,1.01,49.86,3.85,-1.00,-3.37
-5,15,543,0,-409,3951,-0.60,0.57,35.97,0.00,-4.09,39.51,-5.31,1.01,49.72,3.77,-1.13,0.08
-12,13,543,15,-496,3888,-0.62,0.60,35.68,0.15,-4.96,38.88,-5.32,1.02,49.58,3.93,-1.10,-0.44
-7,1,552,1,-442,3916,-0.60,0.54,35.48,0.01,-4.42,39.16,-5.34,1.02,49.44,3.83,-0.84,-1.87
-7,19,531,-163,-381,3937,-0.58,0.60,35.17,-1.63,-3.81,39.37,-5.34,1.05,49.30,3.82,-1.25,0.06
1,15,477,-47,-378,3931,-0.52,0.64,34.57,-0.47,-3.78,39.31,-5.35,1.05,49.16,3.65,-1.17,5.36
-7,13,462,-34,-443,3777,-0.51,0.65,33.93,-0.34,-4.43,37.77,-5.36,1.06,49.03,3.82,-1.14,5.97
-13,-9,404,-131,-267,3936,-0.54,0.53,33.00,-1.31,-2.67,39.36,-5.35,1.08,48.89,3.94,-0.68,11.15
-12,-10,388,-165,-268,3893,-0.56,0.42,32.07,-1.65,-2.68,38.93,-5.33,1.11,48.77,3.92,-0.64,11.34
-6,-7,344,-120,-183,3810,-0.54,0.33,30.96,-1.20,-1.83,38.10,-5.32,1.13,48.64,3.78,-0.69,14.53
-12,-3,324,-196,-253,3914,-0.56,0.28,29.84,-1.96,-2.53,39.14,-5.30,1.15,48.52,3.90,-0.78,14.85
-2,7,270,-108,-497,3881,-0.51,0.30,28.50,-1.08,-4.97,38.81,-5.32,1.17,48.41,3.69,-0.99,18.81
4,16,259,-41,-484,3924,-0.44,0.36,27.23,-0.41,-4.84,39.24,-5.34,1.17,48.30,3.56,-1.20,17.78
-2,14,236,-106,-457,3996,-0.41,0.41,25.95,-1.06,-4.57,39.96,-5.35,1.19,48.20,3.69,-1.18,18.16
-2,2,224,-69,-506,3777,-0.38,0.38,24.72,-0.69,-5.06,37.77,-5.37,1.20,48.10,3.69,-0.94,17.33
-10,8,250,-86,-305,3931,-0.40,0.39,23.77,-0.86,-3.05,39.31,-5.35,1.21,48.01,3.85,-1.07,12.52
-22,-7,246,-85,-71,3796,-0.49,0.31,22.90,-0.85,-0.71,37.96,-5.34,1.22,47.92,4.10,-0.75,11.38
0,-3,176,-15,-60,3909,-0.44,0.26,21.68,-0.15,-0.60,39.09,-5.32,1.23,47.83,3.63,-0.82,17.46
1,8,162,4,-235,3888,-0.39,0.29,20.50,0.04,-2.35,38.88,-5.30,1.22,47.75,3.59,-1.05,16.96
-8,10,198,99,-395,3956,-0.40,0.32,19.66,0.99,-3.95,39.56,-5.30,1.22,47.67,3.77,-1.09,11.15
-4,15,222,108,-472,3871,-0.39,0.38,19.05,1.08,-4.72,38.71,-5.31,1.21,47.59,3.69,-1.21,7.18
-2,11,332,105,-552,3827,-0.36,0.41,19.17,1.05,-5.52,38.27,-5.33,1.20,47.52,3.66,-1.13,-5.64
-9,21,362,35,-619,3879,-0.38,0.49,19.46,0.35,-6.19,38.79,-5.34,1.21,47.44,3.81,-1.36,-8.67
7,35,415,187,-543,3788,-0.30,0.66,20.04,1.87,-5.43,37.88,-5.35,1.20,47.36,3.47,-1.68,-13.88
-26,-3,439,61,-482,3927,-0.43,0.57,20.72,0.61,-4.82,39.27,-5.37,1.20,47.28,4.19,-0.89,-15.48
6,20,398,3,-458,3971,-0.35,0.64,21.07,0.03,-4.58,39.71,-5.38,1.19,47.20,3.52,-1.37,-9.96
3,26,392,-45,-549,3807,-0.30,0.73,21.36,-0.45,-5.49,38.07,-5.39,1.20,47.11,3.58,-1.52,-8.73
-28,2,368,33,-280,3760,-0.44,0.67,21.47,0.33,-2.80,37.60,-5.38,1.20,47.03,4.24,-1.01,-5.68
-5,31,361,-27,-255,3930,-0.42,0.79,21.52,-0.27,-2.55,39.30,-5.37,1.20,46.94,3.76,-1.64,-4.75
-2,8,333,-32,-253,3915,-0.39,0.76,21.40,-0.32,-2.53,39.15,-5.35,1.20,46.86,3.68,-1.17,-1.64
-11,3,327,-3,-227,3877,-0.42,0.71,21.26,-0.03,-2.27,38.77,-5.34,1.21,46.77,3.86,-1.05,-1.20
-16,6,342,-83,-259,3823,-0.48,0.67,21.22,-0.83,-2.59,38.23,-5.32,1.22,46.69,3.96,-1.11,-3.05
-5,6,319,-44,-268,4024,-0.46,0.64,21.04,-0.44,-2.68,40.24,-5.30,1.22,46.60,3.73,-1.10,-0.64
-2,-15,158,1,-397,3898,-0.43,0.49,19.90,0.01,-3.97,38.98,-5.31,1.21,46.52,3.66,-0.63,16.37
0,17,142,-97,-456,3951,-0.38,0.54,18.78,-0.97,-4.56,39.51,-5.33,1.22,46.45,3.62,-1.30,16.21
4,23,179,-54,-625,3960,-0.32,0.63,17.99,-0.54,-6.25,39.60,-5.34,1.23,46.38,3.53,-1.45,10.38
-1,4,189,-40,-412,4088,-0.29,0.59,17.34,-0.40,-4.12,40.88,-5.35,1.22,46.31,3.63,-1.05,8.01
-6,2,113,-344,188,3944,-0.30,0.54,16.30,-3.44,1.88,39.44,-5.34,1.24,46.24,3.73,-1.01,15.11
-12,11,144,-519,182,3899,-0.34,0.55,15.55,-5.19,1.82,38.99,-5.32,1.26,46.18,3.85,-1.21,10.06
-2,7,118,-113,-114,3963,-0.32,0.54,14.71,-1.13,-1.14,39.63,-5.30,1.27,46.12,3.63,-1.13,11.61
8,10,74,-104,-313,3899,-0.24,0.55,13.69,-1.04,-3.13,38.99,-5.29,1.28,46.07,3.39,-1.20,14.96
3,11,12,-59,-367,3901,-0.20,0.56,12.40,-0.59,-3.67,39.01,-5.29,1.27,46.02,3.48,-1.22,19.94
4,11,-1,-54,-363,3923,-0.15,0.57,11.15,-0.54,-3.63,39.23,-5.29,1.26,45.97,3.45,-1.21,19.20
2,11,-20,-67,-391,3928,-0.13,0.58,9.91,-0.67,-3.91,39.28,-5.30,1.25,45.94,3.49,-1.21,19.18
2,11,-27,-44,-387,3926,-0.10,0.59,8.76,-0.44,-3.87,39.26,-5.31,1.24,45.90,3.49,-1.21,17.89
-7,9,-112,-136,-577,3973,-0.13,0.59,7.20,-1.36,-5.77,39.73,-5.33,1.25,45.87,3.70,-1.17,20.00
0,26,-161,-152,-545,3825,-0.12,0.69,5.50,-1.52,-5.45,38.25,-5.35,1.26,45.85,3.56,-1.55,20.00
0,12,-320,-42,-686,3814,-0.11,0.69,3.00,-0.42,-6.86,38.14,-5.36,1.27,45.84,3.57,-1.27,20.00
8,12,-395,18,-695,3852,-0.05,0.70,0.29,0.18,-6.95,38.52,-5.38,1.26,45.84,3.40,-1.27,20.00
10,-3,-525,-97,-505,3656,0.02,0.61,-2.94,-0.97,-5.05,36.56,-5.40,1.27,45.85,3.36,-0.94,20.00
14,-15,-565,16,-426,3737,0.10,0.46,-6.10,0.16,-4.26,37.37,-5.41,1.25,45.88,3.26,-0.64,20.00
4,-21,-546,-23,-99,3794,0.11,0.28,-8.82,-0.23,-0.99,37.94,-5.39,1.24,45.91,3.45,-0.47,20.00
-8,-6,-501,-34,-49,3946,0.05,0.22,-10.99,-0.34,-0.49,39.46,-5.38,1.24,45.96,3.70,-0.75,20.00
7,-25,-434,-406,-309,3949,0.09,0.04,-12.54,-4.06,-3.09,39.49,-5.37,1.25,46.01,3.38,-0.33,20.00
-6,-15,-560,-247,-406,3852,0.05,-0.05,-14.70,-2.47,-4.06,38.52,-5.38,1.26,46.06,3.66,-0.51,20.00
8,-21,-587,-183,-222,3936,0.09,-0.18,-16.81,-1.83,-2.22,39.36,-5.37,1.27,46.13,3.35,-0.36,20.00
13,-10,-655,-133,-137,3926,0.16,-0.22,-19.13,-1.33,-1.37,39.26,-5.35,1.26,46.21,3.22,-0.57,20.00
14,-9,-772,-436,-578,3909,0.23,-0.25,-21.92,-4.36,-5.78,39.09,-5.36,1.27,46.29,3.19,-0.59,20.00
19,-18,-803,-417,-541,3960,0.32,-0.34,-24.63,-4.17,-5.41,39.60,-5.37,1.27,46.39,3.07,-0.38,20.00
24,-13,-965,-364,-741,3890,0.44,-0.38,-28.05,-3.64,-7.41,38.90,-5.38,1.27,46.50,2.95,-0.47,20.00
14,-8,-1020,-161,-810,3800,0.48,-0.39,-31.47,-1.61,-8.10,38.00,-5.40,1.26,46.63,3.15,-0.56,20.00
20,-9,-1207,-245,-716,3881,0.55,-0.41,-35.69,-2.45,-7.16,38.81,-5.42,1.26,46.77,3.02,-0.53,20.00
25,-14,-1199,-88,-395,3974,0.65,-0.45,-39.43,-0.88,-3.95,39.74,-5.44,1.24,46.93,2.90,-0.41,20.00
16,-22,-1148,-25,39,3868,0.68,-0.54,-42.49,-0.25,0.39,38.68,-5.42,1.22,47.10,3.07,-0.21,20.00
12,-7,-1074,111,16,3853,0.69,-0.53,-44.79,1.11,0.16,38.53,-5.41,1.19,47.28,3.14,-0.50,20.00
13,-15,-545,1619,428,3804,0.70,-0.57,-43.64,16.19,4.28,38.04,-5.40,1.16,47.45,3.11,-0.30,-16.83
31,36,-358,918,9,3974,0.82,-0.29,-41.46,9.18,0.09,39.74,-5.39,1.12,47.61,2.71,-1.39,-20.00
2,14,-80,-46,-391,4021,0.75,-0.18,-37.80,-0.46,-3.91,40.21,-5.40,1.09,47.76,3.32,-0.96,-20.00
2,2,-76,-64,-266,3936,0.69,-0.15,-34.48,-0.64,-2.66,39.36,-5.38,1.07,47.90,3.32,-0.71,-20.00
2,3,-33,78,-308,3952,0.63,-0.11,-31.24,0.78,-3.08,39.52,-5.37,1.05,48.03,3.33,-0.72,-20.00
-3,2,-1,107,-352,3862,0.55,-0.09,-28.12,1.07,-3.52,38.62,-5.37,1.02,48.14,3.46,-0.69,-20.00
3,-1,51,13,-182,3904,0.51,-0.09,-25.00,0.13,-1.82,39.04,-5.36,1.00,48.24,3.33,-0.61,-20.00
-1,-5,54,-90,-283,3815,0.45,-0.11,-22.17,-0.90,-2.83,38.15,-5.34,1.00,48.33,3.42,-0.53,-20.00
0,-8,132,19,-128,3916,0.41,-0.15,-19.15,0.19,-1.28,39.16,-5.32,0.98,48.40,3.40,-0.45,-20.00
-2,6,178,-53,-280,3863,0.36,-0.10,-16.14,-0.53,-2.80,38.63,-5.30,0.97,48.47,3.44,-0.74,-20.00
-13,-1,236,27,-253,3866,0.24,-0.09,-13.09,0.27,-2.53,38.66,-5.29,0.96,48.52,3.69,-0.58,-20.00
-3,-1,244,-8,-387,3849,0.20,-0.09,-10.29,-0.08,-3.87,38.49,-5.30,0.93,48.56,3.50,-0.57,-20.00
-7,6,228,-74,-575,3797,0.14,-0.04,-7.87,-0.74,-5.75,37.97,-5.31,0.93,48.59,3.61,-0.73,-20.00
-4,23,200,-94,-730,3709,0.10,0.10,-5.87,-0.94,-7.30,37.09,-5.33,0.93,48.61,3.57,-1.11,-20.00
-3,-6,83,-353,-730,3897,0.07,0.05,-4.77,-3.53,-7.30,38.97,-5.35,0.94,48.63,3.57,-0.51,-20.00
-6,-10,42,-256,-606,3878,0.03,-0.01,-4.04,-2.56,-6.06,38.78,-5.36,0.95,48.65,3.65,-0.42,-13.85
0,-1,-8,-29,-325,3922,0.02,-0.02,-3.68,-0.29,-3.25,39.22,-5.35,0.94,48.66,3.52,-0.59,-7.27
-1,4,-6,-4,-329,3859,0.02,0.01,-3.35,-0.04,-3.29,38.59,-5.34,0.92,48.68,3.54,-0.69,-6.90
-8,-9,14,-89,-288,3850,-0.04,-0.05,-2.93,-0.89,-2.88,38.50,-5.32,0.93,48.69,3.69,-0.42,-8.50
-1,-5,26,-150,-165,3979,-0.04,-0.07,-2.48,-1.50,-1.65,39.79,-5.31,0.93,48.70,3.53,-0.49,-9.09
-4,-4,66,-102,-276,3974,-0.06,-0.09,-1.83,-1.02,-2.76,39.74,-5.29,0.94,48.70,3.59,-0.51,-12.65
-2,5,89,-2,-365,3723,-0.06,-0.05,-1.10,-0.02,-3.65,37.23,-5.30,0.92,48.71,3.55,-0.70,-14.04
-5,4,113,-23,-389,3806,-0.09,-0.02,-0.30,-0.23,-3.89,38.06,-5.31,0.91,48.71,3.63,-0.67,-15.42
-5,11,113,42,-418,3875,-0.11,0.05,0.42,0.42,-4.18,38.75,-5.32,0.89,48.71,3.64,-0.82,-14.10
-1,1,119,-35,-364,4001,-0.11,0.05,1.10,-0.35,-3.64,40.01,-5.31,0.87,48.70,3.56,-0.61,-13.56
-4,0,125,34,-374,3863,-0.12,0.04,1.75,0.34,-3.74,38.63,-5.32,0.86,48.70,3.62,-0.58,-13.07
-6,2,180,188,-215,3853,-0.14,0.05,2.68,1.88,-2.15,38.53,-5.31,0.84,48.69,3.66,-0.61,-17.90
-8,2,224,232,-223,3851,-0.18,0.06,3.77,2.32,-2.23,38.51,-5.30,0.83,48.67,3.71,-0.60,-20.00
0,2,356,28,-406,3957,-0.16,0.07,5.57,0.28,-4.06,39.57,-5.31,0.81,48.65,3.55,-0.60,-20.00
-3,-2,362,-127,-505,3896,-0.16,0.05,7.22,-1.27,-5.05,38.96,-5.32,0.82,48.62,3.62,-0.52,-20.00
-1,-11,298,-125,-441,3939,-0.15,-0.02,8.32,-1.25,-4.41,39.39,-5.34,0.84,48.59,3.59,-0.32,-20.00
1,-7,286,-120,-461,3867,-0.13,-0.07,9.23,-1.20,-4.61,38.67,-5.35,0.85,48.55,3.55,-0.40,-18.45
-11,-10,287,-137,-402,3919,-0.19,-0.12,10.06,-1.37,-4.02,39.19,-5.36,0.87,48.51,3.81,-0.34,-17.05
2,-16,324,-7,-354,3926,-0.15,-0.21,11.03,-0.07,-3.54,39.26,-5.36,0.86,48.47,3.54,-0.18,-19.66
1,-5,322,-93,-399,3912,-0.13,-0.22,11.89,-0.93,-3.99,39.12,-5.37,0.87,48.42,3.56,-0.42,-17.84
-4,4,349,-86,-478,3901,-0.14,-0.17,12.83,-0.86,-4.78,39.01,-5.39,0.88,48.37,3.68,-0.62,-19.31
-13,7,366,25,-396,3879,-0.21,-0.11,13.78,0.25,-3.96,38.79,-5.39,0.87,48.31,3.88,-0.69,-19.59
1,0,357,-74,-414,4003,-0.18,-0.10,14.58,-0.74,-4.14,40.03,-5.41,0.88,48.26,3.60,-0.56,-17.05
2,5,388,-22,-400,3932,-0.15,-0.06,15.49,-0.22,-4.00,39.32,-5.42,0.87,48.20,3.58,-0.66,-19.06
-3,4,394,-69,-403,3901,-0.15,-0.03,16.34,-0.69,-4.03,39.01,-5.44,0.88,48.13,3.69,-0.66,-18.20
-5,8,455,-7,-318,4017,-0.17,0.02,17.48,-0.07,-3.18,40.17,-5.42,0.88,48.06,3.73,-0.75,-20.00
-3,10,433,-1,-327,3908,-0.17,0.08,18.38,-0.01,-3.27,39.08,-5.41,0.87,47.99,3.68,-0.80,-19.09
-1,14,474,-14,-475,3746,-0.16,0.16,19.43,-0.14,-4.75,37.46,-5.43,0.87,47.91,3.65,-0.90,-20.00
-5,19,495,-72,-544,3862,-0.17,0.26,20.51,-0.72,-5.44,38.62,-5.45,0.88,47.83,3.74,-1.04,-20.00
-21,6,484,-185,-374,3927,-0.29,0.27,21.41,-1.85,-3.74,39.27,-5.45,0.91,47.74,4.10,-0.80,-19.57
-20,-11,481,-70,-397,3968,-0.38,0.18,22.20,-0.70,-3.97,39.68,-5.46,0.93,47.66,4.12,-0.44,-17.75
-14,13,545,-204,-415,3781,-0.43,0.24,23.31,-2.04,-4.15,37.81,-5.47,0.95,47.56,4.01,-0.96,-20.00
-4,17,590,-58,-339,3973,-0.41,0.32,24.57,-0.58,-3.39,39.73,-5.45,0.96,47.47,3.79,-1.07,-20.00
-4,25,553,-150,-528,3875,-0.39,0.44,25.49,-1.50,-5.28,38.75,-5.47,0.98,47.36,3.80,-1.27,-20.00
-1,26,585,-97,-512,3906,-0.36,0.55,26.51,-0.97,-5.12,39.06,-5.48,1.00,47.26,3.74,-1.34,-20.00
-11,27,642,34,-287,3925,-0.39,0.66,27.77,0.34,-2.87,39.25,-5.47,1.00,47.15,3.94,-1.39,-20.00
-11,16,657,50,-227,3919,-0.42,0.69,29.01,0.50,-2.27,39.19,-5.46,1.00,47.03,3.94,-1.17,-20.00
-8,1,758,147,-242,3882,-0.42,0.63,30.73,1.47,-2.42,38.82,-5.45,1.00,46.91,3.87,-0.85,-20.00
-1,24,778,-9,-351,3902,-0.39,0.71,32.40,-0.09,-3.51,39.02,-5.44,0.99,46.78,3.72,-1.34,-20.00
-10,9,822,-99,-235,4021,-0.41,0.70,34.18,-0.99,-2.35,40.21,-5.42,1.01,46.65,3.89,-1.04,-20.00
3,30,833,-228,-370,3727,-0.35,0.81,35.84,-2.28,-3.70,37.27,-5.42,1.05,46.50,3.61,-1.52,-20.00
-11,16,864,-57,-167,3871,-0.38,0.83,37.53,-0.57,-1.67,38.71,-5.40,1.06,46.35,3.89,-1.25,-20.00
-1,22,829,-178,-455,3805,-0.35,0.88,38.83,-1.78,-4.55,38.05,-5.41,1.10,46.20,3.69,-1.41,-20.00
-12,17,441,-256,-670,3900,-0.39,0.89,37.64,-2.56,-6.70,39.00,-5.43,1.12,46.05,3.93,-1.33,15.35
-12,8,474,-165,-677,3911,-0.42,0.85,36.76,-1.65,-6.77,39.11,-5.45,1.15,45.90,3.95,-1.15,9.84
-3,21,504,-37,-361,3719,-0.40,0.90,36.16,-0.37,-3.61,37.19,-5.45,1.15,45.76,3.76,-1.43,5.19
-2,36,519,-123,-296,3892,-0.37,1.03,35.71,-1.23,-2.96,38.92,-5.43,1.17,45.62,3.73,-1.79,2.58
0,9,570,100,-306,3951,-0.33,0.98,35.62,1.00,-3.06,39.51,-5.42,1.17,45.48,3.67,-1.22,-3.63
-1,6,535,-56,-419,3929,-0.31,0.92,35.32,-0.56,-4.19,39.29,-5.44,1.18,45.34,3.69,-1.15,-0.02
-5,29,696,-63,-229,3984,-0.31,1.00,36.03,-0.63,-2.29,39.84,-5.42,1.20,45.19,3.76,-1.65,-17.81
-8,18,691,41,-230,3749,-0.33,1.01,36.65,0.41,-2.30,37.49,-5.40,1.20,45.05,3.82,-1.43,-16.09
-17,15,687,-23,-441,3966,-0.40,1.00,37.17,-0.23,-4.41,39.66,-5.41,1.21,44.90,4.03,-1.37,-14.64
1,28,728,-200,-414,3947,-0.35,1.07,37.90,-2.00,-4.14,39.47,-5.42,1.24,44.75,3.65,-1.68,-18.18
5,31,717,-74,-497,3943,-0.28,1.15,38.48,-0.74,-4.97,39.43,-5.43,1.26,44.60,3.56,-1.78,-15.79
-20,6,723,16,-485,3880,-0.38,1.08,39.04,0.16,-4.85,38.80,-5.45,1.27,44.44,4.10,-1.25,-15.47
-14,8,734,-109,-395,4032,-0.43,1.02,39.61,-1.09,-3.95,40.32,-5.45,1.30,44.29,4.00,-1.30,-15.72
-20,17,723,-10,-508,3814,-0.51,1.02,40.06,-0.10,-5.08,38.14,-5.47,1.31,44.13,4.15,-1.49,-13.59
2,18,781,232,-349,3774,-0.44,1.03,40.82,2.32,-3.49,37.74,-5.46,1.31,43.96,3.69,-1.51,-19.07
-4,5,701,465,-344,3811,-0.42,0.95,41.02,4.65,-3.44,38.11,-5.46,1.32,43.80,3.80,-1.23,-9.22
-8,31,858,-198,-632,3813,-0.43,1.05,42.15,-1.98,-6.32,38.13,-5.48,1.34,43.63,3.89,-1.80,-20.00
-31,8,852,268,-506,3859,-0.58,0.99,43.13,2.68,-5.06,38.59,-5.48,1.35,43.46,4.40,-1.32,-20.00
-25,14,703,-368,-628,3900,-0.67,0.98,43.11,-3.68,-6.28,39.00,-5.49,1.38,43.29,4.32,-1.46,-5.61
-11,18,789,-298,-596,3913,-0.67,0.99,43.61,-2.98,-5.96,39.13,-5.50,1.41,43.12,4.04,-1.57,-14.88
-21,7,704,-76,-128,3862,-0.73,0.93,43.54,-0.76,-1.28,38.62,-5.48,1.43,42.95,4.25,-1.34,-4.92
-17,-10,624,37,-217,3930,-0.76,0.78,42.99,0.37,-2.17,39.30,-5.47,1.44,42.77,4.16,-0.96,3.57
-22,-12,667,40,-319,3961,-0.82,0.63,42.76,0.40,-3.19,39.61,-5.46,1.44,42.60,4.27,-0.88,-1.95
-3,-2,698,76,-309,3911,-0.76,0.55,42.74,0.76,-3.09,39.11,-5.45,1.44,42.43,3.87,-1.06,-5.65
-13,-3,641,92,-567,4026,-0.76,0.48,42.38,0.92,-5.67,40.26,-5.46,1.45,42.27,4.08,-1.03,0.45
-7,-3,586,20,-403,3889,-0.73,0.41,41.72,0.20,-4.03,38.89,-5.47,1.45,42.10,3.95,-1.01,5.76
-25,-19,501,-153,-364,3838,-0.81,0.26,40.60,-1.53,-3.64,38.38,-5.47,1.48,41.94,4.34,-0.66,13.80
-1,9,473,-151,-406,3910,-0.73,0.29,39.43,-1.51,-4.06,39.10,-5.47,1.51,41.78,3.83,-1.26,14.97
7,16,500,22,-419,3974,-0.62,0.35,38.53,0.22,-4.19,39.74,-5.48,1.51,41.63,3.64,-1.42,10.13
-3,2,489,-96,-359,3981,-0.57,0.33,37.66,-0.96,-3.59,39.81,-5.46,1.52,41.48,3.82,-1.13,9.85
-3,8,504,-193,-423,3954,-0.53,0.35,36.97,-1.93,-4.23,39.54,-5.47,1.55,41.33,3.81,-1.28,6.80
-9,0,486,-267,-340,3842,-0.54,0.31,36.24,-2.67,-3.40,38.42,-5.46,1.59,41.19,3.93,-1.13,7.60
-2,-4,472,-70,-451,3850,-0.49,0.26,35.49,-0.70,-4.51,38.50,-5.48,1.59,41.05,3.79,-1.04,7.90
-1,12,485,-190,-477,3905,-0.45,0.30,34.90,-1.90,-4.77,39.05,-5.49,1.62,40.91,3.77,-1.40,5.27
-1,7,493,-138,-155,3971,-0.41,0.32,34.42,-1.38,-1.55,39.71,-5.47,1.63,40.77,3.74,-1.31,3.44
-11,-5,494,-152,-177,3894,-0.44,0.25,33.99,-1.52,-1.77,38.94,-5.45,1.65,40.63,3.94,-1.06,2.54
-4,3,489,-157,-349,3856,-0.42,0.25,33.58,-1.57,-3.49,38.56,-5.44,1.68,40.50,3.78,-1.24,2.38
-9,9,516,-28,-375,3825,-0.43,0.28,33.37,-0.28,-3.75,38.25,-5.44,1.68,40.37,3.89,-1.37,-1.21
1,19,504,-12,-313,3839,-0.38,0.37,33.10,-0.12,-3.13,38.39,-5.43,1.68,40.24,3.67,-1.59,-0.26
-10,-1,485,-3,-381,3975,-0.40,0.32,32.75,-0.03,-3.81,39.75,-5.43,1.67,40.11,3.90,-1.17,1.35
-3,9,466,-127,-328,4042,-0.38,0.35,32.32,-1.27,-3.28,40.42,-5.41,1.69,39.98,3.73,-1.39,2.82
-18,-3,460,-16,-341,3889,-0.45,0.29,31.89,-0.16,-3.41,38.89,-5.40,1.68,39.85,4.05,-1.13,2.75
-11,2,512,-84,-437,3955,-0.48,0.28,31.83,-0.84,-4.37,39.55,-5.41,1.69,39.72,3.93,-1.23,-3.54
-12,23,529,-195,-449,3876,-0.50,0.39,31.87,-1.95,-4.49,38.76,-5.42,1.71,39.60,3.96,-1.71,-5.47
-5,4,445,15,-254,4045,-0.48,0.37,31.40,0.15,-2.54,40.45,-5.41,1.71,39.47,3.80,-1.32,3.63
4,-1,449,-243,-297,3922,-0.41,0.33,31.00,-2.43,-2.97,39.22,-5.40,1.74,39.35,3.59,-1.22,2.43
-4,13,570,202,-395,3864,-0.39,0.38,31.37,2.02,-3.95,38.64,-5.40,1.74,39.22,3.75,-1.51,-11.23
-14,-2,493,240,-173,3975,-0.44,0.33,31.24,2.40,-1.73,39.75,-5.39,1.74,39.10,3.96,-1.19,-2.33
-9,-1,584,27,-468,3828,-0.45,0.29,31.68,0.27,-4.68,38.28,-5.40,1.73,38.97,3.87,-1.20,-12.32
-18,11,561,3,-481,3881,-0.51,0.33,31.94,0.03,-4.81,38.81,-5.41,1.73,38.85,4.08,-1.46,-9.12
-10,15,587,-106,-407,3910,-0.52,0.39,32.32,-1.06,-4.07,39.10,-5.42,1.74,38.72,3.93,-1.56,-11.49
-14,2,596,16,-367,3852,-0.56,0.36,32.73,0.16,-3.67,38.52,-5.42,1.74,38.59,4.01,-1.29,-11.81
-14,5,570,-47,-516,3839,-0.59,0.35,32.93,-0.47,-5.16,38.39,-5.44,1.74,38.46,4.03,-1.35,-8.35
-14,19,592,-57,-389,3914,-0.61,0.43,33.25,-0.57,-3.89,39.14,-5.44,1.74,38.32,4.04,-1.65,-10.37
-6,15,582,-218,-383,3962,-0.59,0.48,33.47,-2.18,-3.83,39.62,-5.44,1.77,38.19,3.87,-1.61,-8.77
11,3,567,-33,-315,4037,-0.46,0.45,33.59,-0.33,-3.15,40.37,-5.43,1.77,38.06,3.48,-1.35,-6.78
-29,5,572,32,-571,3905,-0.59,0.44,33.72,0.32,-5.71,39.05,-5.44,1.78,37.92,4.34,-1.39,-7.13
3,15,570,-8,-398,4065,-0.52,0.49,33.82,-0.08,-3.98,40.65,-5.44,1.77,37.79,3.67,-1.61,-6.70
4,7,512,-95,-351,3873,-0.44,0.48,33.56,-0.95,-3.51,38.73,-5.42,1.77,37.65,3.62,-1.44,-0.29
-6,22,514,-141,-431,3872,-0.43,0.57,33.34,-1.41,-4.31,38.72,-5.44,1.79,37.52,3.83,-1.78,-0.93
4,16,536,176,-314,3999,-0.36,0.61,33.28,1.76,-3.14,39.99,-5.43,1.79,37.39,3.60,-1.67,-3.65
-13,-8,482,122,-121,3869,-0.41,0.50,32.89,1.22,-1.21,38.69,-5.42,1.79,37.26,3.95,-1.16,2.05
-26,11,554,-217,-571,3698,-0.53,0.51,32.98,-2.17,-5.71,36.98,-5.43,1.81,37.13,4.26,-1.56,-6.32
-10,16,599,-33,-357,4023,-0.53,0.56,33.34,-0.33,-3.57,40.23,-5.43,1.81,37.00,3.93,-1.67,-11.00
-14,12,670,-135,-479,3953,-0.57,0.58,34.09,-1.35,-4.79,39.53,-5.44,1.83,36.86,4.03,-1.61,-18.04
-17,14,698,-45,-417,3864,-0.61,0.61,34.94,-0.45,-4.17,38.64,-5.45,1.83,36.72,4.11,-1.66,-19.80
-19,12,689,-92,-451,3994,-0.67,0.62,35.65,-0.92,-4.51,39.94,-5.46,1.84,36.58,4.17,-1.62,-17.43
-17,0,672,-144,-375,3881,-0.70,0.56,36.18,-1.44,-3.75,38.81,-5.47,1.87,36.44,4.14,-1.39,-14.43
-17,-1,685,-67,-449,3859,-0.74,0.49,36.74,-0.67,-4.49,38.59,-5.48,1.87,36.29,4.16,-1.35,-14.94
2,-14,607,394,-232,3896,-0.65,0.36,36.77,3.94,-2.32,38.96,-5.47,1.87,36.14,3.75,-1.05,-5.63
-21,17,692,-138,-842,3736,-0.71,0.43,37.31,-1.38,-8.42,37.36,-5.49,1.89,36.00,4.24,-1.71,-14.71
6,29,671,-40,-509,4213,-0.61,0.56,37.68,-0.40,-5.09,42.13,-5.50,1.89,35.85,3.67,-1.99,-11.55
-22,5,614,3,-418,4117,-0.68,0.54,37.65,0.03,-4.18,41.17,-5.50,1.89,35.70,4.26,-1.50,-4.82
-24,-6,610,77,-272,3913,-0.76,0.45,37.61,0.77,-2.72,39.13,-5.49,1.89,35.55,4.32,-1.25,-4.43
-3,21,649,-118,-468,3763,-0.70,0.53,37.81,-1.18,-4.68,37.63,-5.50,1.91,35.40,3.89,-1.83,-8.68
3,36,649,-10,-373,3872,-0.61,0.70,37.99,-0.10,-3.73,38.72,-5.50,1.91,35.25,3.74,-2.18,-8.35
-3,21,614,12,-395,3872,-0.57,0.75,37.93,0.12,-3.95,38.72,-5.50,1.90,35.10,3.85,-1.89,-4.29
-7,14,609,-65,-324,3967,-0.56,0.76,37.85,-0.65,-3.24,39.67,-5.49,1.91,34.95,3.92,-1.75,-3.84
-13,28,611,-211,-462,3767,-0.58,0.86,37.80,-2.11,-4.62,37.67,-5.50,1.94,34.80,4.05,-2.08,-4.18
-19,5,583,58,-247,3932,-0.64,0.80,37.57,0.58,-2.47,39.32,-5.49,1.94,34.65,4.18,-1.60,-1.26
-9,3,442,-211,-695,3714,-0.63,0.74,36.51,-2.11,-6.95,37.14,-5.50,1.96,34.50,3.99,-1.56,13.52
-25,12,504,-125,-641,3901,-0.72,0.74,35.93,-1.25,-6.41,39.01,-5.52,1.98,34.36,4.35,-1.75,5.11
-14,1,582,117,-185,3943,-0.73,0.67,35.89,1.17,-1.85,39.43,-5.50,1.98,34.22,4.12,-1.51,-4.22
15,12,479,174,-53,3797,-0.57,0.68,35.22,1.74,-0.53,37.97,-5.49,1.98,34.08,3.47,-1.74,6.78
-19,-4,485,-204,-611,3730,-0.63,0.59,34.66,-2.04,-6.11,37.30,-5.50,2.00,33.94,4.19,-1.40,5.04
-9,31,542,-242,-631,3887,-0.62,0.72,34.50,-2.42,-6.31,38.87,-5.52,2.03,33.80,3.99,-2.16,-2.01
-17,-5,507,-20,-211,4032,-0.66,0.61,34.14,-0.20,-2.11,40.32,-5.50,2.03,33.67,4.16,-1.41,1.49
-14,2,506,-133,-363,3765,-0.68,0.57,33.82,-1.33,-3.63,37.65,-5.50,2.03,33.53,4.10,-1.53,1.01
-23,4,576,64,-367,4075,-0.75,0.53,33.95,0.64,-3.67,40.75,-5.50,2.03,33.40,4.30,-1.56,-7.05
-16,-8,562,-17,-222,3951,-0.77,0.43,33.98,-0.17,-2.22,39.51,-5.48,2.03,33.26,4.16,-1.29,-5.32
-15,-2,534,-158,-407,3739,-0.79,0.38,33.84,-1.58,-4.07,37.39,-5.50,2.05,33.13,4.15,-1.42,-2.25
-13,-2,507,-159,-390,3960,-0.79,0.33,33.55,-1.59,-3.90,39.60,-5.51,2.08,32.99,4.11,-1.42,0.42
-8,11,494,-55,-442,3878,-0.76,0.36,33.21,-0.55,-4.42,38.78,-5.52,2.08,32.86,4.01,-1.70,1.34
-15,9,501,-11,-544,3981,-0.77,0.38,32.94,-0.11,-5.44,39.81,-5.53,2.09,32.73,4.16,-1.66,0.03
-15,8,474,-120,-462,3792,-0.79,0.39,32.54,-1.20,-4.62,37.92,-5.54,2.10,32.60,4.18,-1.65,2.49
-5,24,468,-106,-394,4044,-0.74,0.50,32.14,-1.06,-3.94,40.44,-5.54,2.09,32.47,3.96,-2.00,2.48
-20,10,471,-27,-394,3964,-0.79,0.51,31.80,-0.27,-3.94,39.64,-5.54,2.09,32.35,4.28,-1.72,1.50
-2,4,467,-149,-439,4035,-0.72,0.48,31.47,-1.49,-4.39,40.35,-5.56,2.10,32.22,3.91,-1.60,1.37
-7,3,533,115,-401,3879,-0.69,0.45,31.57,1.15,-4.01,38.79,-5.56,2.10,32.10,4.00,-1.57,-6.26
-27,-16,515,161,-263,4007,-0.79,0.31,31.56,1.61,-2.63,40.07,-5.55,2.10,31.97,4.43,-1.14,-4.15
8,-1,367,-51,-310,4070,-0.66,0.27,30.64,-0.51,-3.10,40.70,-5.54,2.09,31.85,3.67,-1.44,11.72
-3,4,437,-290,-601,3821,-0.61,0.27,30.24,-2.90,-6.01,38.21,-5.55,2.12,31.73,3.89,-1.55,2.69
-20,9,638,2,-391,4020,-0.67,0.30,31.11,0.02,-3.91,40.20,-5.55,2.11,31.61,4.25,-1.66,-19.55
-2,16,633,34,-286,3789,-0.62,0.37,31.86,0.34,-2.86,37.89,-5.54,2.11,31.48,3.86,-1.82,-17.58
-17,17,526,-62,-476,3646,-0.66,0.43,31.88,-0.62,-4.76,36.46,-5.55,2.11,31.35,4.19,-1.86,-4.84
-15,19,536,-26,-518,3935,-0.69,0.51,31.96,-0.26,-5.18,39.35,-5.56,2.12,31.23,4.16,-1.92,-5.88
-16,9,584,-83,-351,4106,-0.71,0.51,32.33,-0.83,-3.51,41.06,-5.55,2.12,31.10,4.18,-1.72,-10.89
-6,-10,571,-11,-271,3972,-0.68,0.40,32.58,-0.11,-2.71,39.72,-5.54,2.12,30.97,3.96,-1.30,-8.89
-20,-10,540,30,-535,3880,-0.73,0.30,32.62,0.30,-5.35,38.80,-5.55,2.12,30.84,4.27,-1.27,-5.14
-25,18,532,-66,-545,3739,-0.81,0.38,32.60,-0.66,-5.45,37.39,-5.56,2.12,30.71,4.40,-1.87,-4.22
-13,1,490,-125,-701,3887,-0.81,0.35,32.33,-1.25,-7.01,38.87,-5.58,2.14,30.58,4.17,-1.52,0.27
-20,12,520,27,-684,3702,-0.85,0.38,32.27,0.27,-6.84,37.02,-5.60,2.14,30.45,4.33,-1.76,-3.40
-12,20,500,-61,-220,3947,-0.84,0.47,32.09,-0.61,-2.20,39.47,-5.58,2.15,30.32,4.15,-1.95,-1.35
-15,14,488,-96,-381,3886,-0.85,0.51,31.86,-0.96,-3.81,38.86,-5.58,2.14,30.20,4.22,-1.84,-0.35
-19,-3,509,-175,-412,3929,-0.88,0.44,31.78,-1.75,-4.12,39.29,-5.59,2.17,30.07,4.31,-1.49,-2.98
-1,0,513,-100,-360,3882,-0.80,0.39,31.73,-1.00,-3.60,38.82,-5.58,2.17,29.94,3.92,-1.54,-3.54
-8,28,522,-85,-129,3933,-0.77,0.53,31.74,-0.85,-1.29,39.33,-5.56,2.18,29.82,4.04,-2.15,-4.58
-1,22,488,-224,-305,3824,-0.70,0.61,31.54,-2.24,-3.05,38.24,-5.55,2.21,29.69,3.87,-2.07,-0.91
-25,-9,482,71,-268,3855,-0.78,0.49,31.33,0.71,-2.68,38.55,-5.54,2.20,29.57,4.38,-1.41,-0.59
-10,24,468,-61,-213,3988,-0.76,0.59,31.05,-0.61,-2.13,39.88,-5.52,2.21,29.44,4.05,-2.11,0.57
-13,8,334,-186,-265,3839,-0.76,0.58,29.98,-1.86,-2.65,38.39,-5.50,2.23,29.32,4.10,-1.79,14.51
-18,0,305,-163,-510,3879,-0.80,0.52,28.85,-1.63,-5.10,38.79,-5.52,2.24,29.21,4.23,-1.62,15.86
-5,16,273,19,-340,3857,-0.75,0.57,27.63,0.19,-3.40,38.57,-5.51,2.24,29.10,3.94,-1.96,17.42
-4,18,269,-73,-566,3787,-0.70,0.62,26.50,-0.73,-5.66,37.87,-5.53,2.24,28.99,3.92,-2.02,15.84
-12,-9,200,43,-170,3845,-0.70,0.50,25.07,0.43,-1.70,38.45,-5.51,2.24,28.89,4.07,-1.43,20.00
-9,-13,161,-130,-228,4073,-0.69,0.37,23.55,-1.30,-2.28,40.73,-5.50,2.25,28.80,4.00,-1.32,20.00
3,-37,98,5,-459,3883,-0.60,0.11,21.79,0.05,-4.59,38.83,-5.50,2.24,28.71,3.73,-0.76,20.00
-5,-33,116,52,-608,3819,-0.57,-0.10,20.32,0.52,-6.08,38.19,-5.52,2.24,28.63,3.90,-0.78,20.00
-9,3,244,25,-420,3934,-0.57,-0.07,19.78,0.25,-4.20,39.34,-5.52,2.23,28.55,3.98,-1.51,6.48
-16,7,225,-144,-325,3922,-0.61,-0.02,19.17,-1.44,-3.25,39.22,-5.50,2.23,28.48,4.12,-1.61,7.63
4,0,183,110,-520,3933,-0.52,-0.02,18.37,1.10,-5.20,39.33,-5.51,2.22,28.40,3.70,-1.46,11.14
-2,3,213,-119,-334,3951,-0.48,-0.00,17.83,-1.19,-3.34,39.51,-5.49,2.22,28.33,3.80,-1.53,6.60
-10,15,280,-51,-423,3855,-0.50,0.09,17.76,-0.51,-4.23,38.55,-5.50,2.21,28.26,3.97,-1.79,-1.48
-7,11,303,-135,-376,3949,-0.49,0.15,17.83,-1.35,-3.76,39.49,-5.50,2.20,28.19,3.90,-1.72,-4.08
6,-57,197,-140,-408,3980,-0.40,-0.21,17.25,-1.40,-4.08,39.80,-5.51,2.20,28.12,3.63,-0.23,7.43
21,-69,233,-130,-720,3902,-0.24,-0.61,16.95,-1.30,-7.20,39.02,-5.53,2.20,28.06,3.29,0.12,2.61
-27,41,404,-233,-510,3716,-0.38,-0.30,17.72,-2.33,-5.10,37.16,-5.54,2.21,27.99,4.31,-2.21,-16.26
-27,110,470,-198,-454,3572,-0.50,0.40,18.81,-1.98,-4.54,35.72,-5.56,2.23,27.91,4.35,-3.82,-20.00
-20,26,519,22,-101,3809,-0.58,0.52,20.10,0.22,-1.01,38.09,-5.54,2.23,27.83,4.22,-2.14,-20.00
-3,21,461,29,-288,4166,-0.54,0.59,20.90,0.29,-2.88,41.66,-5.53,2.23,27.75,3.86,-2.06,-17.18
-14,40,501,-16,-458,3740,-0.57,0.78,21.86,-0.16,-4.58,37.40,-5.54,2.22,27.66,4.10,-2.49,-20.00
-15,22,525,10,-518,3969,-0.60,0.84,22.88,0.10,-5.18,39.69,-5.55,2.22,27.57,4.13,-2.14,-20.00
-15,-4,390,-226,-536,3981,-0.63,0.73,22.97,-2.26,-5.36,39.81,-5.57,2.24,27.48,4.15,-1.60,-4.94
-3,-1,421,-110,-591,3808,-0.59,0.65,23.24,-1.10,-5.91,38.08,-5.58,2.25,27.39,3.91,-1.64,-8.12
-11,1,413,91,-295,3871,-0.60,0.59,23.44,0.91,-2.95,38.71,-5.58,2.24,27.29,4.07,-1.66,-6.81
3,0,359,-8,-365,3899,-0.52,0.53,23.28,-0.08,-3.65,38.99,-5.57,2.24,27.20,3.76,-1.62,-0.69
-5,22,396,-18,-586,3786,-0.50,0.61,23.37,-0.18,-5.86,37.86,-5.59,2.24,27.11,3.92,-2.09,-4.91
7,23,377,9,-486,3987,-0.41,0.69,23.33,0.09,-4.86,39.87,-5.59,2.23,27.02,3.66,-2.13,-2.72
-1,-3,309,-9,-304,3889,-0.37,0.60,22.88,-0.09,-3.04,38.89,-5.58,2.23,26.93,3.81,-1.58,4.52
-6,-9,281,25,-377,3774,-0.37,0.49,22.31,0.25,-3.77,37.74,-5.58,2.22,26.84,3.91,-1.42,6.79
0,-3,303,24,-519,3792,-0.33,0.42,21.93,0.24,-5.19,37.92,-5.59,2.22,26.75,3.78,-1.52,3.48
-7,21,344,42,-442,4002,-0.34,0.51,21.83,0.42,-4.42,40.02,-5.59,2.21,26.66,3.93,-2.02,-1.55
-1,-31,191,-96,-381,3954,-0.31,0.27,20.82,-0.96,-3.81,39.54,-5.59,2.20,26.58,3.80,-0.90,14.73
20,-39,194,50,-418,3971,-0.16,0.00,19.92,0.50,-4.18,39.71,-5.59,2.19,26.50,3.33,-0.65,12.73
10,-56,179,-198,-418,3796,-0.08,-0.34,19.02,-1.98,-4.18,37.96,-5.60,2.21,26.43,3.52,-0.23,12.86
-14,12,199,-339,-654,3707,-0.16,-0.23,18.33,-3.39,-6.54,37.07,-5.61,2.23,26.35,4.03,-1.65,9.23
-31,34,233,-98,-558,3960,-0.33,-0.00,17.92,-0.98,-5.58,39.60,-5.63,2.23,26.28,4.44,-2.16,4.44
-15,17,296,-12,-579,3946,-0.39,0.10,17.93,-0.12,-5.79,39.46,-5.64,2.23,26.21,4.14,-1.84,-3.00
-9,-28,184,-39,-375,3961,-0.41,-0.08,17.26,-0.39,-3.75,39.61,-5.64,2.21,26.14,4.02,-0.87,9.06
9,-25,180,-76,-574,3925,-0.31,-0.22,16.63,-0.76,-5.74,39.25,-5.65,2.21,26.08,3.63,-0.89,8.38
-14,18,296,-117,-302,4049,-0.37,-0.09,16.78,-1.17,-3.02,40.49,-5.64,2.21,26.01,4.10,-1.80,-5.12
1,24,306,-88,-417,3901,-0.32,0.06,16.96,-0.88,-4.17,39.01,-5.64,2.20,25.94,3.79,-1.96,-5.95
-4,-2,339,-40,-267,4049,-0.32,0.05,17.34,-0.40,-2.67,40.49,-5.63,2.20,25.87,3.88,-1.42,-9.18
-3,5,320,-113,-217,3829,-0.30,0.07,17.55,-1.13,-2.17,38.29,-5.61,2.20,25.80,3.85,-1.57,-6.53
-13,-11,341,-55,-258,3881,-0.35,-0.00,17.88,-0.55,-2.58,38.81,-5.59,2.20,25.73,4.05,-1.23,-8.42
-11,-6,370,-204,-522,3908,-0.38,-0.04,18.35,-2.04,-5.22,39.08,-5.61,2.21,25.66,4.03,-1.33,-11.00
-10,18,431,-100,-576,3844,-0.41,0.07,19.14,-1.00,-5.76,38.44,-5.62,2.21,25.58,4.03,-1.85,-16.77
-29,15,478,-15,-494,4085,-0.54,0.16,20.14,-0.15,-4.94,40.85,-5.63,2.21,25.50,4.46,-1.80,-20.00
-8,9,428,-96,-501,3856,-0.54,0.20,20.74,-0.96,-5.01,38.56,-5.65,2.21,25.42,4.04,-1.69,-13.48
-2,5,459,67,-505,3917,-0.50,0.21,21.47,0.67,-5.05,39.17,-5.66,2.20,25.34,3.91,-1.61,-15.82
-7,35,481,-78,-295,4052,-0.49,0.40,22.25,-0.78,-2.95,40.52,-5.64,2.20,25.25,4.00,-2.27,-16.99
-8,-1,504,-3,-349,3903,-0.49,0.35,23.10,-0.03,-3.49,39.03,-5.63,2.19,25.16,4.01,-1.52,-18.15
-15,-12,500,-142,-653,3910,-0.53,0.25,23.84,-1.42,-6.53,39.10,-5.65,2.20,25.06,4.18,-1.28,-16.32
-7,9,520,-60,-473,3636,-0.52,0.28,24.63,-0.60,-4.73,36.36,-5.66,2.20,24.96,4.02,-1.71,-17.24
-7,11,566,22,-287,4118,-0.51,0.32,25.62,0.22,-2.87,41.18,-5.65,2.20,24.86,4.01,-1.76,-20.00
-1,2,530,-85,-336,3896,-0.47,0.30,26.29,-0.85,-3.36,38.96,-5.64,2.20,24.76,3.87,-1.57,-15.38
5,-50,437,-154,-521,4074,-0.39,-0.04,26.33,-1.54,-5.21,40.74,-5.66,2.21,24.65,3.74,-0.43,-4.28
-2,-55,531,-397,-979,3910,-0.36,-0.37,26.93,-3.97,-9.79,39.10,-5.67,2.22,24.55,3.88,-0.25,-14.31
-9,46,498,81,-63,3935,-0.38,-0.05,27.28,0.81,-0.63,39.35,-5.65,2.22,24.44,4.02,-2.39,-9.76
-40,22,502,-397,-742,4174,-0.59,0.09,27.61,-3.97,-7.42,41.74,-5.66,2.24,24.33,4.71,-1.95,-9.62
-4,22,666,25,-240,3622,-0.55,0.21,28.91,0.25,-2.40,36.22,-5.65,2.24,24.21,3.96,-1.98,-20.00
-32,87,626,18,-210,3864,-0.69,0.72,29.84,0.18,-2.10,38.64,-5.64,2.24,24.09,4.56,-3.45,-20.00
-5,-12,599,131,-197,4042,-0.65,0.58,30.51,1.31,-1.97,40.42,-5.62,2.24,23.97,3.99,-1.39,-15.80
23,-43,510,-38,-345,4020,-0.45,0.26,30.57,-0.38,-3.45,40.20,-5.61,2.24,23.85,3.36,-0.67,-5.13
-26,51,663,-7,-260,3680,-0.56,0.54,31.56,-0.07,-2.60,36.80,-5.60,2.24,23.72,4.38,-2.66,-20.00
-12,67,561,85,-196,3984,-0.58,0.90,31.82,0.85,-1.96,39.84,-5.59,2.24,23.60,4.09,-3.09,-8.87
-12,-4,645,-41,-484,4063,-0.59,0.78,32.58,-0.41,-4.84,40.63,-5.59,2.24,23.47,4.10,-1.61,-17.45
-9,6,638,19,-299,3830,-0.59,0.74,33.21,0.19,-2.99,38.30,-5.58,2.24,23.33,4.03,-1.80,-15.45
-22,29,607,-52,-492,3816,-0.66,0.84,33.59,-0.52,-4.92,38.16,-5.60,2.25,23.20,4.32,-2.30,-11.07
-20,75,605,3,-434,3913,-0.72,1.22,33.92,0.03,-4.34,39.13,-5.60,2.25,23.07,4.30,-3.34,-10.22
0,-29,477,53,-365,3983,-0.65,0.92,33.44,0.53,-3.65,39.83,-5.59,2.24,22.93,3.87,-1.14,4.08
16,-82,350,72,-381,4006,-0.49,0.33,32.23,0.72,-3.81,40.06,-5.59,2.24,22.81,3.50,0.10,16.93
-16,50,488,-126,-540,3608,-0.53,0.60,31.99,-1.26,-5.40,36.08,-5.61,2.25,22.68,4.17,-2.67,0.11
-38,113,527,-40,-508,3692,-0.71,1.23,32.00,-0.40,-5.08,36.92,-5.62,2.26,22.55,4.68,-4.12,-4.48
-7,26,433,32,-188,4029,-0.68,1.26,31.44,0.32,-1.88,40.29,-5.60,2.26,22.43,4.03,-2.37,5.65
-7,16,406,-119,-339,3872,-0.66,1.24,30.78,-1.19,-3.39,38.72,-5.59,2.27,22.30,4.01,-2.16,7.63
-7,29,422,-75,-432,3910,-0.64,1.29,30.27,-0.75,-4.32,39.10,-5.59,2.27,22.19,4.01,-2.44,4.81
-20,25,427,94,-443,3811,-0.69,1.31,29.85,0.94,-4.43,38.11,-5.60,2.27,22.07,4.29,-2.36,3.45
-9,7,393,-66,-426,3919,-0.68,1.22,29.26,-0.66,-4.26,39.19,-5.60,2.27,21.95,4.07,-1.97,6.41
-16,16,406,-41,-423,3920,-0.71,1.20,28.81,-0.41,-4.23,39.20,-5.61,2.27,21.84,4.22,-2.15,4.04
-20,8,396,-190,-456,3936,-0.76,1.13,28.35,-1.90,-4.56,39.36,-5.62,2.29,21.73,4.32,-1.98,4.38
-20,3,432,-66,-310,3901,-0.81,1.03,28.15,-0.66,-3.10,39.01,-5.61,2.29,21.61,4.33,-1.86,-0.25
3,16,457,-6,-337,3818,-0.71,1.03,28.12,-0.06,-3.37,38.18,-5.60,2.29,21.50,3.83,-2.12,-3.27
-10,13,447,-149,-320,4033,-0.70,1.00,28.03,-1.49,-3.20,40.33,-5.58,2.30,21.39,4.08,-2.06,-2.23
-1,8,502,-86,-463,3870,-0.63,0.95,28.29,-0.86,-4.63,38.70,-5.60,2.31,21.28,3.89,-1.94,-8.28
-3,20,507,-66,-493,3810,-0.59,0.98,28.56,-0.66,-4.93,38.10,-5.61,2.31,21.16,3.92,-2.20,-8.38
7,1,548,92,-271,3968,-0.49,0.89,29.04,0.92,-2.71,39.68,-5.60,2.31,21.05,3.68,-1.79,-12.35
-7,-1,563,-105,-441,3976,-0.48,0.79,29.57,-1.05,-4.41,39.76,-5.61,2.31,20.93,3.97,-1.72,-13.15
-30,-10,523,51,-291,3860,-0.62,0.65,29.81,0.51,-2.91,38.60,-5.60,2.31,20.81,4.47,-1.50,-7.98
11,9,517,42,-501,3793,-0.49,0.64,29.98,0.42,-5.01,37.93,-5.60,2.31,20.69,3.61,-1.88,-6.95
-24,27,501,140,-365,3880,-0.59,0.74,30.04,1.40,-3.65,38.80,-5.60,2.30,20.57,4.34,-2.27,-4.94
-10,-2,389,-130,-515,4066,-0.59,0.66,29.41,-1.30,-5.15,40.66,-5.62,2.31,20.46,4.07,-1.66,7.19
-13,38,438,116,-506,3767,-0.61,0.82,29.14,1.16,-5.06,37.67,-5.62,2.31,20.34,4.14,-2.52,0.89
-2,23,396,164,-272,4036,-0.56,0.88,28.64,1.64,-2.72,40.36,-5.61,2.31,20.23,3.90,-2.23,4.96
6,-55,433,-37,-673,3750,-0.47,0.46,28.42,-0.37,-6.73,37.50,-5.63,2.31,20.12,3.72,-0.53,0.17
-15,-26,479,146,-455,3740,-0.51,0.25,28.50,1.46,-4.55,37.40,-5.63,2.31,20.00,4.16,-1.06,-5.14
-15,50,497,-91,-417,4227,-0.55,0.53,28.68,-0.91,-4.17,42.27,-5.63,2.30,19.89,4.17,-2.68,-6.94
-21,8,530,-105,-426,4061,-0.62,0.53,29.04,-1.05,-4.26,40.61,-5.63,2.30,19.77,4.32,-1.82,-10.18
-8,-57,518,-213,-451,3887,-0.61,0.13,29.30,-2.13,-4.51,38.87,-5.65,2.32,19.66,4.06,-0.41,-8.28
16,-28,548,-79,-363,3804,-0.45,-0.06,29.71,-0.79,-3.63,38.04,-5.64,2.32,19.54,3.52,-0.94,-11.08
-24,43,554,-146,-623,3756,-0.55,0.21,30.12,-1.46,-6.23,37.56,-5.65,2.33,19.42,4.37,-2.47,-11.04
-27,48,541,-24,-323,3890,-0.66,0.48,30.41,-0.24,-3.23,38.90,-5.64,2.33,19.30,4.46,-2.64,-8.96
1,-17,465,129,-163,4021,-0.59,0.33,30.20,1.29,-1.63,40.21,-5.63,2.32,19.18,3.86,-1.28,-0.32
4,-41,439,44,-182,4020,-0.51,0.05,29.86,0.44,-1.82,40.20,-5.62,2.32,19.06,3.76,-0.71,2.14
18,-43,331,-79,-380,3804,-0.35,-0.22,28.89,-0.79,-3.80,38.04,-5.61,2.32,18.94,3.43,-0.59,13.18
-5,-21,355,-6,-483,3746,-0.34,-0.33,28.17,-0.06,-4.83,37.46,-5.62,2.31,18.83,3.91,-1.01,9.01
-10,41,314,-84,-589,4031,-0.37,-0.04,27.27,-0.84,-5.89,40.31,-5.64,2.31,18.72,4.02,-2.35,12.22
-13,32,337,-136,-669,3938,-0.41,0.16,26.60,-1.36,-6.69,39.38,-5.65,2.32,18.62,4.11,-2.23,8.26
-13,42,395,-13,-391,4036,-0.45,0.40,26.35,-0.13,-3.91,40.36,-5.65,2.32,18.51,4.11,-2.49,0.93
-26,16,382,47,-495,4060,-0.56,0.46,26.04,0.47,-4.95,40.60,-5.65,2.31,18.41,4.41,-1.98,1.91
3,-46,392,-66,-719,3669,-0.49,0.13,25.83,-0.66,-7.19,36.69,-5.67,2.32,18.31,3.81,-0.63,0.34
1,-25,385,159,-383,3772,-0.43,-0.04,25.60,1.59,-3.83,37.72,-5.67,2.31,18.21,3.84,-1.01,0.74
-42,1,463,-75,-751,3827,-0.65,-0.03,25.86,-0.75,-7.51,38.27,-5.68,2.32,18.10,4.78,-1.54,-8.02
-8,31,474,-33,-488,3759,-0.63,0.17,26.17,-0.33,-4.88,37.59,-5.69,2.32,18.00,4.09,-2.20,-8.76
-24,-11,444,63,-441,4004,-0.71,0.08,26.26,0.63,-4.41,40.04,-5.70,2.31,17.90,4.44,-1.32,-5.03
-3,-28,380,-23,-312,4038,-0.66,-0.10,25.95,-0.23,-3.12,40.38,-5.68,2.30,17.79,3.99,-0.92,2.00
-7,-48,313,54,-690,3722,-0.64,-0.38,25.26,0.54,-6.90,37.22,-5.70,2.30,17.69,4.08,-0.44,8.69
-12,14,357,49,-691,3635,-0.65,-0.26,24.92,0.49,-6.91,36.35,-5.71,2.30,17.59,4.19,-1.73,2.83
-30,50,373,73,-394,4096,-0.77,0.07,24.70,0.73,-3.94,40.96,-5.71,2.29,17.50,4.59,-2.55,0.54
-11,-1,328,-69,-506,4145,-0.76,0.06,24.23,-0.69,-5.06,41.45,-5.72,2.29,17.40,4.21,-1.51,5.02
-10,-49,298,-136,-281,3788,-0.74,-0.24,23.62,-1.36,-2.81,37.88,-5.70,2.29,17.30,4.17,-0.45,7.47
-9,-16,269,-199,-483,3956,-0.72,-0.32,22.90,-1.99,-4.83,39.56,-5.72,2.31,17.21,4.15,-1.11,9.59
-14,31,352,49,-439,3791,-0.74,-0.10,22.76,0.49,-4.39,37.91,-5.72,2.30,17.12,4.26,-2.12,-0.51
-12,50,362,93,-492,3910,-0.73,0.22,22.69,0.93,-4.92,39.10,-5.73,2.29,17.03,4.23,-2.59,-1.82
-25,31,324,-141,-251,4023,-0.81,0.39,22.40,-1.41,-2.51,40.23,-5.71,2.30,16.94,4.50,-2.25,2.15
-2,20,297,-87,-266,3933,-0.74,0.47,21.97,-0.87,-2.66,39.33,-5.69,2.30,16.86,4.00,-2.05,4.57
31,-73,266,-5,-329,4021,-0.48,-0.02,21.40,-0.05,-3.29,40.21,-5.69,2.29,16.77,3.25,-0.02,7.20
16,-70,273,0,-442,3775,-0.34,-0.45,20.92,0.00,-4.42,37.75,-5.69,2.28,16.69,3.52,0.04,5.50
-26,34,389,112,-465,3750,-0.46,-0.20,21.20,1.12,-4.65,37.50,-5.70,2.27,16.60,4.41,-2.14,-7.74
-18,57,363,58,-123,3851,-0.52,0.17,21.30,0.58,-1.23,38.51,-5.68,2.27,16.52,4.26,-2.71,-4.48
5,-47,400,58,-196,4213,-0.44,-0.13,21.61,0.58,-1.96,42.13,-5.67,2.27,16.43,3.76,-0.50,-8.30
42,-131,255,-40,-385,4036,-0.14,-0.92,21.00,-0.40,-3.85,40.36,-5.66,2.25,16.35,2.92,1.43,7.79
30,-158,204,-36,-499,3788,0.06,-1.79,20.15,-0.36,-4.99,37.88,-5.67,2.24,16.27,3.12,2.22,12.27
27,-136,195,13,-448,3829,0.22,-2.44,19.32,0.13,-4.48,38.29,-5.67,2.22,16.19,3.14,1.96,11.83
-44,108,618,369,-703,3544,-0.07,-1.54,21.16,3.69,-7.03,35.44,-5.68,2.21,16.10,4.66,-3.24,-20.00
-89,174,673,297,-751,3622,-0.61,-0.32,23.15,2.97,-7.51,36.22,-5.69,2.20,16.01,5.73,-4.91,-20.00
-22,105,623,39,-475,3838,-0.68,0.35,24.63,0.39,-4.75,38.38,-5.70,2.20,15.91,4.40,-3.68,-20.00
3,22,595,52,-278,4170,-0.60,0.45,25.80,0.52,-2.78,41.70,-5.69,2.20,15.81,3.86,-2.02,-20.00
-7,6,528,-72,-366,3915,-0.58,0.44,26.44,-0.72,-3.66,39.15,-5.68,2.19,15.71,4.05,-1.69,-14.59
-21,30,530,-18,-432,3754,-0.65,0.58,27.03,-0.18,-4.32,37.54,-5.69,2.19,15.60,4.36,-2.21,-13.75
-17,26,510,5,-323,3943,-0.69,0.68,27.44,0.05,-3.23,39.43,-5.68,2.18,15.49,4.28,-2.16,-10.62
-7,3,524,76,-461,3912,-0.66,0.63,27.89,0.76,-4.61,39.12,-5.68,2.18,15.38,4.07,-1.67,-11.45
-3,22,523,-28,-296,3983,-0.61,0.70,28.29,-0.28,-2.96,39.83,-5.67,2.18,15.27,3.97,-2.08,-10.59
-4,1,497,-93,-321,3996,-0.58,0.64,28.49,-0.93,-3.21,39.96,-5.65,2.18,15.15,3.97,-1.63,-7.13
65,-155,341,-137,-380,4166,-0.12,-0.37,27.72,-1.37,-3.80,41.66,-5.63,2.18,15.04,2.43,1.81,9.96
55,-177,341,-162,-746,3769,0.22,-1.41,27.03,-1.62,-7.46,37.69,-5.65,2.19,14.93,2.55,2.54,8.70
-59,177,678,-169,-679,3574,-0.16,-0.19,28.46,-1.69,-6.79,35.74,-5.66,2.20,14.82,4.98,-5.00,-20.00
-105,210,735,88,-714,3751,-0.78,1.11,30.10,0.88,-7.14,37.51,-5.67,2.21,14.70,6.09,-6.03,-20.00
-45,142,793,-125,-403,4210,-0.98,1.86,31.93,-1.25,-4.03,42.10,-5.67,2.21,14.58,4.92,-4.85,-20.00
-40,87,767,-167,-361,4103,-1.12,2.21,33.41,-1.67,-3.61,41.03,-5.65,2.23,14.44,4.85,-3.84,-20.00
1,-55,683,-14,-441,3965,-1.01,1.65,34.24,-0.14,-4.41,39.65,-5.65,2.24,14.31,3.99,-0.81,-18.63
-14,8,660,-71,-576,3553,-0.99,1.53,34.84,-0.71,-5.76,35.53,-5.67,2.25,14.17,4.30,-2.07,-14.79
-17,70,687,28,-596,3864,-1.00,1.81,35.55,0.28,-5.96,38.64,-5.68,2.26,14.03,4.37,-3.41,-16.70
-4,53,700,-149,-474,4173,-0.92,1.95,36.26,-1.49,-4.74,41.73,-5.70,2.28,13.89,4.09,-3.11,-16.92
1,-21,687,-138,-552,3724,-0.82,1.63,36.83,-1.38,-5.52,37.24,-5.71,2.30,13.74,3.97,-1.53,-14.34
-11,-4,698,-108,-350,3745,-0.81,1.44,37.40,-1.08,-3.50,37.45,-5.70,2.30,13.59,4.21,-1.83,-14.58
-2,81,658,-178,-481,4084,-0.74,1.79,37.68,-1.78,-4.81,40.84,-5.72,2.33,13.44,4.01,-3.67,-9.33
-39,49,654,-166,-643,3848,-0.90,1.91,37.90,-1.66,-6.43,38.48,-5.73,2.35,13.29,4.82,-3.07,-8.45
-27,101,596,-64,-295,3837,-0.98,2.34,37.74,-0.64,-2.95,38.37,-5.72,2.36,13.14,4.59,-4.25,-1.85
-11,81,507,-14,-329,4074,-0.95,2.60,37.06,-0.14,-3.29,40.74,-5.71,2.37,13.00,4.25,-3.92,7.46
-7,36,421,-105,-335,3889,-0.89,2.56,35.92,-1.05,-3.35,38.89,-5.69,2.38,12.85,4.14,-3.00,15.58
-2,53,405,-41,-570,3882,-0.82,2.62,34.80,-0.41,-5.70,38.82,-5.70,2.40,12.72,4.03,-3.37,15.42
-11,36,377,-172,-366,4054,-0.80,2.58,33.62,-1.72,-3.66,40.54,-5.68,2.42,12.58,4.19,-3.03,16.58
-4,31,373,-230,-298,3959,-0.75,2.51,32.53,-2.30,-2.98,39.59,-5.67,2.45,12.45,4.02,-2.93,15.07
3,44,420,-142,-358,3932,-0.65,2.53,31.84,-1.42,-3.58,39.32,-5.65,2.46,12.33,3.85,-3.21,8.23
-5,34,407,-8,-325,3898,-0.62,2.48,31.14,-0.08,-3.25,38.98,-5.64,2.47,12.20,3.99,-3.00,8.49
-12,24,408,70,-535,3769,-0.63,2.38,30.52,0.70,-5.35,37.69,-5.65,2.48,12.08,4.14,-2.77,7.22
-14,25,398,121,-372,4021,-0.65,2.30,29.89,1.21,-3.72,40.21,-5.64,2.48,11.97,4.19,-2.77,7.27
-13,-3,341,193,-553,3943,-0.67,2.05,28.98,1.93,-5.53,39.43,-5.65,2.48,11.85,4.17,-2.13,12.37
-13,-15,306,207,-444,3949,-0.68,1.75,27.95,2.07,-4.44,39.49,-5.65,2.48,11.74,4.18,-1.81,14.63
1,6,343,170,-655,4054,-0.61,1.61,27.25,1.70,-6.55,40.54,-5.66,2.48,11.63,3.88,-2.20,8.95
-11,19,345,160,-641,3730,-0.61,1.57,26.63,1.60,-6.41,37.30,-5.67,2.49,11.53,4.13,-2.45,7.58
7,25,299,55,-376,3826,-0.51,1.56,25.79,0.55,-3.76,38.26,-5.66,2.48,11.43,3.73,-2.57,11.50
-5,16,286,-77,-485,4031,-0.49,1.50,24.96,-0.77,-4.85,40.31,-5.67,2.49,11.33,3.98,-2.38,11.52
-5,31,248,-238,-522,3875,-0.47,1.54,23.97,-2.38,-5.22,38.75,-5.69,2.51,11.23,3.98,-2.71,14.22
1,-13,209,-169,-83,4118,-0.42,1.31,22.85,-1.69,-0.83,41.18,-5.67,2.52,11.14,3.83,-1.76,16.79
0,-17,57,-147,-421,3880,-0.37,1.08,20.91,-1.47,-4.21,38.80,-5.68,2.52,11.06,3.85,-1.61,20.00
-4,-12,51,-110,-416,3862,-0.36,0.89,19.13,-1.10,-4.16,38.62,-5.69,2.52,10.98,3.93,-1.66,20.00
-9,-22,52,-23,-449,3923,-0.38,0.67,17.54,-0.23,-4.49,39.23,-5.69,2.51,10.92,4.04,-1.39,20.00
-8,-25,52,-20,-449,3889,-0.39,0.45,16.10,-0.20,-4.49,38.89,-5.70,2.50,10.85,4.03,-1.27,20.00
-14,50,186,93,-1243,3686,-0.44,0.71,15.62,0.93,-12.43,36.86,-5.71,2.51,10.79,4.18,-2.87,6.28
-15,23,390,90,-837,3976,-0.49,0.78,16.44,0.90,-8.37,39.76,-5.73,2.51,10.73,4.22,-2.34,-16.42
-10,-8,332,-160,-108,3868,-0.50,0.65,16.82,-1.60,-1.08,38.68,-5.71,2.52,10.66,4.11,-1.68,-8.84
-5,6,271,-133,-119,3787,-0.48,0.62,16.79,-1.33,-1.19,37.87,-5.69,2.52,10.59,3.99,-1.96,-1.66
-13,-23,147,-139,-370,3963,-0.51,0.42,16.01,-1.39,-3.70,39.63,-5.68,2.52,10.53,4.15,-1.31,11.62
-12,-32,120,-60,-392,3915,-0.53,0.18,15.14,-0.60,-3.92,39.15,-5.68,2.50,10.47,4.14,-1.05,13.23
-7,-29,145,-52,-493,3995,-0.52,-0.01,14.51,-0.52,-4.93,39.95,-5.69,2.50,10.41,4.04,-1.05,9.11
-4,-11,148,-68,-511,3902,-0.49,-0.08,13.96,-0.68,-5.11,39.02,-5.70,2.49,10.35,3.98,-1.40,7.75
0,1,132,-386,-423,3942,-0.44,-0.06,13.37,-3.86,-4.23,39.42,-5.71,2.51,10.30,3.89,-1.66,8.57
8,-8,107,-336,-394,3996,-0.35,-0.11,12.69,-3.36,-3.94,39.96,-5.70,2.54,10.25,3.70,-1.48,10.28
9,2,-5,7,-734,3832,-0.26,-0.08,11.39,0.07,-7.34,38.32,-5.72,2.53,10.21,3.66,-1.69,20.00
-1,-9,-42,-75,-472,3935,-0.24,-0.13,9.99,-0.75,-4.72,39.35,-5.73,2.52,10.17,3.87,-1.44,20.00
-7,-11,-101,-759,-364,3879,-0.26,-0.18,8.38,-7.59,-3.64,38.79,-5.73,2.54,10.13,3.99,-1.40,20.00
5,-8,-141,-605,-407,4069,-0.20,-0.21,6.68,-6.05,-4.07,40.69,-5.73,2.56,10.11,3.73,-1.47,20.00
-5,-23,-293,-320,-285,3941,-0.21,-0.33,4.22,-3.20,-2.85,39.41,-5.72,2.58,10.09,3.93,-1.14,20.00
13,31,-269,705,507,3905,-0.11,-0.11,2.16,7.05,5.07,39.05,-5.70,2.56,10.08,3.53,-2.29,20.00
13,11,5,692,-80,3976,-0.02,-0.03,1.98,6.92,-0.80,39.76,-5.70,2.55,10.07,3.50,-1.90,2.73
3,-8,34,539,-235,3822,-0.00,-0.08,1.99,5.39,-2.35,38.22,-5.69,2.53,10.06,3.70,-1.49,-0.69
2,-11,98,-90,-525,3804,0.01,-0.14,2.38,-0.90,-5.25,38.04,-5.71,2.52,10.05,3.72,-1.40,-7.55
-11,-7,137,-42,-499,3813,-0.06,-0.17,2.98,-0.42,-4.99,38.13,-5.72,2.51,10.04,4.02,-1.47,-11.08
8,6,114,-85,-776,3989,-0.00,-0.11,3.38,-0.85,-7.76,39.89,-5.74,2.50,10.03,3.63,-1.74,-7.62
8,30,63,-37,-685,3846,0.05,0.08,3.43,-0.37,-6.85,38.46,-5.75,2.50,10.02,3.62,-2.28,-1.49
11,32,14,-96,-471,3893,0.11,0.27,3.17,-0.96,-4.71,38.93,-5.77,2.49,10.01,3.55,-2.37,3.85
9,29,-1,-28,-532,3801,0.15,0.42,2.85,-0.28,-5.32,38.01,-5.78,2.48,9.99,3.59,-2.34,5.04
-4,12,-26,-33,-554,3896,0.11,0.45,2.40,-0.33,-5.54,38.96,-5.79,2.47,9.99,3.87,-2.00,7.19
5,23,-36,3,-569,3931,0.13,0.55,1.94,0.03,-5.69,39.31,-5.80,2.46,9.98,3.69,-2.24,7.53
1,22,-74,-49,-456,3919,0.13,0.62,1.30,-0.49,-4.56,39.19,-5.81,2.45,9.97,3.78,-2.23,10.86
5,31,-68,-21,-465,3915,0.14,0.75,0.75,-0.21,-4.65,39.15,-5.82,2.43,9.97,3.70,-2.44,9.15
9,27,-86,161,-639,3849,0.18,0.84,0.15,1.61,-6.39,38.49,-5.83,2.42,9.97,3.61,-2.38,10.18
11,32,-78,68,-486,3942,0.23,0.95,-0.34,0.68,-4.86,39.42,-5.83,2.41,9.97,3.56,-2.50,8.33
7,24,-64,101,-520,3872,0.25,1.00,-0.70,1.01,-5.20,38.72,-5.84,2.39,9.98,3.64,-2.34,6.02
16,23,-56,-11,-377,3876,0.32,1.04,-0.97,-0.11,-3.77,38.76,-5.84,2.38,9.98,3.44,-2.32,4.57
-6,-3,-30,-80,-424,3846,0.26,0.92,-1.05,-0.80,-4.24,38.46,-5.84,2.37,9.99,3.91,-1.75,1.33
-3,-7,-13,-135,-400,3810,0.21,0.79,-1.03,-1.35,-4.00,38.10,-5.85,2.35,9.99,3.86,-1.62,-0.64
-3,12,190,333,-240,3843,0.17,0.78,0.23,3.33,-2.40,38.43,-5.84,2.34,9.99,3.87,-2.00,-20.00
-8,19,268,294,-281,3942,0.11,0.82,1.85,2.94,-2.81,39.42,-5.84,2.32,9.98,3.99,-2.14,-20.00
4,23,472,-11,-334,4090,0.12,0.88,4.54,-0.11,-3.34,40.90,-5.83,2.31,9.97,3.73,-2.23,-20.00
-4,10,498,-24,-338,4036,0.08,0.85,7.12,-0.24,-3.38,40.36,-5.82,2.30,9.94,3.90,-1.96,-20.00
-20,-5,535,-166,-514,3821,-0.05,0.73,9.68,-1.66,-5.14,38.21,-5.83,2.31,9.90,4.27,-1.62,-20.00
-13,14,522,-142,-589,3852,-0.12,0.75,11.89,-1.42,-5.89,38.52,-5.85,2.32,9.85,4.16,-2.02,-20.00
-16,-5,455,-32,-664,3846,-0.21,0.64,13.48,-0.32,-6.64,38.46,-5.87,2.32,9.80,4.25,-1.60,-20.00
-15,11,474,-23,-775,3959,-0.28,0.64,15.02,-0.23,-7.75,39.59,-5.88,2.32,9.74,4.26,-1.93,-20.00
-2,13,432,46,-640,3885,-0.26,0.66,16.15,0.46,-6.40,38.85,-5.90,2.32,9.68,4.00,-1.97,-20.00
-9,12,428,132,-626,3830,-0.29,0.67,17.15,1.32,-6.26,38.30,-5.90,2.31,9.61,4.16,-1.95,-19.59
11,36,530,114,-750,3788,-0.19,0.82,18.67,1.14,-7.50,37.88,-5.92,2.31,9.54,3.73,-2.48,-20.00
-5,16,549,-25,-516,4188,-0.21,0.84,20.15,-0.25,-5.16,41.88,-5.92,2.31,9.46,4.07,-2.08,-20.00
-12,30,630,-66,-563,4066,-0.26,0.93,21.98,-0.66,-5.63,40.66,-5.94,2.31,9.37,4.23,-2.39,-20.00
-7,14,668,-108,-474,3988,-0.28,0.93,23.86,-1.08,-4.74,39.88,-5.95,2.31,9.28,4.14,-2.06,-20.00
-6,12,648,-115,-317,3930,-0.28,0.91,25.42,-1.15,-3.17,39.30,-5.93,2.32,9.18,4.11,-2.02,-20.00
-14,8,637,-156,-324,3834,-0.34,0.87,26.77,-1.56,-3.24,38.34,-5.91,2.33,9.07,4.28,-1.94,-20.00
-9,-8,570,-151,-356,3922,-0.36,0.73,27.57,-1.51,-3.56,39.22,-5.89,2.34,8.96,4.17,-1.58,-17.31
-26,-4,534,-186,-407,3846,-0.48,0.63,28.07,-1.86,-4.07,38.46,-5.89,2.38,8.85,4.55,-1.66,-12.12
1,-9,488,-74,-466,4075,-0.43,0.51,28.24,-0.74,-4.66,40.75,-5.89,2.37,8.74,3.99,-1.52,-6.34
-12,10,497,-63,-484,3719,-0.46,0.52,28.45,-0.63,-4.84,37.19,-5.90,2.37,8.62,4.27,-1.91,-7.03
-16,-2,477,93,-201,3942,-0.51,0.46,28.51,0.93,-2.01,39.42,-5.89,2.37,8.51,4.35,-1.65,-4.53
22,4,458,62,-333,3699,-0.33,0.44,28.45,0.62,-3.33,36.99,-5.88,2.37,8.40,3.52,-1.76,-2.38
-3,19,432,60,-669,3866,-0.31,0.51,28.24,0.60,-6.69,38.66,-5.89,2.37,8.28,4.04,-2.09,0.32
-23,17,443,-3,-562,3958,-0.42,0.56,28.12,-0.03,-5.62,39.58,-5.90,2.37,8.17,4.48,-2.06,-1.20
-8,21,533,33,-634,3962,-0.43,0.63,28.56,0.33,-6.34,39.62,-5.91,2.37,8.06,4.18,-2.17,-11.07
6,21,557,16,-670,3791,-0.35,0.70,29.10,0.16,-6.70,37.91,-5.93,2.38,7.94,3.88,-2.19,-12.92
-7,16,579,-195,-484,3855,-0.36,0.73,29.72,-1.95,-4.84,38.55,-5.94,2.40,7.83,4.16,-2.11,-14.38
5,4,545,-232,-309,4056,-0.29,0.68,30.08,-2.32,-3.09,40.56,-5.92,2.42,7.71,3.88,-1.87,-9.70
-1,-14,498,-152,-150,4076,-0.27,0.53,30.11,-1.52,-1.50,40.76,-5.90,2.44,7.59,3.99,-1.47,-4.07
-16,8,457,-321,-224,3752,-0.34,0.52,29.88,-3.21,-2.24,37.52,-5.88,2.46,7.47,4.30,-1.93,0.39
-13,7,433,-236,-458,3794,-0.38,0.51,29.54,-2.36,-4.58,37.94,-5.89,2.49,7.35,4.26,-1.93,2.60
-3,22,434,-74,-475,3886,-0.36,0.60,29.23,-0.74,-4.75,38.86,-5.90,2.49,7.24,4.05,-2.25,1.93
6,28,377,-91,-143,3978,-0.29,0.71,28.61,-0.91,-1.43,39.78,-5.88,2.50,7.12,3.84,-2.41,7.55
0,21,408,-130,-236,3975,-0.26,0.76,28.23,-1.30,-2.36,39.75,-5.85,2.51,7.01,3.94,-2.29,3.19
-14,12,474,-26,-501,3958,-0.32,0.76,28.30,-0.26,-5.01,39.58,-5.86,2.51,6.90,4.24,-2.11,-4.51
-6,13,468,-28,-430,3864,-0.33,0.76,28.33,-0.28,-4.30,38.64,-5.86,2.51,6.78,4.08,-2.13,-3.75
-8,10,535,-90,-514,3853,-0.34,0.75,28.76,-0.90,-5.14,38.53,-5.87,2.51,6.67,4.13,-2.07,-10.90
-10,4,478,-94,-402,3823,-0.37,0.70,28.80,-0.94,-4.02,38.23,-5.87,2.51,6.56,4.18,-1.93,-4.06
-5,4,430,74,-379,3856,-0.36,0.65,28.54,0.74,-3.79,38.56,-5.87,2.50,6.44,4.07,-1.91,1.16
-7,-13,414,11,-446,3966,-0.37,0.51,28.21,0.11,-4.46,39.66,-5.87,2.50,6.33,4.12,-1.52,2.46
-12,-14,402,16,-507,3997,-0.40,0.37,27.84,0.16,-5.07,39.97,-5.87,2.50,6.22,4.23,-1.46,3.21
-7,-6,392,-42,-455,3858,-0.41,0.30,27.45,-0.42,-4.55,38.58,-5.88,2.49,6.11,4.13,-1.60,3.68
3,23,368,-207,-406,3869,-0.35,0.41,26.95,-2.07,-4.06,38.69,-5.88,2.52,6.00,3.91,-2.24,5.61
-2,17,382,-216,-488,3865,-0.33,0.47,26.59,-2.16,-4.88,38.65,-5.89,2.54,5.90,4.02,-2.15,3.28
-3,8,319,-135,-348,3837,-0.31,0.47,25.87,-1.35,-3.48,38.37,-5.87,2.54,5.80,4.02,-1.97,9.45
-5,13,310,-160,-490,3851,-0.31,0.51,25.18,-1.60,-4.90,38.51,-5.89,2.55,5.70,4.07,-2.09,9.24
-11,1,372,-36,-619,3928,-0.35,0.46,24.93,-0.36,-6.19,39.28,-5.90,2.56,5.60,4.21,-1.83,1.44
-9,3,394,53,-623,3820,-0.37,0.43,24.84,0.53,-6.23,38.20,-5.91,2.56,5.50,4.18,-1.87,-1.33
-15,-1,376,-48,-514,3896,-0.42,0.38,24.65,-0.48,-5.14,38.96,-5.92,2.55,5.40,4.33,-1.77,0.46
-13,-2,392,-26,-498,3958,-0.46,0.33,24.57,-0.26,-4.98,39.58,-5.93,2.55,5.30,4.30,-1.73,-1.57
-15,-3,404,4,-625,3920,-0.50,0.28,24.58,0.04,-6.25,39.20,-5.94,2.55,5.21,4.36,-1.70,-2.98
-7,-4,399,59,-526,3932,-0.50,0.23,24.56,0.59,-5.26,39.32,-5.94,2.54,5.11,4.20,-1.66,-2.43
-22,0,450,-142,-519,3964,-0.58,0.21,24.85,-1.42,-5.19,39.64,-5.96,2.55,5.01,4.54,-1.74,-7.95
2,6,442,-109,-382,4033,-0.51,0.22,25.06,-1.09,-3.82,40.33,-5.95,2.54,4.91,4.02,-1.86,-6.61
5,3,423,-37,-287,4003,-0.43,0.22,25.13,-0.37,-2.87,40.03,-5.93,2.54,4.81,3.93,-1.80,-4.21
-5,4,388,62,-290,3698,-0.42,0.22,24.99,0.62,-2.90,36.98,-5.92,2.54,4.71,4.12,-1.82,-0.33
-9,19,400,-62,-673,3730,-0.43,0.31,24.93,-0.62,-6.73,37.30,-5.94,2.54,4.61,4.22,-2.15,-1.85
-6,20,413,27,-569,3949,-0.42,0.41,24.95,0.27,-5.69,39.49,-5.95,2.54,4.51,4.16,-2.19,-3.34
-5,6,404,-50,-420,3874,-0.41,0.40,24.92,-0.50,-4.20,38.74,-5.95,2.53,4.42,4.14,-1.90,-2.33
-13,-11,396,21,-463,3869,-0.45,0.29,24.85,0.21,-4.63,38.69,-5.95,2.53,4.32,4.31,-1.52,-1.52
1,-4,407,-102,-463,3952,-0.40,0.24,24.84,-1.02,-4.63,39.52,-5.96,2.52,4.22,4.02,-1.65,-2.83
-19,3,407,-115,-509,3841,-0.47,0.23,24.84,-1.15,-5.09,38.41,-5.97,2.53,4.12,4.46,-1.79,-2.83
-11,5,398,-33,-507,3702,-0.49,0.24,24.79,-0.33,-5.07,37.02,-5.98,2.52,4.02,4.30,-1.83,-1.86
-4,15,440,-238,-567,3918,-0.47,0.31,24.99,-2.38,-5.67,39.18,-5.99,2.54,3.92,4.17,-2.07,-6.46
-6,4,497,-130,-338,4094,-0.46,0.30,25.52,-1.30,-3.38,40.94,-5.98,2.54,3.82,4.19,-1.84,-12.24
-14,-1,516,-97,-367,3852,-0.50,0.27,26.12,-0.97,-3.67,38.52,-5.96,2.54,3.72,4.36,-1.73,-13.40
-8,15,503,-4,-400,3912,-0.50,0.33,26.58,-0.04,-4.00,39.12,-5.96,2.53,3.61,4.23,-2.07,-11.02
-8,7,522,-40,-488,3840,-0.50,0.34,27.10,-0.40,-4.88,38.40,-5.97,2.53,3.50,4.24,-1.91,-12.30
12,6,556,55,-703,3876,-0.37,0.34,27.78,0.55,-7.03,38.76,-5.98,2.53,3.39,3.80,-1.89,-15.08
-25,-6,502,32,-694,4099,-0.49,0.27,28.07,0.32,-6.94,40.99,-5.99,2.53,3.28,4.60,-1.62,-8.15
-3,-5,501,217,-564,3915,-0.46,0.21,28.32,2.17,-5.64,39.15,-5.99,2.53,3.17,4.14,-1.63,-7.57
-3,-3,512,121,-519,3822,-0.43,0.17,28.61,1.21,-5.19,38.22,-6.00,2.53,3.06,4.14,-1.65,-8.34
0,0,494,28,-420,3743,-0.39,0.16,28.76,0.28,-4.20,37.43,-6.00,2.52,2.94,4.06,-1.71,-5.92
-9,21,474,-46,-467,3916,-0.40,0.27,28.78,-0.46,-4.67,39.16,-6.00,2.52,2.83,4.25,-2.16,-3.52
1,-31,324,-29,-325,3921,-0.36,0.05,27.88,-0.29,-3.25,39.21,-5.99,2.51,2.72,4.03,-1.04,12.62
-5,0,312,-50,-470,3681,-0.35,0.05,26.99,-0.50,-4.70,36.81,-6.00,2.51,2.61,4.15,-1.67,12.43
-14,42,458,-167,-584,4028,-0.40,0.30,27.09,-1.67,-5.84,40.28,-6.01,2.52,2.50,4.36,-2.60,-4.71
-9,57,561,-16,-485,3777,-0.42,0.62,27.80,-0.16,-4.85,37.77,-6.02,2.52,2.39,4.27,-2.99,-15.62
-3,22,554,19,-367,3785,-0.39,0.69,28.40,0.19,-3.67,37.85,-6.01,2.52,2.28,4.13,-2.30,-13.68
5,5,520,31,-470,3809,-0.32,0.65,28.73,0.31,-4.70,38.09,-6.01,2.51,2.17,3.95,-1.94,-9.04
-4,1,367,152,-401,3807,-0.32,0.59,28.10,1.52,-4.01,38.07,-6.01,2.51,2.06,4.13,-1.84,7.95
-5,13,378,152,-420,3969,-0.31,0.61,27.59,1.52,-4.20,39.69,-6.01,2.50,1.95,4.15,-2.08,5.72
4,18,376,44,-532,3875,-0.26,0.66,27.13,0.44,-5.32,38.75,-6.01,2.50,1.84,3.96,-2.20,5.11
-30,-9,367,-55,-493,3955,-0.42,0.54,26.65,-0.55,-4.93,39.55,-6.02,2.50,1.73,4.70,-1.61,5.31
-9,13,452,-106,-608,4017,-0.43,0.57,26.74,-1.06,-6.08,40.17,-6.03,2.51,1.63,4.28,-2.07,-4.60
-8,14,447,-168,-492,3913,-0.44,0.59,26.80,-1.68,-4.92,39.13,-6.05,2.52,1.52,4.27,-2.11,-3.91
3,37,403,-93,-334,3805,-0.37,0.76,26.58,-0.93,-3.34,38.05,-6.03,2.52,1.42,4.02,-2.62,0.91
2,18,378,61,-461,3926,-0.32,0.79,26.22,0.61,-4.61,39.26,-6.03,2.52,1.31,4.03,-2.24,3.23
-5,12,327,-210,-279,3940,-0.32,0.79,25.60,-2.10,-2.79,39.40,-6.01,2.53,1.21,4.16,-2.13,8.13
-6,7,315,-211,-275,3874,-0.33,0.75,24.96,-2.11,-2.75,38.74,-5.99,2.55,1.11,4.16,-2.03,8.39
1,3,216,-61,-240,3900,-0.29,0.69,23.78,-0.61,-2.40,39.00,-5.97,2.56,1.01,4.00,-1.94,17.97
3,0,197,-108,-281,3905,-0.24,0.63,22.60,-1.08,-2.81,39.05,-5.95,2.56,0.92,3.93,-1.86,18.07
-4,-2,203,-18,-578,3856,-0.24,0.55,21.58,-0.18,-5.78,38.56,-5.96,2.56,0.84,4.08,-1.80,15.49
-7,5,235,6,-551,3885,-0.26,0.53,20.86,0.06,-5.51,38.85,-5.97,2.55,0.76,4.15,-1.93,10.36
-2,7,291,136,-579,3882,-0.25,0.52,20.55,1.36,-5.79,38.82,-5.98,2.55,0.68,4.05,-1.97,3.15
-3,17,309,61,-534,3877,-0.24,0.57,20.38,0.61,-5.34,38.77,-5.98,2.54,0.59,4.08,-2.18,0.71
-10,14,314,-3,-427,3863,-0.28,0.60,20.25,-0.03,-4.27,38.63,-5.98,2.54,0.51,4.23,-2.12,-0.10
-9,9,305,-104,-530,3874,-0.30,0.59,20.09,-1.04,-5.30,38.74,-6.00,2.54,0.44,4.22,-2.02,0.66
-15,5,322,-105,-405,3931,-0.36,0.56,20.04,-1.05,-4.05,39.31,-5.99,2.53,0.36,4.36,-1.93,-1.43
-4,2,341,-20,-427,3885,-0.35,0.52,20.12,-0.20,-4.27,38.85,-5.99,2.52,0.28,4.13,-1.85,-3.55
-7,3,354,185,-459,3876,-0.36,0.49,20.27,1.85,-4.59,38.76,-6.00,2.52,0.20,4.20,-1.85,-4.81
-2,17,359,37,-398,3920,-0.34,0.54,20.43,0.37,-3.98,39.20,-5.99,2.51,0.11,4.09,-2.15,-5.11
4,7,327,-98,-404,3867,-0.28,0.53,20.38,-0.98,-4.04,38.67,-5.99,2.50,0.03,3.95,-1.94,-1.40
3,21,337,-128,-492,3917,-0.23,0.60,20.40,-1.28,-4.92,39.17,-6.00,2.50,-0.05,3.96,-2.24,-2.55
-3,16,361,4,-359,3785,-0.23,0.64,20.56,0.04,-3.59,37.85,-6.00,2.50,-0.13,4.08,-2.15,-5.09
-4,10,347,-16,-468,3914,-0.23,0.64,20.62,-0.16,-4.68,39.14,-6.00,2.49,-0.21,4.10,-2.02,-3.32
4,11,378,37,-498,3938,-0.18,0.64,20.87,0.37,-4.98,39.38,-6.00,2.48,-0.29,3.93,-2.04,-6.55
-8,4,419,49,-690,3874,-0.21,0.60,21.34,0.49,-6.90,38.74,-6.01,2.48,-0.38,4.19,-1.88,-10.55
-6,-3,473,-51,-550,3899,-0.23,0.52,22.09,-0.51,-5.50,38.99,-6.03,2.48,-0.46,4.16,-1.72,-15.57
-3,10,504,51,-477,3832,-0.22,0.53,22.95,0.51,-4.77,38.32,-6.03,2.48,-0.55,4.10,-1.98,-17.66
-14,1,537,-13,-479,3922,-0.29,0.49,23.93,-0.13,-4.79,39.22,-6.03,2.47,-0.65,4.34,-1.78,-19.77
-4,2,526,-37,-425,3886,-0.28,0.45,24.75,-0.37,-4.25,38.86,-6.03,2.47,-0.75,4.14,-1.79,-16.97
-9,4,495,-14,-470,3888,-0.31,0.43,25.29,-0.14,-4.70,38.88,-6.03,2.46,-0.85,4.25,-1.82,-12.29
-18,-5,495,27,-484,3878,-0.39,0.35,25.78,0.27,-4.84,38.78,-6.04,2.46,-0.95,4.46,-1.62,-11.39
5,10,502,0,-471,3823,-0.32,0.38,26.27,0.00,-4.71,38.23,-6.04,2.45,-1.05,3.97,-1.93,-11.33
-3,23,519,-131,-483,3817,-0.30,0.48,26.81,-1.31,-4.83,38.17,-6.06,2.46,-1.16,4.14,-2.22,-12.35
-4,21,561,10,-375,3923,-0.30,0.56,27.55,0.10,-3.75,39.23,-6.05,2.45,-1.27,4.15,-2.20,-15.97
-18,0,533,-124,-480,3845,-0.38,0.51,28.04,-1.24,-4.80,38.45,-6.06,2.46,-1.38,4.47,-1.76,-11.73
2,22,683,160,-718,3635,-0.33,0.59,29.41,1.60,-7.18,36.35,-6.07,2.46,-1.50,4.06,-2.23,-20.00
-25,32,713,163,-647,3807,-0.45,0.73,30.81,1.63,-6.47,38.07,-6.08,2.46,-1.62,4.64,-2.47,-20.00
-6,25,768,73,-540,3876,-0.44,0.81,32.42,0.73,-5.40,38.76,-6.08,2.46,-1.75,4.26,-2.35,-20.00
-3,20,772,17,-495,3917,-0.41,0.85,33.89,0.17,-4.95,39.17,-6.08,2.46,-1.88,4.19,-2.26,-20.00
-8,20,714,-152,-425,3796,-0.42,0.88,34.85,-1.52,-4.25,37.96,-6.10,2.47,-2.02,4.30,-2.28,-20.00
-7,3,692,-44,-374,3943,-0.42,0.81,35.59,-0.44,-3.74,39.43,-6.09,2.47,-2.16,4.27,-1.92,-16.73
-18,6,669,107,-494,3787,-0.49,0.77,36.11,1.07,-4.94,37.87,-6.09,2.47,-2.30,4.52,-1.97,-13.04
-20,19,669,98,-512,3961,-0.56,0.81,36.58,0.98,-5.12,39.61,-6.09,2.48,-2.45,4.58,-2.24,-12.17
-10,32,668,15,-425,4056,-0.57,0.92,37.00,0.15,-4.25,40.56,-6.08,2.48,-2.60,4.37,-2.54,-11.29
-18,3,652,-13,-414,3821,-0.62,0.85,37.27,-0.13,-4.14,38.21,-6.08,2.48,-2.74,4.55,-1.93,-8.87
5,10,573,-32,-381,3795,-0.53,0.83,37.04,-0.32,-3.81,37.95,-6.07,2.48,-2.89,4.05,-2.06,0.07
-15,16,559,20,-452,3816,-0.57,0.84,36.75,0.20,-4.52,38.16,-6.07,2.48,-3.04,4.47,-2.19,1.20
2,21,557,-61,-494,3826,-0.50,0.88,36.47,-0.61,-4.94,38.26,-6.08,2.48,-3.18,4.11,-2.31,0.93
-11,17,553,-58,-538,3976,-0.52,0.90,36.20,-0.58,-5.38,39.76,-6.09,2.49,-3.32,4.38,-2.23,0.91
-8,15,522,-87,-401,3930,-0.51,0.90,35.76,-0.87,-4.01,39.30,-6.08,2.49,-3.47,4.32,-2.20,3.79
-1,14,515,-70,-442,3913,-0.47,0.90,35.33,-0.70,-4.42,39.13,-6.08,2.49,-3.61,4.16,-2.17,3.83
-5,15,461,25,-369,3760,-0.45,0.90,34.61,0.25,-3.69,37.60,-6.07,2.49,-3.74,4.23,-2.19,8.92
-6,15,433,-40,-346,3963,-0.44,0.90,33.79,-0.40,-3.46,39.63,-6.06,2.49,-3.88,4.24,-2.20,10.74
-8,-1,326,-220,-215,3993,-0.45,0.80,32.40,-2.20,-2.15,39.93,-6.04,2.52,-4.01,4.27,-1.86,20.00
-2,-6,254,-125,-199,3876,-0.41,0.69,30.71,-1.25,-1.99,38.76,-6.02,2.53,-4.13,4.13,-1.73,20.00
-9,-8,145,48,-351,3880,-0.43,0.57,28.52,0.48,-3.51,38.80,-6.01,2.52,-4.24,4.27,-1.66,20.00
-5,-6,118,17,-341,3915,-0.42,0.48,26.39,0.17,-3.41,39.15,-6.00,2.52,-4.35,4.18,-1.67,20.00
-3,-5,49,12,-360,3930,-0.39,0.40,24.05,0.12,-3.60,39.30,-5.99,2.51,-4.45,4.12,-1.67,20.00
-2,-5,40,29,-394,3919,-0.37,0.33,21.89,0.29,-3.94,39.19,-5.99,2.51,-4.53,4.09,-1.64,20.00
-2,-3,88,-19,-516,3925,-0.34,0.28,20.24,-0.19,-5.16,39.25,-6.00,2.50,-4.61,4.09,-1.66,20.00
-2,-2,89,18,-484,3909,-0.32,0.24,18.75,0.18,-4.84,39.09,-6.00,2.49,-4.69,4.09,-1.67,20.00
3,1,134,92,-524,3933,-0.27,0.22,17.70,0.92,-5.24,39.33,-6.01,2.48,-4.76,3.98,-1.72,16.71
-7,-4,147,193,-496,3938,-0.28,0.17,16.82,1.93,-4.96,39.38,-6.01,2.47,-4.82,4.19,-1.60,13.57
0,4,172,-15,-512,4041,-0.26,0.18,16.19,-0.15,-5.12,40.41,-6.02,2.46,-4.89,4.04,-1.76,9.45
-3,3,176,-19,-529,3818,-0.25,0.18,15.65,-0.19,-5.29,38.18,-6.03,2.46,-4.95,4.11,-1.73,7.97
-5,-1,174,-176,-419,3929,-0.25,0.16,15.14,-1.76,-4.19,39.29,-6.04,2.48,-5.01,4.15,-1.66,7.29
-6,6,162,-55,-460,3863,-0.27,0.18,14.62,-0.55,-4.60,38.63,-6.04,2.47,-5.07,4.18,-1.80,7.75
2,19,181,47,-499,3896,-0.23,0.28,14.26,0.47,-4.99,38.96,-6.05,2.46,-5.12,4.01,-2.08,4.84
-9,-4,182,-41,-453,3951,-0.26,0.22,13.94,-0.41,-4.53,39.51,-6.05,2.45,-5.18,4.25,-1.60,4.15
0,12,190,61,-510,3882,-0.23,0.27,13.71,0.61,-5.10,38.82,-6.06,2.44,-5.23,4.06,-1.93,2.77
1,8,208,47,-580,3967,-0.20,0.30,13.61,0.47,-5.80,39.67,-6.07,2.43,-5.29,4.04,-1.85,0.45
-4,11,265,57,-557,3908,-0.21,0.33,13.86,0.57,-5.57,39.08,-6.07,2.42,-5.34,4.15,-1.91,-5.84
-3,3,279,75,-571,3894,-0.21,0.32,14.18,0.75,-5.71,38.94,-6.08,2.41,-5.40,4.13,-1.74,-6.92
-8,11,337,-1,-531,3825,-0.23,0.35,14.82,-0.01,-5.31,38.25,-6.09,2.41,-5.46,4.25,-1.91,-12.63
-5,0,338,-50,-468,3952,-0.24,0.32,15.40,-0.50,-4.68,39.52,-6.10,2.40,-5.52,4.19,-1.67,-11.68
-15,1,330,7,-421,3804,-0.31,0.29,15.87,0.07,-4.21,38.04,-6.10,2.39,-5.58,4.41,-1.68,-9.86
-2,16,332,-65,-491,3911,-0.29,0.36,16.31,-0.65,-4.91,39.11,-6.11,2.38,-5.64,4.15,-2.00,-9.29
-6,6,338,-33,-606,3915,-0.30,0.36,16.74,-0.33,-6.06,39.15,-6.12,2.38,-5.71,4.24,-1.79,-9.21
-8,-2,344,-19,-475,3982,-0.32,0.31,17.16,-0.19,-4.75,39.82,-6.12,2.37,-5.78,4.29,-1.61,-9.14
-23,-12,337,29,-649,4046,-0.42,0.21,17.50,0.29,-6.49,40.46,-6.14,2.37,-5.85,4.63,-1.37,-7.69
-9,1,353,-22,-646,3920,-0.44,0.19,17.91,-0.22,-6.46,39.20,-6.15,2.37,-5.92,4.36,-1.63,-8.85
8,6,418,-25,-572,3898,-0.34,0.21,18.66,-0.25,-5.72,38.98,-6.16,2.36,-5.99,4.00,-1.74,-15.16
-2,3,415,111,-504,3801,-0.32,0.21,19.33,1.11,-5.04,38.01,-6.17,2.35,-6.07,4.20,-1.67,-13.58
-27,-12,400,34,-393,3842,-0.45,0.11,19.84,0.34,-3.93,38.42,-6.16,2.34,-6.15,4.74,-1.33,-10.87
0,6,389,7,-525,3925,-0.41,0.14,20.23,0.07,-5.25,39.25,-6.17,2.34,-6.23,4.18,-1.70,-8.85
-12,-17,340,-85,-397,3923,-0.44,0.02,20.28,-0.85,-3.97,39.23,-6.16,2.33,-6.31,4.43,-1.20,-2.94
-7,-15,334,-161,-366,4082,-0.44,-0.07,20.29,-1.61,-3.66,40.82,-6.14,2.34,-6.39,4.32,-1.22,-2.21
-8,-24,298,-125,-637,3906,-0.45,-0.21,20.08,-1.25,-6.37,39.06,-6.16,2.34,-6.47,4.35,-1.00,1.68
-6,-23,287,-84,-487,3916,-0.44,-0.33,19.82,-0.84,-4.87,39.16,-6.17,2.33,-6.55,4.31,-0.98,2.51
-6,13,338,219,-563,3831,-0.43,-0.22,19.90,2.19,-5.63,38.31,-6.17,2.33,-6.63,4.31,-1.74,-3.39
-14,15,357,223,-557,3842,-0.47,-0.10,20.09,2.23,-5.57,38.42,-6.18,2.32,-6.70,4.49,-1.81,-5.29
1,9,364,59,-444,3971,-0.42,-0.04,20.30,0.59,-4.44,39.71,-6.18,2.31,-6.79,4.17,-1.69,-5.73
-4,5,368,13,-416,3933,-0.40,-0.00,20.51,0.13,-4.16,39.33,-6.18,2.30,-6.87,4.27,-1.62,-5.81
-3,13,364,-62,-451,4020,-0.38,0.07,20.68,-0.62,-4.51,40.20,-6.18,2.29,-6.95,4.24,-1.79,-5.02
-4,0,360,-47,-293,3852,-0.37,0.07,20.81,-0.47,-2.93,38.52,-6.16,2.29,-7.03,4.25,-1.53,-4.31
-12,11,318,-146,-419,3877,-0.40,0.13,20.67,-1.46,-4.19,38.77,-6.16,2.28,-7.12,4.42,-1.76,0.41
5,18,306,-115,-432,3988,-0.33,0.22,20.47,-1.15,-4.32,39.88,-6.16,2.27,-7.20,4.05,-1.92,1.47
2,9,263,-11,-432,3911,-0.29,0.26,20.03,-0.11,-4.32,39.11,-6.16,2.26,-7.28,4.10,-1.74,5.76
-6,-1,268,-83,-334,3949,-0.29,0.23,19.66,-0.83,-3.34,39.49,-6.14,2.26,-7.35,4.26,-1.53,4.50
1,-4,172,-38,-279,3942,-0.26,0.18,18.74,-0.38,-2.79,39.42,-6.13,2.25,-7.43,4.09,-1.46,14.20
-1,0,153,7,-381,3892,-0.24,0.16,17.80,0.07,-3.81,38.92,-6.12,2.24,-7.50,4.13,-1.53,14.73
-4,6,129,130,-511,3870,-0.24,0.18,16.81,1.30,-5.11,38.70,-6.13,2.24,-7.57,4.19,-1.65,15.76
-7,7,139,130,-536,3896,-0.26,0.21,15.97,1.30,-5.36,38.96,-6.13,2.23,-7.63,4.26,-1.67,13.05
-1,9,164,62,-423,3967,-0.24,0.24,15.38,0.62,-4.23,39.67,-6.13,2.21,-7.69,4.13,-1.71,8.99
2,3,146,1,-422,3872,-0.20,0.23,14.73,0.01,-4.22,38.72,-6.13,2.20,-7.75,4.06,-1.58,9.94
-9,-6,130,-23,-411,3864,-0.24,0.17,14.05,-0.23,-4.11,38.64,-6.13,2.19,-7.81,4.29,-1.37,10.59
2,3,116,-15,-415,3914,-0.20,0.18,13.35,-0.15,-4.15,39.14,-6.12,2.18,-7.86,4.06,-1.55,10.97
3,11,120,34,-487,3851,-0.16,0.22,12.75,0.34,-4.87,38.51,-6.13,2.17,-7.91,4.03,-1.72,9.39
-2,8,119,8,-510,3938,-0.16,0.25,12.20,0.08,-5.10,39.38,-6.14,2.16,-7.96,4.14,-1.66,8.51
-8,-7,119,-9,-385,3841,-0.19,0.18,11.71,-0.09,-3.85,38.41,-6.13,2.15,-8.00,4.26,-1.33,7.60
-5,2,109,-20,-379,3880,-0.20,0.18,11.20,-0.20,-3.79,38.80,-6.13,2.14,-8.05,4.20,-1.50,7.86
0,-1,92,-9,-414,3897,-0.18,0.15,10.64,-0.09,-4.14,38.97,-6.13,2.12,-8.09,4.09,-1.42,8.85
-1,-7,86,-34,-430,3903,-0.17,0.10,10.10,-0.34,-4.30,39.03,-6.13,2.11,-8.13,4.11,-1.28,8.58
-10,-7,91,75,-540,3923,-0.21,0.04,9.65,0.75,-5.40,39.23,-6.14,2.10,-8.17,4.31,-1.25,7.15
5,1,119,65,-593,3836,-0.16,0.04,9.41,0.65,-5.93,38.36,-6.15,2.09,-8.21,4.00,-1.41,3.39
-3,1,171,60,-391,3867,-0.16,0.05,9.51,0.60,-3.91,38.67,-6.14,2.07,-8.24,4.16,-1.40,-2.59
0,-5,156,-5,-350,3984,-0.15,0.01,9.51,-0.05,-3.50,39.84,-6.13,2.06,-8.28,4.09,-1.26,-0.81
7,-15,73,-41,-409,3923,-0.09,-0.08,9.01,-0.41,-4.09,39.23,-6.13,2.05,-8.32,3.93,-1.02,8.11
0,-25,61,-68,-408,3943,-0.08,-0.23,8.48,-0.68,-4.08,39.43,-6.13,2.03,-8.35,4.07,-0.77,8.57
3,-27,36,-32,-503,3962,-0.06,-0.37,7.85,-0.32,-5.03,39.62,-6.14,2.02,-8.38,4.00,-0.68,10.38
5,-37,52,16,-539,4006,-0.02,-0.56,7.38,0.16,-5.39,40.06,-6.14,2.00,-8.41,3.96,-0.42,7.62
26,-101,136,167,-642,3895,0.14,-1.12,7.47,1.67,-6.42,38.95,-6.15,1.99,-8.44,3.49,1.05,-2.17
30,-102,160,184,-641,3899,0.31,-1.63,7.70,1.84,-6.41,38.99,-6.16,1.97,-8.47,3.37,1.22,-4.60
-3,-1,280,241,-671,3698,0.26,-1.47,8.64,2.41,-6.71,36.98,-6.17,1.95,-8.51,4.06,-0.87,-17.11
-17,29,338,-40,-563,3889,0.13,-1.15,9.84,-0.40,-5.63,38.89,-6.18,1.94,-8.55,4.39,-1.56,-20.00
-11,36,363,-100,-351,3858,0.05,-0.81,11.07,-1.00,-3.51,38.58,-6.17,1.94,-8.59,4.28,-1.79,-20.00
-11,17,367,-150,-377,3925,-0.02,-0.63,12.20,-1.50,-3.77,39.25,-6.15,1.95,-8.64,4.29,-1.46,-20.00
-10,18,331,38,-379,3996,-0.08,-0.46,13.00,0.38,-3.79,39.96,-6.14,1.93,-8.69,4.28,-1.52,-15.15
-26,-3,325,-107,-240,4006,-0.23,-0.43,13.68,-1.07,-2.40,40.06,-6.12,1.93,-8.75,4.63,-1.10,-13.19
12,-49,255,47,-543,3825,-0.13,-0.68,13.87,0.47,-5.43,38.25,-6.13,1.92,-8.80,3.84,-0.09,-4.54
2,-46,252,101,-482,3836,-0.11,-0.90,14.02,1.01,-4.82,38.36,-6.13,1.91,-8.86,4.04,-0.08,-3.91
-17,30,259,31,-504,3942,-0.20,-0.62,14.20,0.31,-5.04,39.42,-6.14,1.89,-8.92,4.45,-1.69,-4.41
-22,26,275,-43,-426,3935,-0.32,-0.40,14.45,-0.43,-4.26,39.35,-6.14,1.88,-8.97,4.59,-1.66,-5.83
-4,-13,234,-148,-265,3962,-0.31,-0.44,14.44,-1.48,-2.65,39.62,-6.12,1.89,-9.03,4.21,-0.86,-1.00
2,-33,179,-143,-309,3933,-0.27,-0.60,14.08,-1.43,-3.09,39.33,-6.10,1.89,-9.09,4.06,-0.41,4.88
-11,21,186,-8,-528,3804,-0.31,-0.41,13.81,-0.08,-5.28,38.04,-6.12,1.88,-9.14,4.34,-1.56,3.55
-13,32,194,5,-443,3874,-0.35,-0.17,13.61,0.05,-4.43,38.74,-6.12,1.87,-9.20,4.40,-1.84,2.24
-2,-20,171,16,-419,4012,-0.33,-0.28,13.30,0.16,-4.19,40.12,-6.12,1.86,-9.25,4.17,-0.74,4.38
0,-35,177,-16,-463,3939,-0.30,-0.46,13.05,-0.16,-4.63,39.39,-6.12,1.84,-9.30,4.12,-0.38,3.22
-10,18,174,10,-466,3773,-0.33,-0.31,12.80,0.10,-4.66,37.73,-6.13,1.83,-9.35,4.34,-1.49,3.13
-20,37,163,55,-362,3828,-0.42,-0.05,12.52,0.55,-3.62,38.28,-6.13,1.82,-9.40,4.56,-1.94,3.91
4,-30,76,11,-436,4028,-0.35,-0.23,11.73,0.11,-4.36,40.28,-6.13,1.80,-9.45,4.06,-0.52,12.78
10,-53,79,-4,-492,3993,-0.26,-0.53,11.04,-0.04,-4.92,39.93,-6.13,1.79,-9.49,3.92,0.04,11.16
-3,-19,116,108,-551,3789,-0.25,-0.59,10.64,1.08,-5.51,37.89,-6.14,1.78,-9.54,4.18,-0.62,6.05
-10,18,122,218,-498,3784,-0.28,-0.42,10.32,2.18,-4.98,37.84,-6.15,1.76,-9.58,4.34,-1.41,4.75
-9,8,93,-92,-382,3994,-0.31,-0.33,9.86,-0.92,-3.82,39.94,-6.13,1.76,-9.62,4.32,-1.23,7.34
4,-6,80,-50,-381,3952,-0.26,-0.34,9.36,-0.50,-3.81,39.52,-6.12,1.74,-9.66,4.03,-0.94,7.97
-3,24,111,-23,-491,3811,-0.25,-0.16,9.10,-0.23,-4.91,38.11,-6.14,1.73,-9.69,4.18,-1.59,3.82
-7,42,114,29,-446,3831,-0.27,0.12,8.89,0.29,-4.46,38.31,-6.14,1.72,-9.73,4.27,-2.02,3.07
4,-6,118,23,-494,3966,-0.22,0.07,8.72,0.23,-4.94,39.66,-6.15,1.71,-9.76,4.03,-1.02,2.29
11,-36,131,-17,-498,4037,-0.13,-0.16,8.64,-0.17,-4.98,40.37,-6.16,1.69,-9.80,3.87,-0.34,0.61
3,-3,137,-44,-443,3781,-0.10,-0.16,8.62,-0.44,-4.43,37.81,-6.16,1.68,-9.83,4.03,-1.00,-0.15
-4,19,144,-47,-443,3820,-0.11,-0.03,8.63,-0.47,-4.43,38.20,-6.17,1.67,-9.86,4.18,-1.48,-0.95
-3,-3,133,2,-434,4015,-0.12,-0.04,8.58,0.02,-4.34,40.15,-6.17,1.65,-9.90,4.17,-1.02,0.26
-4,-40,119,117,-534,3964,-0.13,-0.28,8.45,1.17,-5.34,39.64,-6.18,1.64,-9.93,4.19,-0.19,1.68
-7,-17,136,142,-473,3832,-0.16,-0.36,8.43,1.42,-4.73,38.32,-6.18,1.62,-9.96,4.27,-0.63,-0.36
-4,-20,140,70,-377,3914,-0.17,-0.45,8.44,0.70,-3.77,39.14,-6.18,1.61,-10.00,4.20,-0.53,-0.82
10,-45,72,8,-435,3936,-0.09,-0.68,8.04,0.08,-4.35,39.36,-6.18,1.59,-10.03,3.90,0.05,6.51
10,-46,80,-32,-424,3954,-0.02,-0.89,7.72,-0.32,-4.24,39.54,-6.18,1.57,-10.06,3.88,0.14,4.98
-6,-1,119,195,-533,3833,-0.06,-0.81,7.68,1.95,-5.33,38.33,-6.18,1.55,-10.09,4.22,-0.78,0.27
-13,14,131,117,-521,3891,-0.13,-0.64,7.71,1.17,-5.21,38.91,-6.19,1.54,-10.12,4.38,-1.12,-1.09
-3,-43,161,188,-533,3836,-0.13,-0.84,7.92,1.88,-5.33,38.36,-6.20,1.52,-10.16,4.19,0.10,-4.26
7,-22,167,225,-579,3832,-0.08,-0.89,8.15,2.25,-5.79,38.32,-6.20,1.50,-10.19,3.97,-0.30,-4.56
-25,77,197,116,-540,3948,-0.22,-0.33,8.53,1.16,-5.40,39.48,-6.21,1.49,-10.22,4.67,-2.46,-7.41
-20,38,224,-29,-354,4195,-0.32,-0.07,9.05,-0.29,-3.54,41.95,-6.20,1.48,-10.26,4.59,-1.73,-9.67
15,-65,121,-137,-347,3848,-0.20,-0.46,8.88,-1.37,-3.47,38.48,-6.18,1.49,-10.29,3.83,0.46,2.25
6,-40,111,-9,-347,3761,-0.14,-0.65,8.67,-0.09,-3.47,37.61,-6.17,1.48,-10.33,3.99,0.02,3.05
-21,69,95,37,-485,3825,-0.26,-0.17,8.38,0.37,-4.85,38.25,-6.18,1.47,-10.36,4.58,-2.32,4.42
-24,69,99,25,-435,3969,-0.38,0.27,8.15,0.25,-4.35,39.69,-6.18,1.45,-10.39,4.67,-2.43,3.51
11,-18,39,-85,-427,3951,-0.27,0.13,7.57,-0.85,-4.27,39.51,-6.18,1.44,-10.42,3.93,-0.62,9.57
11,-26,38,-15,-466,3923,-0.18,-0.04,7.05,-0.15,-4.66,39.23,-6.19,1.42,-10.45,3.91,-0.40,8.73
3,6,32,53,-467,3880,-0.14,0.00,6.54,0.53,-4.67,38.80,-6.19,1.41,-10.48,4.07,-1.05,8.51
1,5,41,20,-516,3913,-0.12,0.03,6.13,0.20,-5.16,39.13,-6.20,1.40,-10.50,4.11,-1.03,6.70
-8,25,93,22,-532,3731,-0.16,0.18,6.09,0.22,-5.32,37.31,-6.22,1.39,-10.53,4.31,-1.47,0.45
-9,48,137,-30,-546,3864,-0.20,0.46,6.31,-0.30,-5.46,38.64,-6.23,1.38,-10.55,4.35,-2.01,-4.35
-43,80,174,261,-568,4058,-0.44,0.90,6.74,2.61,-5.68,40.58,-6.24,1.37,-10.58,5.11,-2.78,-7.95
-14,86,173,201,-451,3816,-0.48,1.33,7.12,2.01,-4.51,38.16,-6.25,1.36,-10.60,4.54,-3.01,-7.13
0,2,145,20,-427,3998,-0.43,1.21,7.30,0.20,-4.27,39.98,-6.24,1.35,-10.63,4.24,-1.26,-3.49
4,-20,127,144,-441,3952,-0.37,0.97,7.34,1.44,-4.41,39.52,-6.25,1.34,-10.66,4.14,-0.74,-1.28
18,-60,75,-9,-397,3909,-0.22,0.51,7.06,-0.09,-3.97,39.09,-6.24,1.33,-10.69,3.81,0.20,4.39
23,-56,57,-54,-377,3827,-0.06,0.11,6.71,-0.54,-3.77,38.27,-6.23,1.32,-10.72,3.66,0.24,5.86
5,-18,50,45,-495,3873,-0.02,-0.01,6.34,0.45,-4.95,38.73,-6.23,1.31,-10.74,4.02,-0.50,6.02
1,-18,62,5,-452,3891,-0.01,-0.12,6.08,0.05,-4.52,38.91,-6.24,1.29,-10.77,4.10,-0.46,4.13
14,-24,47,39,-465,3930,0.07,-0.25,5.76,0.39,-4.65,39.30,-6.24,1.28,-10.79,3.82,-0.29,5.32
10,-22,45,18,-461,3877,0.13,-0.36,5.46,0.18,-4.61,38.77,-6.25,1.26,-10.81,3.89,-0.29,5.00
-11,9,58,65,-385,3786,0.05,-0.27,5.27,0.65,-3.85,37.86,-6.24,1.24,-10.83,4.33,-0.93,3.11
-4,36,61,79,-418,3866,0.02,-0.02,5.11,0.79,-4.18,38.66,-6.24,1.23,-10.85,4.20,-1.54,2.47
0,26,18,49,-455,3977,0.02,0.14,4.71,0.49,-4.55,39.77,-6.24,1.21,-10.87,4.12,-1.37,6.84
1,11,11,33,-473,3960,0.02,0.19,4.31,0.33,-4.73,39.60,-6.25,1.20,-10.89,4.10,-1.07,6.93
0,8,5,60,-447,3889,0.02,0.22,3.91,0.60,-4.47,38.89,-6.25,1.18,-10.90,4.12,-1.00,6.90
0,4,6,29,-460,3937,0.02,0.22,3.55,0.29,-4.60,39.37,-6.26,1.17,-10.92,4.12,-0.91,6.13
4,-39,19,-43,-503,3947,0.04,-0.04,3.31,-0.43,-5.03,39.47,-6.27,1.16,-10.93,4.05,0.04,4.15
1,-48,29,14,-493,3920,0.04,-0.33,3.16,0.14,-4.93,39.20,-6.28,1.14,-10.94,4.11,0.31,2.68
3,-50,59,25,-531,3910,0.06,-0.60,3.20,0.25,-5.31,39.10,-6.29,1.13,-10.96,4.08,0.43,-0.79
-1,-48,99,119,-620,3871,0.04,-0.83,3.49,1.19,-6.20,38.71,-6.31,1.11,-10.97,4.17,0.47,-5.02
1,-25,220,191,-521,3968,0.05,-0.90,4.48,1.91,-5.21,39.68,-6.31,1.10,-10.99,4.13,0.03,-17.55
1,-22,222,234,-504,3824,0.05,-0.94,5.39,2.34,-5.04,38.24,-6.31,1.08,-11.01,4.13,-0.01,-16.12
2,-11,259,217,-550,3903,0.05,-0.92,6.43,2.17,-5.50,39.03,-6.32,1.06,-11.03,4.12,-0.22,-18.60
-1,-15,271,164,-604,3889,0.04,-0.92,7.44,1.64,-6.04,38.89,-6.33,1.04,-11.06,4.19,-0.13,-18.17
-9,-18,372,74,-621,3974,-0.02,-0.94,8.96,0.74,-6.21,39.74,-6.34,1.03,-11.10,4.37,-0.06,-20.00
-1,-20,383,44,-614,3890,-0.02,-0.96,10.40,0.44,-6.14,38.90,-6.36,1.02,-11.14,4.22,-0.01,-20.00
-6,-9,427,3,-327,3851,-0.05,-0.92,11.97,0.03,-3.27,38.51,-6.34,1.01,-11.19,4.32,-0.23,-20.00
0,28,409,104,-436,3780,-0.05,-0.66,13.27,1.04,-4.36,37.80,-6.34,1.00,-11.24,4.20,-1.05,-20.00
-30,84,361,25,-487,3720,-0.23,-0.08,14.14,0.25,-4.87,37.20,-6.36,0.99,-11.30,4.87,-2.34,-16.54
-29,81,335,-15,-294,4003,-0.38,0.42,14.77,-0.15,-2.94,40.03,-6.34,0.99,-11.36,4.88,-2.42,-12.30
24,-83,164,-333,-228,4147,-0.20,-0.13,14.29,-3.33,-2.28,41.47,-6.33,1.01,-11.42,3.74,1.05,7.11
33,-108,118,-177,-334,3897,0.02,-0.77,13.58,-1.77,-3.34,38.97,-6.31,1.03,-11.47,3.49,1.73,11.27
2,-51,106,153,-592,3797,0.03,-1.01,12.87,1.53,-5.92,37.97,-6.32,1.02,-11.52,4.12,0.64,11.39
-13,-18,137,231,-682,3743,-0.05,-1.02,12.42,2.31,-6.82,37.43,-6.34,1.00,-11.57,4.46,-0.02,6.88
-26,79,286,128,-657,3800,-0.20,-0.43,12.92,1.28,-6.57,38.00,-6.35,1.00,-11.62,4.77,-2.15,-9.87
-37,82,307,173,-582,3811,-0.41,0.11,13.50,1.73,-5.82,38.11,-6.36,0.99,-11.68,5.06,-2.35,-11.29
-6,25,262,-137,-339,4062,-0.40,0.25,13.75,-1.37,-3.39,40.62,-6.35,1.00,-11.73,4.42,-1.24,-5.50
-4,1,223,-87,-305,3992,-0.39,0.23,13.74,-0.87,-3.05,39.92,-6.33,1.01,-11.79,4.36,-0.75,-0.90
7,-38,145,-76,-456,3846,-0.31,-0.02,13.25,-0.76,-4.56,38.46,-6.35,1.02,-11.84,4.13,0.10,7.46
11,-33,128,58,-427,3917,-0.21,-0.22,12.70,0.58,-4.27,39.17,-6.34,1.01,-11.89,4.02,0.07,8.48
-4,-28,210,207,-718,3727,-0.21,-0.37,12.71,2.07,-7.18,37.27,-6.36,1.00,-11.94,4.34,0.01,-1.23
-14,3,245,190,-637,3797,-0.28,-0.31,12.94,1.90,-6.37,37.97,-6.37,0.99,-11.99,4.56,-0.63,-4.97
-33,115,283,-7,-434,3788,-0.45,0.42,13.37,-0.07,-4.34,37.88,-6.37,0.98,-12.04,5.00,-3.10,-8.68
-34,108,271,-26,-269,3961,-0.61,1.04,13.69,-0.26,-2.69,39.61,-6.36,0.99,-12.10,5.05,-3.13,-6.67
-7,29,178,-215,-347,4072,-0.59,1.11,13.40,-2.15,-3.47,40.72,-6.35,1.01,-12.15,4.49,-1.56,3.84
7,-10,140,-165,-162,4087,-0.49,0.94,12.92,-1.65,-1.62,40.87,-6.33,1.03,-12.20,4.17,-0.73,7.46
22,-64,57,28,-465,3769,-0.31,0.45,11.97,0.28,-4.65,37.69,-6.34,1.02,-12.25,3.82,0.51,15.57
17,-47,49,80,-382,3834,-0.17,0.12,11.07,0.80,-3.82,38.34,-6.34,1.01,-12.29,3.88,0.26,14.87
1,-2,63,-3,-558,3923,-0.15,0.10,10.35,-0.03,-5.58,39.23,-6.35,1.00,-12.33,4.21,-0.65,11.89
-5,7,80,57,-446,3898,-0.17,0.13,9.80,0.57,-4.46,38.98,-6.35,0.99,-12.37,4.34,-0.83,8.87
2,-3,32,96,-408,3909,-0.14,0.10,9.02,0.96,-4.08,39.09,-6.35,0.97,-12.41,4.19,-0.61,13.12
2,-9,27,66,-424,3905,-0.11,0.03,8.28,0.66,-4.24,39.05,-6.35,0.96,-12.44,4.18,-0.46,12.36
2,-4,14,71,-427,3891,-0.09,0.01,7.54,0.71,-4.27,38.91,-6.35,0.94,-12.47,4.17,-0.54,12.54
3,-3,11,60,-434,3900,-0.06,-0.01,6.85,0.60,-4.34,39.00,-6.35,0.93,-12.50,4.14,-0.55,11.64
3,-2,3,51,-458,3897,-0.04,-0.02,6.19,0.51,-4.58,38.97,-6.35,0.91,-12.52,4.14,-0.56,11.37
2,-1,3,47,-460,3891,-0.02,-0.03,5.59,0.47,-4.60,38.91,-6.35,0.90,-12.55,4.16,-0.57,10.27
-1,-3,3,39,-457,3902,-0.02,-0.04,5.04,0.39,-4.57,39.02,-6.36,0.88,-12.57,4.22,-0.51,9.28
0,1,3,42,-450,3908,-0.02,-0.03,4.56,0.42,-4.50,39.08,-6.36,0.87,-12.58,4.20,-0.58,8.38
3,8,0,49,-447,3908,-0.00,0.02,4.10,0.49,-4.47,39.08,-6.36,0.85,-12.60,4.14,-0.73,7.90
17,49,3,38,-421,3836,0.10,0.32,3.71,0.38,-4.21,38.36,-6.36,0.83,-12.61,3.82,-1.63,6.83
-7,75,-32,52,-484,3944,0.05,0.74,3.14,0.52,-4.84,39.44,-6.37,0.82,-12.63,4.33,-2.27,9.94
-4,77,-24,66,-489,3906,0.02,1.14,2.68,0.66,-4.89,39.06,-6.37,0.81,-12.64,4.28,-2.41,8.15
-13,71,-33,37,-418,3887,-0.06,1.46,2.21,0.37,-4.18,38.87,-6.37,0.80,-12.64,4.49,-2.37,8.36
-13,78,-41,52,-405,3863,-0.13,1.79,1.74,0.52,-4.05,38.63,-6.37,0.79,-12.65,4.50,-2.59,8.44
-25,124,-71,52,-373,3804,-0.27,2.36,1.14,0.52,-3.73,38.04,-6.36,0.78,-12.65,4.78,-3.68,10.88
-42,156,-91,95,-356,3767,-0.50,3.08,0.47,0.95,-3.56,37.67,-6.35,0.78,-12.66,5.19,-4.53,12.03
9,44,-209,-15,-212,3773,-0.40,3.04,-0.85,-0.15,-2.12,37.73,-6.34,0.79,-12.65,4.11,-2.24,20.00
1,24,-236,-75,-258,4156,-0.35,2.88,-2.21,-0.75,-2.58,41.56,-6.32,0.80,-12.64,4.25,-1.80,20.00
-6,-22,-313,-118,-492,4068,-0.35,2.46,-3.90,-1.18,-4.92,40.68,-6.33,0.82,-12.62,4.40,-0.77,20.00
1,-27,-311,-50,-570,3873,-0.31,2.05,-5.40,-0.50,-5.70,38.73,-6.35,0.83,-12.60,4.26,-0.56,20.00
5,-38,-228,81,-683,3950,-0.25,1.61,-6.26,0.81,-6.83,39.50,-6.37,0.82,-12.58,4.17,-0.21,15.95
12,-38,-192,98,-817,3865,-0.15,1.22,-6.80,0.98,-8.17,38.65,-6.39,0.82,-12.55,4.01,-0.10,10.67
-6,-30,-38,120,-594,3887,-0.17,0.91,-6.35,1.20,-5.94,38.87,-6.40,0.80,-12.52,4.39,-0.17,-6.77
-2,-16,-24,65,-537,3877,-0.17,0.73,-5.86,0.65,-5.37,38.77,-6.41,0.79,-12.50,4.32,-0.39,-7.54
2,-23,7,22,-526,3946,-0.14,0.51,-5.23,0.22,-5.26,39.46,-6.43,0.78,-12.48,4.24,-0.19,-10.06
11,-34,14,-22,-522,3911,-0.06,0.25,-4.63,-0.22,-5.22,39.11,-6.45,0.77,-12.46,4.05,0.11,-9.77
16,-58,19,17,-446,3887,0.05,-0.13,-4.05,0.17,-4.46,38.87,-6.45,0.75,-12.44,3.92,0.72,-9.30
15,-49,20,20,-464,3852,0.13,-0.41,-3.52,0.20,-4.64,38.52,-6.45,0.73,-12.43,3.92,0.63,-8.46
-1,5,72,91,-457,3854,0.11,-0.34,-2.73,0.91,-4.57,38.54,-6.46,0.71,-12.42,4.25,-0.48,-13.17
1,5,81,1,-463,3930,0.11,-0.28,-1.96,0.01,-4.63,39.30,-6.46,0.69,-12.41,4.22,-0.48,-12.83
11,-23,77,-26,-460,3940,0.16,-0.39,-1.30,-0.26,-4.60,39.40,-6.47,0.67,-12.40,4.00,0.13,-11.14
7,-30,91,-44,-590,3894,0.19,-0.53,-0.61,-0.44,-5.90,38.94,-6.49,0.67,-12.40,4.09,0.31,-11.54
-3,-11,97,112,-340,3887,0.15,-0.55,0.04,1.12,-3.40,38.87,-6.48,0.65,-12.40,4.30,-0.06,-11.06
-3,-5,92,87,-365,3918,0.12,-0.52,0.60,0.87,-3.65,39.18,-6.47,0.63,-12.41,4.30,-0.17,-9.44
2,-10,54,44,-379,3934,0.12,-0.53,0.87,0.44,-3.79,39.34,-6.46,0.62,-12.41,4.19,-0.06,-4.44
5,-24,46,37,-407,3969,0.14,-0.62,1.06,0.37,-4.07,39.69,-6.45,0.60,-12.41,4.12,0.26,-3.14
10,-42,42,46,-455,3897,0.19,-0.82,1.21,0.46,-4.55,38.97,-6.45,0.58,-12.42,4.00,0.69,-2.39
9,-39,48,47,-493,3869,0.22,-0.97,1.38,0.47,-4.93,38.69,-6.46,0.56,-12.42,4.02,0.69,-2.78
-4,27,131,214,-596,3782,0.18,-0.71,2.04,2.14,-5.96,37.82,-6.47,0.54,-12.43,4.30,-0.71,-11.42
-17,43,169,106,-461,3873,0.05,-0.38,2.87,1.06,-4.61,38.73,-6.47,0.52,-12.44,4.60,-1.12,-14.41
0,0,109,-162,-286,3945,0.05,-0.34,3.25,-1.62,-2.86,39.45,-6.46,0.54,-12.46,4.25,-0.26,-6.60
10,-7,85,-81,-356,3946,0.10,-0.35,3.44,-0.81,-3.56,39.46,-6.44,0.54,-12.47,4.02,-0.12,-3.39
12,-14,40,-11,-414,3887,0.17,-0.40,3.34,-0.11,-4.14,38.87,-6.43,0.53,-12.49,3.95,0.04,1.76
10,-7,31,13,-434,3862,0.21,-0.40,3.20,0.13,-4.34,38.62,-6.43,0.51,-12.50,3.98,-0.09,2.56
-7,9,41,2,-528,3910,0.15,-0.31,3.13,0.02,-5.28,39.10,-6.44,0.51,-12.51,4.35,-0.43,1.25
-4,6,42,7,-504,3902,0.11,-0.24,3.07,0.07,-5.04,39.02,-6.46,0.50,-12.52,4.31,-0.38,1.03
-8,45,50,56,-485,3843,0.05,0.06,3.07,0.56,-4.85,38.43,-6.46,0.48,-12.54,4.42,-1.25,0.07
-7,52,28,34,-373,3912,0.00,0.37,2.93,0.34,-3.73,39.12,-6.45,0.47,-12.55,4.40,-1.47,2.43
-5,16,11,38,-528,3951,-0.03,0.43,2.71,0.38,-5.28,39.51,-6.47,0.46,-12.56,4.38,-0.75,4.04
1,3,1,189,-387,3910,-0.02,0.41,2.44,1.89,-3.87,39.10,-6.46,0.45,-12.57,4.25,-0.47,4.74
-1,15,2,112,-434,3877,-0.02,0.46,2.21,1.12,-4.34,38.77,-6.46,0.43,-12.58,4.29,-0.71,4.19
-1,19,-1,100,-420,3878,-0.03,0.53,1.98,1.00,-4.20,38.78,-6.46,0.42,-12.58,4.29,-0.81,4.13
2,9,-6,38,-453,3917,-0.01,0.53,1.75,0.38,-4.53,39.17,-6.46,0.40,-12.59,4.23,-0.59,4.30
3,3,-7,18,-463,3925,0.01,0.49,1.53,0.18,-4.63,39.25,-6.47,0.39,-12.60,4.21,-0.45,4.02
16,-19,-6,-16,-519,3804,0.10,0.33,1.34,-0.16,-5.19,38.04,-6.48,0.39,-12.60,3.93,0.04,3.55
9,-14,-10,14,-538,3938,0.15,0.21,1.15,0.14,-5.38,39.38,-6.50,0.38,-12.60,4.07,-0.02,3.67
-4,15,-6,19,-455,3860,0.11,0.28,0.99,0.19,-4.55,38.60,-6.51,0.36,-12.61,4.35,-0.62,2.91
-3,5,-26,-11,-548,3932,0.08,0.28,0.74,-0.11,-5.48,39.32,-6.52,0.36,-12.61,4.34,-0.42,4.81
-1,-23,-16,113,-409,3904,0.07,0.11,0.57,1.13,-4.09,39.04,-6.52,0.35,-12.61,4.30,0.21,3.31
-1,6,5,92,-482,3809,0.05,0.14,0.54,0.92,-4.82,38.09,-6.53,0.33,-12.62,4.31,-0.38,0.77
-20,75,75,90,-560,3906,-0.07,0.58,0.94,0.90,-5.60,39.06,-6.54,0.32,-12.62,4.74,-1.90,-6.79
-19,86,91,80,-518,3912,-0.18,1.05,1.40,0.80,-5.18,39.12,-6.55,0.31,-12.62,4.76,-2.24,-7.84
-13,63,91,-49,-169,3892,-0.24,1.33,1.82,-0.49,-1.69,38.92,-6.53,0.32,-12.63,4.64,-1.85,-7.08
-2,34,62,-159,-280,4085,-0.23,1.40,2.01,-1.59,-2.80,40.85,-6.52,0.34,-12.64,4.41,-1.30,-3.28
6,-10,19,51,-438,3848,-0.17,1.20,1.93,0.51,-4.38,38.48,-6.52,0.32,-12.65,4.23,-0.34,1.66
4,-10,21,19,-429,3899,-0.13,1.02,1.86,0.19,-4.29,38.99,-6.51,0.31,-12.65,4.25,-0.28,1.31
4,-3,4,7,-462,3904,-0.09,0.90,1.70,0.07,-4.62,39.04,-6.52,0.30,-12.66,4.25,-0.38,3.03
3,-5,5,16,-458,3897,-0.07,0.78,1.56,0.16,-4.58,38.97,-6.53,0.29,-12.66,4.27,-0.30,2.65
0,10,2,24,-449,3886,-0.06,0.76,1.42,0.24,-4.49,38.86,-6.53,0.27,-12.67,4.33,-0.59,2.75
1,9,0,19,-455,3897,-0.05,0.74,1.28,0.19,-4.55,38.97,-6.53,0.26,-12.67,4.30,-0.55,2.72
-2,16,-1,-19,-483,3858,-0.05,0.77,1.14,-0.19,-4.83,38.58,-6.55,0.26,-12.68,4.38,-0.71,2.60
-3,17,1,34,-489,3936,-0.07,0.79,1.03,0.34,-4.89,39.36,-6.56,0.25,-12.68,4.41,-0.73,2.16
3,-17,12,-32,-454,3950,-0.04,0.61,1.00,-0.32,-4.54,39.50,-6.56,0.27,-12.69,4.28,0.00,0.80
4,-20,19,-85,-514,3948,-0.01,0.43,1.02,-0.85,-5.14,39.48,-6.58,0.29,-12.69,4.26,0.10,-0.00
-12,35,60,-2,-564,3711,-0.09,0.60,1.28,-0.02,-5.64,37.11,-6.59,0.29,-12.69,4.62,-1.06,-4.38
-21,60,53,97,-370,3827,-0.20,0.90,1.48,0.97,-3.70,38.27,-6.58,0.28,-12.70,4.83,-1.65,-3.19
2,15,5,-8,-455,3915,-0.17,0.90,1.36,-0.08,-4.55,39.15,-6.59,0.26,-12.71,4.36,-0.72,2.29
-6,12,1,-37,-423,3911,-0.19,0.89,1.23,-0.37,-4.23,39.11,-6.58,0.28,-12.71,4.51,-0.67,2.52
-5,2,0,170,-446,3873,-0.20,0.81,1.11,1.70,-4.46,38.73,-6.58,0.26,-12.71,4.50,-0.43,2.41
-4,0,4,27,-458,3931,-0.21,0.73,1.02,0.27,-4.58,39.31,-6.58,0.25,-12.72,4.48,-0.36,1.78
-2,-1,-1,56,-453,3903,-0.20,0.65,0.91,0.56,-4.53,39.03,-6.58,0.23,-12.72,4.44,-0.31,2.18
-3,-2,-2,14,-459,3907,-0.20,0.57,0.81,0.14,-4.59,39.07,-6.59,0.22,-12.72,4.46,-0.26,2.10
-1,-2,-3,34,-441,3879,-0.18,0.50,0.71,0.34,-4.41,38.79,-6.58,0.20,-12.73,4.42,-0.23,2.04
0,-1,-4,12,-462,3919,-0.17,0.45,0.62,0.12,-4.62,39.19,-6.59,0.19,-12.73,4.40,-0.22,1.98
-1,0,0,10,-461,3910,-0.15,0.40,0.55,0.10,-4.61,39.10,-6.60,0.17,-12.73,4.42,-0.22,1.40
-2,0,1,9,-463,3905,-0.15,0.36,0.50,0.09,-4.63,39.05,-6.61,0.16,-12.73,4.44,-0.20,1.19
0,3,-1,33,-477,3877,-0.14,0.34,0.45,0.33,-4.77,38.77,-6.62,0.14,-12.73,4.41,-0.25,1.32
-3,1,2,37,-476,3889,-0.14,0.32,0.42,0.37,-4.76,38.89,-6.63,0.13,-12.74,4.47,-0.19,0.91
0,2,-1,18,-473,3913,-0.13,0.30,0.37,0.18,-4.73,39.13,-6.64,0.11,-12.74,4.42,-0.20,1.18
0,1,-2,18,-482,3904,-0.11,0.27,0.32,0.18,-4.82,39.04,-6.65,0.10,-12.74,4.42,-0.16,1.20
-8,0,-7,56,-448,3856,-0.15,0.25,0.24,0.56,-4.48,38.56,-6.65,0.09,-12.74,4.59,-0.12,1.66
-5,1,-6,8,-435,3914,-0.17,0.23,0.18,0.08,-4.35,39.14,-6.64,0.08,-12.74,4.53,-0.13,1.43
-2,5,-12,24,-436,3897,-0.16,0.24,0.09,0.24,-4.36,38.97,-6.63,0.06,-12.74,4.46,-0.21,1.97
-1,8,-13,36,-433,3877,-0.15,0.26,0.00,0.36,-4.33,38.77,-6.62,0.05,-12.74,4.43,-0.26,1.93
5,10,-13,-6,-473,3896,-0.11,0.30,-0.08,-0.06,-4.73,38.96,-6.64,0.05,-12.74,4.31,-0.32,1.78
2,8,-14,-18,-458,3878,-0.08,0.31,-0.15,-0.18,-4.58,38.78,-6.65,0.07,-12.74,4.37,-0.29,1.76
-1,0,-6,11,-485,3920,-0.08,0.28,-0.18,0.11,-4.85,39.20,-6.66,0.06,-12.74,4.44,-0.12,0.77
0,0,-4,9,-475,3913,-0.07,0.25,-0.18,0.09,-4.75,39.13,-6.68,0.05,-12.74,4.43,-0.10,0.52
-5,-1,-7,52,-429,3891,-0.10,0.22,-0.21,0.52,-4.29,38.91,-6.67,0.03,-12.74,4.53,-0.06,0.83
-4,6,-12,24,-447,3925,-0.11,0.24,-0.26,0.24,-4.47,39.25,-6.67,0.02,-12.73,4.51,-0.20,1.33
-4,11,-24,40,-432,3882,-0.12,0.28,-0.38,0.40,-4.32,38.82,-6.66,0.00,-12.73,4.51,-0.30,2.53
-4,12,-28,30,-443,3908,-0.14,0.33,-0.51,0.30,-4.43,39.08,-6.65,-0.01,-12.73,4.51,-0.32,2.76
-4,-1,-96,79,-216,3979,-0.15,0.29,-1.05,0.79,-2.16,39.79,-6.63,-0.02,-12.73,4.50,-0.05,9.85
0,-22,-168,150,-79,3985,-0.13,0.12,-1.97,1.50,-0.79,39.85,-6.62,-0.02,-12.72,4.40,0.43,16.70
5,-10,-243,12,-457,3871,-0.09,0.05,-3.25,0.12,-4.57,38.71,-6.63,-0.04,-12.71,4.30,0.22,20.00
-3,-8,-259,88,-424,3847,-0.10,-0.00,-4.51,0.88,-4.24,38.47,-6.62,-0.06,-12.69,4.46,0.20,20.00
2,-11,-290,243,-357,3924,-0.08,-0.07,-5.83,2.43,-3.57,39.24,-6.62,-0.08,-12.66,4.35,0.30,20.00
5,-2,-293,25,-445,3816,-0.04,-0.07,-7.03,0.25,-4.45,38.16,-6.62,-0.10,-12.64,4.28,0.13,20.00
-5,-21,-363,-202,-416,3916,-0.06,-0.20,-8.54,-2.02,-4.16,39.16,-6.62,-0.09,-12.60,4.49,0.54,20.00
-5,-13,-373,-112,-492,3854,-0.09,-0.26,-9.96,-1.12,-4.92,38.54,-6.62,-0.08,-12.56,4.50,0.38,20.00
1,-7,-450,-76,-427,3755,-0.07,-0.27,-11.71,-0.76,-4.27,37.55,-6.62,-0.07,-12.52,4.37,0.26,20.00
-6,-28,-460,-11,-460,4077,-0.10,-0.42,-13.35,-0.11,-4.60,40.77,-6.61,-0.06,-12.46,4.51,0.72,20.00
4,-12,-434,-24,-445,3931,-0.07,-0.45,-14.66,-0.24,-4.45,39.31,-6.60,-0.05,-12.41,4.30,0.40,20.00
-3,-24,-451,80,-369,3851,-0.08,-0.55,-15.94,0.80,-3.69,38.51,-6.59,-0.07,-12.34,4.43,0.69,20.00
-6,-18,-443,-249,-453,3975,-0.11,-0.60,-17.05,-2.49,-4.53,39.75,-6.59,-0.07,-12.28,4.50,0.57,20.00
3,-12,-433,0,-570,3835,-0.08,-0.62,-17.99,0.00,-5.70,38.35,-6.61,-0.08,-12.20,4.32,0.46,18.73
7,-30,-467,-38,-334,3882,-0.03,-0.74,-19.04,-0.38,-3.34,38.82,-6.59,-0.08,-12.13,4.22,0.86,20.00
5,-29,-469,-165,-531,3683,0.00,-0.84,-20.00,-1.65,-5.31,36.83,-6.60,-0.08,-12.05,4.25,0.87,19.31
3,-23,-348,232,-777,3952,0.02,-0.90,-20.12,2.32,-7.77,39.52,-6.62,-0.10,-11.97,4.30,0.78,4.73
-3,-15,-358,114,-459,3966,0.00,-0.90,-20.29,1.14,-4.59,39.66,-6.62,-0.13,-11.89,4.43,0.64,5.60
-2,-25,-343,101,-501,3993,-0.01,-0.96,-20.35,1.01,-5.01,39.93,-6.62,-0.16,-11.81,4.41,0.88,3.70
4,-15,-337,-91,-545,3908,0.02,-0.96,-20.37,-0.91,-5.45,39.08,-6.64,-0.16,-11.73,4.29,0.67,2.95
6,-8,-284,-4,-584,3789,0.05,-0.91,-20.07,-0.04,-5.84,37.89,-6.65,-0.17,-11.65,4.26,0.52,-2.78
-4,-7,-261,-29,-539,4012,0.02,-0.86,-19.65,-0.29,-5.39,40.12,-6.67,-0.18,-11.57,4.48,0.49,-4.75
-1,-9,-232,80,-486,4095,0.01,-0.83,-19.10,0.80,-4.86,40.95,-6.67,-0.21,-11.50,4.42,0.55,-7.18
3,-4,-232,37,-462,3886,0.03,-0.77,-18.61,0.37,-4.62,38.86,-6.68,-0.24,-11.42,4.34,0.45,-6.28
6,-12,-209,66,-410,3943,0.06,-0.77,-18.02,0.66,-4.10,39.43,-6.66,-0.26,-11.35,4.26,0.62,-7.93
6,4,-218,-71,-440,3782,0.09,-0.67,-17.55,-0.71,-4.40,37.82,-6.66,-0.25,-11.28,4.25,0.27,-6.00
4,10,-281,-282,-414,3797,0.11,-0.54,-17.51,-2.82,-4.14,37.97,-6.66,-0.24,-11.21,4.28,0.10,1.55
6,-8,-275,-145,-359,3997,0.13,-0.53,-17.44,-1.45,-3.59,39.97,-6.65,-0.24,-11.14,4.23,0.47,0.97
6,-9,-335,-185,-321,4019,0.16,-0.54,-17.74,-1.85,-3.21,40.19,-6.64,-0.23,-11.07,4.21,0.48,7.53
17,12,-356,-208,-361,3734,0.25,-0.41,-18.13,-2.08,-3.61,37.34,-6.63,-0.23,-11.00,3.96,0.02,9.29
16,0,-414,-77,-285,3777,0.32,-0.37,-18.85,-0.77,-2.85,37.77,-6.61,-0.23,-10.93,3.95,0.25,14.86
11,15,-437,-115,-490,3785,0.35,-0.24,-19.63,-1.15,-4.90,37.85,-6.62,-0.22,-10.85,4.05,-0.09,16.15
18,9,-434,170,-338,3980,0.43,-0.16,-20.31,1.70,-3.38,39.80,-6.60,-0.25,-10.77,3.88,0.02,14.54
9,-4,-411,15,-435,4068,0.44,-0.17,-20.79,0.15,-4.35,40.68,-6.58,-0.25,-10.69,4.04,0.30,10.94
-1,-1,-381,195,-653,4238,0.39,-0.16,-21.03,1.95,-6.53,42.38,-6.59,-0.28,-10.60,4.27,0.25,6.93
5,-18,-354,267,-435,3985,0.38,-0.25,-21.09,2.67,-4.35,39.85,-6.59,-0.31,-10.52,4.14,0.64,3.62
3,-1,-458,42,-476,3950,0.36,-0.23,-21.77,0.42,-4.76,39.50,-6.60,-0.33,-10.43,4.20,0.30,14.69
1,-12,-451,118,-460,3984,0.33,-0.28,-22.35,1.18,-4.60,39.84,-6.60,-0.36,-10.34,4.24,0.56,12.81
0,-3,-425,46,-658,3904,0.30,-0.27,-22.71,0.46,-6.58,39.04,-6.61,-0.37,-10.25,4.28,0.38,9.07
-5,-7,-376,62,-730,4016,0.24,-0.29,-22.73,0.62,-7.30,40.16,-6.63,-0.39,-10.16,4.41,0.48,3.21
0,-9,-377,72,-590,3858,0.21,-0.31,-22.76,0.72,-5.90,38.58,-6.65,-0.41,-10.07,4.33,0.54,3.28
10,-5,-340,-15,-588,4010,0.25,-0.31,-22.55,-0.15,-5.88,40.10,-6.66,-0.41,-9.98,4.12,0.46,-0.75
10,-4,-265,-12,-658,3913,0.29,-0.31,-21.91,-0.12,-6.58,39.13,-6.68,-0.42,-9.90,4.13,0.44,-8.47
26,8,-244,-99,-871,3496,0.42,-0.23,-21.21,-0.99,-8.71,34.96,-6.69,-0.42,-9.81,3.77,0.18,-9.68
0,9,-134,119,-573,3400,0.38,-0.15,-19.91,1.19,-5.73,34.00,-6.71,-0.44,-9.73,4.32,0.15,-20.00
-5,10,-151,36,-529,4036,0.31,-0.07,-18.84,0.36,-5.29,40.36,-6.72,-0.45,-9.66,4.45,0.12,-16.36
3,12,-122,-17,-470,3957,0.30,0.01,-17.70,-0.17,-4.70,39.57,-6.72,-0.44,-9.59,4.30,0.05,-17.71
3,3,-128,-49,-417,3829,0.29,0.02,-16.71,-0.49,-4.17,38.29,-6.71,-0.43,-9.52,4.29,0.22,-15.18
2,5,-133,176,-510,3876,0.27,0.05,-15.85,1.76,-5.10,38.76,-6.72,-0.46,-9.46,4.32,0.19,-13.02
2,3,-146,190,-398,3939,0.25,0.07,-15.16,1.90,-3.98,39.39,-6.71,-0.48,-9.40,4.32,0.24,-10.20
-2,-6,-103,108,-527,3933,0.22,0.02,-14.27,1.08,-5.27,39.33,-6.72,-0.50,-9.34,4.42,0.45,-13.68
-5,-7,-95,169,-500,3826,0.16,-0.02,-13.42,1.69,-5.00,38.26,-6.73,-0.53,-9.29,4.50,0.50,-13.07
4,-7,-83,90,-424,3674,0.17,-0.06,-12.59,0.90,-4.24,36.74,-6.72,-0.55,-9.24,4.31,0.52,-12.96
-4,-5,-96,-83,-472,3954,0.13,-0.09,-11.91,-0.83,-4.72,39.54,-6.72,-0.54,-9.19,4.48,0.48,-10.19
6,-13,-105,-269,-277,3867,0.15,-0.16,-11.36,-2.69,-2.77,38.67,-6.71,-0.53,-9.15,4.27,0.66,-8.11
3,-15,-122,-171,-326,3915,0.16,-0.23,-10.97,-1.71,-3.26,39.15,-6.70,-0.52,-9.10,4.32,0.71,-5.38
-4,-4,-85,-113,-509,3912,0.12,-0.23,-10.39,-1.13,-5.09,39.12,-6.71,-0.51,-9.06,4.48,0.48,-8.71
7,0,-81,-34,-433,3902,0.15,-0.21,-9.85,-0.34,-4.33,39.02,-6.70,-0.50,-9.02,4.24,0.39,-8.18
3,8,-102,-35,-481,3878,0.15,-0.14,-9.48,-0.35,-4.81,38.78,-6.70,-0.48,-8.99,4.32,0.20,-5.03
2,5,-97,22,-444,3948,0.15,-0.10,-9.13,0.22,-4.44,39.48,-6.69,-0.48,-8.95,4.33,0.24,-4.97
5,9,-77,40,-381,3889,0.16,-0.03,-8.68,0.40,-3.81,38.89,-6.67,-0.49,-8.92,4.25,0.15,-6.53
9,5,-105,86,-301,3881,0.20,0.00,-8.46,0.86,-3.01,38.81,-6.65,-0.50,-8.88,4.15,0.22,-2.79
4,-13,-172,-81,-393,3999,0.21,-0.08,-8.66,-0.81,-3.93,39.99,-6.64,-0.48,-8.85,4.24,0.61,4.78
2,1,-189,-56,-330,3777,0.20,-0.06,-8.95,-0.56,-3.30,37.77,-6.62,-0.48,-8.81,4.28,0.31,6.27
16,5,-246,-28,-458,3933,0.28,-0.03,-9.55,-0.28,-4.58,39.33,-6.62,-0.46,-8.77,3.97,0.21,11.92
6,-12,-258,6,-398,3914,0.29,-0.10,-10.17,0.06,-3.98,39.14,-6.60,-0.46,-8.73,4.16,0.57,12.21
2,-8,-275,1,-381,3932,0.27,-0.14,-10.83,0.01,-3.81,39.32,-6.59,-0.46,-8.69,4.23,0.50,13.01
10,8,-323,31,-368,3904,0.30,-0.07,-11.72,0.31,-3.68,39.04,-6.57,-0.47,-8.64,4.05,0.16,17.07
5,-17,-376,3,-267,4090,0.30,-0.17,-12.84,0.03,-2.67,40.90,-6.55,-0.47,-8.59,4.14,0.70,20.00
21,-2,-411,8,-322,3837,0.40,-0.17,-14.06,0.08,-3.22,38.37,-6.53,-0.47,-8.54,3.77,0.40,20.00
-3,-11,-431,206,-496,3917,0.34,-0.22,-15.29,2.06,-4.96,39.17,-6.53,-0.50,-8.48,4.28,0.61,20.00
8,8,-448,109,-564,3836,0.36,-0.15,-16.49,1.09,-5.64,38.36,-6.54,-0.52,-8.41,4.06,0.22,20.00
8,29,-504,-83,-510,3805,0.37,0.05,-17.92,-0.83,-5.10,38.05,-6.55,-0.51,-8.34,4.06,-0.27,20.00
-4,-5,-472,245,-478,3971,0.31,0.01,-19.00,2.45,-4.78,39.71,-6.55,-0.53,-8.26,4.32,0.45,20.00
24,10,-545,-282,-299,3939,0.42,0.07,-20.43,-2.82,-2.99,39.39,-6.54,-0.53,-8.18,3.71,0.13,20.00
3,5,-538,-257,-261,3878,0.40,0.09,-21.67,-2.57,-2.61,38.78,-6.53,-0.52,-8.10,4.14,0.22,20.00
14,12,-652,-123,-368,3859,0.45,0.16,-23.48,-1.23,-3.68,38.59,-6.52,-0.51,-8.00,3.90,0.05,20.00
19,9,-672,-104,-208,3987,0.52,0.20,-25.23,-1.04,-2.08,39.87,-6.50,-0.52,-7.90,3.76,0.10,20.00
23,5,-741,-198,-353,4066,0.61,0.21,-27.23,-1.98,-3.53,40.66,-6.49,-0.51,-7.79,3.65,0.18,20.00
14,-22,-759,-224,-240,3876,0.63,0.05,-29.13,-2.24,-2.40,38.76,-6.47,-0.51,-7.68,3.82,0.77,20.00
16,-17,-806,-102,-409,3897,0.66,-0.06,-31.14,-1.02,-4.09,38.97,-6.47,-0.51,-7.55,3.76,0.69,20.00
17,-13,-809,-55,-417,3900,0.70,-0.13,-32.96,-0.55,-4.17,39.00,-6.46,-0.50,-7.42,3.72,0.63,20.00
13,-22,-804,-18,-493,3926,0.71,-0.25,-34.57,-0.18,-4.93,39.26,-6.46,-0.51,-7.29,3.81,0.85,20.00
19,-12,-801,23,-592,4008,0.76,-0.30,-36.00,0.23,-5.92,40.08,-6.48,-0.52,-7.14,3.68,0.67,20.00
-7,-39,-741,93,-672,3952,0.64,-0.51,-36.92,0.93,-6.72,39.52,-6.49,-0.55,-7.00,4.25,1.29,20.00
8,-5,-723,91,-606,3850,0.62,-0.49,-37.63,0.91,-6.06,38.50,-6.51,-0.57,-6.85,3.96,0.61,16.92
10,-11,-653,17,-528,3840,0.62,-0.51,-37.85,0.17,-5.28,38.40,-6.52,-0.59,-6.70,3.93,0.75,8.21
2,-15,-629,-62,-475,3973,0.57,-0.55,-37.91,-0.62,-4.75,39.73,-6.52,-0.59,-6.55,4.11,0.84,5.27
11,-17,-612,75,-557,3895,0.58,-0.60,-37.85,0.75,-5.57,38.95,-6.53,-0.61,-6.40,3.93,0.91,3.35
18,-14,-598,-8,-540,3927,0.63,-0.62,-37.71,-0.08,-5.40,39.27,-6.54,-0.62,-6.25,3.78,0.86,1.94
2,-22,-549,24,-628,3883,0.58,-0.69,-37.29,0.24,-6.28,38.83,-6.56,-0.64,-6.10,4.13,1.06,-3.10
0,-7,-534,-7,-635,3800,0.52,-0.67,-36.82,-0.07,-6.35,38.00,-6.57,-0.66,-5.95,4.20,0.76,-4.02
4,-14,-487,-34,-594,3816,0.50,-0.69,-36.11,-0.34,-5.94,38.16,-6.59,-0.67,-5.81,4.13,0.91,-8.30
9,-9,-473,32,-559,3948,0.50,-0.67,-35.38,0.32,-5.59,39.48,-6.60,-0.68,-5.67,4.04,0.82,-8.63
3,-23,-427,-31,-527,3886,0.47,-0.74,-34.45,-0.31,-5.27,38.86,-6.61,-0.69,-5.54,4.17,1.13,-12.38
10,-11,-418,-40,-550,3820,0.48,-0.74,-33.55,-0.40,-5.50,38.20,-6.62,-0.70,-5.40,4.03,0.88,-11.81
-1,-3,-374,59,-615,3842,0.43,-0.68,-32.48,0.59,-6.15,38.42,-6.63,-0.71,-5.27,4.28,0.72,-15.06
7,-1,-352,85,-620,3926,0.43,-0.62,-31.38,0.85,-6.20,39.26,-6.65,-0.74,-5.15,4.13,0.67,-15.66
10,10,-345,99,-525,3816,0.45,-0.50,-30.35,0.99,-5.25,38.16,-6.66,-0.76,-5.03,4.07,0.43,-14.59
5,2,-335,99,-543,3920,0.43,-0.44,-29.35,0.99,-5.43,39.20,-6.67,-0.79,-4.91,4.19,0.60,-13.97
6,-7,-335,31,-448,3899,0.43,-0.43,-28.46,0.31,-4.48,38.99,-6.66,-0.78,-4.80,4.16,0.78,-12.33
14,4,-332,-18,-499,3887,0.47,-0.37,-27.64,-0.18,-4.99,38.87,-6.67,-0.78,-4.69,3.99,0.53,-11.19
-1,-5,-269,-75,-599,3890,0.42,-0.36,-26.52,-0.75,-5.99,38.90,-6.68,-0.78,-4.59,4.32,0.72,-16.60
6,-4,-270,-4,-612,3864,0.41,-0.35,-25.51,-0.04,-6.12,38.64,-6.70,-0.79,-4.48,4.18,0.70,-14.64
4,-5,-241,40,-475,3928,0.39,-0.34,-24.43,0.40,-4.75,39.28,-6.71,-0.79,-4.39,4.24,0.72,-16.10
1,0,-240,60,-428,3941,0.36,-0.31,-23.45,0.60,-4.28,39.41,-6.68,-0.80,-4.29,4.29,0.62,-14.43
7,0,-270,28,-456,3925,0.37,-0.28,-22.75,0.28,-4.56,39.25,-6.68,-0.80,-4.20,4.17,0.60,-9.59
4,-3,-295,-2,-488,3914,0.36,-0.27,-22.28,-0.02,-4.88,39.14,-6.68,-0.79,-4.12,4.23,0.66,-5.75
8,2,-319,74,-443,3862,0.37,-0.23,-22.00,0.74,-4.43,38.62,-6.67,-0.82,-4.03,4.14,0.56,-2.39
6,2,-333,-1,-415,3968,0.37,-0.19,-21.83,-0.01,-4.15,39.68,-6.66,-0.82,-3.94,4.17,0.55,-0.43
12,1,-397,-57,-395,3979,0.40,-0.17,-22.07,-0.57,-3.95,39.79,-6.65,-0.81,-3.85,4.03,0.56,6.72
6,-2,-413,-35,-404,3861,0.40,-0.16,-22.38,-0.35,-4.04,38.61,-6.64,-0.81,-3.77,4.15,0.62,8.05
12,-4,-479,-8,-226,3920,0.43,-0.17,-23.06,-0.08,-2.26,39.20,-6.62,-0.81,-3.67,4.00,0.67,14.62
4,-11,-495,-23,-277,3949,0.41,-0.22,-23.78,-0.23,-2.77,39.49,-6.60,-0.82,-3.58,4.16,0.82,15.20
1,-12,-608,-99,-404,3883,0.38,-0.27,-25.11,-0.99,-4.04,38.83,-6.59,-0.81,-3.48,4.22,0.86,20.00
16,-20,-661,-50,-326,3956,0.44,-0.37,-26.63,-0.50,-3.26,39.56,-6.57,-0.82,-3.37,3.89,1.05,20.00
8,-27,-770,-10,-308,3897,0.44,-0.50,-28.66,-0.10,-3.08,38.97,-6.55,-0.82,-3.26,4.04,1.23,20.00
7,-13,-818,-29,-402,3935,0.44,-0.53,-30.79,-0.29,-4.02,39.35,-6.54,-0.82,-3.14,4.05,0.95,20.00
18,-10,-879,16,-456,3930,0.51,-0.53,-33.07,0.16,-4.56,39.30,-6.54,-0.82,-3.01,3.81,0.89,20.00
2,-19,-897,22,-440,3865,0.47,-0.60,-35.23,0.22,-4.40,38.65,-6.53,-0.82,-2.87,4.14,1.09,20.00
11,-15,-914,-36,-409,3892,0.49,-0.63,-37.29,-0.36,-4.09,38.92,-6.52,-0.83,-2.72,3.95,1.02,20.00
11,-8,-918,-12,-451,3852,0.51,-0.61,-39.16,-0.12,-4.51,38.52,-6.52,-0.83,-2.56,3.94,0.88,20.00
5,-18,-963,-125,-378,3923,0.49,-0.66,-41.12,-1.25,-3.78,39.23,-6.51,-0.83,-2.40,4.06,1.10,20.00
13,-9,-971,-122,-381,3840,0.52,-0.65,-42.93,-1.22,-3.81,38.40,-6.50,-0.84,-2.23,3.88,0.91,20.00
8,-18,-996,-185,-405,3894,0.51,-0.70,-44.71,-1.85,-4.05,38.94,-6.49,-0.84,-2.05,3.98,1.11,20.00
12,-18,-1008,-156,-391,3888,0.54,-0.74,-46.39,-1.56,-3.91,38.88,-6.48,-0.85,-1.87,3.89,1.13,20.00
5,-28,-988,-165,-442,3919,0.51,-0.83,-47.78,-1.65,-4.42,39.19,-6.48,-0.85,-1.68,4.03,1.36,20.00
0,-26,-986,-73,-476,3737,0.46,-0.91,-49.01,-0.73,-4.76,37.37,-6.48,-0.86,-1.48,4.15,1.35,20.00
15,-39,-991,-82,-475,3909,0.51,-1.06,-50.16,-0.82,-4.75,39.09,-6.48,-0.87,-1.28,3.83,1.66,20.00
20,-30,-989,-24,-475,3893,0.58,-1.13,-51.17,-0.24,-4.75,38.93,-6.48,-0.88,-1.08,3.71,1.50,20.00
11,-28,-1011,19,-516,3857,0.59,-1.19,-52.22,0.19,-5.16,38.57,-6.49,-0.90,-0.88,3.90,1.49,20.00
23,-16,-1001,32,-483,3936,0.67,-1.17,-53.11,0.32,-4.83,39.36,-6.50,-0.92,-0.66,3.64,1.25,20.00
34,-3,-980,11,-668,4018,0.81,-1.07,-53.77,0.11,-6.68,40.18,-6.51,-0.94,-0.45,3.38,0.97,17.61
25,-6,-961,-75,-479,4154,0.88,-1.00,-54.26,-0.75,-4.79,41.54,-6.50,-0.95,-0.24,3.54,1.02,14.46
13,-6,-929,-47,-538,4135,0.87,-0.94,-54.50,-0.47,-5.38,41.35,-6.50,-0.96,-0.02,3.79,1.01,10.21
