gyroADC_X,gyroADC_Y,gyroADC_Z,accADC_X,accADC_Y,accADC_Z,GyroX,GyroY,GyroZ,AccX,AccY,AccZ,roll_IMU,pitch_IMU,yaw_IMU,roll_PID,pitch_PID,yaw_PID
3,0,0,-55,-387,3890,0.03,0.01,-0.01,-0.55,-3.87,38.90,-5.70,0.92,7.83,0.24,-0.05,-0.19
6,0,0,-50,-393,3888,0.06,0.01,-0.01,-0.50,-3.93,38.88,-5.71,0.90,7.83,0.19,-0.05,-0.19
0,1,1,-43,-394,3913,0.06,0.02,-0.00,-0.43,-3.94,39.13,-5.71,0.88,7.83,0.29,-0.06,-0.20
-1,3,1,-93,-398,3921,0.05,0.03,0.00,-0.93,-3.98,39.21,-5.71,0.90,7.83,0.30,-0.09,-0.20
0,2,0,-89,-420,3864,0.04,0.04,0.00,-0.89,-4.20,38.64,-5.73,0.91,7.83,0.29,-0.08,-0.20
-1,0,-2,-92,-427,3914,0.03,0.04,-0.01,-0.92,-4.27,39.14,-5.74,0.93,7.83,0.30,-0.05,-0.18
-1,-1,-2,-86,-404,3901,0.02,0.03,-0.02,-0.86,-4.04,39.01,-5.75,0.94,7.83,0.30,-0.03,-0.18
1,1,-3,-59,-385,3907,0.03,0.03,-0.04,-0.59,-3.85,39.07,-5.73,0.93,7.83,0.27,-0.06,-0.17
1,-1,-3,-57,-360,3917,0.03,0.02,-0.05,-0.57,-3.60,39.17,-5.72,0.93,7.83,0.27,-0.03,-0.16
2,-1,-1,-58,-362,3904,0.04,0.01,-0.05,-0.58,-3.62,39.04,-5.70,0.93,7.83,0.25,-0.03,-0.18
2,0,-1,-51,-369,3911,0.05,0.01,-0.05,-0.51,-3.69,39.11,-5.68,0.92,7.83,0.25,-0.05,-0.18
1,0,0,-52,-365,3899,0.05,0.01,-0.05,-0.52,-3.65,38.99,-5.66,0.91,7.83,0.27,-0.05,-0.19
1,0,0,-71,-390,3910,0.05,0.01,-0.04,-0.71,-3.90,39.10,-5.67,0.93,7.83,0.27,-0.05,-0.19
1,1,0,-71,-400,3891,0.05,0.02,-0.04,-0.71,-4.00,38.91,-5.68,0.94,7.84,0.27,-0.06,-0.19
0,0,-1,-70,-402,3910,0.05,0.01,-0.04,-0.70,-4.02,39.10,-5.70,0.94,7.84,0.28,-0.05,-0.18
0,0,-2,-71,-402,3912,0.04,0.01,-0.05,-0.71,-4.02,39.12,-5.72,0.95,7.84,0.29,-0.05,-0.17
-1,0,-1,-76,-388,3901,0.03,0.01,-0.05,-0.76,-3.88,39.01,-5.71,0.97,7.84,0.30,-0.05,-0.18
-1,0,-1,-76,-382,3902,0.02,0.01,-0.05,-0.76,-3.82,39.02,-5.70,0.98,7.84,0.30,-0.05,-0.18
-1,0,-1,-74,-383,3906,0.01,0.01,-0.05,-0.74,-3.83,39.06,-5.69,1.00,7.84,0.30,-0.05,-0.18
-1,0,-1,-56,-380,3903,0.01,0.01,-0.05,-0.56,-3.80,39.03,-5.68,0.98,7.84,0.30,-0.05,-0.18
1,0,0,-43,-382,3896,0.01,0.01,-0.05,-0.43,-3.82,38.96,-5.67,0.96,7.84,0.27,-0.05,-0.19
1,0,0,-42,-387,3892,0.02,0.01,-0.04,-0.42,-3.87,38.92,-5.67,0.95,7.84,0.27,-0.05,-0.19
2,0,0,-58,-397,3910,0.03,0.01,-0.04,-0.58,-3.97,39.10,-5.69,0.93,7.84,0.25,-0.05,-0.19
1,0,-1,-67,-403,3913,0.03,0.01,-0.04,-0.67,-4.03,39.13,-5.70,0.94,7.84,0.27,-0.05,-0.18
1,0,0,-79,-396,3909,0.03,0.00,-0.04,-0.79,-3.96,39.09,-5.71,0.95,7.84,0.27,-0.05,-0.19
0,0,0,-76,-394,3903,0.03,0.00,-0.03,-0.76,-3.94,39.03,-5.72,0.97,7.84,0.29,-0.05,-0.19
0,0,0,-78,-394,3911,0.03,0.00,-0.03,-0.78,-3.94,39.11,-5.72,0.99,7.84,0.29,-0.05,-0.19
1,0,-1,-78,-393,3909,0.03,0.00,-0.03,-0.78,-3.93,39.09,-5.72,1.01,7.84,0.27,-0.05,-0.18
-1,1,0,-61,-384,3905,0.02,0.01,-0.03,-0.61,-3.84,39.05,-5.71,0.99,7.84,0.30,-0.07,-0.19
0,1,0,-55,-381,3905,0.02,0.01,-0.03,-0.55,-3.81,39.05,-5.70,0.98,7.84,0.28,-0.06,-0.19
0,0,-1,-51,-379,3891,0.02,0.01,-0.03,-0.51,-3.79,38.91,-5.69,0.96,7.84,0.28,-0.05,-0.18
0,0,-1,-51,-385,3894,0.02,0.01,-0.03,-0.51,-3.85,38.94,-5.69,0.95,7.84,0.28,-0.05,-0.18
0,1,0,-65,-384,3908,0.01,0.02,-0.03,-0.65,-3.84,39.08,-5.67,0.95,7.84,0.28,-0.06,-0.19
0,0,-1,-73,-387,3908,0.01,0.01,-0.03,-0.73,-3.87,39.08,-5.67,0.97,7.84,0.28,-0.05,-0.18
1,1,0,-71,-390,3914,0.02,0.02,-0.03,-0.71,-3.90,39.14,-5.67,0.98,7.84,0.27,-0.06,-0.19
0,1,1,-73,-398,3911,0.02,0.02,-0.02,-0.73,-3.98,39.11,-5.69,0.99,7.84,0.28,-0.06,-0.20
0,-1,-1,-66,-391,3892,0.01,0.02,-0.02,-0.66,-3.91,38.92,-5.70,0.98,7.84,0.29,-0.03,-0.18
1,0,-1,-68,-387,3899,0.02,0.01,-0.03,-0.68,-3.87,38.99,-5.69,0.99,7.84,0.27,-0.05,-0.18
-1,1,-1,-59,-385,3894,0.01,0.02,-0.03,-0.59,-3.85,38.94,-5.68,0.97,7.84,0.30,-0.06,-0.18
-1,0,0,-65,-380,3900,0.00,0.02,-0.03,-0.65,-3.80,39.00,-5.66,0.97,7.84,0.30,-0.05,-0.19
1,0,-1,-54,-386,3902,0.01,0.01,-0.03,-0.54,-3.86,39.02,-5.66,0.95,7.84,0.27,-0.05,-0.18
0,0,0,-53,-380,3895,0.01,0.01,-0.03,-0.53,-3.80,38.95,-5.65,0.93,7.84,0.28,-0.05,-0.19
0,0,-1,-70,-379,3890,0.01,0.01,-0.03,-0.70,-3.79,38.90,-5.64,0.95,7.84,0.28,-0.05,-0.18
0,0,0,-71,-380,3906,0.01,0.01,-0.03,-0.71,-3.80,39.06,-5.63,0.96,7.84,0.28,-0.05,-0.19
-1,1,0,-66,-386,3912,0.00,0.02,-0.03,-0.66,-3.86,39.12,-5.65,0.96,7.84,0.30,-0.06,-0.19
-1,0,0,-63,-388,3895,-0.01,0.01,-0.02,-0.63,-3.88,38.95,-5.66,0.95,7.84,0.30,-0.05,-0.19
-1,0,0,-70,-397,3896,-0.01,0.01,-0.02,-0.70,-3.97,38.96,-5.68,0.96,7.84,0.30,-0.05,-0.19
-1,0,0,-75,-397,3901,-0.02,0.01,-0.02,-0.75,-3.97,39.01,-5.69,0.97,7.84,0.30,-0.05,-0.19
0,0,-1,-59,-386,3907,-0.01,0.01,-0.02,-0.59,-3.86,39.07,-5.68,0.96,7.84,0.28,-0.05,-0.18
0,0,-1,-63,-386,3901,-0.01,0.01,-0.03,-0.63,-3.86,39.01,-5.67,0.94,7.84,0.28,-0.05,-0.18
-2,0,0,-60,-383,3898,-0.02,0.01,-0.02,-0.60,-3.83,38.98,-5.66,0.93,7.84,0.31,-0.05,-0.19
0,0,0,-58,-381,3907,-0.02,0.01,-0.02,-0.58,-3.81,39.07,-5.64,0.92,7.84,0.28,-0.05,-0.19
0,1,0,-68,-383,3908,-0.02,0.01,-0.02,-0.68,-3.83,39.08,-5.63,0.93,7.84,0.28,-0.06,-0.19
0,0,0,-70,-385,3892,-0.02,0.01,-0.02,-0.70,-3.85,38.92,-5.64,0.95,7.84,0.28,-0.05,-0.19
0,1,0,-62,-392,3901,-0.02,0.02,-0.02,-0.62,-3.92,39.01,-5.65,0.94,7.84,0.28,-0.06,-0.19
1,0,0,-67,-391,3911,-0.01,0.01,-0.01,-0.67,-3.91,39.11,-5.67,0.95,7.84,0.27,-0.05,-0.19
0,1,0,-76,-387,3905,-0.01,0.02,-0.01,-0.76,-3.87,39.05,-5.67,0.97,7.84,0.28,-0.06,-0.19
1,1,0,-67,-396,3910,-0.00,0.02,-0.01,-0.67,-3.96,39.10,-5.69,0.97,7.84,0.27,-0.06,-0.19
-1,1,-1,-68,-385,3900,-0.01,0.03,-0.02,-0.68,-3.85,39.00,-5.67,0.98,7.84,0.30,-0.06,-0.19
1,0,0,-66,-385,3896,0.00,0.02,-0.01,-0.66,-3.85,38.96,-5.65,0.97,7.84,0.27,-0.05,-0.19
0,0,0,-67,-392,3910,0.00,0.02,-0.01,-0.67,-3.92,39.10,-5.67,0.97,7.84,0.28,-0.05,-0.19
0,0,0,-63,-396,3915,0.00,0.02,-0.01,-0.63,-3.96,39.15,-5.69,0.96,7.84,0.28,-0.05,-0.19
1,0,0,-76,-390,3910,0.01,0.02,-0.01,-0.76,-3.90,39.10,-5.69,0.98,7.84,0.27,-0.05,-0.19
1,0,-1,-76,-394,3910,0.01,0.02,-0.02,-0.76,-3.94,39.10,-5.70,1.00,7.84,0.27,-0.05,-0.19
1,0,-1,-76,-384,3898,0.02,0.01,-0.02,-0.76,-3.84,38.98,-5.69,1.01,7.84,0.27,-0.05,-0.18
1,0,-1,-70,-387,3892,0.02,0.01,-0.02,-0.70,-3.87,38.92,-5.68,1.03,7.84,0.27,-0.05,-0.18
0,0,-1,-72,-390,3897,0.02,0.01,-0.03,-0.72,-3.90,38.97,-5.69,1.04,7.84,0.28,-0.05,-0.18
1,0,-1,-72,-386,3903,0.02,0.01,-0.03,-0.72,-3.86,39.03,-5.67,1.04,7.84,0.27,-0.05,-0.18
1,0,-1,-64,-391,3892,0.03,0.01,-0.03,-0.64,-3.91,38.92,-5.68,1.03,7.84,0.27,-0.05,-0.18
1,-1,-1,-63,-394,3901,0.03,0.00,-0.04,-0.63,-3.94,39.01,-5.69,1.01,7.84,0.27,-0.04,-0.18
1,0,0,-74,-389,3899,0.03,0.00,-0.03,-0.74,-3.89,38.99,-5.69,1.03,7.84,0.27,-0.05,-0.19
0,0,0,-73,-390,3898,0.03,0.00,-0.03,-0.73,-3.90,38.98,-5.70,1.05,7.84,0.29,-0.05,-0.19
1,0,0,-67,-390,3903,0.03,0.00,-0.03,-0.67,-3.90,39.03,-5.70,1.03,7.84,0.27,-0.05,-0.19
1,1,0,-65,-393,3894,0.04,0.01,-0.02,-0.65,-3.93,38.94,-5.71,1.02,7.84,0.27,-0.07,-0.19
1,0,0,-67,-386,3912,0.04,0.01,-0.02,-0.67,-3.86,39.12,-5.70,1.01,7.84,0.27,-0.05,-0.19
1,0,0,-68,-389,3908,0.04,0.01,-0.02,-0.68,-3.89,39.08,-5.69,0.99,7.84,0.27,-0.05,-0.19
1,0,-1,-67,-389,3901,0.04,0.01,-0.02,-0.67,-3.89,39.01,-5.70,0.98,7.84,0.27,-0.05,-0.18
0,0,-1,-66,-393,3911,0.04,0.01,-0.03,-0.66,-3.93,39.11,-5.71,0.97,7.84,0.29,-0.05,-0.18
1,0,-1,-69,-384,3902,0.04,0.00,-0.03,-0.69,-3.84,39.02,-5.69,0.98,7.84,0.27,-0.05,-0.18
0,0,0,-67,-384,3901,0.04,0.00,-0.03,-0.67,-3.84,39.01,-5.68,0.98,7.84,0.28,-0.05,-0.19
1,1,-1,-66,-384,3907,0.04,0.01,-0.03,-0.66,-3.84,39.07,-5.66,0.97,7.84,0.27,-0.06,-0.18
0,1,0,-63,-383,3896,0.04,0.01,-0.03,-0.63,-3.83,38.96,-5.65,0.96,7.84,0.28,-0.06,-0.19
0,0,0,-70,-386,3900,0.03,0.01,-0.03,-0.70,-3.86,39.00,-5.65,0.98,7.84,0.28,-0.05,-0.19
0,0,0,-64,-390,3904,0.03,0.01,-0.02,-0.64,-3.90,39.04,-5.66,0.97,7.84,0.28,-0.05,-0.19
0,0,-1,-65,-396,3903,0.03,0.01,-0.03,-0.65,-3.96,39.03,-5.68,0.96,7.84,0.28,-0.05,-0.18
0,0,-1,-60,-394,3898,0.02,0.01,-0.03,-0.60,-3.94,38.98,-5.69,0.95,7.84,0.28,-0.05,-0.18
0,1,0,-69,-396,3908,0.02,0.01,-0.03,-0.69,-3.96,39.08,-5.71,0.96,7.84,0.29,-0.06,-0.19
0,0,0,-73,-394,3906,0.02,0.01,-0.02,-0.73,-3.94,39.06,-5.72,0.98,7.84,0.29,-0.05,-0.19
0,0,-1,-69,-390,3911,0.02,0.01,-0.03,-0.69,-3.90,39.11,-5.71,0.99,7.84,0.29,-0.05,-0.18
0,0,-1,-70,-389,3909,0.02,0.01,-0.03,-0.70,-3.89,39.09,-5.69,1.01,7.84,0.28,-0.05,-0.18
1,1,-1,-66,-391,3903,0.02,0.02,-0.03,-0.66,-3.91,39.03,-5.70,0.99,7.84,0.27,-0.06,-0.18
1,1,0,-64,-393,3903,0.02,0.02,-0.03,-0.64,-3.93,39.03,-5.72,0.98,7.85,0.27,-0.06,-0.19
1,1,-1,-68,-390,3897,0.03,0.02,-0.03,-0.68,-3.90,38.97,-5.71,1.00,7.85,0.27,-0.07,-0.18
0,1,0,-71,-385,3897,0.02,0.03,-0.03,-0.71,-3.85,38.97,-5.70,1.00,7.85,0.28,-0.07,-0.19
0,0,-1,-67,-390,3902,0.02,0.03,-0.03,-0.67,-3.90,39.02,-5.70,0.99,7.85,0.29,-0.05,-0.18
0,0,0,-71,-396,3890,0.02,0.02,-0.03,-0.71,-3.96,38.90,-5.72,1.00,7.85,0.29,-0.05,-0.19
0,1,0,-67,-391,3903,0.02,0.03,-0.03,-0.67,-3.91,39.03,-5.72,0.98,7.85,0.29,-0.06,-0.19
0,1,0,-65,-387,3893,0.02,0.03,-0.02,-0.65,-3.87,38.93,-5.70,0.97,7.85,0.29,-0.06,-0.19
0,0,-1,-72,-387,3894,0.01,0.03,-0.03,-0.72,-3.87,38.94,-5.70,0.99,7.85,0.28,-0.05,-0.18
1,0,0,-76,-388,3904,0.02,0.02,-0.03,-0.76,-3.88,39.04,-5.70,1.00,7.85,0.27,-0.05,-0.19
0,0,0,-64,-389,3904,0.02,0.02,-0.02,-0.64,-3.89,39.04,-5.69,0.99,7.85,0.28,-0.05,-0.19
1,0,0,-64,-388,3913,0.02,0.02,-0.02,-0.64,-3.88,39.13,-5.68,0.97,7.85,0.27,-0.05,-0.19
1,0,-1,-65,-394,3907,0.03,0.02,-0.02,-0.65,-3.94,39.07,-5.70,0.96,7.85,0.27,-0.05,-0.18
0,1,-1,-63,-393,3915,0.02,0.02,-0.03,-0.63,-3.93,39.15,-5.71,0.95,7.85,0.29,-0.06,-0.18
0,0,-1,-64,-389,3914,0.02,0.02,-0.03,-0.64,-3.89,39.14,-5.70,0.94,7.85,0.28,-0.05,-0.18
0,0,-1,-60,-393,3903,0.02,0.02,-0.03,-0.60,-3.93,39.03,-5.71,0.93,7.85,0.29,-0.05,-0.18
0,0,0,-73,-390,3909,0.02,0.02,-0.03,-0.73,-3.90,39.09,-5.71,0.95,7.85,0.29,-0.05,-0.19
1,0,0,-65,-390,3913,0.02,0.01,-0.03,-0.65,-3.90,39.13,-5.69,0.95,7.85,0.27,-0.05,-0.19
1,0,0,-71,-389,3899,0.03,0.01,-0.03,-0.71,-3.89,38.99,-5.69,0.97,7.85,0.27,-0.05,-0.19
0,0,-1,-76,-389,3907,0.02,0.01,-0.03,-0.76,-3.89,39.07,-5.69,0.98,7.85,0.28,-0.05,-0.18
1,0,-1,-60,-384,3901,0.03,0.01,-0.03,-0.60,-3.84,39.01,-5.68,0.97,7.85,0.27,-0.05,-0.18
1,0,-1,-61,-388,3900,0.03,0.01,-0.03,-0.61,-3.88,39.00,-5.68,0.95,7.85,0.27,-0.05,-0.18
1,0,-1,-68,-389,3895,0.03,0.01,-0.04,-0.68,-3.89,38.95,-5.69,0.97,7.85,0.27,-0.05,-0.18
1,1,0,-69,-385,3899,0.04,0.01,-0.03,-0.69,-3.85,38.99,-5.67,0.98,7.85,0.27,-0.06,-0.19
0,0,-1,-71,-388,3904,0.03,0.01,-0.04,-0.71,-3.88,39.04,-5.67,1.00,7.85,0.28,-0.05,-0.18
0,0,-1,-77,-392,3906,0.03,0.01,-0.04,-0.77,-3.92,39.06,-5.68,1.01,7.85,0.28,-0.05,-0.18
0,0,0,-62,-386,3889,0.03,0.01,-0.03,-0.62,-3.86,38.89,-5.68,1.00,7.85,0.28,-0.05,-0.19
0,0,-1,-58,-390,3896,0.02,0.01,-0.04,-0.58,-3.90,38.96,-5.68,0.98,7.85,0.28,-0.05,-0.18
1,0,0,-71,-397,3908,0.03,0.01,-0.03,-0.71,-3.97,39.08,-5.70,0.99,7.85,0.27,-0.05,-0.19
1,0,0,-72,-402,3898,0.03,0.01,-0.03,-0.72,-4.02,38.98,-5.72,0.99,7.85,0.27,-0.05,-0.19
0,0,0,-69,-395,3898,0.03,0.01,-0.03,-0.69,-3.95,38.98,-5.73,1.00,7.85,0.29,-0.05,-0.19
1,0,0,-67,-390,3903,0.03,0.01,-0.02,-0.67,-3.90,39.03,-5.72,0.99,7.85,0.27,-0.05,-0.19
0,0,0,-70,-389,3901,0.03,0.01,-0.02,-0.70,-3.89,39.01,-5.71,1.00,7.85,0.29,-0.05,-0.19
0,0,0,-69,-386,3903,0.03,0.00,-0.02,-0.69,-3.86,39.03,-5.69,1.00,7.85,0.28,-0.05,-0.19
0,0,0,-66,-391,3911,0.02,0.00,-0.02,-0.66,-3.91,39.11,-5.70,0.99,7.85,0.28,-0.05,-0.19
1,0,0,-67,-393,3917,0.03,0.00,-0.02,-0.67,-3.93,39.17,-5.71,0.98,7.85,0.27,-0.05,-0.19
0,0,0,-64,-390,3910,0.02,0.00,-0.01,-0.64,-3.90,39.10,-5.71,0.96,7.85,0.29,-0.05,-0.19
1,-1,0,-62,-392,3906,0.03,-0.00,-0.01,-0.62,-3.92,39.06,-5.71,0.95,7.85,0.27,-0.03,-0.19
0,-1,-1,-64,-392,3907,0.02,-0.01,-0.02,-0.64,-3.92,39.07,-5.73,0.93,7.85,0.29,-0.03,-0.19
1,0,-1,-62,-390,3909,0.03,-0.01,-0.02,-0.62,-3.90,39.09,-5.72,0.92,7.85,0.27,-0.05,-0.18
1,-1,-1,-66,-392,3898,0.03,-0.01,-0.03,-0.66,-3.92,38.98,-5.72,0.94,7.85,0.27,-0.03,-0.18
1,0,-1,-61,-393,3910,0.03,-0.01,-0.03,-0.61,-3.93,39.10,-5.73,0.92,7.85,0.27,-0.05,-0.18
1,0,0,-66,-387,3912,0.04,-0.01,-0.03,-0.66,-3.87,39.12,-5.71,0.93,7.85,0.27,-0.05,-0.19
1,0,-1,-70,-386,3901,0.04,-0.01,-0.03,-0.70,-3.86,39.01,-5.70,0.94,7.85,0.27,-0.05,-0.18
2,1,-1,-76,-388,3898,0.05,-0.00,-0.03,-0.76,-3.88,38.98,-5.70,0.96,7.85,0.25,-0.06,-0.18
1,0,-1,-68,-392,3907,0.05,-0.00,-0.04,-0.68,-3.92,39.07,-5.71,0.97,7.85,0.27,-0.05,-0.18
1,1,0,-66,-394,3908,0.05,0.00,-0.03,-0.66,-3.94,39.08,-5.73,0.97,7.85,0.27,-0.06,-0.19
1,0,-1,-71,-400,3909,0.05,0.00,-0.04,-0.71,-4.00,39.09,-5.75,0.98,7.85,0.27,-0.05,-0.18
1,0,0,-74,-392,3901,0.05,0.00,-0.03,-0.74,-3.92,39.01,-5.74,1.00,7.85,0.27,-0.05,-0.19
1,0,-1,-68,-390,3903,0.05,0.00,-0.03,-0.68,-3.90,39.03,-5.73,1.00,7.85,0.27,-0.05,-0.18
0,0,0,-66,-394,3896,0.05,0.00,-0.03,-0.66,-3.94,38.96,-5.74,0.99,7.85,0.29,-0.05,-0.19
0,0,-1,-71,-392,3897,0.04,0.00,-0.03,-0.71,-3.92,38.97,-5.74,1.00,7.85,0.29,-0.05,-0.18
1,-1,0,-65,-381,3903,0.04,-0.00,-0.03,-0.65,-3.81,39.03,-5.72,1.00,7.85,0.27,-0.03,-0.19
1,0,-1,-67,-388,3908,0.05,-0.00,-0.03,-0.67,-3.88,39.08,-5.71,0.99,7.85,0.27,-0.05,-0.18
1,0,-1,-55,-393,3912,0.05,-0.00,-0.04,-0.55,-3.93,39.12,-5.71,0.97,7.85,0.27,-0.05,-0.18
1,0,-1,-56,-390,3911,0.05,-0.00,-0.04,-0.56,-3.90,39.11,-5.71,0.96,7.85,0.27,-0.05,-0.18
1,0,0,-62,-382,3902,0.05,-0.00,-0.04,-0.62,-3.82,39.02,-5.69,0.95,7.85,0.27,-0.05,-0.19
1,0,-1,-64,-387,3903,0.05,-0.00,-0.04,-0.64,-3.87,39.03,-5.67,0.94,7.85,0.27,-0.05,-0.18
1,0,0,-67,-389,3913,0.05,-0.00,-0.03,-0.67,-3.89,39.13,-5.68,0.96,7.85,0.27,-0.05,-0.19
1,0,0,-74,-392,3916,0.05,-0.00,-0.03,-0.74,-3.92,39.16,-5.68,0.98,7.85,0.27,-0.05,-0.19
0,0,-1,-79,-395,3901,0.05,-0.00,-0.03,-0.79,-3.95,39.01,-5.69,0.99,7.85,0.28,-0.05,-0.18
0,0,-1,-80,-393,3900,0.04,-0.00,-0.04,-0.80,-3.93,39.00,-5.70,1.01,7.85,0.28,-0.05,-0.18
0,0,0,-66,-389,3896,0.04,-0.00,-0.03,-0.66,-3.89,38.96,-5.70,0.99,7.85,0.28,-0.05,-0.19
0,0,-1,-67,-391,3895,0.03,-0.00,-0.04,-0.67,-3.91,38.95,-5.72,0.99,7.85,0.29,-0.05,-0.18
0,1,-1,-63,-385,3908,0.03,0.00,-0.04,-0.63,-3.85,39.08,-5.70,0.97,7.85,0.28,-0.06,-0.18
-1,1,-1,-62,-390,3914,0.02,0.01,-0.04,-0.62,-3.90,39.14,-5.70,0.96,7.85,0.30,-0.06,-0.18
0,1,0,-59,-391,3906,0.02,0.02,-0.04,-0.59,-3.91,39.06,-5.70,0.94,7.85,0.29,-0.06,-0.19
0,0,0,-58,-389,3906,0.02,0.01,-0.03,-0.58,-3.89,39.06,-5.70,0.92,7.85,0.28,-0.05,-0.19
0,0,0,-71,-387,3907,0.02,0.01,-0.03,-0.71,-3.87,39.07,-5.69,0.94,7.85,0.28,-0.05,-0.19
0,0,0,-71,-385,3895,0.01,0.01,-0.03,-0.71,-3.85,38.95,-5.68,0.95,7.85,0.28,-0.05,-0.19
1,0,0,-64,-390,3905,0.02,0.01,-0.02,-0.64,-3.90,39.05,-5.70,0.94,7.85,0.27,-0.05,-0.19
1,-1,0,-64,-394,3905,0.02,0.00,-0.02,-0.64,-3.94,39.05,-5.72,0.94,7.85,0.27,-0.03,-0.19
1,1,-1,-70,-388,3895,0.03,0.01,-0.03,-0.70,-3.88,38.95,-5.71,0.96,7.85,0.27,-0.06,-0.18
1,0,0,-66,-385,3899,0.03,0.01,-0.02,-0.66,-3.85,38.99,-5.69,0.96,7.85,0.27,-0.05,-0.19
1,0,-1,-71,-387,3908,0.03,0.01,-0.03,-0.71,-3.87,39.08,-5.68,0.98,7.85,0.27,-0.05,-0.18
1,0,-1,-71,-381,3905,0.04,0.01,-0.03,-0.71,-3.81,39.05,-5.67,0.98,7.85,0.27,-0.05,-0.18
0,0,-1,-66,-388,3902,0.03,0.01,-0.03,-0.66,-3.88,39.02,-5.68,0.97,7.85,0.28,-0.05,-0.18
1,0,-1,-65,-397,3899,0.04,0.01,-0.04,-0.65,-3.97,38.99,-5.69,0.97,7.85,0.27,-0.05,-0.18
0,0,-1,-61,-391,3894,0.03,0.00,-0.04,-0.61,-3.91,38.94,-5.70,0.95,7.85,0.29,-0.05,-0.18
0,0,0,-62,-390,3902,0.03,0.00,-0.03,-0.62,-3.90,39.02,-5.70,0.93,7.85,0.29,-0.05,-0.19
1,0,-1,-69,-382,3896,0.03,0.00,-0.04,-0.69,-3.82,38.96,-5.69,0.94,7.85,0.27,-0.05,-0.18
1,0,0,-65,-390,3904,0.03,0.00,-0.03,-0.65,-3.90,39.04,-5.71,0.95,7.85,0.27,-0.05,-0.19
0,0,-1,-60,-392,3904,0.03,0.00,-0.04,-0.60,-3.92,39.04,-5.71,0.93,7.86,0.29,-0.05,-0.18
0,-1,0,-69,-386,3915,0.03,-0.00,-0.03,-0.69,-3.86,39.15,-5.70,0.94,7.86,0.28,-0.03,-0.19
1,0,-1,-61,-383,3901,0.03,-0.00,-0.04,-0.61,-3.83,39.01,-5.68,0.94,7.85,0.27,-0.05,-0.18
1,0,0,-65,-388,3900,0.03,-0.00,-0.03,-0.65,-3.88,39.00,-5.68,0.95,7.86,0.27,-0.05,-0.19
1,0,-1,-69,-391,3904,0.04,-0.00,-0.03,-0.69,-3.91,39.04,-5.69,0.97,7.86,0.27,-0.05,-0.18
1,0,-1,-71,-388,3898,0.04,-0.00,-0.04,-0.71,-3.88,38.98,-5.69,0.99,7.86,0.27,-0.05,-0.18
0,0,0,-66,-381,3907,0.04,-0.00,-0.03,-0.66,-3.81,39.07,-5.67,0.98,7.86,0.28,-0.05,-0.19
0,0,0,-69,-388,3912,0.03,-0.00,-0.03,-0.69,-3.88,39.12,-5.67,1.00,7.86,0.28,-0.05,-0.19
1,0,0,-69,-392,3918,0.03,-0.00,-0.03,-0.69,-3.92,39.18,-5.68,1.00,7.86,0.27,-0.05,-0.19
0,1,-1,-75,-387,3917,0.03,0.00,-0.03,-0.75,-3.87,39.17,-5.68,1.02,7.86,0.28,-0.07,-0.18
0,0,-1,-66,-383,3902,0.03,0.00,-0.03,-0.66,-3.83,39.02,-5.66,1.01,7.86,0.28,-0.05,-0.18
1,0,-1,-76,-391,3887,0.03,0.00,-0.04,-0.76,-3.91,38.87,-5.67,1.02,7.86,0.27,-0.05,-0.18
0,0,0,-63,-391,3904,0.03,0.00,-0.03,-0.63,-3.91,39.04,-5.68,1.01,7.86,0.28,-0.05,-0.19
1,0,0,-67,-386,3910,0.03,0.00,-0.03,-0.67,-3.86,39.10,-5.66,1.00,7.86,0.27,-0.05,-0.19
0,0,0,-68,-388,3910,0.03,0.00,-0.03,-0.68,-3.88,39.10,-5.67,0.98,7.86,0.28,-0.05,-0.19
1,0,0,-69,-386,3906,0.03,0.00,-0.02,-0.69,-3.86,39.06,-5.66,0.99,7.86,0.27,-0.05,-0.19
0,-1,-1,-58,-391,3906,0.03,-0.00,-0.03,-0.58,-3.91,39.06,-5.67,0.97,7.86,0.28,-0.03,-0.18
0,0,-2,-66,-393,3897,0.03,-0.00,-0.04,-0.66,-3.93,38.97,-5.69,0.97,7.86,0.28,-0.05,-0.17
1,0,-1,-73,-388,3907,0.03,-0.00,-0.04,-0.73,-3.88,39.07,-5.68,0.99,7.86,0.27,-0.05,-0.18
1,1,-1,-69,-390,3914,0.03,0.00,-0.04,-0.69,-3.90,39.14,-5.69,1.01,7.86,0.27,-0.07,-0.18
1,0,0,-59,-385,3908,0.04,0.00,-0.04,-0.59,-3.85,39.08,-5.68,0.99,7.86,0.27,-0.05,-0.19
0,0,0,-63,-394,3909,0.03,0.00,-0.03,-0.63,-3.94,39.09,-5.70,0.98,7.86,0.28,-0.05,-0.19
-1,0,0,-62,-391,3902,0.02,0.00,-0.03,-0.62,-3.91,39.02,-5.70,0.96,7.86,0.30,-0.05,-0.19
-1,1,-1,-68,-387,3909,0.01,0.01,-0.03,-0.68,-3.87,39.09,-5.69,0.97,7.86,0.30,-0.06,-0.18
0,0,-1,-67,-386,3892,0.01,0.01,-0.04,-0.67,-3.86,38.92,-5.67,0.98,7.86,0.28,-0.05,-0.18
0,0,-1,-66,-393,3896,0.01,0.01,-0.04,-0.66,-3.93,38.96,-5.69,0.98,7.86,0.28,-0.05,-0.18
0,0,0,-64,-388,3900,0.01,0.01,-0.03,-0.64,-3.88,39.00,-5.69,0.96,7.86,0.28,-0.05,-0.19
1,0,0,-59,-388,3897,0.02,0.01,-0.03,-0.59,-3.88,38.97,-5.69,0.94,7.86,0.27,-0.05,-0.19
1,0,0,-69,-391,3909,0.02,0.00,-0.03,-0.69,-3.91,39.09,-5.69,0.96,7.86,0.27,-0.05,-0.19
1,0,0,-68,-390,3903,0.02,0.00,-0.03,-0.68,-3.90,39.03,-5.70,0.97,7.86,0.27,-0.05,-0.19
1,-1,-1,-70,-385,3908,0.03,-0.00,-0.03,-0.70,-3.85,39.08,-5.68,0.98,7.86,0.27,-0.03,-0.18
1,0,-1,-60,-386,3913,0.03,-0.00,-0.03,-0.60,-3.86,39.13,-5.68,0.97,7.86,0.27,-0.05,-0.18
0,0,0,-64,-387,3907,0.03,-0.00,-0.03,-0.64,-3.87,39.07,-5.67,0.95,7.86,0.28,-0.05,-0.19
1,0,-1,-63,-394,3910,0.03,-0.00,-0.03,-0.63,-3.94,39.10,-5.68,0.94,7.86,0.27,-0.05,-0.18
2,0,-1,-64,-394,3909,0.04,-0.00,-0.04,-0.64,-3.94,39.09,-5.70,0.94,7.86,0.25,-0.05,-0.18
1,0,0,-69,-385,3901,0.04,-0.00,-0.03,-0.69,-3.85,39.01,-5.69,0.95,7.86,0.27,-0.05,-0.19
0,0,-1,-68,-393,3905,0.04,-0.00,-0.03,-0.68,-3.93,39.05,-5.70,0.96,7.86,0.29,-0.05,-0.18
0,0,-1,-71,-395,3910,0.03,-0.00,-0.04,-0.71,-3.95,39.10,-5.72,0.98,7.86,0.29,-0.05,-0.18
1,0,-1,-72,-390,3906,0.04,-0.00,-0.04,-0.72,-3.90,39.06,-5.71,1.00,7.86,0.27,-0.05,-0.18
1,0,-1,-74,-387,3898,0.04,-0.00,-0.04,-0.74,-3.87,38.98,-5.70,1.01,7.86,0.27,-0.05,-0.18
0,0,0,-71,-392,3886,0.04,-0.00,-0.04,-0.71,-3.92,38.86,-5.72,1.02,7.86,0.29,-0.05,-0.19
0,0,0,-69,-389,3903,0.03,-0.00,-0.03,-0.69,-3.89,39.03,-5.70,1.01,7.86,0.29,-0.05,-0.19
1,1,0,-69,-393,3901,0.03,0.01,-0.03,-0.69,-3.93,39.01,-5.72,1.01,7.86,0.27,-0.07,-0.19
1,1,-1,-65,-396,3902,0.04,0.01,-0.03,-0.65,-3.96,39.02,-5.74,1.00,7.86,0.27,-0.07,-0.18
0,0,-1,-67,-392,3899,0.03,0.01,-0.04,-0.67,-3.92,38.99,-5.74,0.98,7.86,0.29,-0.05,-0.18
0,0,-1,-67,-393,3909,0.03,0.01,-0.04,-0.67,-3.93,39.09,-5.74,0.96,7.86,0.29,-0.05,-0.18
1,-1,0,-61,-391,3909,0.03,0.00,-0.03,-0.61,-3.91,39.09,-5.74,0.95,7.86,0.27,-0.03,-0.19
1,0,0,-67,-391,3907,0.04,0.00,-0.03,-0.67,-3.91,39.07,-5.73,0.96,7.86,0.27,-0.05,-0.19
0,0,0,-69,-386,3905,0.03,0.00,-0.03,-0.69,-3.86,39.05,-5.71,0.97,7.86,0.29,-0.05,-0.19
0,0,0,-64,-381,3895,0.03,0.00,-0.03,-0.64,-3.81,38.95,-5.69,0.97,7.86,0.28,-0.05,-0.19
0,0,0,-58,-391,3902,0.03,0.00,-0.02,-0.58,-3.91,39.02,-5.70,0.95,7.86,0.28,-0.05,-0.19
1,0,0,-32,-379,3893,0.03,0.00,-0.02,-0.32,-3.79,38.93,-5.69,0.93,7.86,0.27,-0.05,-0.19
5,3,-5,74,-359,3826,0.06,0.02,-0.05,0.74,-3.59,38.26,-5.69,0.91,7.86,0.21,-0.09,-0.15
0,-10,-9,29,-394,3818,0.05,-0.04,-0.10,0.29,-3.94,38.18,-5.69,0.89,7.86,0.28,0.11,-0.11
-3,-12,-22,184,-316,3946,0.03,-0.11,-0.22,1.84,-3.16,39.46,-5.68,0.88,7.86,0.33,0.14,0.02
-3,-28,-10,50,-362,3878,0.01,-0.27,-0.26,0.50,-3.62,38.78,-5.68,0.86,7.86,0.33,0.38,-0.08
-2,-31,16,-155,-394,3910,-0.01,-0.43,-0.14,-1.55,-3.94,39.10,-5.68,0.87,7.86,0.31,0.43,-0.31
-4,-31,10,-141,-413,3935,-0.03,-0.58,-0.06,-1.41,-4.13,39.35,-5.69,0.89,7.86,0.35,0.43,-0.27
0,-12,4,-182,-446,3918,-0.03,-0.59,-0.03,-1.82,-4.46,39.18,-5.69,0.90,7.86,0.28,0.14,-0.23
-1,-6,2,-178,-436,3934,-0.03,-0.57,-0.02,-1.78,-4.36,39.34,-5.70,0.92,7.86,0.30,0.05,-0.21
2,10,2,-137,-390,3942,-0.01,-0.45,-0.00,-1.37,-3.90,39.42,-5.70,0.93,7.86,0.25,-0.20,-0.21
0,11,4,-89,-421,3921,-0.01,-0.34,0.02,-0.89,-4.21,39.21,-5.71,0.95,7.86,0.29,-0.21,-0.23
0,13,11,-45,-394,3890,-0.01,-0.23,0.09,-0.45,-3.94,38.90,-5.72,0.93,7.86,0.29,-0.24,-0.30
0,12,9,44,-397,3854,-0.01,-0.13,0.13,0.44,-3.97,38.54,-5.72,0.91,7.86,0.29,-0.23,-0.29
4,16,0,-123,-372,3930,0.01,-0.02,0.12,-1.23,-3.72,39.30,-5.71,0.93,7.86,0.22,-0.29,-0.21
4,15,8,-76,-413,3893,0.04,0.07,0.16,-0.76,-4.13,38.93,-5.73,0.93,7.86,0.23,-0.28,-0.28
2,6,5,-57,-396,3890,0.05,0.10,0.17,-0.57,-3.96,38.90,-5.74,0.92,7.86,0.26,-0.14,-0.26
0,6,5,-66,-404,3899,0.04,0.13,0.18,-0.66,-4.04,38.99,-5.76,0.93,7.86,0.29,-0.14,-0.26
0,1,3,-53,-398,3885,0.04,0.12,0.18,-0.53,-3.98,38.85,-5.77,0.91,7.86,0.29,-0.06,-0.25
1,1,0,-58,-399,3900,0.04,0.12,0.17,-0.58,-3.99,39.00,-5.78,0.90,7.86,0.27,-0.06,-0.22
1,2,2,-67,-393,3909,0.04,0.12,0.16,-0.67,-3.93,39.09,-5.77,0.92,7.86,0.27,-0.08,-0.23
1,1,-1,-66,-389,3907,0.04,0.11,0.14,-0.66,-3.89,39.07,-5.76,0.93,7.86,0.27,-0.06,-0.21
1,0,-1,-68,-391,3913,0.05,0.10,0.12,-0.68,-3.91,39.13,-5.75,0.94,7.86,0.27,-0.05,-0.20
1,-1,0,-68,-392,3909,0.05,0.08,0.11,-0.68,-3.92,39.09,-5.74,0.96,7.86,0.27,-0.03,-0.21
1,-2,1,-59,-383,3904,0.05,0.06,0.10,-0.59,-3.83,39.04,-5.72,0.95,7.86,0.27,-0.02,-0.22
0,-2,3,-67,-376,3910,0.04,0.04,0.11,-0.67,-3.76,39.10,-5.71,0.95,7.86,0.29,-0.02,-0.24
1,-2,1,-58,-384,3899,0.05,0.03,0.11,-0.58,-3.84,38.99,-5.69,0.94,7.86,0.27,-0.02,-0.22
1,-1,2,-61,-388,3909,0.05,0.02,0.11,-0.61,-3.88,39.09,-5.69,0.92,7.86,0.27,-0.03,-0.23
1,0,1,-67,-388,3911,0.05,0.02,0.10,-0.67,-3.88,39.11,-5.68,0.94,7.85,0.27,-0.05,-0.22
0,0,1,-60,-387,3895,0.04,0.02,0.10,-0.60,-3.87,38.95,-5.68,0.92,7.85,0.28,-0.05,-0.22
0,0,1,-58,-385,3902,0.04,0.01,0.09,-0.58,-3.85,39.02,-5.67,0.90,7.85,0.28,-0.05,-0.22
0,0,0,-69,-389,3906,0.04,0.01,0.09,-0.69,-3.89,39.06,-5.67,0.92,7.85,0.28,-0.05,-0.21
0,0,0,-55,-390,3902,0.03,0.01,0.08,-0.55,-3.90,39.02,-5.68,0.90,7.85,0.28,-0.05,-0.21
1,0,0,-54,-391,3899,0.03,0.01,0.07,-0.54,-3.91,38.99,-5.68,0.89,7.85,0.27,-0.04,-0.21
0,1,0,-59,-386,3887,0.03,0.02,0.06,-0.59,-3.86,38.87,-5.67,0.87,7.85,0.28,-0.06,-0.20
0,1,0,-71,-380,3899,0.03,0.02,0.06,-0.71,-3.80,38.99,-5.66,0.89,7.85,0.28,-0.06,-0.20
0,1,1,-68,-382,3900,0.03,0.02,0.06,-0.68,-3.82,39.00,-5.65,0.90,7.85,0.28,-0.06,-0.21
0,0,1,-70,-382,3902,0.02,0.02,0.06,-0.70,-3.82,39.02,-5.65,0.92,7.85,0.28,-0.05,-0.21
3,0,25,-49,-405,3912,0.04,0.02,0.20,-0.49,-4.05,39.12,-5.66,0.91,7.85,0.24,-0.05,-0.43
1,1,19,-37,-455,3909,0.04,0.02,0.30,-0.37,-4.55,39.09,-5.68,0.90,7.85,0.27,-0.06,-0.40
0,0,8,-60,-403,3893,0.04,0.02,0.32,-0.60,-4.03,38.93,-5.69,0.90,7.85,0.28,-0.05,-0.30
3,1,10,-83,-372,3916,0.05,0.03,0.35,-0.83,-3.72,39.16,-5.68,0.91,7.85,0.24,-0.06,-0.33
2,1,6,-60,-400,3908,0.06,0.03,0.35,-0.60,-4.00,39.08,-5.70,0.91,7.85,0.25,-0.06,-0.29
0,0,4,-74,-410,3917,0.05,0.03,0.34,-0.74,-4.10,39.17,-5.72,0.92,7.85,0.29,-0.05,-0.27
0,0,5,-66,-368,3907,0.05,0.02,0.34,-0.66,-3.68,39.07,-5.70,0.92,7.84,0.28,-0.05,-0.28
1,0,8,-75,-353,3899,0.05,0.02,0.35,-0.75,-3.53,38.99,-5.68,0.93,7.84,0.27,-0.05,-0.31
9,19,29,-30,-338,3849,0.10,0.13,0.49,-0.30,-3.38,38.49,-5.66,0.92,7.84,0.15,-0.34,-0.51
4,47,28,-93,-378,3737,0.11,0.41,0.61,-0.93,-3.78,37.37,-5.67,0.94,7.84,0.22,-0.76,-0.51
13,96,23,40,-395,3936,0.18,0.95,0.69,0.40,-3.95,39.36,-5.67,0.92,7.84,0.08,-1.51,-0.48
12,73,13,-101,-397,3958,0.24,1.30,0.70,-1.01,-3.97,39.58,-5.67,0.95,7.83,0.10,-1.16,-0.40
8,25,7,-72,-383,3911,0.26,1.33,0.68,-0.72,-3.83,39.11,-5.66,0.97,7.83,0.16,-0.43,-0.34
10,21,6,-40,-405,3911,0.30,1.32,0.64,-0.40,-4.05,39.11,-5.67,0.96,7.83,0.13,-0.37,-0.33
7,15,58,-59,-409,3928,0.31,1.28,0.93,-0.59,-4.09,39.28,-5.68,0.96,7.83,0.18,-0.28,-0.81
5,12,71,-46,-411,3929,0.31,1.23,1.27,-0.46,-4.11,39.29,-5.69,0.95,7.82,0.21,-0.23,-0.96
0,2,87,-93,-376,3918,0.28,1.11,1.68,-0.93,-3.76,39.18,-5.68,0.97,7.82,0.28,-0.08,-1.15
-1,-3,78,-125,-308,3880,0.24,0.99,1.98,-1.25,-3.08,38.80,-5.67,0.99,7.81,0.30,-0.01,-1.11
-4,-9,84,260,117,3860,0.20,0.83,2.30,2.60,1.17,38.60,-5.65,0.98,7.80,0.34,0.09,-1.20
-2,-9,81,198,18,3918,0.16,0.69,2.56,1.98,0.18,39.18,-5.64,0.97,7.79,0.31,0.09,-1.21
-8,9,59,44,-217,3876,0.10,0.68,2.67,0.44,-2.17,38.76,-5.62,0.97,7.78,0.40,-0.19,-1.04
0,-5,43,0,-250,3956,0.09,0.58,2.66,0.00,-2.50,39.56,-5.60,0.96,7.77,0.28,0.03,-0.90
4,-16,-31,-159,-388,3854,0.10,0.43,2.21,-1.59,-3.88,38.54,-5.60,0.98,7.76,0.22,0.19,-0.22
-2,-11,-73,-178,-478,3960,0.08,0.32,1.54,-1.78,-4.78,39.60,-5.62,1.00,7.75,0.31,0.12,0.23
-2,-9,-124,-301,-538,3930,0.06,0.23,0.63,-3.01,-5.38,39.30,-5.63,1.02,7.75,0.31,0.09,0.78
-5,-13,-140,-322,-558,3937,0.02,0.13,-0.29,-3.22,-5.58,39.37,-5.64,1.03,7.75,0.36,0.15,1.03
-8,-18,-141,-296,-546,3888,-0.03,0.00,-1.12,-2.96,-5.46,38.88,-5.65,1.05,7.76,0.40,0.22,1.14
-3,-9,-134,-230,-523,3906,-0.04,-0.05,-1.82,-2.30,-5.23,39.06,-5.66,1.06,7.76,0.33,0.08,1.18
1,-50,-161,-93,-470,3937,-0.03,-0.35,-2.62,-0.93,-4.70,39.37,-5.68,1.06,7.77,0.27,0.71,1.51
0,-64,-158,-95,-453,3909,-0.03,-0.71,-3.32,-0.95,-4.53,39.09,-5.69,1.06,7.79,0.28,0.92,1.57
2,-4,-120,-24,-565,3874,-0.01,-0.66,-3.72,-0.24,-5.65,38.74,-5.71,1.05,7.80,0.26,0.01,1.30
3,-4,-93,-38,-585,3935,0.01,-0.62,-3.92,-0.38,-5.85,39.35,-5.73,1.05,7.82,0.24,0.01,1.10
1,3,-17,-64,-429,3898,0.01,-0.54,-3.63,-0.64,-4.29,38.98,-5.75,1.04,7.83,0.27,-0.10,0.42
-1,-8,-10,-53,-426,3912,0.00,-0.53,-3.33,-0.53,-4.26,39.12,-5.76,1.03,7.85,0.30,0.07,0.32
0,-6,-2,-70,-395,3906,0.00,-0.52,-3.01,-0.70,-3.95,39.06,-5.78,1.01,7.86,0.29,0.04,0.21
1,-4,-1,-68,-379,3875,0.01,-0.49,-2.71,-0.68,-3.79,38.75,-5.76,1.01,7.87,0.27,0.01,0.16
4,32,-1,-65,-366,3868,0.03,-0.25,-2.45,-0.65,-3.66,38.68,-5.74,1.01,7.88,0.23,-0.54,0.13
-1,34,1,-69,-332,3852,0.02,-0.01,-2.20,-0.69,-3.32,38.52,-5.73,1.01,7.89,0.30,-0.57,0.08
4,26,-18,-72,-269,3952,0.05,0.15,-2.09,-0.72,-2.69,39.52,-5.71,1.01,7.89,0.22,-0.45,0.22
1,16,-20,-93,-231,3859,0.05,0.23,-2.00,-0.93,-2.31,38.59,-5.69,1.01,7.90,0.27,-0.30,0.23
4,13,-35,-73,-239,3879,0.07,0.29,-2.01,-0.73,-2.39,38.79,-5.67,1.01,7.91,0.22,-0.25,0.36
6,13,-55,-103,-241,3940,0.10,0.34,-2.15,-1.03,-2.41,39.40,-5.65,1.01,7.92,0.19,-0.25,0.54
6,11,-118,-88,-307,3912,0.12,0.37,-2.65,-0.88,-3.07,39.12,-5.64,1.02,7.93,0.19,-0.22,1.14
5,7,-116,-103,-431,3900,0.14,0.38,-3.10,-1.03,-4.31,39.00,-5.65,1.03,7.94,0.21,-0.16,1.18
4,4,-86,-117,-497,3869,0.15,0.36,-3.31,-1.17,-4.97,38.69,-5.67,1.04,7.96,0.22,-0.11,0.96
2,6,-77,-75,-516,3909,0.15,0.36,-3.45,-0.75,-5.16,39.09,-5.68,1.04,7.97,0.25,-0.14,0.90
5,-2,-69,10,-453,3936,0.16,0.31,-3.53,0.10,-4.53,39.36,-5.69,1.02,7.98,0.21,-0.02,0.84
7,4,-70,90,-390,3964,0.19,0.31,-3.60,0.90,-3.90,39.64,-5.69,1.00,8.00,0.18,-0.11,0.86
-3,1,-126,200,-344,3850,0.15,0.28,-4.01,2.00,-3.44,38.50,-5.69,0.99,8.01,0.33,-0.07,1.38
2,3,-144,221,-314,3886,0.15,0.27,-4.49,2.21,-3.14,38.86,-5.69,0.97,8.03,0.25,-0.09,1.60
2,-3,-191,1,-418,3870,0.15,0.23,-5.20,0.01,-4.18,38.70,-5.69,0.95,8.05,0.25,-0.00,2.09
6,-6,-198,-73,-411,3926,0.17,0.17,-5.89,-0.73,-4.11,39.26,-5.71,0.95,8.08,0.19,0.04,2.23
11,-5,-140,-103,-409,3875,0.22,0.12,-6.15,-1.03,-4.09,38.75,-5.72,0.97,8.10,0.12,0.03,1.78
5,-1,-150,-233,-404,3965,0.23,0.10,-6.45,-2.33,-4.04,39.65,-5.72,0.98,8.13,0.21,-0.03,1.90
6,4,-92,-373,-496,3930,0.24,0.12,-6.37,-3.73,-4.96,39.30,-5.72,1.00,8.15,0.19,-0.11,1.39
6,5,-64,-300,-502,3891,0.25,0.14,-6.12,-3.00,-5.02,38.91,-5.73,1.01,8.18,0.19,-0.13,1.13
5,7,-94,-62,-430,3918,0.26,0.16,-6.08,-0.62,-4.30,39.18,-5.75,1.01,8.20,0.21,-0.16,1.37
1,-5,-78,-72,-369,3892,0.24,0.12,-5.95,-0.72,-3.69,38.92,-5.73,1.01,8.23,0.27,0.03,1.22
-7,-11,-122,-331,-239,3941,0.17,0.04,-6.10,-3.31,-2.39,39.41,-5.72,1.02,8.25,0.39,0.12,1.61
-4,-14,-166,-311,-196,3908,0.13,-0.05,-6.50,-3.11,-1.96,39.08,-5.71,1.03,8.28,0.35,0.16,2.04
-9,-19,-373,-365,-368,3890,0.06,-0.16,-8.13,-3.65,-3.68,38.90,-5.71,1.05,8.31,0.42,0.24,4.00
0,-9,-450,-384,-370,3837,0.06,-0.20,-10.06,-3.84,-3.70,38.37,-5.71,1.06,8.35,0.29,0.08,4.90
14,-7,-588,-23,-269,3938,0.14,-0.22,-12.64,-0.23,-2.69,39.38,-5.69,1.05,8.40,0.07,0.05,6.40
4,-5,-567,76,-363,3860,0.15,-0.23,-14.84,0.76,-3.63,38.60,-5.69,1.02,8.46,0.22,0.03,6.50
8,-10,-489,61,-569,3935,0.18,-0.27,-16.34,0.61,-5.69,39.35,-5.70,1.01,8.52,0.16,0.10,6.03
-4,-11,-476,-78,-571,3899,0.14,-0.31,-17.61,-0.78,-5.71,38.99,-5.72,1.00,8.59,0.35,0.12,6.08
-10,-43,-550,-247,-549,3951,0.06,-0.54,-19.20,-2.47,-5.49,39.51,-5.74,1.00,8.67,0.44,0.61,6.91
-5,-66,-599,-317,-467,3957,0.03,-0.89,-20.93,-3.17,-4.67,39.57,-5.74,1.01,8.75,0.36,0.96,7.55
-2,-80,-763,-230,-411,3865,0.01,-1.29,-23.49,-2.30,-4.11,38.65,-5.75,1.01,8.84,0.32,1.17,9.26
-12,-63,-803,-221,-421,3876,-0.06,-1.54,-26.04,-2.21,-4.21,38.76,-5.75,1.01,8.95,0.47,0.91,9.93
-22,-42,-951,-23,-518,3878,-0.19,-1.65,-29.24,-0.23,-5.18,38.78,-5.77,0.99,9.06,0.62,0.60,11.59
-10,-65,-986,21,-534,4003,-0.23,-1.88,-32.33,0.21,-5.34,40.03,-5.79,0.96,9.19,0.44,0.95,12.28
-38,-33,-1077,67,-492,3889,-0.44,-1.89,-35.67,0.67,-4.92,38.89,-5.81,0.92,9.33,0.87,0.46,13.48
-35,-34,-1081,27,-508,3915,-0.61,-1.91,-38.69,0.27,-5.08,39.15,-5.82,0.89,9.49,0.83,0.48,13.90
8,-65,-1028,-107,-455,3894,-0.50,-2.11,-41.10,-1.07,-4.55,38.94,-5.84,0.87,9.65,0.17,0.95,13.75
18,-87,-1008,-120,-409,3932,-0.34,-2.43,-43.14,-1.20,-4.09,39.32,-5.85,0.86,9.82,0.02,1.29,13.84
20,-106,-959,-13,-328,3963,-0.18,-2.84,-44.67,-0.13,-3.28,39.63,-5.84,0.82,10.00,-0.01,1.58,13.62
2,-98,-953,21,-306,3998,-0.15,-3.15,-46.02,0.21,-3.06,39.98,-5.83,0.78,10.18,0.26,1.46,13.74
-117,-48,-951,95,-242,3989,-0.85,-3.13,-47.22,0.95,-2.42,39.89,-5.82,0.74,10.36,2.08,0.70,13.87
-138,-36,-956,81,-255,3993,-1.61,-3.04,-48.33,0.81,-2.55,39.93,-5.81,0.69,10.56,2.40,0.52,14.05
-191,6,-959,-121,-356,3875,-2.61,-2.70,-49.34,-1.21,-3.56,38.75,-5.82,0.68,10.75,3.21,-0.12,14.20
-185,15,-960,-118,-333,3853,-3.48,-2.33,-50.27,-1.18,-3.33,38.53,-5.82,0.66,10.95,3.12,-0.26,14.32
-158,18,-969,-110,-286,3886,-4.10,-1.99,-51.15,-1.10,-2.86,38.86,-5.82,0.65,11.15,2.71,-0.30,14.51
-147,27,-965,-60,-282,3845,-4.58,-1.63,-51.92,-0.60,-2.82,38.45,-5.83,0.62,11.36,2.54,-0.44,14.57
-113,8,-942,-5,-388,3877,-4.81,-1.42,-52.48,-0.05,-3.88,38.77,-5.84,0.58,11.57,2.03,-0.15,14.44
-107,-10,-943,-34,-435,3860,-4.99,-1.34,-52.98,-0.34,-4.35,38.60,-5.88,0.55,11.78,1.94,0.13,14.51
-54,-70,-979,-123,-474,3925,-4.82,-1.63,-53.65,-1.23,-4.74,39.25,-5.92,0.53,11.99,1.13,1.04,14.90
-52,-85,-992,-138,-529,3889,-4.65,-1.98,-54.34,-1.38,-5.29,38.89,-5.95,0.51,12.20,1.10,1.28,15.09
-15,-114,-1023,-178,-526,3909,-4.28,-2.48,-55.15,-1.78,-5.26,39.09,-5.98,0.49,12.42,0.54,1.72,15.45
-16,-110,-1020,-185,-561,3865,-3.95,-2.90,-55.85,-1.85,-5.61,38.65,-6.01,0.47,12.64,0.55,1.66,15.51
-24,-82,-995,-130,-504,3835,-3.70,-3.11,-56.34,-1.30,-5.04,38.35,-6.04,0.45,12.87,0.68,1.24,15.35
-27,-71,-980,-110,-465,3851,-3.49,-3.24,-56.68,-1.10,-4.65,38.51,-6.07,0.43,13.09,0.72,1.07,15.27
-8,-16,-920,-65,-422,3861,-3.19,-3.01,-56.63,-0.65,-4.22,38.61,-6.09,0.41,13.32,0.43,0.23,14.74
-9,-7,-892,-111,-430,3862,-2.93,-2.75,-56.40,-1.11,-4.30,38.62,-6.11,0.39,13.54,0.45,0.09,14.47
-4,-2,-901,-135,-391,3946,-2.66,-2.49,-56.26,-1.35,-3.91,39.46,-6.11,0.38,13.76,0.37,0.02,14.53
-1,-10,-923,-134,-409,3956,-2.40,-2.30,-56.26,-1.34,-4.09,39.56,-6.12,0.36,13.98,0.33,0.14,14.71
-27,-26,-1080,-94,-431,3976,-2.33,-2.23,-57.23,-0.94,-4.31,39.76,-6.13,0.35,14.21,0.72,0.38,16.15
-43,-23,-1143,-88,-432,3972,-2.36,-2.15,-58.48,-0.88,-4.32,39.72,-6.15,0.33,14.44,0.97,0.34,16.84
-108,-12,-1381,14,-468,3990,-2.78,-2.01,-61.05,0.14,-4.68,39.90,-6.17,0.28,14.68,1.96,0.17,19.19
-127,-3,-1447,0,-482,3980,-3.28,-1.82,-63.77,0.00,-4.82,39.80,-6.20,0.24,14.94,2.26,0.04,20.09
-190,5,-1597,53,-353,3931,-4.11,-1.61,-67.14,0.53,-3.53,39.31,-6.21,0.19,15.20,3.22,-0.08,21.78
-202,9,-1599,66,-363,3911,-4.93,-1.39,-70.18,0.66,-3.63,39.11,-6.22,0.14,15.48,3.40,-0.14,22.19
-169,-28,-1414,28,-257,3837,-5.47,-1.43,-71.79,0.28,-2.57,38.37,-6.22,0.10,15.77,2.90,0.43,20.82
-137,-48,-1339,-45,-226,3973,-5.76,-1.58,-72.78,-0.45,-2.26,39.73,-6.23,0.07,16.06,2.41,0.73,20.30
-115,-99,-1319,-14,-344,3932,-5.88,-2.02,-73.54,-0.14,-3.44,39.32,-6.23,0.03,16.35,2.08,1.51,20.22
-123,-110,-1282,46,-364,3942,-6.04,-2.49,-74.01,0.46,-3.64,39.42,-6.24,-0.02,16.64,2.20,1.68,19.96
-107,-117,-1177,23,-459,3935,-6.09,-2.96,-73.79,0.23,-4.59,39.35,-6.28,-0.08,16.93,1.96,1.80,19.04
-106,-124,-1169,-2,-491,3916,-6.13,-3.42,-73.54,-0.02,-4.91,39.16,-6.32,-0.12,17.22,1.95,1.91,18.93
-119,-135,-1208,-86,-583,3931,-6.24,-3.90,-73.55,-0.86,-5.83,39.31,-6.36,-0.16,17.51,2.15,2.08,19.26
-121,-124,-1235,-86,-637,3891,-6.36,-4.26,-73.73,-0.86,-6.37,38.91,-6.40,-0.20,17.81,2.18,1.91,19.50
-160,-79,-1386,-38,-739,3833,-6.70,-4.32,-74.81,-0.38,-7.39,38.33,-6.45,-0.25,18.10,2.78,1.23,20.91
-195,-75,-1435,-44,-754,3878,-7.22,-4.35,-76.09,-0.44,-7.54,38.78,-6.49,-0.30,18.40,3.32,1.17,21.48
-235,-29,-1610,-86,-718,3909,-7.93,-4.09,-78.30,-0.86,-7.18,39.09,-6.54,-0.34,18.71,3.93,0.47,23.24
-253,-33,-1683,-146,-667,3872,-8.68,-3.88,-80.74,-1.46,-6.67,38.72,-6.59,-0.38,19.03,4.21,0.53,24.17
-248,-18,-1799,-190,-615,3818,-9.32,-3.60,-83.64,-1.90,-6.15,38.18,-6.63,-0.42,19.36,4.14,0.30,25.51
-206,2,-1809,-95,-613,4033,-9.65,-3.23,-86.31,-0.95,-6.13,40.33,-6.68,-0.46,19.70,3.50,0.00,25.93
-34,64,-1744,81,-614,4090,-8.89,-2.52,-88.31,0.81,-6.14,40.90,-6.73,-0.52,20.05,0.88,-0.94,25.63
6,93,-1697,190,-578,3978,-7.96,-1.70,-89.83,1.90,-5.78,39.78,-6.77,-0.58,20.41,0.27,-1.38,25.42
29,125,-1452,127,-621,3828,-6.99,-0.77,-89.71,1.27,-6.21,38.28,-6.81,-0.64,20.76,-0.08,-1.87,23.32
33,114,-1373,152,-597,3835,-6.09,0.01,-89.11,1.52,-5.97,38.35,-6.85,-0.69,21.12,-0.15,-1.70,22.57
19,62,-1111,-44,-330,3781,-5.37,0.38,-86.98,-0.44,-3.30,37.81,-6.85,-0.72,21.46,0.07,-0.91,20.06
32,59,-1047,-93,-328,3765,-4.63,0.71,-84.67,-0.93,-3.28,37.65,-6.85,-0.74,21.80,-0.13,-0.86,19.21
63,6,-902,-108,-365,3886,-3.79,0.67,-81.70,-1.08,-3.65,38.86,-6.85,-0.77,22.12,-0.61,-0.05,17.60
85,16,-892,-139,-425,3896,-2.89,0.70,-78.97,-1.39,-4.25,38.96,-6.86,-0.78,22.44,-0.95,-0.21,17.15
113,22,-984,-259,-422,3939,-1.91,0.77,-77.08,-2.59,-4.22,39.39,-6.86,-0.80,22.74,-1.38,-0.30,17.68
115,16,-1058,-231,-459,3920,-1.02,0.79,-75.82,-2.31,-4.59,39.20,-6.85,-0.81,23.05,-1.41,-0.21,18.14
55,-1,-1217,-174,-496,3950,-0.58,0.70,-75.67,-1.74,-4.96,39.50,-6.85,-0.83,23.35,-0.49,0.05,19.46
45,1,-1238,-119,-593,3931,-0.25,0.64,-75.65,-1.19,-5.93,39.31,-6.86,-0.85,23.65,-0.34,0.03,19.63
61,36,-1213,-64,-594,3902,0.15,0.79,-75.49,-0.64,-5.94,39.02,-6.87,-0.87,23.95,-0.59,-0.51,19.39
77,52,-1190,-10,-615,3886,0.60,1.03,-75.20,-0.10,-6.15,38.86,-6.88,-0.89,24.25,-0.83,-0.75,19.15
138,94,-1053,16,-594,3870,1.38,1.50,-74.10,0.16,-5.94,38.70,-6.89,-0.91,24.54,-1.76,-1.39,17.84
151,97,-1012,2,-624,3859,2.17,1.94,-72.86,0.02,-6.24,38.59,-6.89,-0.94,24.83,-1.96,-1.44,17.32
163,83,-894,-57,-666,3869,2.94,2.26,-71.03,-0.57,-6.66,38.69,-6.89,-0.95,25.11,-2.15,-1.22,16.08
158,75,-858,-59,-694,3840,3.61,2.49,-69.16,-0.59,-6.94,38.40,-6.89,-0.97,25.39,-2.07,-1.10,15.53
139,62,-795,-57,-702,3864,4.10,2.62,-67.09,-0.57,-7.02,38.64,-6.88,-0.98,25.66,-1.79,-0.90,14.72
134,51,-783,123,-725,3716,4.51,2.67,-65.16,1.23,-7.25,37.16,-6.88,-1.00,25.92,-1.71,-0.73,14.37
92,-1,-810,-55,-804,4064,4.62,2.39,-63.59,-0.55,-8.04,40.64,-6.87,-1.02,26.17,-1.07,0.06,14.39
110,25,-831,-145,-814,3886,4.83,2.31,-62.30,-1.45,-8.14,38.86,-6.86,-1.03,26.42,-1.35,-0.34,14.39
43,34,-831,-226,-382,3966,4.61,2.28,-61.14,-2.26,-3.82,39.66,-6.83,-1.03,26.66,-0.33,-0.47,14.24
73,39,-818,-208,-375,4011,4.59,2.29,-60.01,-2.08,-3.75,40.11,-6.80,-1.03,26.90,-0.78,-0.55,13.98
114,33,-797,-200,-354,3849,4.83,2.26,-58.87,-2.00,-3.54,38.49,-6.77,-1.03,27.14,-1.41,-0.46,13.65
131,29,-797,-190,-440,3873,5.14,2.22,-57.85,-1.90,-4.40,38.73,-6.75,-1.03,27.37,-1.67,-0.40,13.51
169,24,-785,-203,-452,3911,5.66,2.14,-56.85,-2.03,-4.52,39.11,-6.72,-1.03,27.59,-2.26,-0.32,13.27
181,22,-760,-212,-519,3902,6.20,2.06,-55.80,-2.12,-5.19,39.02,-6.70,-1.03,27.82,-2.44,-0.29,12.92
164,35,-622,-356,-646,3926,6.58,2.07,-54.02,-3.56,-6.46,39.26,-6.67,-1.03,28.03,-2.18,-0.49,11.52
155,42,-576,-424,-654,3915,6.87,2.12,-52.13,-4.24,-6.54,39.15,-6.65,-1.03,28.24,-2.05,-0.59,10.88
103,67,-423,-512,-733,3915,6.81,2.31,-49.50,-5.12,-7.33,39.15,-6.62,-1.03,28.44,-1.26,-0.98,9.24
79,79,-383,-505,-737,3898,6.61,2.56,-46.88,-5.05,-7.37,38.98,-6.60,-1.03,28.63,-0.89,-1.16,8.56
-50,144,-271,-329,-709,3938,5.64,3.19,-43.85,-3.29,-7.09,39.38,-6.59,-1.02,28.80,1.08,-2.15,7.22
-94,162,-247,-286,-698,3952,4.51,3.86,-40.97,-2.86,-6.98,39.52,-6.58,-1.01,28.97,1.75,-2.43,6.64
-58,181,-209,-151,-396,4078,3.70,4.57,-38.15,-1.51,-3.96,40.78,-6.55,-0.99,29.12,1.20,-2.72,5.95
-70,172,-218,-112,-369,4143,2.90,5.17,-35.66,-1.12,-3.69,41.43,-6.53,-0.97,29.26,1.39,-2.59,5.70
-85,184,-347,-22,-267,3985,2.10,5.77,-34.21,-0.22,-2.67,39.85,-6.50,-0.95,29.40,1.62,-2.77,6.60
-85,174,-423,-27,-261,3951,1.37,6.26,-33.37,-0.27,-2.61,39.51,-6.48,-0.93,29.54,1.62,-2.62,7.14
-118,132,-598,-13,-364,3920,0.51,6.44,-33.68,-0.13,-3.64,39.20,-6.46,-0.91,29.68,2.12,-1.98,8.66
-130,116,-636,23,-399,3790,-0.33,6.50,-34.19,0.23,-3.99,37.90,-6.45,-0.89,29.81,2.31,-1.74,9.04
-199,-19,-622,-3,-380,3854,-1.51,5.73,-34.57,-0.03,-3.80,38.54,-6.44,-0.87,29.95,3.36,0.32,8.97
-186,-42,-589,-8,-373,3833,-2.50,4.90,-34.70,-0.08,-3.73,38.33,-6.44,-0.85,30.09,3.16,0.67,8.70
-51,-89,-445,-81,-472,3859,-2.56,3.87,-33.95,-0.81,-4.72,38.59,-6.45,-0.83,30.23,1.11,1.39,7.38
-22,-103,-410,-108,-492,3856,-2.44,2.86,-33.05,-1.08,-4.92,38.56,-6.46,-0.82,30.36,0.66,1.60,6.97
10,-167,-346,-174,-521,3852,-2.13,1.55,-31.86,-1.74,-5.21,38.52,-6.48,-0.81,30.49,0.18,2.58,6.27
12,-181,-344,-184,-516,3877,-1.85,0.29,-30.77,-1.84,-5.16,38.77,-6.49,-0.80,30.61,0.15,2.80,6.11
19,-175,-378,-174,-369,3925,-1.55,-0.80,-30.00,-1.74,-3.69,39.25,-6.49,-0.80,30.73,0.04,2.71,6.29
15,-164,-403,-185,-325,3893,-1.30,-1.72,-29.46,-1.85,-3.25,38.93,-6.48,-0.81,30.85,0.10,2.55,6.43
14,-147,-486,-170,-321,3831,-1.08,-2.45,-29.48,-1.70,-3.21,38.31,-6.48,-0.81,30.97,0.11,2.29,7.13
36,-136,-508,-168,-318,3819,-0.76,-3.03,-29.63,-1.68,-3.18,38.19,-6.47,-0.82,31.08,-0.22,2.12,7.34
148,-93,-571,-175,-297,3786,0.22,-3.30,-30.15,-1.75,-2.97,37.86,-6.46,-0.83,31.20,-1.93,1.47,7.94
175,-85,-582,-172,-296,3787,1.27,-3.49,-30.68,-1.72,-2.96,37.87,-6.44,-0.84,31.32,-2.35,1.35,8.09
213,-76,-598,-137,-344,3735,2.44,-3.60,-31.26,-1.37,-3.44,37.35,-6.42,-0.86,31.44,-2.93,1.21,8.30
204,-85,-596,-120,-362,3740,3.44,-3.76,-31.77,-1.20,-3.62,37.40,-6.40,-0.87,31.57,-2.80,1.35,8.35
150,-140,-595,-81,-402,3816,4.01,-4.24,-32.23,-0.81,-4.02,38.16,-6.38,-0.88,31.69,-1.98,2.19,8.39
131,-156,-604,-72,-403,3823,4.41,-4.77,-32.69,-0.72,-4.03,38.23,-6.36,-0.90,31.82,-1.69,2.44,8.53
102,-192,-664,-67,-447,3859,4.59,-5.46,-33.47,-0.67,-4.47,38.59,-6.34,-0.91,31.95,-1.25,2.99,9.13
108,-214,-698,-41,-437,3870,4.79,-6.22,-34.38,-0.41,-4.37,38.70,-6.32,-0.94,32.09,-1.34,3.33,9.53
106,-213,-702,-57,-342,3958,4.96,-6.90,-35.22,-0.57,-3.42,39.58,-6.29,-0.96,32.22,-1.31,3.31,9.67
91,-193,-675,-84,-314,3935,5.02,-7.38,-35.82,-0.84,-3.14,39.35,-6.25,-0.99,32.36,-1.09,3.01,9.52
88,-129,-555,-198,-212,3960,5.05,-7.43,-35.62,-1.98,-2.12,39.60,-6.22,-1.03,32.50,-1.04,2.04,8.47
95,-125,-537,-208,-206,3967,5.13,-7.45,-35.34,-2.08,-2.06,39.67,-6.18,-1.06,32.64,-1.15,1.98,8.28
151,-96,-484,-199,-321,3968,5.54,-7.29,-34.75,-1.99,-3.21,39.68,-6.15,-1.08,32.78,-2.01,1.54,7.75
165,-93,-487,-194,-334,3978,5.99,-7.13,-34.25,-1.94,-3.34,39.78,-6.12,-1.11,32.91,-2.23,1.49,7.71
197,-108,-571,-156,-344,4000,6.59,-7.08,-34.31,-1.56,-3.44,40.00,-6.08,-1.13,33.04,-2.72,1.72,8.42
196,-115,-611,-159,-341,3967,7.13,-7.07,-34.60,-1.59,-3.41,39.67,-6.05,-1.16,33.18,-2.70,1.83,8.80
220,-152,-760,-198,-262,3933,7.76,-7.29,-35.78,-1.98,-2.62,39.33,-6.00,-1.19,33.32,-3.07,2.40,10.21
238,-148,-759,-159,-193,3940,8.43,-7.46,-36.83,-1.59,-1.93,39.40,-5.96,-1.22,33.46,-3.35,2.34,10.33
285,-125,-675,-59,-262,3885,9.33,-7.48,-37.27,-0.59,-2.62,38.85,-5.90,-1.25,33.61,-4.07,1.99,9.67
295,-130,-657,-52,-305,3898,10.19,-7.53,-37.55,-0.52,-3.05,38.98,-5.85,-1.28,33.75,-4.23,2.07,9.55
277,-149,-654,-101,-394,3922,10.86,-7.68,-37.78,-1.01,-3.94,39.22,-5.80,-1.31,33.90,-3.96,2.36,9.55
258,-154,-686,-289,-634,3891,11.35,-7.85,-38.19,-2.89,-6.34,38.91,-5.76,-1.34,34.05,-3.67,2.44,9.87
188,-198,-834,-101,-284,4046,11.36,-8.28,-39.46,-1.01,-2.84,40.46,-5.70,-1.37,34.20,-2.61,3.11,11.29
146,-174,-802,-41,-249,4001,11.12,-8.51,-40.40,-0.41,-2.49,40.01,-5.64,-1.41,34.36,-1.97,2.75,11.13
92,-97,-591,-17,-389,3981,10.57,-8.25,-39.97,-0.17,-3.89,39.81,-5.59,-1.44,34.52,-1.15,1.57,9.28
99,-95,-553,-63,-368,3987,10.11,-8.00,-39.34,-0.63,-3.68,39.87,-5.55,-1.47,34.67,-1.26,1.54,8.88
107,-114,-567,-185,-241,4042,9.76,-7.90,-38.87,-1.85,-2.41,40.42,-5.49,-1.50,34.82,-1.38,1.83,8.93
118,-127,-619,-191,-234,4016,9.50,-7.88,-38.76,-1.91,-2.34,40.16,-5.44,-1.53,34.97,-1.55,2.03,9.35
140,-143,-684,-131,-187,4016,9.40,-7.97,-39.05,-1.31,-1.87,40.16,-5.39,-1.56,35.13,-1.89,2.28,9.94
150,-141,-685,-143,-160,3963,9.38,-8.03,-39.33,-1.43,-1.60,39.63,-5.34,-1.60,35.28,-2.04,2.25,9.98
199,-151,-662,-182,-109,3936,9.65,-8.15,-39.43,-1.82,-1.09,39.36,-5.28,-1.63,35.43,-2.79,2.40,9.79
216,-153,-660,-182,-111,3913,10.01,-8.27,-39.52,-1.82,-1.11,39.13,-5.23,-1.66,35.59,-3.06,2.44,9.78
257,-133,-674,-144,-121,3926,10.57,-8.25,-39.68,-1.44,-1.21,39.26,-5.17,-1.70,35.74,-3.69,2.13,9.92
265,-121,-685,-128,-135,3923,11.13,-8.17,-39.89,-1.28,-1.35,39.23,-5.11,-1.73,35.90,-3.81,1.95,10.04
262,-82,-715,-99,-259,3910,11.62,-7.85,-40.26,-0.99,-2.59,39.10,-5.05,-1.76,36.06,-3.77,1.36,10.33
253,-70,-717,-90,-305,3905,12.00,-7.49,-40.61,-0.90,-3.05,39.05,-4.99,-1.78,36.22,-3.64,1.18,10.39
182,-50,-706,17,-396,3908,11.91,-7.05,-40.85,0.17,-3.96,39.08,-4.95,-1.81,36.38,-2.56,0.87,10.33
135,-45,-696,69,-409,3914,11.54,-6.62,-41.01,0.69,-4.09,39.14,-4.91,-1.84,36.54,-1.84,0.79,10.26
68,-63,-686,94,-352,3954,10.80,-6.34,-41.10,0.94,-3.52,39.54,-4.87,-1.86,36.70,-0.82,1.07,10.18
65,-77,-690,98,-322,3992,10.12,-6.18,-41.20,0.98,-3.22,39.92,-4.81,-1.88,36.86,-0.78,1.28,10.22
92,-83,-702,63,-254,4079,9.67,-6.06,-41.36,0.63,-2.54,40.79,-4.75,-1.91,37.03,-1.19,1.38,10.34
107,-78,-704,27,-220,4060,9.35,-5.93,-41.52,0.27,-2.20,40.60,-4.70,-1.94,37.19,-1.42,1.30,10.37
173,-68,-717,-47,-168,4014,9.47,-5.75,-41.74,-0.47,-1.68,40.14,-4.64,-1.96,37.36,-2.43,1.15,10.51
190,-69,-718,-35,-197,3992,9.69,-5.60,-41.94,-0.35,-1.97,39.92,-4.59,-1.98,37.52,-2.69,1.17,10.54
209,-68,-708,-74,-237,3922,9.99,-5.45,-42.07,-0.74,-2.37,39.22,-4.54,-2.00,37.69,-2.99,1.15,10.47
205,-71,-711,-86,-242,3916,10.24,-5.34,-42.20,-0.86,-2.42,39.16,-4.48,-2.01,37.85,-2.93,1.20,10.50
171,-78,-751,-83,-267,3855,10.26,-5.28,-42.56,-0.83,-2.67,38.55,-4.43,-2.03,38.02,-2.41,1.30,10.89
149,-65,-757,-52,-269,3826,10.14,-5.15,-42.92,-0.52,-2.69,38.26,-4.38,-2.05,38.19,-2.08,1.11,10.98
119,-50,-745,-39,-193,3801,9.86,-4.94,-43.17,-0.39,-1.93,38.01,-4.33,-2.06,38.36,-1.62,0.88,10.91
118,-48,-737,-21,-182,3816,9.59,-4.74,-43.35,-0.21,-1.82,38.16,-4.27,-2.08,38.54,-1.61,0.85,10.86
117,-29,-697,45,-111,3855,9.35,-4.44,-43.27,0.45,-1.11,38.55,-4.21,-2.10,38.71,-1.60,0.56,10.50
123,-26,-687,43,-101,3854,9.16,-4.16,-43.13,0.43,-1.01,38.54,-4.16,-2.12,38.88,-1.69,0.51,10.40
157,-34,-675,12,-97,3884,9.20,-3.95,-42.94,0.12,-0.97,38.84,-4.10,-2.14,39.05,-2.21,0.64,10.26
162,-41,-674,-6,-93,3870,9.27,-3.80,-42.75,-0.06,-0.93,38.70,-4.04,-2.16,39.22,-2.29,0.74,10.23
180,-40,-649,4,-147,3855,9.44,-3.67,-42.44,0.04,-1.47,38.55,-3.98,-2.17,39.39,-2.57,0.73,9.97
178,-39,-630,-10,-158,3856,9.58,-3.54,-42.04,-0.10,-1.58,38.56,-3.93,-2.18,39.56,-2.54,0.71,9.76
160,-46,-559,-56,-134,3875,9.60,-3.47,-41.24,-0.56,-1.34,38.75,-3.87,-2.19,39.72,-2.27,0.82,9.05
145,-50,-549,-63,-151,3876,9.53,-3.42,-40.47,-0.63,-1.51,38.76,-3.82,-2.20,39.88,-2.04,0.88,8.86
152,-49,-529,-43,-268,3908,9.50,-3.38,-39.65,-0.43,-2.68,39.08,-3.78,-2.20,40.04,-2.15,0.87,8.58
155,-49,-521,-18,-281,3923,9.50,-3.34,-38.86,-0.18,-2.81,39.23,-3.74,-2.21,40.19,-2.20,0.87,8.41
162,-39,-487,39,-272,4001,9.53,-3.25,-37.95,0.39,-2.72,40.01,-3.69,-2.21,40.34,-2.31,0.71,8.00
164,-34,-475,32,-254,4001,9.58,-3.13,-37.05,0.32,-2.54,40.01,-3.65,-2.22,40.49,-2.34,0.64,7.78
197,-7,-451,27,-175,3965,9.82,-2.86,-36.10,0.27,-1.75,39.65,-3.60,-2.22,40.64,-2.85,0.22,7.45
208,3,-447,36,-168,3967,10.11,-2.55,-35.21,0.36,-1.68,39.67,-3.54,-2.23,40.78,-3.02,0.07,7.30
209,20,-434,51,-102,3897,10.37,-2.18,-34.34,0.51,-1.02,38.97,-3.48,-2.23,40.91,-3.04,-0.19,7.07
201,22,-427,57,-96,3899,10.56,-1.82,-33.51,0.57,-0.96,38.99,-3.41,-2.24,41.05,-2.92,-0.22,6.90
142,25,-411,66,-118,3850,10.37,-1.49,-32.67,0.66,-1.18,38.50,-3.35,-2.24,41.18,-2.02,-0.27,6.65
106,34,-407,52,-131,3839,9.98,-1.13,-31.88,0.52,-1.31,38.39,-3.30,-2.24,41.31,-1.48,-0.40,6.52
45,68,-450,76,-88,3943,9.26,-0.61,-31.44,0.76,-0.88,39.43,-3.24,-2.24,41.43,-0.55,-0.92,6.82
33,76,-479,82,-19,3836,8.53,-0.08,-31.22,0.82,-0.19,38.36,-3.18,-2.24,41.56,-0.37,-1.05,7.03
62,72,-500,63,142,3848,8.06,0.37,-31.14,0.63,1.42,38.48,-3.13,-2.24,41.68,-0.81,-0.99,7.20
79,65,-503,66,140,3811,7.73,0.73,-31.10,0.66,1.40,38.11,-3.07,-2.24,41.81,-1.07,-0.88,7.22
99,70,-520,157,67,3822,7.57,1.08,-31.16,1.57,0.67,38.22,-3.02,-2.24,41.93,-1.38,-0.96,7.36
107,73,-517,160,54,3806,7.46,1.42,-31.20,1.60,0.54,38.06,-2.97,-2.25,42.06,-1.50,-1.00,7.34
101,72,-490,164,-32,3803,7.33,1.72,-31.07,1.64,-0.32,38.03,-2.91,-2.25,42.18,-1.41,-0.99,7.09
93,72,-477,160,-47,3805,7.17,1.98,-30.87,1.60,-0.47,38.05,-2.86,-2.25,42.31,-1.29,-0.99,6.95
63,79,-398,146,-55,3814,6.83,2.27,-30.21,1.46,-0.55,38.14,-2.81,-2.24,42.43,-0.84,-1.10,6.20
43,85,-362,128,-11,3829,6.41,2.56,-29.40,1.28,-0.11,38.29,-2.76,-2.24,42.55,-0.53,-1.19,5.78
32,114,-322,57,40,3809,5.97,3.00,-28.42,0.57,0.40,38.09,-2.72,-2.22,42.66,-0.37,-1.63,5.32
33,123,-319,55,46,3813,5.57,3.45,-27.53,0.55,0.46,38.13,-2.67,-2.21,42.78,-0.38,-1.77,5.17
31,160,-310,95,9,3827,5.20,4.08,-26.66,0.95,0.09,38.27,-2.63,-2.19,42.88,-0.35,-2.34,4.98
23,168,-307,104,-1,3848,4.82,4.70,-25.87,1.04,-0.01,38.48,-2.59,-2.17,42.99,-0.23,-2.47,4.85
-20,196,-302,65,39,3878,4.22,5.42,-25.13,0.65,0.39,38.78,-2.55,-2.15,43.09,0.42,-2.90,4.71
-29,197,-311,53,74,3877,3.62,6.08,-24.51,0.53,0.74,38.77,-2.52,-2.12,43.19,0.56,-2.91,4.71
-17,205,-374,113,81,3922,3.15,6.72,-24.34,1.13,0.81,39.22,-2.48,-2.10,43.29,0.38,-3.04,5.22
-12,215,-387,146,54,3931,2.77,7.36,-24.27,1.46,0.54,39.31,-2.45,-2.07,43.39,0.30,-3.19,5.32
14,234,-399,172,-3,3895,2.57,8.05,-24.27,1.72,-0.03,38.95,-2.42,-2.05,43.49,-0.10,-3.49,5.42
9,220,-401,167,-34,3878,2.37,8.59,-24.29,1.67,-0.34,38.78,-2.39,-2.02,43.59,-0.02,-3.28,5.43
-50,198,-362,192,-84,3851,1.83,8.94,-24.07,1.92,-0.84,38.51,-2.36,-2.00,43.68,0.88,-2.94,5.07
-71,198,-339,164,-91,3876,1.21,9.25,-23.73,1.64,-0.91,38.76,-2.34,-1.97,43.78,1.20,-2.94,4.83
-117,176,-286,56,-89,3860,0.38,9.40,-23.10,0.56,-0.89,38.60,-2.32,-1.93,43.88,1.90,-2.61,4.30
-122,164,-282,39,-66,3891,-0.40,9.46,-22.51,0.39,-0.66,38.91,-2.31,-1.88,43.97,1.98,-2.43,4.19
-116,125,-312,-14,22,3907,-1.07,9.28,-22.17,-0.14,0.22,39.07,-2.29,-1.84,44.06,1.89,-1.84,4.39
-107,116,-326,-29,57,3903,-1.62,9.06,-21.94,-0.29,0.57,39.03,-2.28,-1.79,44.15,1.75,-1.70,4.48
-46,94,-403,-50,171,3884,-1.74,8.73,-22.20,-0.50,1.71,38.84,-2.27,-1.75,44.24,0.82,-1.37,5.16
-32,89,-423,-35,182,3892,-1.76,8.40,-22.56,-0.35,1.82,38.92,-2.26,-1.71,44.33,0.61,-1.29,5.38
3,118,-450,-6,97,3827,-1.56,8.28,-23.05,-0.06,0.97,38.27,-2.24,-1.68,44.43,0.07,-1.74,5.67
-9,138,-446,-20,42,3831,-1.46,8.29,-23.47,-0.20,0.42,38.31,-2.23,-1.64,44.52,0.25,-2.04,5.68
-65,181,-412,-38,-63,3801,-1.71,8.57,-23.63,-0.38,-0.63,38.01,-2.23,-1.59,44.62,1.11,-2.70,5.41
-87,191,-397,-34,-76,3826,-2.07,8.87,-23.69,-0.34,-0.76,38.26,-2.22,-1.54,44.71,1.44,-2.86,5.29
-143,215,-339,-10,-35,3877,-2.74,9.30,-23.39,-0.10,-0.35,38.77,-2.22,-1.50,44.81,2.30,-3.23,4.76
-152,222,-320,-22,-20,3908,-3.39,9.72,-23.00,-0.22,-0.20,39.08,-2.22,-1.45,44.90,2.44,-3.34,4.55
-128,212,-283,-55,21,3968,-3.83,10.04,-22.43,-0.55,0.21,39.68,-2.22,-1.40,44.99,2.07,-3.19,4.16
-107,200,-281,-50,-1,3991,-4.10,10.26,-21.90,-0.50,-0.01,39.91,-2.22,-1.35,45.08,1.75,-3.01,4.07
-62,166,-253,-43,-47,3953,-4.07,10.25,-21.25,-0.43,-0.47,39.53,-2.22,-1.30,45.17,1.07,-2.49,3.75
-54,155,-246,-38,-58,3938,-3.99,10.17,-20.63,-0.38,-0.58,39.38,-2.22,-1.24,45.25,0.94,-2.33,3.61
-46,107,-232,-81,-17,3944,-3.87,9.80,-19.98,-0.81,-0.17,39.44,-2.23,-1.19,45.34,0.82,-1.60,3.40
-30,78,-240,-102,-1,3920,-3.67,9.30,-19.45,-1.02,-0.01,39.20,-2.23,-1.15,45.42,0.58,-1.16,3.40
17,39,-254,-91,-61,3904,-3.20,8.61,-19.05,-0.91,-0.61,39.04,-2.23,-1.10,45.49,-0.14,-0.56,3.46
27,41,-248,-88,-86,3891,-2.71,8.00,-18.66,-0.88,-0.86,38.91,-2.23,-1.05,45.57,-0.29,-0.59,3.36
28,49,-202,-126,-160,3881,-2.27,7.50,-18.03,-1.26,-1.60,38.81,-2.24,-1.01,45.64,-0.31,-0.72,2.89
21,44,-190,-144,-162,3894,-1.92,7.01,-17.38,-1.44,-1.62,38.94,-2.25,-0.96,45.71,-0.20,-0.64,2.70
-6,15,-177,-125,-102,3969,-1.76,6.40,-16.72,-1.25,-1.02,39.69,-2.25,-0.92,45.78,0.21,-0.20,2.51
-5,6,-183,-129,-88,3974,-1.62,5.80,-16.17,-1.29,-0.88,39.74,-2.25,-0.88,45.85,0.19,-0.06,2.48
45,-28,-243,-85,-46,4015,-1.18,5.05,-16.03,-0.85,-0.46,40.15,-2.24,-0.85,45.91,-0.57,0.46,2.97
62,-30,-263,-44,-50,4007,-0.68,4.36,-16.03,-0.44,-0.50,40.07,-2.23,-0.82,45.98,-0.83,0.49,3.14
78,-20,-327,10,-40,3926,-0.14,3.80,-16.43,0.10,-0.40,39.26,-2.21,-0.81,46.04,-1.08,0.34,3.73
66,-28,-357,-9,-31,3913,0.28,3.25,-16.96,-0.09,-0.31,39.13,-2.19,-0.79,46.11,-0.90,0.46,4.05
2,-86,-411,-73,-59,3877,0.26,2.40,-17.77,-0.73,-0.59,38.77,-2.18,-0.76,46.18,0.08,1.34,4.61
-5,-91,-425,-95,-58,3840,0.21,1.61,-18.59,-0.95,-0.58,38.40,-2.17,-0.75,46.26,0.18,1.42,4.83
17,-75,-447,-167,-59,3837,0.29,0.99,-19.45,-1.67,-0.59,38.37,-2.16,-0.73,46.34,-0.15,1.18,5.13
40,-59,-450,-169,-68,3829,0.50,0.53,-20.25,-1.69,-0.68,38.29,-2.15,-0.71,46.42,-0.50,0.93,5.26
90,-13,-447,-189,-52,3787,1.00,0.40,-20.96,-1.89,-0.52,37.87,-2.14,-0.70,46.50,-1.27,0.23,5.32
95,-3,-449,-172,-40,3779,1.48,0.34,-21.60,-1.72,-0.40,37.79,-2.13,-0.68,46.59,-1.35,0.08,5.42
56,-4,-475,-90,-12,3814,1.67,0.28,-22.34,-0.90,-0.12,38.14,-2.11,-0.67,46.68,-0.75,0.09,5.73
36,-10,-479,-56,14,3844,1.73,0.19,-23.02,-0.56,0.14,38.44,-2.08,-0.66,46.77,-0.45,0.19,5.85
-12,-28,-476,12,9,3904,1.48,0.00,-23.63,0.12,0.09,39.04,-2.06,-0.66,46.86,0.28,0.46,5.90
-21,-7,-450,5,27,3915,1.20,-0.04,-24.01,0.05,0.27,39.15,-2.03,-0.66,46.96,0.42,0.14,5.73
8,11,-361,-107,68,3926,1.13,0.03,-23.81,-1.07,0.68,39.26,-2.01,-0.65,47.06,-0.02,-0.14,4.94
30,-2,-344,-131,73,3929,1.20,0.02,-23.53,-1.31,0.73,39.29,-1.99,-0.64,47.15,-0.36,0.06,4.76
79,-40,-345,-132,-38,3898,1.56,-0.23,-23.28,-1.32,-0.38,38.98,-1.98,-0.63,47.24,-1.11,0.64,4.74
81,-41,-351,-140,-53,3887,1.90,-0.46,-23.09,-1.40,-0.53,38.87,-1.96,-0.62,47.33,-1.14,0.66,4.76
78,-48,-353,-83,-91,3928,2.19,-0.70,-22.94,-0.83,-0.91,39.28,-1.95,-0.61,47.43,-1.10,0.76,4.75
69,-52,-345,-85,-108,3926,2.39,-0.95,-22.75,-0.85,-1.08,39.26,-1.93,-0.60,47.52,-0.96,0.83,4.66
31,-43,-284,-65,-163,3901,2.34,-1.12,-22.20,-0.65,-1.63,39.01,-1.93,-0.59,47.61,-0.38,0.69,4.07
11,-41,-262,-52,-182,3913,2.17,-1.26,-21.58,-0.52,-1.82,39.13,-1.93,-0.58,47.69,-0.08,0.66,3.80
-35,23,-190,-67,-283,3935,1.74,-0.99,-20.58,-0.67,-2.83,39.35,-1.93,-0.58,47.77,0.63,-0.32,3.06
-70,35,-164,-89,-243,3953,1.14,-0.68,-19.53,-0.89,-2.43,39.53,-1.94,-0.57,47.85,1.16,-0.50,2.70
-72,50,-90,-147,-108,3963,0.59,-0.31,-18.12,-1.47,-1.08,39.63,-1.93,-0.55,47.92,1.19,-0.73,1.90
-61,59,-61,-159,-73,3938,0.16,0.09,-16.68,-1.59,-0.73,39.38,-1.93,-0.54,47.99,1.03,-0.87,1.46
-78,92,28,-249,46,3899,-0.33,0.64,-14.84,-2.49,0.46,38.99,-1.92,-0.52,48.05,1.29,-1.38,0.47
-91,120,54,-291,80,3875,-0.86,1.31,-13.03,-2.91,0.80,38.75,-1.91,-0.50,48.10,1.49,-1.81,0.02
-146,128,100,-294,162,3892,-1.66,1.96,-11.12,-2.94,1.62,38.92,-1.91,-0.48,48.15,2.33,-1.93,-0.62
-145,109,80,-230,162,3929,-2.38,2.43,-9.52,-2.30,1.62,39.29,-1.90,-0.46,48.19,2.31,-1.65,-0.66
-62,40,-63,46,62,3977,-2.52,2.43,-8.95,0.46,0.62,39.77,-1.89,-0.45,48.22,1.05,-0.59,0.48
-37,22,-94,112,26,3956,-2.49,2.32,-8.63,1.12,0.26,39.56,-1.89,-0.46,48.26,0.66,-0.32,0.70
52,-53,-145,202,13,3943,-1.93,1.76,-8.65,2.02,0.13,39.43,-1.88,-0.46,48.29,-0.69,0.83,1.13
111,-93,-181,224,21,3960,-1.06,1.02,-8.89,2.24,0.21,39.60,-1.87,-0.47,48.33,-1.60,1.44,1.47
170,-187,-217,162,42,3883,0.09,-0.22,-9.32,1.62,0.42,38.83,-1.86,-0.49,48.37,-2.50,2.88,1.83
179,-199,-213,138,31,3842,1.17,-1.41,-9.69,1.38,0.31,38.42,-1.84,-0.51,48.40,-2.64,3.06,1.84
175,-203,-212,-40,-14,3807,2.12,-2.51,-10.01,-0.40,-0.14,38.07,-1.81,-0.51,48.44,-2.58,3.13,1.87
165,-197,-226,-79,-19,3801,2.91,-3.46,-10.39,-0.79,-0.19,38.01,-1.79,-0.51,48.49,-2.43,3.04,2.04
173,-94,-302,-35,-114,3840,3.68,-3.69,-11.19,-0.35,-1.14,38.40,-1.77,-0.51,48.53,-2.56,1.47,2.79
152,-73,-334,-47,-99,3822,4.24,-3.77,-12.11,-0.47,-0.99,38.22,-1.75,-0.50,48.58,-2.24,1.15,3.17
94,-54,-432,-18,-63,3885,4.39,-3.72,-13.54,-0.18,-0.63,38.85,-1.72,-0.51,48.63,-1.36,0.86,4.19
95,-40,-445,-10,-51,3876,4.53,-3.59,-14.90,-0.10,-0.51,38.76,-1.69,-0.51,48.69,-1.38,0.64,4.47
50,-31,-452,15,39,3855,4.38,-3.42,-16.16,0.15,0.39,38.55,-1.65,-0.53,48.76,-0.69,0.51,4.69
41,-25,-452,33,13,3868,4.19,-3.23,-17.31,0.33,0.13,38.68,-1.62,-0.54,48.82,-0.55,0.42,4.83
49,-21,-465,-18,24,3904,4.07,-3.04,-18.41,-0.18,0.24,39.04,-1.58,-0.55,48.90,-0.68,0.36,5.09
65,-21,-478,-21,9,3942,4.06,-2.86,-19.49,-0.21,0.09,39.42,-1.55,-0.55,48.98,-0.92,0.36,5.33
101,-11,-543,-54,-52,3888,4.27,-2.64,-20.85,-0.54,-0.52,38.88,-1.52,-0.55,49.06,-1.47,0.20,6.06
93,-9,-558,-41,-53,3886,4.41,-2.43,-22.17,-0.41,-0.53,38.86,-1.49,-0.55,49.15,-1.35,0.17,6.35
31,-12,-590,-24,-63,3859,4.16,-2.26,-23.55,-0.24,-0.63,38.59,-1.47,-0.54,49.24,-0.41,0.22,6.80
22,1,-582,13,-66,3902,3.88,-2.03,-24.75,0.13,-0.66,39.02,-1.43,-0.54,49.34,-0.27,0.02,6.88
-24,9,-545,29,-66,3911,3.34,-1.77,-25.60,0.29,-0.66,39.11,-1.40,-0.55,49.44,0.43,-0.11,6.67
-31,-1,-535,18,-51,3937,2.82,-1.60,-26.30,0.18,-0.51,39.37,-1.37,-0.55,49.55,0.53,0.05,6.68
-19,11,-494,-32,90,3999,2.42,-1.37,-26.68,-0.32,0.90,39.99,-1.34,-0.55,49.65,0.35,-0.14,6.38
-21,29,-484,-54,131,3980,2.05,-1.06,-26.97,-0.54,1.31,39.80,-1.32,-0.55,49.76,0.38,-0.41,6.32
-25,103,-506,-44,8,3938,1.69,-0.33,-27.36,-0.44,0.08,39.38,-1.30,-0.54,49.87,0.44,-1.54,6.56
-36,115,-520,-45,-20,3929,1.31,0.41,-27.79,-0.45,-0.20,39.29,-1.28,-0.53,49.98,0.61,-1.73,6.73
-19,134,-551,-40,-61,3947,1.06,1.19,-28.38,-0.40,-0.61,39.47,-1.27,-0.51,50.10,0.35,-2.02,7.07
-7,143,-547,-26,-67,3931,0.91,1.94,-28.87,-0.26,-0.67,39.31,-1.26,-0.49,50.21,0.17,-2.16,7.09
-33,142,-525,-18,-73,3905,0.62,2.61,-29.19,-0.18,-0.73,39.05,-1.25,-0.46,50.33,0.56,-2.15,6.94
-31,146,-523,-1,-106,3929,0.37,3.24,-29.46,-0.01,-1.06,39.29,-1.26,-0.44,50.45,0.53,-2.21,6.96
-105,162,-530,-1,15,3892,-0.31,3.90,-29.75,-0.01,0.15,38.92,-1.24,-0.42,50.57,1.66,-2.46,7.05
-126,174,-535,-7,39,3902,-1.05,4.58,-30.04,-0.07,0.39,39.02,-1.22,-0.40,50.69,1.99,-2.65,7.13
-119,191,-559,-22,47,3918,-1.67,5.28,-30.44,-0.22,0.47,39.18,-1.21,-0.37,50.81,1.88,-2.91,7.38
-103,181,-547,-3,58,3901,-2.13,5.86,-30.74,-0.03,0.58,39.01,-1.20,-0.35,50.93,1.64,-2.76,7.31
-70,172,-470,60,109,3910,-2.34,6.32,-30.53,0.60,1.09,39.10,-1.19,-0.33,51.06,1.13,-2.62,6.63
-65,169,-440,48,127,3870,-2.51,6.72,-30.16,0.48,1.27,38.70,-1.19,-0.31,51.18,1.06,-2.58,6.33
-38,126,-333,38,140,3869,-2.49,6.82,-29.18,0.38,1.40,38.69,-1.18,-0.28,51.29,0.64,-1.92,5.29
-27,120,-310,31,145,3866,-2.40,6.87,-28.15,0.31,1.45,38.66,-1.17,-0.26,51.41,0.48,-1.83,4.96
15,103,-283,-68,93,3840,-2.07,6.81,-27.06,-0.68,0.93,38.40,-1.16,-0.23,51.52,-0.17,-1.58,4.59
21,96,-285,-90,62,3821,-1.74,6.71,-26.09,-0.90,0.62,38.21,-1.15,-0.19,51.62,-0.26,-1.47,4.48
35,115,-262,-143,-102,3785,-1.35,6.74,-25.08,-1.43,-1.02,37.85,-1.16,-0.15,51.72,-0.47,-1.76,4.15
21,116,-250,-173,-121,3762,-1.09,6.78,-24.10,-1.73,-1.21,37.62,-1.17,-0.10,51.82,-0.26,-1.78,3.92
-15,120,-185,-211,-127,3785,-1.07,6.83,-22.82,-2.11,-1.27,37.85,-1.18,-0.06,51.91,0.29,-1.84,3.20
-24,119,-170,-179,-116,3805,-1.11,6.87,-21.57,-1.79,-1.16,38.05,-1.18,-0.02,52.00,0.43,-1.83,2.91
-53,97,-156,-117,-81,3835,-1.32,6.78,-20.37,-1.17,-0.81,38.35,-1.19,0.03,52.08,0.87,-1.50,2.64
-52,82,-162,-92,-78,3860,-1.51,6.60,-19.32,-0.92,-0.78,38.60,-1.19,0.07,52.16,0.86,-1.27,2.55
-5,32,-169,-25,4,3907,-1.39,6.14,-18.42,-0.25,0.04,39.07,-1.18,0.10,52.23,0.14,-0.51,2.49
18,23,-165,-7,19,3906,-1.14,5.66,-17.58,-0.07,0.19,39.06,-1.17,0.12,52.30,-0.21,-0.37,2.35
97,3,-159,-61,35,3907,-0.43,5.11,-16.79,-0.61,0.35,39.07,-1.15,0.14,52.37,-1.42,-0.07,2.20
114,-2,-170,-87,51,3914,0.31,4.59,-16.15,-0.87,0.51,39.14,-1.14,0.17,52.44,-1.68,0.01,2.21
168,5,-212,-127,-7,3845,1.30,4.16,-15.83,-1.27,-0.07,38.45,-1.12,0.20,52.50,-2.51,-0.10,2.52
182,14,-211,-143,-42,3827,2.28,3.83,-15.53,-1.43,-0.42,38.27,-1.11,0.23,52.56,-2.73,-0.23,2.47
233,33,-229,-177,-23,3834,3.47,3.65,-15.38,-1.77,-0.23,38.34,-1.09,0.27,52.62,-3.51,-0.53,2.60
252,43,-244,-172,-31,3798,4.66,3.55,-15.33,-1.72,-0.31,37.98,-1.07,0.30,52.68,-3.80,-0.68,2.72
208,54,-248,-107,-6,3884,5.47,3.52,-15.31,-1.07,-0.06,38.84,-1.03,0.32,52.75,-3.13,-0.85,2.75
170,54,-241,-79,-67,3877,5.96,3.50,-15.25,-0.79,-0.67,38.77,-1.01,0.35,52.81,-2.56,-0.85,2.68
134,43,-173,-38,-58,3982,6.18,3.41,-14.78,-0.38,-0.58,39.82,-0.97,0.38,52.87,-2.01,-0.68,2.04
143,38,-149,-48,-7,3995,6.43,3.30,-14.21,-0.48,-0.07,39.95,-0.93,0.40,52.92,-2.15,-0.61,1.77
178,16,-109,-45,79,3951,6.88,3.07,-13.45,-0.45,0.79,39.51,-0.89,0.41,52.98,-2.69,-0.27,1.33
170,15,-103,-19,80,3938,7.22,2.85,-12.74,-0.19,0.80,39.38,-0.84,0.42,53.03,-2.57,-0.26,1.18
140,36,-64,21,143,3960,7.36,2.79,-11.85,0.21,1.43,39.60,-0.79,0.43,53.08,-2.11,-0.58,0.74
137,52,-41,20,161,3982,7.46,2.83,-10.92,0.20,1.61,39.82,-0.74,0.43,53.12,-2.07,-0.82,0.42
116,127,60,-56,138,3939,7.42,3.32,-9.46,-0.56,1.38,39.39,-0.70,0.45,53.16,-1.75,-1.97,-0.62
95,148,84,-97,129,3944,7.26,3.89,-8.00,-0.97,1.29,39.44,-0.65,0.47,53.19,-1.43,-2.29,-1.01
30,136,103,-218,168,3767,6.71,4.33,-6.57,-2.18,1.68,37.67,-0.61,0.50,53.22,-0.44,-2.11,-1.36
-11,83,139,-219,151,3863,5.97,4.40,-5.07,-2.19,1.51,38.63,-0.57,0.53,53.24,0.18,-1.30,-1.86
48,41,269,-97,-36,3817,5.67,4.21,-2.92,-0.97,-0.36,38.17,-0.55,0.57,53.25,-0.72,-0.66,-3.23
29,29,280,-94,-114,3853,5.28,3.97,-0.92,-0.94,-1.14,38.53,-0.54,0.59,53.25,-0.43,-0.48,-3.59
0,25,219,-212,-191,4028,4.75,3.72,0.51,-2.12,-1.91,40.28,-0.54,0.62,53.25,0.01,-0.42,-3.25
4,5,183,-259,-124,3987,4.30,3.38,1.57,-2.59,-1.24,39.87,-0.53,0.65,53.24,-0.05,-0.12,-3.08
41,-21,80,-243,165,3886,4.12,2.92,1.90,-2.43,1.65,38.86,-0.50,0.68,53.24,-0.61,0.28,-2.25
61,-15,54,-230,211,3851,4.08,2.53,2.04,-2.30,2.11,38.51,-0.47,0.70,53.23,-0.92,0.19,-2.05
87,11,-35,-155,195,3816,4.20,2.35,1.63,-1.55,1.95,38.16,-0.43,0.72,53.22,-1.32,-0.21,-1.24
68,26,-65,-97,169,3852,4.20,2.27,1.07,-0.97,1.69,38.52,-0.40,0.73,53.22,-1.03,-0.44,-0.92
71,43,-69,-55,101,3869,4.21,2.31,0.54,-0.55,1.01,38.69,-0.36,0.74,53.21,-1.08,-0.70,-0.82
74,44,-60,-43,83,3877,4.24,2.34,0.12,-0.43,0.83,38.77,-0.33,0.75,53.21,-1.12,-0.71,-0.84
22,40,-21,-68,23,3875,3.95,2.35,-0.02,-0.68,0.23,38.75,-0.29,0.76,53.21,-0.33,-0.65,-1.15
8,33,-12,-81,28,3891,3.61,2.32,-0.09,-0.81,0.28,38.91,-0.26,0.78,53.21,-0.12,-0.55,-1.22
-10,15,18,-151,45,3890,3.18,2.18,0.03,-1.51,0.45,38.90,-0.24,0.81,53.21,0.16,-0.27,-1.49
-16,15,27,-174,44,3883,2.77,2.05,0.19,-1.74,0.44,38.83,-0.22,0.83,53.21,0.25,-0.28,-1.58
-30,11,23,-195,117,3925,2.31,1.91,0.31,-1.95,1.17,39.25,-0.20,0.85,53.21,0.46,-0.22,-1.57
-31,12,13,-191,152,3918,1.89,1.80,0.36,-1.91,1.52,39.18,-0.18,0.87,53.21,0.48,-0.23,-1.49
-26,25,-33,-176,185,3898,1.54,1.77,0.12,-1.76,1.85,38.98,-0.16,0.89,53.21,0.40,-0.43,-1.07
-15,25,-57,-151,121,3883,1.30,1.74,-0.24,-1.51,1.21,38.83,-0.14,0.90,53.21,0.23,-0.43,-0.82
-50,8,-50,-41,-10,3856,0.86,1.62,-0.52,-0.41,-0.10,38.56,-0.13,0.89,53.21,0.77,-0.17,-0.84
-63,3,-32,-29,-18,3846,0.39,1.48,-0.66,-0.29,-0.18,38.46,-0.14,0.88,53.21,0.97,-0.09,-0.97
-77,-6,40,-57,35,3867,-0.12,1.29,-0.35,-0.57,0.35,38.67,-0.12,0.88,53.22,1.18,0.04,-1.62
-82,-8,52,-71,43,3854,-0.61,1.11,-0.00,-0.71,0.43,38.54,-0.10,0.89,53.22,1.26,0.07,-1.77
-98,35,42,-147,-39,3887,-1.14,1.22,0.26,-1.47,-0.39,38.87,-0.12,0.92,53.21,1.50,-0.58,-1.72
-119,33,15,-181,19,3874,-1.76,1.30,0.32,-1.81,0.19,38.74,-0.12,0.94,53.21,1.83,-0.55,-1.50
-122,35,-16,-153,152,3841,-2.32,1.38,0.19,-1.53,1.52,38.41,-0.11,0.95,53.21,1.87,-0.58,-1.22
-114,29,5,-152,179,3829,-2.79,1.42,0.20,-1.52,1.79,38.29,-0.11,0.97,53.21,1.75,-0.49,-1.40
-59,20,61,-156,101,3858,-2.87,1.40,0.56,-1.56,1.01,38.58,-0.10,0.98,53.21,0.91,-0.36,-1.92
-65,12,42,-169,87,3874,-2.98,1.33,0.76,-1.69,0.87,38.74,-0.10,1.00,53.21,1.00,-0.24,-1.78
-91,5,30,-122,27,3886,-3.24,1.23,0.86,-1.22,0.27,38.86,-0.11,1.02,53.20,1.40,-0.13,-1.70
-96,4,41,-98,9,3913,-3.50,1.13,1.03,-0.98,0.09,39.13,-0.11,1.04,53.20,1.48,-0.12,-1.81
-124,-12,106,-79,-45,3900,-3.90,0.94,1.57,-0.79,-0.45,39.00,-0.14,1.05,53.19,1.91,0.13,-2.43
-136,-17,130,-77,-50,3913,-4.34,0.75,2.21,-0.77,-0.50,39.13,-0.18,1.06,53.18,2.09,0.20,-2.71
-204,-86,203,-178,91,3887,-5.15,0.15,3.22,-1.78,0.91,38.87,-0.19,1.07,53.17,3.13,1.26,-3.46
-199,-96,227,-158,93,3924,-5.85,-0.45,4.29,-1.58,0.93,39.24,-0.20,1.08,53.15,3.06,1.41,-3.80
-200,-113,292,-131,-37,3941,-6.49,-1.10,5.64,-1.31,-0.37,39.41,-0.23,1.09,53.13,3.08,1.67,-4.53
-215,-114,305,-134,-66,3959,-7.15,-1.68,6.94,-1.34,-0.66,39.59,-0.27,1.10,53.10,3.31,1.69,-4.80
-256,-103,332,-147,-90,3996,-8.00,-2.14,8.27,-1.47,-0.90,39.96,-0.31,1.10,53.07,3.94,1.52,-5.20
-263,-97,343,-149,-97,4004,-8.80,-2.52,9.53,-1.49,-0.97,40.04,-0.36,1.11,53.03,4.05,1.43,-5.46
-298,-116,383,-157,-67,3964,-9.74,-2.98,10.92,-1.57,-0.67,39.64,-0.41,1.11,52.99,4.59,1.72,-5.97
-308,-124,396,-148,-41,3955,-10.64,-3.43,12.24,-1.48,-0.41,39.55,-0.45,1.12,52.94,4.75,1.84,-6.25
-321,-141,453,-119,-1,3911,-11.54,-3.95,13.78,-1.19,-0.01,39.11,-0.49,1.12,52.88,4.95,2.10,-6.93
-328,-144,481,-115,-3,3889,-12.38,-4.43,15.34,-1.15,-0.03,38.89,-0.52,1.11,52.82,5.06,2.15,-7.37
-369,-183,604,-81,-93,3888,-13.40,-5.11,17.49,-0.81,-0.93,38.88,-0.59,1.10,52.75,5.69,2.75,-8.68
-381,-201,631,-92,-99,3918,-14.38,-5.82,19.59,-0.92,-0.99,39.18,-0.67,1.08,52.67,5.88,3.03,-9.18
-380,-278,641,-179,-19,3984,-15.26,-6.94,21.54,-1.79,-0.19,39.84,-0.72,1.07,52.59,5.87,4.20,-9.52
-354,-286,618,-151,-8,4046,-15.89,-7.99,23.15,-1.51,-0.08,40.46,-0.78,1.05,52.49,5.48,4.33,-9.53
-270,-237,526,-9,-71,3996,-15.95,-8.63,24.05,-0.09,-0.71,39.96,-0.84,1.00,52.40,4.20,3.59,-8.86
-253,-215,499,-3,-124,3958,-15.90,-9.08,24.69,-0.03,-1.24,39.58,-0.92,0.96,52.30,3.94,3.25,-8.71
-174,-200,507,-6,-169,3968,-15.37,-9.39,25.31,-0.06,-1.69,39.68,-0.99,0.91,52.20,2.74,3.03,-8.86
-137,-193,520,-9,-177,3964,-14.67,-9.63,25.95,-0.09,-1.77,39.64,-1.07,0.87,52.09,2.18,2.92,-9.05
-178,-262,540,-5,-178,3864,-14.29,-10.27,26.65,-0.05,-1.78,38.64,-1.14,0.82,51.99,2.81,3.98,-9.30
-196,-264,531,19,-192,3879,-14.06,-10.85,27.22,0.19,-1.92,38.79,-1.21,0.77,51.88,3.08,4.01,-9.30
-234,-243,485,37,-239,3906,-14.08,-11.25,27.46,0.37,-2.39,39.06,-1.28,0.72,51.77,3.67,3.70,-8.93
-226,-229,477,48,-256,3929,-14.05,-11.52,27.62,0.48,-2.56,39.29,-1.35,0.66,51.65,3.55,3.49,-8.89
-189,-185,478,35,-271,3866,-13.80,-11.50,27.78,0.35,-2.71,38.66,-1.42,0.61,51.54,2.99,2.82,-8.91
-183,-174,485,32,-254,3869,-13.53,-11.41,27.96,0.32,-2.54,38.69,-1.49,0.56,51.43,2.90,2.65,-8.99
-128,-142,493,3,-213,3860,-12.96,-11.13,28.17,0.03,-2.13,38.60,-1.56,0.51,51.32,2.06,2.17,-9.08
-118,-147,479,-16,-190,3828,-12.38,-10.92,28.27,-0.16,-1.90,38.28,-1.62,0.47,51.20,1.91,2.25,-8.97
-120,-129,447,-31,-210,3813,-11.88,-10.61,28.17,-0.31,-2.10,38.13,-1.69,0.43,51.09,1.94,1.97,-8.69
-120,-114,444,-31,-177,3824,-11.42,-10.25,28.06,-0.31,-1.77,38.24,-1.75,0.39,50.97,1.95,1.74,-8.65
-121,-99,450,-46,-137,3804,-11.02,-9.83,28.00,-0.46,-1.37,38.04,-1.81,0.37,50.86,1.96,1.52,-8.69
-118,-103,451,-56,-127,3795,-10.64,-9.47,27.95,-0.56,-1.27,37.95,-1.86,0.35,50.75,1.92,1.58,-8.68
-84,-112,455,-88,-118,3819,-10.08,-9.21,27.93,-0.88,-1.18,38.19,-1.89,0.34,50.64,1.40,1.71,-8.71
-68,-118,453,-81,-117,3836,-9.49,-9.01,27.90,-0.81,-1.17,38.36,-1.93,0.32,50.52,1.16,1.81,-8.69
-14,-122,424,-14,-194,3808,-8.63,-8.85,27.70,-0.14,-1.94,38.08,-1.98,0.29,50.41,0.33,1.87,-8.42
-21,-125,418,-11,-194,3788,-7.89,-8.73,27.48,-0.11,-1.94,37.88,-2.03,0.26,50.30,0.44,1.92,-8.33
-21,-117,423,40,-275,3813,-7.23,-8.57,27.31,0.40,-2.75,38.13,-2.07,0.22,50.19,0.44,1.79,-8.35
-28,-120,437,71,-334,3839,-6.68,-8.44,27.25,0.71,-3.34,38.39,-2.12,0.18,50.08,0.55,1.84,-8.46
-57,-118,507,112,-420,3844,-6.36,-8.32,27.61,1.12,-4.20,38.44,-2.16,0.15,49.97,0.99,1.81,-9.10
-67,-118,535,103,-428,3850,-6.13,-8.21,28.12,1.03,-4.28,38.50,-2.20,0.11,49.85,1.15,1.81,-9.40
-96,-129,627,51,-349,3897,-6.10,-8.17,29.13,0.51,-3.49,38.97,-2.24,0.08,49.74,1.59,1.98,-10.30
-102,-138,638,48,-304,3940,-6.12,-8.20,30.11,0.48,-3.04,39.40,-2.28,0.04,49.62,1.68,2.12,-10.52
-121,-175,621,79,-223,3919,-6.24,-8.45,30.89,0.79,-2.23,39.19,-2.32,0.00,49.49,1.98,2.69,-10.47
-134,-176,615,95,-213,3908,-6.44,-8.67,31.55,0.95,-2.13,39.08,-2.36,-0.04,49.36,2.18,2.71,-10.50
-144,-145,633,79,-189,3932,-6.67,-8.69,32.26,0.79,-1.89,39.32,-2.39,-0.09,49.23,2.33,2.24,-10.74
-127,-141,644,59,-226,3929,-6.78,-8.68,32.96,0.59,-2.26,39.29,-2.43,-0.13,49.10,2.08,2.18,-10.92
-71,-114,683,20,-367,3900,-6.53,-8.51,33.83,0.20,-3.67,39.00,-2.47,-0.16,48.96,1.22,1.77,-11.36
-84,-85,716,12,-440,3847,-6.39,-8.18,34.81,0.12,-4.40,38.47,-2.52,-0.19,48.82,1.42,1.33,-11.76
-169,-2,829,83,-561,3788,-6.78,-7.37,36.39,0.83,-5.61,37.88,-2.56,-0.21,48.68,2.72,0.06,-12.92
-216,32,892,100,-582,3778,-7.42,-6.44,38.19,1.00,-5.82,37.78,-2.61,-0.24,48.52,3.44,-0.46,-13.68
-354,101,1069,139,-601,3837,-8.84,-5.18,40.89,1.39,-6.01,38.37,-2.67,-0.26,48.36,5.55,-1.51,-15.53
-408,117,1127,158,-576,3876,-10.45,-3.95,43.68,1.58,-5.76,38.76,-2.73,-0.27,48.18,6.38,-1.76,-16.37
-537,103,1171,69,-326,4023,-12.68,-2.92,46.45,0.69,-3.26,40.23,-2.79,-0.28,48.00,8.36,-1.55,-17.10
-557,82,1145,67,-297,4019,-14.81,-2.13,48.79,0.67,-2.97,40.19,-2.87,-0.28,47.80,8.67,-1.23,-17.17
-416,-5,960,57,-243,4048,-15.86,-1.95,49.77,0.57,-2.43,40.48,-2.95,-0.29,47.60,6.53,0.10,-15.72
-345,-28,906,75,-226,4056,-16.38,-1.93,50.32,0.75,-2.26,40.56,-3.02,-0.31,47.40,5.45,0.45,-15.33
-169,-70,794,125,-331,3920,-15.77,-2.16,50.13,1.25,-3.31,39.20,-3.10,-0.32,47.20,2.77,1.09,-14.35
-114,-65,789,133,-441,3843,-14.89,-2.34,49.93,1.33,-4.41,38.43,-3.18,-0.33,47.00,1.93,1.01,-14.28
-97,-46,844,142,-613,3843,-13.99,-2.39,50.09,1.42,-6.13,38.43,-3.25,-0.33,46.80,1.68,0.72,-14.76
-113,-45,860,163,-675,3849,-13.28,-2.42,50.32,1.63,-6.75,38.49,-3.32,-0.33,46.60,1.92,0.71,-14.92
-198,-40,907,224,-805,3887,-13.16,-2.42,50.82,2.24,-8.05,38.87,-3.39,-0.34,46.39,3.22,0.63,-15.38
-222,-38,916,207,-755,3907,-13.20,-2.41,51.33,2.07,-7.55,39.07,-3.47,-0.34,46.19,3.59,0.60,-15.52
-247,-70,929,158,-494,4004,-13.39,-2.60,51.86,1.58,-4.94,40.04,-3.54,-0.35,45.98,3.98,1.09,-15.69
-235,-91,927,126,-428,4023,-13.48,-2.89,52.33,1.26,-4.28,40.23,-3.61,-0.35,45.77,3.80,1.41,-15.73
-161,-172,831,97,-61,4079,-13.12,-3.65,52.17,0.97,-0.61,40.79,-3.64,-0.36,45.56,2.67,2.65,-14.89
-130,-193,769,94,16,4071,-12.60,-4.47,51.64,0.94,0.16,40.71,-3.68,-0.37,45.35,2.20,2.97,-14.29
-21,-222,527,137,39,3898,-11.47,-5.37,49.69,1.37,0.39,38.98,-3.71,-0.39,45.15,0.53,3.42,-11.98
-6,-213,449,189,-68,3810,-10.36,-6.14,47.46,1.89,-0.68,38.10,-3.74,-0.41,44.96,0.30,3.28,-11.03
-19,-150,413,202,-397,3782,-9.44,-6.44,45.23,2.02,-3.97,37.82,-3.79,-0.44,44.78,0.50,2.33,-10.44
-24,-133,422,169,-468,3774,-8.64,-6.60,43.29,1.69,-4.68,37.74,-3.84,-0.46,44.61,0.58,2.07,-10.26
-90,-80,449,105,-602,3750,-8.32,-6.43,41.70,1.05,-6.02,37.50,-3.89,-0.48,44.44,1.59,1.26,-10.28
-126,-67,452,98,-609,3749,-8.26,-6.20,40.28,0.98,-6.09,37.49,-3.95,-0.50,44.27,2.14,1.06,-10.12
-272,-37,465,40,-519,3764,-9.09,-5.80,39.09,0.40,-5.19,37.64,-4.00,-0.51,44.12,4.37,0.60,-10.07
-288,-22,466,29,-495,3779,-9.94,-5.36,38.03,0.29,-4.95,37.79,-4.06,-0.52,43.96,4.62,0.37,-9.94
-241,61,449,68,-427,3868,-10.42,-4.45,36.96,0.68,-4.27,38.68,-4.12,-0.53,43.81,3.91,-0.89,-9.65
-213,76,444,40,-389,3871,-10.67,-3.54,35.97,0.40,-3.89,38.71,-4.18,-0.54,43.67,3.48,-1.12,-9.48
-112,48,454,82,-245,3934,-10.29,-2.89,35.15,0.82,-2.45,39.34,-4.21,-0.55,43.53,1.94,-0.70,-9.45
-85,28,448,156,-254,3895,-9.78,-2.43,34.36,1.56,-2.54,38.95,-4.25,-0.57,43.39,1.53,-0.39,-9.30
-59,26,424,221,-370,3872,-9.16,-2.03,33.51,2.21,-3.70,38.72,-4.29,-0.58,43.26,1.14,-0.36,-8.98
-57,23,422,223,-408,3868,-8.59,-1.69,32.74,2.23,-4.08,38.68,-4.34,-0.60,43.13,1.11,-0.32,-8.86
-75,19,457,248,-577,3899,-8.19,-1.40,32.25,2.48,-5.77,38.99,-4.39,-0.60,43.00,1.38,-0.26,-9.09
-87,18,476,243,-607,3898,-7.90,-1.15,31.93,2.43,-6.07,38.98,-4.44,-0.61,42.87,1.57,-0.24,-9.21
-130,19,549,233,-616,3925,-7.91,-0.92,32.09,2.33,-6.16,39.25,-4.49,-0.61,42.74,2.23,-0.26,-9.85
-144,24,573,234,-613,3902,-7.99,-0.68,32.37,2.34,-6.13,39.02,-4.53,-0.61,42.61,2.44,-0.33,-10.08
-163,29,673,190,-542,3892,-8.19,-0.44,33.24,1.90,-5.42,38.92,-4.58,-0.61,42.48,2.74,-0.41,-11.04
-164,22,698,186,-507,3903,-8.37,-0.26,34.17,1.86,-5.07,39.03,-4.63,-0.61,42.34,2.75,-0.30,-11.37
-186,3,744,139,-403,3949,-8.67,-0.22,35.29,1.39,-4.03,39.49,-4.68,-0.62,42.20,3.09,-0.01,-11.90
-201,-7,726,143,-370,3937,-9.03,-0.24,36.19,1.43,-3.70,39.37,-4.73,-0.62,42.06,3.32,0.14,-11.86
-208,-18,627,197,-367,3889,-9.39,-0.32,36.40,1.97,-3.67,38.89,-4.77,-0.63,41.91,3.43,0.31,-11.04
-203,-17,606,184,-362,3880,-9.69,-0.39,36.46,1.84,-3.62,38.80,-4.82,-0.64,41.76,3.36,0.29,-10.87
-161,-13,584,142,-343,3847,-9.70,-0.43,36.37,1.42,-3.43,38.47,-4.86,-0.64,41.62,2.72,0.23,-10.67
-143,-8,590,141,-371,3844,-9.61,-0.44,36.33,1.41,-3.71,38.44,-4.91,-0.65,41.47,2.45,0.16,-10.71
-91,31,634,161,-485,3826,-9.20,-0.21,36.57,1.61,-4.85,38.26,-4.96,-0.65,41.33,1.66,-0.44,-11.11
-74,42,648,149,-513,3838,-8.73,0.07,36.86,1.49,-5.13,38.38,-5.01,-0.65,41.18,1.40,-0.61,-11.26
-63,44,677,166,-572,3867,-8.24,0.33,37.31,1.66,-5.72,38.67,-5.06,-0.64,41.03,1.23,-0.64,-11.56
-73,43,676,166,-577,3874,-7.86,0.56,37.70,1.66,-5.77,38.74,-5.11,-0.63,40.88,1.39,-0.63,-11.60
-123,26,631,222,-598,3910,-7.83,0.66,37.78,2.22,-5.98,39.10,-5.16,-0.63,40.73,2.15,-0.37,-11.22
-149,14,594,244,-594,3945,-7.95,0.68,37.63,2.44,-5.94,39.45,-5.21,-0.62,40.58,2.55,-0.18,-10.89
-163,-11,539,252,-559,3931,-8.15,0.55,37.15,2.52,-5.59,39.31,-5.26,-0.62,40.43,2.77,0.20,-10.36
-153,-13,533,265,-553,3913,-8.27,0.41,36.69,2.65,-5.53,39.13,-5.30,-0.62,40.29,2.62,0.23,-10.24
-111,16,547,273,-539,3888,-8.12,0.47,36.35,2.73,-5.39,38.88,-5.35,-0.62,40.14,1.98,-0.21,-10.31
-102,24,559,279,-556,3876,-7.93,0.57,36.13,2.79,-5.56,38.76,-5.39,-0.62,40.00,1.84,-0.34,-10.38
-70,34,601,254,-627,3875,-7.57,0.72,36.18,2.54,-6.27,38.75,-5.44,-0.61,39.86,1.36,-0.49,-10.74
-73,33,614,265,-646,3885,-7.25,0.85,36.31,2.65,-6.46,38.85,-5.48,-0.61,39.71,1.41,-0.48,-10.86
-97,32,660,277,-703,3903,-7.12,0.96,36.70,2.77,-7.03,39.03,-5.53,-0.60,39.57,1.77,-0.46,-11.30
-110,30,673,268,-707,3894,-7.08,1.05,37.14,2.68,-7.07,38.94,-5.57,-0.59,39.42,1.97,-0.43,-11.46
-138,19,717,187,-648,3964,-7.21,1.06,37.80,1.87,-6.48,39.64,-5.62,-0.58,39.27,2.40,-0.26,-11.92
-149,6,730,170,-624,3946,-7.40,0.99,38.47,1.70,-6.24,39.46,-5.67,-0.57,39.11,2.57,-0.07,-12.11
-126,-9,757,113,-607,3883,-7.43,0.83,39.24,1.13,-6.07,38.83,-5.72,-0.56,38.96,2.23,0.16,-12.43
-116,-9,764,94,-595,3869,-7.39,0.70,39.98,0.94,-5.95,38.69,-5.76,-0.54,38.80,2.08,0.16,-12.58
-67,16,751,85,-581,3872,-7.06,0.72,40.56,0.85,-5.81,38.72,-5.81,-0.53,38.64,1.33,-0.22,-12.55
-55,25,742,87,-580,3874,-6.69,0.80,41.03,0.87,-5.80,38.74,-5.86,-0.51,38.48,1.15,-0.36,-12.53
-17,48,702,111,-603,3869,-6.13,1.02,41.21,1.11,-6.03,38.69,-5.90,-0.50,38.31,0.57,-0.71,-12.21
-15,53,690,123,-623,3892,-5.61,1.24,41.30,1.23,-6.23,38.92,-5.94,-0.48,38.15,0.54,-0.79,-12.11
-31,43,647,218,-706,3889,-5.23,1.38,41.12,2.18,-7.06,38.89,-5.98,-0.47,37.98,0.78,-0.64,-11.72
-34,33,636,250,-734,3901,-4.92,1.44,40.88,2.50,-7.34,39.01,-6.02,-0.46,37.82,0.83,-0.48,-11.59
-52,15,620,278,-743,3950,-4.74,1.39,40.58,2.78,-7.43,39.50,-6.05,-0.45,37.66,1.11,-0.21,-11.41
-65,20,638,260,-739,3947,-4.67,1.37,40.41,2.60,-7.39,39.47,-6.08,-0.43,37.50,1.31,-0.29,-11.54
-75,31,743,194,-678,3935,-4.66,1.42,40.90,1.94,-6.78,39.35,-6.12,-0.42,37.34,1.46,-0.46,-12.49
-71,37,772,172,-661,3947,-4.62,1.51,41.52,1.72,-6.61,39.47,-6.16,-0.41,37.17,1.40,-0.55,-12.81
-57,52,835,144,-629,3931,-4.51,1.67,42.46,1.44,-6.29,39.31,-6.19,-0.39,37.01,1.19,-0.78,-13.46
-47,54,833,124,-627,3938,-4.35,1.84,43.30,1.24,-6.27,39.38,-6.23,-0.37,36.83,1.04,-0.81,-13.55
-29,34,748,90,-592,3946,-4.09,1.86,43.53,0.90,-5.92,39.46,-6.26,-0.35,36.66,0.77,-0.51,-12.85
-27,22,705,97,-594,3943,-3.84,1.81,43.48,0.97,-5.94,39.43,-6.29,-0.34,36.49,0.74,-0.32,-12.48
-30,-24,547,126,-648,3916,-3.64,1.48,42.47,1.26,-6.48,39.16,-6.32,-0.32,36.32,0.78,0.38,-11.00
-36,-31,516,157,-673,3891,-3.50,1.14,41.37,1.57,-6.73,38.91,-6.36,-0.30,36.16,0.88,0.49,-10.60
-58,-21,494,245,-731,3828,-3.50,0.90,40.24,2.45,-7.31,38.28,-6.38,-0.29,36.00,1.21,0.33,-10.26
-73,-7,518,262,-728,3855,-3.60,0.77,39.38,2.62,-7.28,38.55,-6.41,-0.29,35.84,1.44,0.12,-10.35
-93,6,575,325,-682,3880,-3.80,0.73,38.95,3.25,-6.82,38.80,-6.44,-0.28,35.69,1.75,-0.08,-10.77
-92,9,588,323,-672,3877,-3.99,0.71,38.64,3.23,-6.72,38.77,-6.47,-0.27,35.53,1.74,-0.13,-10.84
-90,23,612,300,-629,3899,-4.14,0.78,38.51,3.00,-6.29,38.99,-6.50,-0.27,35.38,1.71,-0.34,-11.02
-89,26,614,301,-602,3909,-4.26,0.86,38.40,3.01,-6.02,39.09,-6.52,-0.26,35.23,1.69,-0.39,-11.02
-72,16,681,331,-566,3896,-4.28,0.87,38.72,3.31,-5.66,38.96,-6.55,-0.26,35.08,1.44,-0.23,-11.63
-57,12,715,348,-567,3904,-4.20,0.86,39.21,3.48,-5.67,39.04,-6.57,-0.26,34.92,1.21,-0.17,-11.97
-19,0,824,320,-654,3947,-3.89,0.77,40.31,3.20,-6.54,39.47,-6.60,-0.25,34.76,0.63,0.01,-13.03
-9,-10,844,296,-680,3974,-3.56,0.63,41.43,2.96,-6.80,39.74,-6.62,-0.24,34.60,0.48,0.16,-13.34
30,-68,853,263,-714,3992,-3.02,0.16,42.49,2.63,-7.14,39.92,-6.65,-0.23,34.43,-0.12,1.05,-13.55
34,-78,827,239,-690,3976,-2.51,-0.34,43.29,2.39,-6.90,39.76,-6.67,-0.23,34.25,-0.18,1.20,-13.43
28,-65,754,147,-650,3897,-2.09,-0.70,43.56,1.47,-6.50,38.97,-6.70,-0.22,34.08,-0.09,1.00,-12.84
20,-54,736,123,-625,3868,-1.76,-0.96,43.69,1.23,-6.25,38.68,-6.72,-0.21,33.91,0.04,0.84,-12.70
-17,-10,721,79,-601,3759,-1.69,-0.92,43.72,0.79,-6.01,37.59,-6.74,-0.20,33.73,0.60,0.17,-12.57
-22,3,732,56,-600,3754,-1.65,-0.81,43.81,0.56,-6.00,37.54,-6.77,-0.19,33.56,0.68,-0.03,-12.68
-64,45,765,116,-575,3720,-1.88,-0.46,44.10,1.16,-5.75,37.20,-6.79,-0.18,33.38,1.32,-0.68,-12.99
-74,55,763,143,-575,3716,-2.14,-0.08,44.34,1.43,-5.75,37.16,-6.81,-0.18,33.21,1.47,-0.83,-13.00
-110,78,726,180,-588,3744,-2.60,0.41,44.34,1.80,-5.88,37.44,-6.84,-0.17,33.03,2.03,-1.18,-12.68
-122,68,705,204,-571,3772,-3.08,0.78,44.20,2.04,-5.71,37.72,-6.86,-0.16,32.86,2.21,-1.03,-12.48
-150,52,620,299,-537,3827,-3.69,1.02,43.57,2.99,-5.37,38.27,-6.88,-0.15,32.68,2.64,-0.79,-11.67
-158,57,577,313,-535,3877,-4.28,1.27,42.73,3.13,-5.35,38.77,-6.90,-0.14,32.51,2.77,-0.87,-11.20
-114,54,494,406,-492,3917,-4.55,1.47,41.47,4.06,-4.92,39.17,-6.92,-0.14,32.35,2.10,-0.82,-10.33
-87,51,471,416,-478,3949,-4.63,1.63,40.20,4.16,-4.78,39.49,-6.94,-0.13,32.19,1.69,-0.78,-9.96
2,54,495,357,-541,3925,-4.15,1.80,39.20,3.57,-5.41,39.25,-6.96,-0.12,32.04,0.33,-0.82,-10.04
38,51,521,352,-571,3918,-3.50,1.93,38.45,3.52,-5.71,39.18,-6.98,-0.11,31.88,-0.22,-0.78,-10.16
134,40,640,334,-669,3888,-2.34,1.98,38.51,3.34,-6.69,38.88,-7.00,-0.10,31.73,-1.69,-0.61,-11.17
147,42,676,318,-704,3885,-1.21,2.04,38.78,3.18,-7.04,38.85,-7.01,-0.09,31.58,-1.89,-0.64,-11.50
118,66,772,271,-704,3849,-0.37,2.24,39.62,2.71,-7.04,38.49,-7.03,-0.08,31.42,-1.45,-1.01,-12.42
106,70,788,253,-714,3836,0.32,2.44,40.46,2.53,-7.14,38.36,-7.04,-0.06,31.26,-1.27,-1.07,-12.66
49,79,797,162,-647,3945,0.58,2.68,41.28,1.62,-6.47,39.45,-7.05,-0.04,31.10,-0.40,-1.21,-12.84
11,83,783,226,-595,3924,0.59,2.92,41.93,2.26,-5.95,39.24,-7.05,-0.03,30.94,0.18,-1.27,-12.80
-37,79,737,272,-608,3929,0.31,3.11,42.23,2.72,-6.08,39.29,-7.06,-0.01,30.77,0.92,-1.21,-12.44
-60,74,725,259,-604,3944,-0.09,3.25,42.43,2.59,-6.04,39.44,-7.07,0.01,30.60,1.27,-1.14,-12.36
-96,48,743,228,-616,3974,-0.67,3.22,42.72,2.28,-6.16,39.74,-7.08,0.03,30.44,1.82,-0.74,-12.55
-97,28,758,234,-637,3972,-1.19,3.07,43.07,2.34,-6.37,39.72,-7.09,0.04,30.27,1.84,-0.44,-12.72
-70,6,786,246,-593,4013,-1.50,2.80,43.56,2.46,-5.93,40.13,-7.11,0.06,30.09,1.43,-0.10,-13.01
-74,12,790,250,-557,3986,-1.80,2.59,44.02,2.50,-5.57,39.86,-7.12,0.07,29.92,1.49,-0.19,-13.10
-60,8,785,254,-500,3936,-1.99,2.38,44.41,2.54,-5.00,39.36,-7.13,0.09,29.75,1.28,-0.13,-13.11
-54,4,772,252,-464,3952,-2.12,2.17,44.68,2.52,-4.64,39.52,-7.13,0.10,29.57,1.19,-0.07,-13.03
-68,-4,726,279,-422,3921,-2.32,1.92,44.64,2.79,-4.22,39.21,-7.14,0.11,29.39,1.40,0.05,-12.63
-65,-3,718,325,-395,3924,-2.48,1.71,44.55,3.25,-3.95,39.24,-7.14,0.12,29.22,1.35,0.04,-12.54
-62,28,782,424,-334,3918,-2.61,1.71,44.87,4.24,-3.34,39.18,-7.14,0.13,29.04,1.31,-0.44,-13.12
-49,44,828,438,-340,3873,-2.65,1.81,45.43,4.38,-3.40,38.73,-7.15,0.15,28.86,1.11,-0.68,-13.58
30,79,992,410,-448,3859,-2.20,2.11,46.94,4.10,-4.48,38.59,-7.16,0.16,28.68,-0.09,-1.22,-15.16
50,90,1030,393,-474,3870,-1.68,2.45,48.53,3.93,-4.74,38.70,-7.16,0.18,28.48,-0.40,-1.39,-15.68
138,79,1098,335,-541,3831,-0.67,2.69,50.37,3.35,-5.41,38.31,-7.17,0.19,28.29,-1.74,-1.22,-16.49
169,75,1092,308,-543,3844,0.43,2.87,52.00,3.08,-5.43,38.44,-7.17,0.21,28.08,-2.22,-1.16,-16.64
208,71,1027,277,-603,3787,1.66,3.02,53.06,2.77,-6.03,37.87,-7.17,0.23,27.87,-2.82,-1.10,-16.22
208,72,1005,263,-608,3791,2.76,3.16,53.89,2.63,-6.08,37.91,-7.16,0.26,27.66,-2.82,-1.12,-16.14
153,39,928,260,-546,3799,3.42,3.08,54.16,2.60,-5.46,37.99,-7.15,0.28,27.45,-1.98,-0.62,-15.51
96,11,898,244,-506,3841,3.66,2.84,54.22,2.44,-5.06,38.41,-7.14,0.30,27.23,-1.12,-0.19,-15.26
-2,-54,838,288,-439,3837,3.28,2.23,53.91,2.88,-4.39,38.37,-7.12,0.32,27.02,0.38,0.80,-14.71
-17,-71,816,271,-432,3816,2.85,1.57,53.50,2.71,-4.32,38.16,-7.11,0.33,26.81,0.61,1.06,-14.46
-35,-127,763,260,-496,3870,2.35,0.64,52.80,2.60,-4.96,38.70,-7.10,0.34,26.60,0.88,1.92,-13.92
-36,-137,755,276,-511,3869,1.90,-0.26,52.13,2.76,-5.11,38.69,-7.09,0.35,26.39,0.90,2.07,-13.76
-47,-162,751,266,-577,3890,1.42,-1.22,51.50,2.66,-5.77,38.90,-7.09,0.35,26.19,1.07,2.46,-13.64
-42,-168,756,239,-576,3903,1.02,-2.13,50.96,2.39,-5.76,39.03,-7.09,0.35,25.98,0.99,2.55,-13.61
-25,-178,730,242,-533,3935,0.77,-3.00,50.31,2.42,-5.33,39.35,-7.09,0.34,25.78,0.73,2.70,-13.30
-20,-174,704,256,-527,3934,0.57,-3.76,49.58,2.56,-5.27,39.34,-7.09,0.34,25.58,0.66,2.65,-12.98
-22,-150,589,276,-562,3885,0.38,-4.30,48.21,2.76,-5.62,38.85,-7.09,0.33,25.39,0.69,2.28,-11.83
-25,-135,542,291,-542,3876,0.19,-4.69,46.70,2.91,-5.42,38.76,-7.09,0.31,25.20,0.74,2.05,-11.23
-39,-111,503,283,-531,3832,-0.07,-4.90,45.10,2.83,-5.31,38.32,-7.09,0.30,25.02,0.95,1.69,-10.69
-42,-102,500,277,-506,3811,-0.32,-5.03,43.64,2.77,-5.06,38.11,-7.10,0.28,24.85,1.00,1.55,-10.47
-50,-66,515,231,-421,3835,-0.59,-4.93,42.41,2.31,-4.21,38.35,-7.09,0.26,24.67,1.12,1.01,-10.44
-48,-52,525,208,-403,3819,-0.83,-4.76,41.38,2.08,-4.03,38.19,-7.09,0.25,24.51,1.09,0.79,-10.38
-5,20,560,199,-361,3794,-0.77,-4.16,40.65,1.99,-3.61,37.94,-7.08,0.23,24.34,0.43,-0.31,-10.58
15,42,569,211,-358,3798,-0.60,-3.49,40.06,2.11,-3.58,37.98,-7.08,0.22,24.18,0.13,-0.64,-10.58
78,106,584,294,-373,3819,-0.07,-2.49,39.62,2.94,-3.73,38.19,-7.07,0.22,24.02,-0.84,-1.62,-10.64
98,115,581,299,-390,3818,0.54,-1.54,39.20,2.99,-3.90,38.18,-7.06,0.21,23.87,-1.14,-1.76,-10.56
124,134,549,303,-464,3887,1.24,-0.57,38.63,3.03,-4.64,38.87,-7.06,0.21,23.71,-1.54,-2.05,-10.21
119,133,527,292,-469,3897,1.84,0.30,37.98,2.92,-4.69,38.97,-7.05,0.21,23.56,-1.47,-2.04,-9.94
74,115,489,256,-496,3909,2.11,0.97,37.16,2.56,-4.96,39.09,-7.04,0.22,23.42,-0.78,-1.77,-9.51
60,108,480,244,-509,3911,2.26,1.53,36.38,2.44,-5.09,39.11,-7.03,0.22,23.27,-0.57,-1.66,-9.33
-10,109,436,254,-502,3937,1.98,2.04,35.40,2.54,-5.02,39.37,-7.03,0.23,23.13,0.50,-1.68,-8.82
-35,116,420,246,-507,3931,1.57,2.55,34.42,2.46,-5.07,39.31,-7.02,0.24,23.00,0.88,-1.79,-8.56
-107,148,372,249,-517,3909,0.76,3.20,33.25,2.49,-5.17,39.09,-7.02,0.25,22.87,1.98,-2.28,-8.00
-126,156,361,266,-497,3930,-0.09,3.83,32.12,2.66,-4.97,39.30,-7.02,0.26,22.74,2.27,-2.40,-7.76
-185,170,321,356,-403,3970,-1.21,4.48,30.87,3.56,-4.03,39.70,-7.02,0.28,22.62,3.18,-2.62,-7.26
-195,165,306,375,-372,3973,-2.28,5.04,29.65,3.75,-3.72,39.73,-7.02,0.29,22.51,3.33,-2.54,-6.97
-200,125,251,434,-295,3990,-3.27,5.30,28.22,4.34,-2.95,39.90,-7.03,0.31,22.40,3.41,-1.94,-6.32
-190,108,241,454,-294,3965,-4.10,5.43,26.86,4.54,-2.94,39.65,-7.04,0.33,22.29,3.26,-1.68,-6.05
-140,103,298,396,-438,3916,-4.55,5.51,26.00,3.96,-4.38,39.16,-7.05,0.34,22.19,2.50,-1.60,-6.42
-125,110,325,390,-479,3891,-4.85,5.63,25.38,3.90,-4.79,38.91,-7.07,0.36,22.09,2.27,-1.71,-6.57
-81,142,426,350,-528,3927,-4.86,5.94,25.44,3.50,-5.28,39.27,-7.09,0.38,22.00,1.60,-2.20,-7.43
-71,147,446,325,-496,3934,-4.81,6.24,25.62,3.25,-4.96,39.34,-7.11,0.40,21.90,1.45,-2.28,-7.62
-55,125,435,270,-408,3934,-4.66,6.38,25.71,2.70,-4.08,39.34,-7.12,0.42,21.80,1.21,-1.94,-7.54
-48,112,414,267,-391,3930,-4.49,6.42,25.66,2.67,-3.91,39.30,-7.14,0.44,21.70,1.10,-1.75,-7.35
-36,79,367,284,-412,3931,-4.26,6.26,25.34,2.84,-4.12,39.31,-7.15,0.46,21.60,0.92,-1.24,-6.91
-43,81,375,304,-442,3894,-4.10,6.13,25.09,3.04,-4.42,38.94,-7.16,0.48,21.51,1.02,-1.27,-6.94
-11,62,439,334,-483,3864,-3.75,5.90,25.26,3.34,-4.83,38.64,-7.18,0.50,21.41,0.54,-0.99,-7.50
15,51,450,305,-445,3901,-3.29,5.62,25.48,3.05,-4.45,39.01,-7.19,0.51,21.31,0.14,-0.82,-7.62
67,100,437,253,-379,3933,-2.55,5.67,25.60,2.53,-3.79,39.33,-7.19,0.53,21.21,-0.66,-1.57,-7.52
82,129,445,259,-355,3846,-1.79,5.89,25.75,2.59,-3.55,38.46,-7.19,0.55,21.11,-0.89,-2.01,-7.61
135,196,541,196,-401,3837,-0.79,6.49,26.48,1.96,-4.01,38.37,-7.18,0.57,21.01,-1.70,-3.03,-8.51
162,202,577,182,-444,3815,0.28,7.08,27.35,1.82,-4.44,38.15,-7.18,0.60,20.91,-2.11,-3.13,-8.93
213,214,671,220,-552,3848,1.55,7.67,28.71,2.20,-5.52,38.48,-7.17,0.62,20.80,-2.89,-3.31,-9.90
222,213,685,212,-585,3841,2.75,8.21,30.01,2.12,-5.85,38.41,-7.17,0.65,20.68,-3.03,-3.30,-10.18
204,179,689,160,-575,3870,3.72,8.48,31.22,1.60,-5.75,38.70,-7.16,0.69,20.56,-2.76,-2.79,-10.37
201,161,668,161,-554,3891,4.57,8.61,32.17,1.61,-5.54,38.91,-7.15,0.72,20.44,-2.72,-2.51,-10.31
179,125,587,148,-507,3893,5.21,8.51,32.53,1.48,-5.07,38.93,-7.12,0.75,20.31,-2.39,-1.97,-9.67
167,116,566,161,-520,3874,5.70,8.37,32.73,1.61,-5.20,38.74,-7.10,0.78,20.19,-2.21,-1.83,-9.51
130,97,580,196,-555,3888,5.93,8.12,33.00,1.96,-5.55,38.88,-7.08,0.81,20.06,-1.64,-1.54,-9.66
112,92,599,193,-571,3881,6.02,7.87,33.35,1.93,-5.71,38.81,-7.06,0.84,19.93,-1.37,-1.46,-9.86
37,75,659,208,-584,3866,5.64,7.54,34.04,2.08,-5.84,38.66,-7.05,0.87,19.80,-0.23,-1.21,-10.46
15,67,663,198,-565,3879,5.17,7.20,34.68,1.98,-5.65,38.79,-7.03,0.90,19.67,0.11,-1.08,-10.57
-57,31,632,154,-489,3891,4.30,6.67,35.06,1.54,-4.89,38.91,-7.01,0.93,19.53,1.21,-0.54,-10.35
-73,26,618,141,-481,3898,3.43,6.16,35.33,1.41,-4.81,38.98,-6.99,0.95,19.39,1.45,-0.46,-10.26
-97,22,594,88,-459,3882,2.49,5.68,35.42,0.88,-4.59,38.82,-6.98,0.97,19.26,1.82,-0.40,-10.07
-88,21,589,96,-426,3938,1.71,5.24,35.47,0.96,-4.26,39.38,-6.96,0.99,19.12,1.69,-0.38,-10.03
-75,66,576,55,-405,3967,1.08,5.12,35.44,0.55,-4.05,39.67,-6.95,1.01,18.98,1.49,-1.07,-9.91
-62,108,600,114,-411,3895,0.59,5.26,35.55,1.14,-4.11,38.95,-6.94,1.03,18.84,1.29,-1.71,-10.13
0,154,636,172,-429,3878,0.53,5.68,35.88,1.72,-4.29,38.78,-6.93,1.06,18.70,0.35,-2.42,-10.47
14,162,647,194,-424,3899,0.57,6.10,36.24,1.94,-4.24,38.99,-6.92,1.08,18.56,0.13,-2.54,-10.61
34,197,712,309,-368,3930,0.72,6.69,36.96,3.09,-3.68,39.30,-6.91,1.11,18.42,-0.17,-3.08,-11.25
33,207,737,325,-358,3925,0.85,7.28,37.76,3.25,-3.58,39.25,-6.90,1.14,18.27,-0.16,-3.23,-11.56
65,234,829,294,-303,3937,1.16,7.98,39.04,2.94,-3.03,39.37,-6.88,1.17,18.12,-0.65,-3.65,-12.50
78,228,843,258,-302,3954,1.52,8.57,40.28,2.58,-3.02,39.54,-6.87,1.21,17.96,-0.85,-3.56,-12.77
110,214,831,239,-350,3917,2.04,9.02,41.32,2.39,-3.50,39.17,-6.85,1.25,17.80,-1.34,-3.35,-12.80
132,203,809,225,-381,3892,2.64,9.36,42.12,2.25,-3.81,38.92,-6.83,1.28,17.64,-1.68,-3.18,-12.71
159,159,684,136,-419,3925,3.34,9.39,42.08,1.36,-4.19,39.25,-6.81,1.32,17.48,-2.09,-2.51,-11.64
151,140,614,140,-429,3904,3.93,9.31,41.62,1.40,-4.29,39.04,-6.79,1.36,17.31,-1.97,-2.23,-10.99
80,101,527,136,-483,3884,4.03,8.99,40.67,1.36,-4.83,38.84,-6.77,1.40,17.16,-0.89,-1.63,-10.12
55,95,513,140,-473,3893,3.96,8.67,39.73,1.40,-4.73,38.93,-6.75,1.43,17.00,-0.51,-1.54,-9.88
-69,107,505,86,-446,3852,3.14,8.46,38.84,0.86,-4.46,38.52,-6.73,1.47,16.85,1.38,-1.73,-9.70
-111,108,512,53,-448,3822,2.15,8.27,38.08,0.53,-4.48,38.22,-6.72,1.50,16.71,2.02,-1.74,-9.65
-208,71,515,-49,-363,3830,0.67,7.88,37.41,-0.49,-3.63,38.30,-6.70,1.54,16.56,3.51,-1.18,-9.59
-246,56,507,-55,-322,3875,-0.90,7.43,36.76,-0.55,-3.22,38.75,-6.68,1.58,16.42,4.09,-0.95,-9.43
-325,34,469,-39,-276,3846,-2.79,6.90,35.95,-0.39,-2.76,38.46,-6.67,1.62,16.28,5.30,-0.62,-9.00
-328,25,458,-31,-269,3883,-4.51,6.36,35.15,-0.31,-2.69,38.83,-6.67,1.65,16.14,5.35,-0.48,-8.80
-286,41,443,73,-321,3863,-5.81,5.97,34.34,0.73,-3.21,38.63,-6.68,1.68,16.01,4.71,-0.72,-8.57
-236,46,446,72,-359,3854,-6.67,5.66,33.62,0.72,-3.59,38.54,-6.69,1.70,15.87,3.95,-0.80,-8.50
-148,50,420,89,-386,3871,-6.90,5.40,32.82,0.89,-3.86,38.71,-6.71,1.72,15.75,2.61,-0.86,-8.17
-142,55,406,98,-399,3847,-7.08,5.19,32.02,0.98,-3.99,38.47,-6.73,1.74,15.62,2.52,-0.94,-7.95
-145,61,364,105,-426,3864,-7.26,5.04,31.04,1.05,-4.26,38.64,-6.75,1.75,15.50,2.57,-1.03,-7.46
-154,62,355,113,-397,3899,-7.47,4.92,30.10,1.13,-3.97,38.99,-6.77,1.77,15.38,2.71,-1.05,-7.26
-194,79,354,48,-386,3920,-7.91,4.91,29.25,0.48,-3.86,39.20,-6.79,1.78,15.27,3.32,-1.31,-7.14
-197,91,364,43,-372,3859,-8.32,4.97,28.54,0.43,-3.72,38.59,-6.81,1.80,15.16,3.37,-1.49,-7.13
-177,133,416,-22,-316,3835,-8.56,5.29,28.23,-0.22,-3.16,38.35,-6.83,1.83,15.05,3.06,-2.13,-7.53
-169,145,440,-34,-327,3815,-8.74,5.64,28.09,-0.34,-3.27,38.15,-6.85,1.85,14.94,2.94,-2.32,-7.71
-138,225,564,50,-404,3779,-8.71,6.45,28.72,0.50,-4.04,37.79,-6.87,1.87,14.83,2.47,-3.54,-8.84
-87,246,615,92,-452,3843,-8.37,7.31,29.60,0.92,-4.52,38.43,-6.90,1.90,14.71,1.69,-3.86,-9.38
3,212,666,140,-472,3867,-7.51,7.87,30.70,1.40,-4.72,38.67,-6.93,1.93,14.59,0.32,-3.35,-9.96
14,195,672,137,-491,3871,-6.68,8.27,31.73,1.37,-4.91,38.71,-6.95,1.96,14.47,0.15,-3.09,-10.14
2,154,682,41,-505,3870,-6.00,8.38,32.72,0.41,-5.05,38.70,-6.97,1.99,14.35,0.33,-2.47,-10.34
-1,148,685,-14,-497,3909,-5.40,8.45,33.62,-0.14,-4.97,39.09,-6.99,2.02,14.22,0.38,-2.38,-10.48
13,119,664,-66,-428,3899,-4.78,8.33,34.31,-0.66,-4.28,38.99,-7.00,2.05,14.09,0.16,-1.94,-10.39
13,109,650,-74,-429,3900,-4.23,8.16,34.85,-0.74,-4.29,39.00,-7.00,2.09,13.95,0.16,-1.79,-10.34
-46,64,573,3,-421,3912,-4.08,7.74,34.86,0.03,-4.21,39.12,-7.00,2.12,13.82,1.06,-1.10,-9.68
-72,52,549,28,-418,3922,-4.11,7.28,34.72,0.28,-4.18,39.22,-7.01,2.15,13.68,1.46,-0.92,-9.46
-170,22,501,57,-462,3910,-4.74,6.69,34.30,0.57,-4.62,39.10,-7.02,2.17,13.55,2.96,-0.46,-9.00
-193,18,493,89,-453,3912,-5.44,6.13,33.88,0.89,-4.53,39.12,-7.04,2.20,13.42,3.31,-0.40,-8.87
-192,35,517,118,-435,3956,-6.07,5.73,33.65,1.18,-4.35,39.56,-7.05,2.22,13.28,3.30,-0.66,-9.04
-174,49,533,115,-458,3942,-6.52,5.45,33.53,1.15,-4.58,39.42,-7.07,2.24,13.15,3.02,-0.87,-9.16
-84,110,629,67,-541,3928,-6.38,5.58,34.02,0.67,-5.41,39.28,-7.10,2.26,13.02,1.65,-1.80,-10.03
-63,124,659,57,-575,3937,-6.13,5.78,34.64,0.57,-5.75,39.37,-7.12,2.28,12.89,1.33,-2.02,-10.36
36,154,721,-17,-643,3884,-5.30,6.14,35.57,-0.17,-6.43,38.84,-7.15,2.31,12.75,-0.18,-2.48,-11.00
44,153,725,-24,-634,3891,-4.50,6.46,36.44,-0.24,-6.34,38.91,-7.18,2.34,12.61,-0.30,-2.47,-11.14
-15,145,709,-79,-573,3875,-4.14,6.70,37.12,-0.79,-5.73,38.75,-7.20,2.37,12.47,0.60,-2.35,-11.09
-48,140,689,-94,-545,3873,-4.02,6.88,37.61,-0.94,-5.45,38.73,-7.22,2.41,12.32,1.10,-2.27,-10.98
-138,111,575,-162,-473,3864,-4.46,6.87,37.35,-1.62,-4.73,38.64,-7.22,2.45,12.17,2.48,-1.83,-9.98
-153,98,513,-157,-459,3882,-4.95,6.78,36.75,-1.57,-4.59,38.82,-7.21,2.49,12.03,2.71,-1.64,-9.37
-155,98,424,-48,-472,3911,-5.40,6.70,35.66,-0.48,-4.72,39.11,-7.22,2.52,11.89,2.74,-1.64,-8.48
-145,107,417,-26,-485,3894,-5.74,6.68,34.64,-0.26,-4.85,38.94,-7.24,2.54,11.76,2.59,-1.78,-8.28
-97,149,473,12,-570,3845,-5.76,6.92,34.06,0.12,-5.70,38.45,-7.26,2.57,11.63,1.86,-2.42,-8.68
-85,155,504,47,-573,3833,-5.70,7.18,33.73,0.47,-5.73,38.33,-7.29,2.60,11.50,1.67,-2.51,-8.90
-18,162,610,15,-657,3861,-5.24,7.45,34.08,0.15,-6.57,38.61,-7.31,2.63,11.37,0.65,-2.62,-9.83
-4,158,627,-22,-656,3890,-4.74,7.67,34.49,-0.22,-6.56,38.90,-7.34,2.67,11.23,0.44,-2.56,-10.03
55,142,604,-77,-633,3890,-3.93,7.77,34.73,-0.77,-6.33,38.90,-7.36,2.70,11.10,-0.46,-2.32,-9.86
55,134,581,-87,-623,3906,-3.20,7.81,34.80,-0.87,-6.23,39.06,-7.38,2.74,10.97,-0.46,-2.20,-9.67
4,98,483,-103,-596,3896,-2.86,7.62,34.27,-1.03,-5.96,38.96,-7.40,2.78,10.83,0.32,-1.65,-8.77
-41,82,443,-60,-587,3906,-2.82,7.36,33.54,-0.60,-5.87,39.06,-7.42,2.81,10.71,1.00,-1.41,-8.33
-119,35,439,8,-560,3918,-3.27,6.84,32.87,0.08,-5.60,39.18,-7.43,2.83,10.58,2.19,-0.69,-8.21
-127,34,448,48,-558,3945,-3.71,6.36,32.31,0.48,-5.58,39.45,-7.44,2.86,10.45,2.32,-0.68,-8.21
-166,37,504,43,-578,3932,-4.36,5.95,32.15,0.43,-5.78,39.32,-7.46,2.88,10.33,2.92,-0.72,-8.66
-163,53,530,39,-611,3982,-4.91,5.68,32.17,0.39,-6.11,39.82,-7.48,2.90,10.21,2.87,-0.97,-8.88
-109,72,633,9,-599,3983,-5.09,5.55,32.82,0.09,-5.99,39.83,-7.50,2.92,10.08,2.05,-1.26,-9.84
-70,84,677,-8,-569,3956,-5.01,5.51,33.66,-0.08,-5.69,39.56,-7.51,2.95,9.95,1.46,-1.44,-10.31
-11,111,806,-53,-523,3953,-4.57,5.63,35.21,-0.53,-5.23,39.53,-7.53,2.97,9.81,0.56,-1.86,-11.60
-9,121,834,-75,-506,3905,-4.17,5.81,36.78,-0.75,-5.06,39.05,-7.53,2.99,9.67,0.52,-2.01,-12.04
-56,147,803,-257,-496,3836,-4.09,6.13,38.00,-2.57,-4.96,38.36,-7.54,3.05,9.52,1.24,-2.41,-11.93
-2,190,685,-331,-571,3899,-3.70,6.67,38.38,-3.31,-5.71,38.99,-7.55,3.12,9.37,0.42,-3.07,-10.97
130,243,469,-230,-531,3864,-2.53,7.49,37.40,-2.30,-5.31,38.64,-7.57,3.18,9.23,-1.60,-3.88,-9.01
158,253,435,-192,-523,3855,-1.32,8.28,36.32,-1.92,-5.23,38.55,-7.57,3.21,9.09,-2.03,-4.04,-8.58
189,239,381,-134,-483,3845,-0.03,8.91,35.01,-1.34,-4.83,38.45,-7.56,3.25,8.95,-2.50,-3.83,-7.95
188,219,389,-101,-494,3852,1.12,9.36,33.88,-1.01,-4.94,38.52,-7.55,3.29,8.82,-2.49,-3.53,-7.87
199,177,496,29,-585,3887,2.22,9.50,33.52,0.29,-5.85,38.87,-7.53,3.32,8.70,-2.66,-2.89,-8.73
202,175,538,26,-600,3897,3.23,9.62,33.45,0.26,-6.00,38.97,-7.52,3.36,8.57,-2.71,-2.86,-9.07
221,172,608,-144,-629,3900,4.25,9.71,33.81,-1.44,-6.29,39.00,-7.51,3.41,8.44,-3.01,-2.82,-9.71
216,175,602,-163,-605,3915,5.15,9.80,34.10,-1.63,-6.05,39.15,-7.49,3.45,8.31,-2.93,-2.87,-9.69
162,193,557,-236,-588,3904,5.62,10.00,34.09,-2.36,-5.88,39.04,-7.48,3.51,8.18,-2.11,-3.14,-9.31
236,176,539,-258,-536,4029,6.50,10.07,33.97,-2.58,-5.36,40.29,-7.46,3.58,8.05,-3.24,-2.89,-9.14
334,210,514,-167,-341,3993,7.89,10.35,33.71,-1.67,-3.41,39.93,-7.40,3.63,7.92,-4.74,-3.41,-8.89
338,231,520,-196,-346,4020,9.16,10.72,33.51,-1.96,-3.46,40.20,-7.34,3.69,7.79,-4.81,-3.73,-8.91
374,239,536,-287,-356,3987,10.52,11.11,33.43,-2.87,-3.56,39.87,-7.27,3.75,7.67,-5.37,-3.86,-9.03
347,214,524,-276,-386,3953,11.59,11.30,33.28,-2.76,-3.86,39.53,-7.20,3.82,7.54,-4.96,-3.48,-8.91
238,142,477,-140,-475,3994,11.88,11.04,32.86,-1.40,-4.75,39.94,-7.14,3.86,7.41,-3.30,-2.39,-8.45
224,129,464,-167,-495,3968,12.06,10.72,32.41,-1.67,-4.95,39.68,-7.08,3.90,7.29,-3.09,-2.19,-8.28
163,117,424,-180,-457,3964,11.85,10.36,31.75,-1.80,-4.57,39.64,-7.02,3.94,7.17,-2.16,-2.01,-7.86
146,124,408,-186,-502,3969,11.55,10.08,31.07,-1.86,-5.02,39.69,-6.97,3.97,7.05,-1.91,-2.11,-7.63
144,148,426,-202,-475,3949,11.28,9.98,30.56,-2.02,-4.75,39.49,-6.91,4.01,6.93,-1.88,-2.48,-7.71
142,158,428,-171,-466,3950,11.02,9.94,30.11,-1.71,-4.66,39.50,-6.86,4.05,6.82,-1.85,-2.64,-7.67
76,146,416,-238,-450,3946,10.38,9.84,29.64,-2.38,-4.50,39.46,-6.80,4.08,6.70,-0.84,-2.46,-7.50
40,147,416,-234,-422,3886,9.58,9.75,29.21,-2.34,-4.22,38.86,-6.74,4.12,6.59,-0.30,-2.47,-7.45
2,132,466,-237,-331,3933,8.64,9.58,29.13,-2.37,-3.31,39.33,-6.68,4.17,6.48,0.28,-2.25,-7.86
18,127,480,-246,-329,3902,7.88,9.40,29.15,-2.46,-3.29,39.02,-6.63,4.21,6.36,0.04,-2.17,-7.97
37,122,566,-31,-276,4023,7.32,9.20,29.69,-0.31,-2.76,40.23,-6.58,4.25,6.25,-0.25,-2.10,-8.77
30,130,612,-48,-294,3990,6.77,9.08,30.45,-0.48,-2.94,39.90,-6.53,4.28,6.13,-0.15,-2.22,-9.25
32,155,826,-233,-368,3838,6.29,9.11,32.44,-2.33,-3.68,38.38,-6.48,4.32,6.00,-0.18,-2.60,-11.32
33,150,886,-306,-397,3766,5.86,9.12,34.60,-3.06,-3.97,37.66,-6.43,4.39,5.87,-0.20,-2.53,-12.10
11,119,1035,-618,-639,3877,5.34,8.93,37.46,-6.18,-6.39,38.77,-6.41,4.45,5.73,0.14,-2.06,-13.73
16,116,988,-445,-607,3821,4.91,8.75,39.74,-4.45,-6.07,38.21,-6.39,4.52,5.57,0.06,-2.02,-13.62
81,94,775,-295,-648,3867,4.91,8.44,40.49,-2.95,-6.48,38.67,-6.38,4.57,5.42,-0.93,-1.68,-11.91
88,90,715,-228,-610,3869,4.96,8.15,40.80,-2.28,-6.10,38.69,-6.36,4.61,5.26,-1.04,-1.62,-11.44
52,24,605,-169,-629,3828,4.78,7.48,40.41,-1.69,-6.29,38.28,-6.35,4.65,5.10,-0.49,-0.62,-10.45
5,-28,599,-161,-642,3791,4.33,6.56,40.03,-1.61,-6.42,37.91,-6.33,4.68,4.95,0.23,0.18,-10.35
-144,-176,613,-245,-547,3850,3.02,4.83,39.76,-2.45,-5.47,38.50,-6.32,4.71,4.79,2.50,2.44,-10.43
-177,-208,616,-216,-488,3882,1.64,3.08,39.54,-2.16,-4.88,38.82,-6.31,4.72,4.63,3.01,2.93,-10.42
-181,-183,612,-271,-241,4006,0.37,1.66,39.32,-2.71,-2.41,40.06,-6.28,4.74,4.48,3.07,2.55,-10.35
-152,-156,606,-306,-206,3997,-0.59,0.54,39.09,-3.06,-2.06,39.97,-6.25,4.76,4.32,2.63,2.14,-10.27
-29,-14,604,-341,-197,3975,-0.71,0.40,38.86,-3.41,-1.97,39.75,-6.22,4.78,4.16,0.76,-0.03,-10.22
14,41,615,-363,-292,3929,-0.56,0.61,38.73,-3.63,-2.92,39.29,-6.19,4.80,4.01,0.10,-0.87,-10.29
26,64,628,-253,-417,3874,-0.34,0.94,38.69,-2.53,-4.17,38.74,-6.18,4.80,3.85,-0.09,-1.22,-10.39
-1,43,613,-223,-461,3885,-0.31,1.11,38.56,-2.23,-4.61,38.85,-6.18,4.81,3.70,0.32,-0.90,-10.24
-84,-42,496,-152,-529,3861,-0.79,0.74,37.73,-1.52,-5.29,38.61,-6.18,4.81,3.55,1.59,0.40,-9.14
-105,-57,458,-143,-536,3927,-1.36,0.32,36.75,-1.43,-5.36,39.27,-6.18,4.81,3.41,1.91,0.63,-8.69
-137,-72,372,-268,-489,3892,-2.06,-0.15,35.34,-2.68,-4.89,38.92,-6.19,4.81,3.27,2.40,0.86,-7.78
-132,-75,357,-339,-411,3886,-2.66,-0.59,33.99,-3.39,-4.11,38.86,-6.18,4.84,3.13,2.33,0.90,-7.47
-119,-52,352,-345,-249,3934,-3.12,-0.85,32.73,-3.45,-2.49,39.34,-6.16,4.85,3.00,2.13,0.55,-7.27
-123,-58,356,-350,-220,3922,-3.55,-1.12,31.63,-3.50,-2.20,39.22,-6.14,4.86,2.87,2.19,0.64,-7.16
-267,-89,375,-244,-341,3791,-4.83,-1.55,30.76,-2.44,-3.41,37.91,-6.14,4.85,2.74,4.39,1.12,-7.20
-209,-80,369,-381,-431,4010,-5.62,-1.88,29.93,-3.81,-4.31,40.10,-6.15,4.88,2.62,3.51,0.98,-7.04
-217,-143,335,-259,-402,3904,-6.38,-2.57,28.98,-2.59,-4.02,39.04,-6.16,4.86,2.51,3.63,1.94,-6.63
-209,-112,318,-275,-465,3873,-7.02,-2.99,28.02,-2.75,-4.65,38.73,-6.19,4.85,2.39,3.51,1.47,-6.36
-192,-83,271,-355,-610,3880,-7.49,-3.20,26.87,-3.55,-6.10,38.80,-6.23,4.85,2.29,3.26,1.03,-5.81
-166,-79,257,-301,-635,3898,-7.75,-3.36,25.75,-3.01,-6.35,38.98,-6.27,4.84,2.18,2.86,0.97,-5.54
-114,-31,206,-250,-578,3959,-7.67,-3.22,24.44,-2.50,-5.78,39.59,-6.31,4.83,2.09,2.07,0.24,-4.94
-97,-14,195,-275,-530,3907,-7.50,-2.98,23.18,-2.75,-5.30,39.07,-6.35,4.82,1.99,1.82,-0.02,-4.68
-82,24,200,-250,-381,3989,-7.25,-2.54,22.08,-2.50,-3.81,39.89,-6.36,4.81,1.90,1.59,-0.60,-4.58
-87,21,205,-225,-387,3900,-7.05,-2.15,21.13,-2.25,-3.87,39.00,-6.37,4.79,1.82,1.66,-0.55,-4.50
-144,4,227,-185,-445,3881,-7.23,-1.91,20.40,-1.85,-4.45,38.81,-6.40,4.77,1.74,2.53,-0.29,-4.59
-165,-40,239,-252,-486,3770,-7.51,-1.97,19.82,-2.52,-4.86,37.70,-6.43,4.76,1.66,2.86,0.38,-4.61
-181,-73,238,-157,-555,3814,-7.86,-2.22,19.29,-1.57,-5.55,38.14,-6.47,4.75,1.58,3.10,0.88,-4.54
-168,-74,249,-164,-544,3820,-8.10,-2.45,18.88,-1.64,-5.44,38.20,-6.51,4.73,1.50,2.91,0.90,-4.57
-56,-8,313,-162,-670,3808,-7.63,-2.25,18.90,-1.62,-6.70,38.08,-6.55,4.72,1.43,1.20,-0.11,-5.12
-7,17,327,-168,-706,3801,-6.91,-1.92,19.00,-1.68,-7.06,38.01,-6.58,4.71,1.35,0.45,-0.49,-5.25
124,73,353,-195,-625,3814,-5.46,-1.28,19.26,-1.95,-6.25,38.14,-6.61,4.71,1.28,-1.55,-1.35,-5.50
150,79,352,-172,-609,3815,-4.00,-0.67,19.48,-1.72,-6.09,38.15,-6.64,4.70,1.20,-1.95,-1.44,-5.52
149,50,340,-135,-524,3799,-2.69,-0.30,19.60,-1.35,-5.24,37.99,-6.65,4.69,1.12,-1.93,-1.00,-5.43
148,39,338,-130,-502,3860,-1.52,-0.03,19.71,-1.30,-5.02,38.60,-6.65,4.68,1.05,-1.92,-0.83,-5.42
170,18,281,-135,-486,3874,-0.33,0.08,19.45,-1.35,-4.86,38.74,-6.65,4.67,0.97,-2.26,-0.51,-4.91
184,30,258,-140,-496,3848,0.82,0.26,19.08,-1.40,-4.96,38.48,-6.65,4.67,0.89,-2.48,-0.69,-4.66
232,38,219,-172,-539,3869,2.16,0.46,18.51,-1.72,-5.39,38.69,-6.64,4.66,0.82,-3.21,-0.81,-4.26
245,40,214,-176,-503,3844,3.43,0.66,17.96,-1.76,-5.03,38.44,-6.63,4.65,0.75,-3.41,-0.84,-4.14
283,66,234,-197,-530,3864,4.82,1.00,17.59,-1.97,-5.30,38.64,-6.61,4.65,0.68,-4.00,-1.24,-4.26
296,68,245,-204,-537,3841,6.14,1.31,17.33,-2.04,-5.37,38.41,-6.60,4.65,0.61,-4.20,-1.27,-4.32
352,85,273,-259,-559,3883,7.67,1.70,17.26,-2.59,-5.59,38.83,-6.58,4.66,0.55,-5.06,-1.53,-4.55
340,89,274,-194,-541,3814,8.98,2.07,17.21,-1.94,-5.41,38.14,-6.55,4.66,0.48,-4.88,-1.60,-4.55
342,63,244,-184,-538,3855,10.17,2.25,16.97,-1.84,-5.38,38.55,-6.51,4.66,0.41,-4.92,-1.20,-4.26
315,46,231,-143,-551,3888,11.07,2.30,16.68,-1.43,-5.51,38.88,-6.47,4.66,0.35,-4.51,-0.94,-4.11
260,5,168,-127,-517,3929,11.55,2.10,16.04,-1.27,-5.17,39.29,-6.43,4.66,0.29,-3.67,-0.31,-3.49
245,-7,145,-147,-482,3950,11.89,1.85,15.32,-1.47,-4.82,39.50,-6.38,4.66,0.23,-3.45,-0.13,-3.20
201,-33,114,-241,-341,3901,11.93,1.46,14.48,-2.41,-3.41,39.01,-6.31,4.66,0.17,-2.78,0.27,-2.83
197,-32,101,-246,-336,3912,11.94,1.12,13.65,-2.46,-3.36,39.12,-6.24,4.66,0.11,-2.72,0.25,-2.61
220,14,84,-270,-389,3894,12.09,1.10,12.80,-2.70,-3.89,38.94,-6.18,4.65,0.06,-3.08,-0.45,-2.36
263,41,91,-253,-469,3857,12.48,1.24,12.07,-2.53,-4.69,38.57,-6.14,4.65,0.01,-3.74,-0.86,-2.32
95,-136,123,-207,-531,3827,11.81,0.28,11.62,-2.07,-5.31,38.27,-6.10,4.64,-0.03,-1.17,1.84,-2.54
19,-172,143,-78,-596,3654,10.75,-0.79,11.33,-0.78,-5.96,36.54,-6.07,4.63,-0.08,-0.01,2.39,-2.67
-28,-218,175,50,-427,4079,9.50,-2.04,11.26,0.50,-4.27,40.79,-6.03,4.61,-0.12,0.70,3.10,-2.93
-7,-219,173,-10,-371,4093,8.51,-3.18,11.19,-0.10,-3.71,40.93,-5.98,4.58,-0.17,0.38,3.12,-2.90
6,-189,183,-304,-261,3831,7.69,-4.01,11.19,-3.04,-2.61,38.31,-5.93,4.57,-0.21,0.19,2.66,-2.98
-19,-204,180,-223,-313,3836,6.81,-4.85,11.17,-2.23,-3.13,38.36,-5.89,4.54,-0.26,0.57,2.90,-2.95
13,-199,166,-209,-283,4015,6.21,-5.58,11.06,-2.09,-2.83,40.15,-5.85,4.51,-0.31,0.08,2.82,-2.82
4,-183,160,-215,-314,4029,5.61,-6.14,10.93,-2.15,-3.14,40.29,-5.81,4.48,-0.36,0.22,2.58,-2.75
-17,-108,168,-286,-367,4027,4.95,-6.19,10.86,-2.86,-3.67,40.27,-5.77,4.45,-0.40,0.54,1.44,-2.81
-20,-81,176,-241,-367,4122,4.33,-6.06,10.85,-2.41,-3.67,41.22,-5.74,4.41,-0.45,0.58,1.03,-2.88
6,-3,158,-215,-398,3988,3.93,-5.47,10.73,-2.15,-3.98,39.88,-5.72,4.38,-0.50,0.18,-0.16,-2.71
7,16,146,-237,-406,3947,3.58,-4.83,10.55,-2.37,-4.06,39.47,-5.70,4.34,-0.54,0.17,-0.45,-2.58
-3,54,89,-205,-364,3952,3.21,-4.02,10.04,-2.05,-3.64,39.52,-5.68,4.32,-0.58,0.32,-1.03,-2.03
6,60,63,-243,-362,3996,2.92,-3.25,9.42,-2.43,-3.62,39.96,-5.66,4.29,-0.62,0.18,-1.12,-1.73
-8,89,51,-165,-349,3892,2.58,-2.38,8.79,-1.65,-3.49,38.92,-5.64,4.27,-0.66,0.40,-1.56,-1.55
-2,78,46,-147,-389,3924,2.31,-1.67,8.19,-1.47,-3.89,39.24,-5.63,4.25,-0.69,0.31,-1.40,-1.43
-32,15,32,-101,-383,3898,1.88,-1.41,7.56,-1.01,-3.83,38.98,-5.62,4.22,-0.72,0.76,-0.44,-1.23
-55,-5,20,-111,-341,3837,1.36,-1.30,6.93,-1.11,-3.41,38.37,-5.61,4.20,-0.75,1.12,-0.13,-1.04
-43,-8,42,-259,-451,3785,0.96,-1.22,6.49,-2.59,-4.51,37.85,-5.62,4.20,-0.78,0.93,-0.08,-1.17
-103,-75,57,-345,-477,3685,0.24,-1.55,6.19,-3.45,-4.77,36.85,-5.63,4.20,-0.80,1.85,0.94,-1.26
-161,-181,35,-190,-309,3815,-0.77,-2.50,5.79,-1.90,-3.09,38.15,-5.62,4.18,-0.82,2.74,2.56,-1.02
-168,-204,28,-187,-355,3884,-1.72,-3.50,5.38,-1.87,-3.55,38.84,-5.62,4.15,-0.85,2.85,2.91,-0.91
-164,-248,43,-109,-362,3942,-2.54,-4.66,5.10,-1.09,-3.62,39.42,-5.63,4.12,-0.87,2.79,3.59,-1.00
-96,-183,43,-74,-385,3935,-2.88,-5.31,4.85,-0.74,-3.85,39.35,-5.64,4.08,-0.89,1.75,2.60,-0.97
-104,-172,31,-122,-347,3842,-3.22,-5.83,4.56,-1.22,-3.47,38.42,-5.65,4.04,-0.91,1.88,2.44,-0.83
-69,-158,-4,-198,-397,3841,-3.32,-6.21,4.08,-1.98,-3.97,38.41,-5.66,4.00,-0.93,1.34,2.23,-0.47
-54,-162,27,-251,-359,3890,-3.32,-6.58,3.84,-2.51,-3.59,38.90,-5.66,3.96,-0.95,1.11,2.29,-0.70
-51,-183,-8,-202,-277,3907,-3.30,-7.03,3.40,-2.02,-2.77,39.07,-5.66,3.93,-0.97,1.07,2.61,-0.35
60,-160,-195,-286,83,3944,-2.60,-7.31,1.87,-2.86,0.83,39.44,-5.65,3.90,-0.98,-0.63,2.26,1.44
63,-67,-279,253,-147,3864,-1.96,-6.99,-0.02,2.53,-1.47,38.64,-5.65,3.85,-0.98,-0.67,0.85,2.39
36,-3,-43,183,-604,3930,-1.54,-6.31,-0.28,1.83,-6.04,39.30,-5.66,3.81,-0.98,-0.26,-0.13,0.42
30,-3,-43,196,-590,3862,-1.21,-5.69,-0.51,1.96,-5.90,38.62,-5.67,3.77,-0.98,-0.17,-0.13,0.45
63,13,-35,-18,-578,3926,-0.70,-5.04,-0.67,-0.18,-5.78,39.26,-5.69,3.74,-0.98,-0.67,-0.37,0.41
53,-1,-21,-48,-529,3955,-0.31,-4.55,-0.73,-0.48,-5.29,39.55,-5.70,3.70,-0.98,-0.52,-0.16,0.30
31,-10,2,-270,-497,3934,-0.09,-4.15,-0.65,-2.70,-4.97,39.34,-5.72,3.69,-0.98,-0.19,-0.02,0.09
28,-11,42,-597,-574,3890,0.09,-3.80,-0.33,-5.97,-5.74,38.90,-5.73,3.69,-0.98,-0.14,-0.01,-0.29
17,-11,123,-425,-655,3945,0.19,-3.49,0.46,-4.25,-6.55,39.45,-5.74,3.69,-0.98,0.03,-0.01,-1.08
4,-14,146,-312,-607,3925,0.19,-3.23,1.30,-3.12,-6.07,39.25,-5.76,3.68,-0.98,0.23,0.04,-1.38
-4,-9,204,-29,-534,3887,0.15,-2.96,2.41,-0.29,-5.34,38.87,-5.77,3.65,-0.99,0.35,-0.04,-2.01
-2,-2,201,-22,-536,3850,0.12,-2.68,3.40,-0.22,-5.36,38.50,-5.77,3.63,-1.01,0.32,-0.14,-2.11
7,1,260,42,-401,3986,0.15,-2.40,4.65,0.42,-4.01,39.86,-5.77,3.60,-1.03,0.18,-0.19,-2.77
-2,-9,263,52,-307,3972,0.12,-2.22,5.79,0.52,-3.07,39.72,-5.77,3.58,-1.05,0.32,-0.04,-2.95
6,-3,289,160,-334,4114,0.15,-2.01,6.97,1.60,-3.34,41.14,-5.76,3.55,-1.08,0.20,-0.13,-3.32
-6,7,256,50,-378,3916,0.10,-1.77,7.83,0.50,-3.78,39.16,-5.76,3.53,-1.11,0.38,-0.28,-3.15
-3,13,215,114,-316,3907,0.07,-1.51,8.36,1.14,-3.16,39.07,-5.75,3.51,-1.15,0.33,-0.37,-2.87
-8,11,223,-14,-388,3933,0.01,-1.29,8.89,-0.14,-3.88,39.33,-5.75,3.49,-1.18,0.41,-0.34,-3.00
-51,21,211,-7,-529,3844,-0.30,-1.04,9.28,-0.07,-5.29,38.44,-5.76,3.48,-1.22,1.07,-0.49,-2.95
-57,32,233,-75,-610,3919,-0.62,-0.74,9.78,-0.75,-6.10,39.19,-5.77,3.47,-1.26,1.16,-0.66,-3.20
-45,27,240,-120,-445,3921,-0.83,-0.50,10.26,-1.20,-4.45,39.21,-5.78,3.45,-1.30,0.98,-0.58,-3.32
-43,13,237,19,-418,3868,-1.01,-0.37,10.68,0.19,-4.18,38.68,-5.78,3.44,-1.34,0.95,-0.37,-3.35
-29,18,204,12,-416,3846,-1.08,-0.22,10.86,0.12,-4.16,38.46,-5.78,3.42,-1.39,0.73,-0.44,-3.09
-18,-2,207,0,-345,3983,-1.09,-0.21,11.04,0.00,-3.45,39.83,-5.78,3.41,-1.43,0.57,-0.14,-3.14
-6,-1,243,-136,-192,3767,-1.01,-0.20,11.41,-1.36,-1.92,37.67,-5.77,3.40,-1.48,0.38,-0.15,-3.49
4,4,245,-100,-136,3916,-0.89,-0.15,11.77,-1.00,-1.36,39.16,-5.75,3.40,-1.52,0.23,-0.23,-3.55
6,5,229,-118,-441,3850,-0.76,-0.11,11.99,-1.18,-4.41,38.50,-5.76,3.39,-1.57,0.20,-0.25,-3.44
8,-3,249,-89,-409,3888,-0.64,-0.12,12.31,-0.89,-4.09,38.88,-5.76,3.37,-1.62,0.17,-0.12,-3.65
-19,10,249,19,-665,4041,-0.69,-0.04,12.60,0.19,-6.65,40.41,-5.77,3.36,-1.67,0.58,-0.32,-3.69
-15,-2,184,-57,-447,3937,-0.71,-0.05,12.46,-0.57,-4.47,39.37,-5.78,3.35,-1.72,0.52,-0.14,-3.12
-6,19,198,-50,-584,3844,-0.68,0.07,12.42,-0.50,-5.84,38.44,-5.79,3.34,-1.77,0.38,-0.46,-3.23
-6,24,204,-152,-630,3914,-0.65,0.21,12.42,-1.52,-6.30,39.14,-5.81,3.34,-1.82,0.38,-0.53,-3.28
-3,26,238,-116,-634,3853,-0.60,0.35,12.63,-1.16,-6.34,38.53,-5.83,3.34,-1.87,0.34,-0.56,-3.59
-7,12,197,-182,-483,4025,-0.58,0.39,12.57,-1.82,-4.83,40.25,-5.84,3.34,-1.91,0.40,-0.35,-3.24
13,8,257,-161,-648,3950,-0.45,0.40,12.88,-1.61,-6.48,39.50,-5.86,3.34,-1.96,0.10,-0.29,-3.78
18,7,258,-250,-458,3716,-0.29,0.40,13.17,-2.50,-4.58,37.16,-5.87,3.35,-2.02,0.02,-0.28,-3.83
72,-11,289,-63,-439,3875,0.18,0.29,13.61,-0.63,-4.39,38.75,-5.87,3.34,-2.07,-0.80,-0.00,-4.15
40,-14,326,-78,-382,3905,0.40,0.18,14.24,-0.78,-3.82,39.05,-5.86,3.33,-2.13,-0.32,0.05,-4.54
35,13,324,-253,-387,4019,0.58,0.24,14.79,-2.53,-3.87,40.19,-5.84,3.35,-2.19,-0.24,-0.37,-4.59
21,-14,358,-120,-284,3815,0.65,0.13,15.50,-1.20,-2.84,38.15,-5.82,3.34,-2.25,-0.03,0.05,-4.97
6,12,333,-162,-467,3980,0.62,0.19,15.98,-1.62,-4.67,39.80,-5.83,3.34,-2.31,0.20,-0.35,-4.82
1,-9,334,-139,-316,3764,0.56,0.12,16.42,-1.39,-3.16,37.64,-5.81,3.33,-2.38,0.27,-0.03,-4.88
-2,9,311,-234,-418,4016,0.49,0.16,16.67,-2.34,-4.18,40.16,-5.82,3.34,-2.44,0.32,-0.30,-4.72
-5,-12,315,-105,-356,3614,0.41,0.07,16.93,-1.05,-3.56,36.14,-5.82,3.32,-2.51,0.37,0.02,-4.78
-10,12,316,-68,-760,3933,0.31,0.14,17.16,-0.68,-7.60,39.33,-5.83,3.32,-2.58,0.44,-0.35,-4.82
-9,-2,324,-68,-582,3799,0.23,0.11,17.42,-0.68,-5.82,37.99,-5.84,3.32,-2.65,0.43,-0.14,-4.92
-21,0,390,-122,-532,3768,0.08,0.10,18.06,-1.22,-5.32,37.68,-5.85,3.32,-2.72,0.61,-0.17,-5.56
-12,37,347,-306,-691,3967,-0.01,0.32,18.37,-3.06,-6.91,39.67,-5.86,3.33,-2.79,0.48,-0.73,-5.23
14,9,546,-109,-252,3778,0.08,0.34,19.86,-1.09,-2.52,37.78,-5.84,3.33,-2.87,0.08,-0.30,-7.11
9,19,577,-204,-330,3892,0.13,0.42,21.40,-2.04,-3.30,38.92,-5.82,3.33,-2.96,0.15,-0.46,-7.57
-6,2,630,-92,-270,3984,0.08,0.39,23.10,-0.92,-2.70,39.84,-5.80,3.33,-3.05,0.38,-0.20,-8.23
-3,15,643,-186,-416,4026,0.05,0.44,24.71,-1.86,-4.16,40.26,-5.80,3.33,-3.15,0.34,-0.40,-8.55
17,5,722,30,-68,4020,0.15,0.43,26.65,0.30,-0.68,40.20,-5.78,3.33,-3.25,0.03,-0.24,-9.46
-15,-4,705,-43,-131,3948,0.04,0.36,28.28,-0.43,-1.31,39.48,-5.76,3.33,-3.37,0.52,-0.11,-9.53
19,3,703,-78,-10,3956,0.16,0.34,29.74,-0.78,-0.10,39.56,-5.73,3.34,-3.49,-0.00,-0.21,-9.69
0,25,710,-287,-488,3861,0.14,0.46,31.10,-2.87,-4.88,38.61,-5.74,3.36,-3.61,0.29,-0.55,-9.92
-8,-6,724,-128,-219,3974,0.08,0.38,32.41,-1.28,-2.19,39.74,-5.71,3.36,-3.74,0.41,-0.08,-10.21
-8,-2,661,-23,-293,3962,0.02,0.33,33.20,-0.23,-2.93,39.62,-5.70,3.36,-3.87,0.41,-0.14,-9.77
-14,0,554,-225,-413,3753,-0.07,0.30,33.26,-2.25,-4.13,37.53,-5.71,3.38,-4.00,0.50,-0.17,-8.87
-6,9,552,-155,-426,3963,-0.10,0.32,33.30,-1.55,-4.26,39.63,-5.71,3.38,-4.14,0.38,-0.31,-8.86
-14,-8,546,133,-492,3913,-0.17,0.24,33.30,1.33,-4.92,39.13,-5.71,3.37,-4.27,0.50,-0.05,-8.80
-13,-3,492,-13,-532,4021,-0.23,0.20,32.97,-0.13,-5.32,40.21,-5.71,3.37,-4.40,0.48,-0.12,-8.30
-12,8,533,-182,-475,3883,-0.28,0.23,32.92,-1.82,-4.75,38.83,-5.72,3.38,-4.53,0.47,-0.29,-8.64
-39,20,531,-226,-562,3761,-0.49,0.33,32.87,-2.26,-5.62,37.61,-5.73,3.39,-4.66,0.88,-0.48,-8.61
-11,19,455,-77,-537,3861,-0.51,0.41,32.36,-0.77,-5.37,38.61,-5.74,3.39,-4.79,0.46,-0.46,-7.90
-7,9,406,-30,-488,3972,-0.50,0.42,31.60,-0.30,-4.88,39.72,-5.74,3.39,-4.91,0.39,-0.31,-7.38
-22,22,300,4,-551,3949,-0.59,0.52,30.27,0.04,-5.51,39.49,-5.74,3.39,-5.03,0.62,-0.51,-6.31
-40,17,274,-44,-407,3921,-0.77,0.57,28.91,-0.44,-4.07,39.21,-5.74,3.38,-5.15,0.90,-0.43,-5.91
-14,13,243,-174,-190,3811,-0.78,0.59,27.51,-1.74,-1.90,38.11,-5.72,3.39,-5.26,0.50,-0.37,-5.46
-3,10,216,-117,-235,3889,-0.72,0.59,26.07,-1.17,-2.35,38.89,-5.70,3.39,-5.36,0.33,-0.32,-5.05
8,0,189,-96,-400,3895,-0.60,0.53,24.62,-0.96,-4.00,38.95,-5.70,3.39,-5.46,0.16,-0.17,-4.63
18,5,176,-39,-387,3907,-0.43,0.51,23.23,-0.39,-3.87,39.07,-5.70,3.38,-5.55,0.01,-0.25,-4.34
10,-8,53,-147,-368,4114,-0.33,0.41,21.23,-1.47,-3.68,41.14,-5.69,3.37,-5.64,0.13,-0.05,-3.04
9,5,20,-58,-227,3737,-0.24,0.40,19.23,-0.58,-2.27,37.37,-5.67,3.37,-5.72,0.15,-0.25,-2.50
-14,11,-43,-9,-366,3945,-0.30,0.43,17.04,-0.09,-3.66,39.45,-5.67,3.36,-5.78,0.50,-0.34,-1.68
-1,-2,-43,-51,-525,3895,-0.28,0.37,15.08,-0.51,-5.25,38.95,-5.67,3.35,-5.84,0.30,-0.14,-1.43
36,-17,22,142,-687,3887,-0.03,0.23,13.70,1.42,-6.87,38.87,-5.68,3.34,-5.90,-0.26,0.09,-1.80
43,-19,53,123,-575,3895,0.24,0.09,12.66,1.23,-5.75,38.95,-5.69,3.33,-5.95,-0.37,0.12,-1.93
8,-10,59,208,-595,3900,0.26,0.02,11.75,2.08,-5.95,39.00,-5.69,3.32,-5.99,0.16,-0.01,-1.86
9,-7,61,132,-592,3930,0.29,-0.02,10.95,1.32,-5.92,39.30,-5.70,3.31,-6.04,0.15,-0.06,-1.77
-4,4,130,-128,-758,3850,0.24,0.00,10.65,-1.28,-7.58,38.50,-5.71,3.31,-6.08,0.35,-0.23,-2.32
6,-15,146,-97,-571,4016,0.25,-0.09,10.47,-0.97,-5.71,40.16,-5.72,3.30,-6.12,0.19,0.06,-2.43
11,-6,-75,-109,-514,3926,0.29,-0.12,8.97,-1.09,-5.14,39.26,-5.73,3.29,-6.15,0.12,-0.07,-0.36
3,-11,-89,-181,-496,3937,0.28,-0.17,7.53,-1.81,-4.96,39.37,-5.75,3.29,-6.18,0.24,0.00,-0.06
13,-6,-157,-134,-478,3943,0.33,-0.19,5.82,-1.34,-4.78,39.43,-5.76,3.27,-6.20,0.09,-0.07,0.74
13,-4,-176,-156,-484,3921,0.38,-0.20,4.16,-1.56,-4.84,39.21,-5.77,3.26,-6.22,0.09,-0.10,1.11
11,0,-148,-182,-473,3897,0.41,-0.18,2.84,-1.82,-4.73,38.97,-5.78,3.26,-6.23,0.12,-0.16,1.04
-7,41,-75,-470,-853,3726,0.32,0.09,2.10,-4.70,-8.53,37.26,-5.80,3.27,-6.24,0.40,-0.79,0.52
8,-2,119,-224,-519,4074,0.34,0.07,2.62,-2.24,-5.19,40.74,-5.81,3.27,-6.25,0.17,-0.13,-1.19
7,-16,95,-146,-454,3917,0.35,-0.03,2.93,-1.46,-4.54,39.17,-5.82,3.25,-6.26,0.18,0.08,-1.03
11,-14,-5,-117,-443,3851,0.38,-0.12,2.61,-1.17,-4.43,38.51,-5.83,3.24,-6.27,0.12,0.05,-0.14
13,-19,-22,-54,-369,3924,0.42,-0.22,2.22,-0.54,-3.69,39.24,-5.82,3.22,-6.28,0.09,0.13,0.06
12,-7,-41,140,-185,3969,0.45,-0.24,1.74,1.40,-1.85,39.69,-5.81,3.20,-6.29,0.11,-0.05,0.28
-1,-16,-47,233,-156,3916,0.40,-0.31,1.28,2.33,-1.56,39.16,-5.80,3.18,-6.29,0.30,0.09,0.39
10,-7,-48,329,-47,3943,0.42,-0.33,0.86,3.29,-0.47,39.43,-5.79,3.17,-6.30,0.14,-0.05,0.45
6,-3,-53,265,-209,3934,0.42,-0.31,0.45,2.65,-2.09,39.34,-5.78,3.15,-6.30,0.20,-0.11,0.55
1,0,-27,7,-393,3872,0.38,-0.28,0.24,0.07,-3.93,38.72,-5.78,3.13,-6.30,0.27,-0.16,0.36
2,2,-2,-110,-424,3869,0.36,-0.24,0.21,-1.10,-4.24,38.69,-5.78,3.11,-6.30,0.26,-0.19,0.15
-1,-8,10,-20,-434,3928,0.31,-0.27,0.25,-0.20,-4.34,39.28,-5.78,3.09,-6.30,0.30,-0.03,0.04
2,-3,-10,-34,-463,3933,0.29,-0.26,0.16,-0.34,-4.63,39.33,-5.79,3.08,-6.30,0.26,-0.11,0.22
-4,2,-40,-38,-443,3919,0.24,-0.22,-0.10,-0.38,-4.43,39.19,-5.79,3.06,-6.30,0.35,-0.18,0.51
-5,9,-46,-26,-470,3912,0.19,-0.14,-0.37,-0.26,-4.70,39.12,-5.80,3.04,-6.30,0.37,-0.29,0.59
-1,1,-96,-91,-476,3857,0.16,-0.12,-0.92,-0.91,-4.76,38.57,-5.81,3.02,-6.29,0.31,-0.17,1.09
2,-3,-110,-109,-455,3873,0.16,-0.13,-1.50,-1.09,-4.55,38.73,-5.82,3.01,-6.29,0.26,-0.10,1.28
7,-1,-101,-5,-354,3930,0.18,-0.12,-1.96,-0.05,-3.54,39.30,-5.81,2.99,-6.28,0.18,-0.13,1.27
3,3,-87,-40,-389,3925,0.18,-0.09,-2.30,-0.40,-3.89,39.25,-5.81,2.97,-6.27,0.24,-0.19,1.19
-1,1,-107,-210,-531,3883,0.16,-0.08,-2.72,-2.10,-5.31,38.83,-5.83,2.97,-6.26,0.31,-0.16,1.41
9,-2,-127,-230,-463,3899,0.20,-0.08,-3.22,-2.30,-4.63,38.99,-5.85,2.97,-6.25,0.15,-0.12,1.65
1,-4,-156,-35,-450,3898,0.18,-0.10,-3.85,-0.35,-4.50,38.98,-5.85,2.95,-6.23,0.28,-0.09,1.97
5,-3,-159,14,-456,3875,0.20,-0.11,-4.44,0.14,-4.56,38.75,-5.86,2.93,-6.21,0.22,-0.10,2.07
-5,0,-138,98,-328,3853,0.15,-0.09,-4.84,0.98,-3.28,38.53,-5.85,2.91,-6.19,0.37,-0.15,1.95
3,8,-122,117,-228,3980,0.15,-0.04,-5.10,1.17,-2.28,39.80,-5.84,2.89,-6.17,0.25,-0.27,1.84
1,5,-22,7,-412,3895,0.14,-0.00,-4.72,0.07,-4.12,38.95,-5.85,2.87,-6.15,0.28,-0.22,0.95
0,5,-25,19,-425,3903,0.13,0.03,-4.40,0.19,-4.25,39.03,-5.85,2.85,-6.14,0.29,-0.22,0.93
0,-2,-17,-46,-448,3901,0.11,0.01,-4.06,-0.46,-4.48,39.01,-5.85,2.84,-6.12,0.29,-0.11,0.82
-1,-3,-16,-41,-449,3899,0.10,-0.01,-3.76,-0.41,-4.49,38.99,-5.86,2.82,-6.11,0.31,-0.10,0.77
-2,-1,-9,-81,-374,3891,0.08,-0.01,-3.44,-0.81,-3.74,38.91,-5.86,2.80,-6.09,0.32,-0.12,0.67
-4,0,-1,-91,-385,3888,0.04,-0.01,-3.10,-0.91,-3.85,38.88,-5.85,2.78,-6.08,0.35,-0.14,0.56
-4,6,-5,-72,-456,3909,0.01,0.03,-2.82,-0.72,-4.56,39.09,-5.86,2.76,-6.07,0.35,-0.23,0.56
-11,6,-4,-59,-542,3835,-0.05,0.06,-2.56,-0.59,-5.42,38.35,-5.88,2.75,-6.06,0.46,-0.23,0.51
-12,6,6,-57,-451,3893,-0.12,0.09,-2.27,-0.57,-4.51,38.93,-5.88,2.73,-6.05,0.48,-0.23,0.39
-15,2,8,-65,-442,3898,-0.20,0.09,-1.99,-0.65,-4.42,38.98,-5.89,2.71,-6.04,0.52,-0.17,0.34
-14,9,50,-77,-463,3913,-0.27,0.14,-1.49,-0.77,-4.63,39.13,-5.90,2.70,-6.03,0.51,-0.27,-0.08
-9,12,60,-69,-451,3922,-0.29,0.20,-0.97,-0.69,-4.51,39.22,-5.91,2.68,-6.03,0.43,-0.32,-0.23
-55,23,153,-66,-514,3971,-0.60,0.32,0.06,-0.66,-5.14,39.71,-5.92,2.67,-6.03,1.14,-0.48,-1.15
-29,29,173,-46,-548,3783,-0.72,0.46,1.11,-0.46,-5.48,37.83,-5.94,2.66,-6.03,0.74,-0.58,-1.46
-8,17,261,-39,-610,3847,-0.69,0.52,2.59,-0.39,-6.10,38.47,-5.96,2.65,-6.04,0.42,-0.39,-2.39
-15,20,328,-67,-661,3857,-0.72,0.59,4.33,-0.67,-6.61,38.57,-5.98,2.65,-6.06,0.53,-0.44,-3.18
-25,13,366,-86,-534,3846,-0.80,0.61,6.13,-0.86,-5.34,38.46,-5.99,2.64,-6.08,0.68,-0.33,-3.74
-23,30,349,-104,-476,3862,-0.86,0.73,7.65,-1.04,-4.76,38.62,-6.01,2.63,-6.11,0.65,-0.59,-3.79
-63,13,237,-141,-376,3915,-1.16,0.74,8.33,-1.41,-3.76,39.15,-6.00,2.63,-6.14,1.26,-0.33,-2.93
-44,22,197,-157,-335,3888,-1.31,0.80,8.70,-1.57,-3.35,38.88,-5.99,2.63,-6.18,0.97,-0.47,-2.63
-17,2,103,-14,-248,3900,-1.28,0.73,8.45,-0.14,-2.48,39.00,-5.98,2.62,-6.21,0.56,-0.16,-1.80
0,2,72,-5,-195,3859,-1.15,0.67,8.05,-0.05,-1.95,38.59,-5.97,2.62,-6.25,0.30,-0.16,-1.49
40,-22,-189,-492,141,4254,-0.79,0.47,6.09,-4.92,1.41,42.54,-5.95,2.63,-6.27,-0.31,0.20,0.97
43,-2,-322,-422,13,4081,-0.45,0.41,3.52,-4.22,0.13,40.81,-5.94,2.64,-6.28,-0.36,-0.10,2.43
49,-18,-209,-165,-467,3850,-0.11,0.26,1.89,-1.65,-4.67,38.50,-5.95,2.64,-6.29,-0.45,0.14,1.68
44,-20,-268,-294,-401,3860,0.17,0.11,0.07,-2.94,-4.01,38.60,-5.95,2.66,-6.29,-0.37,0.17,2.42
51,-34,-423,-210,-232,3888,0.46,-0.11,-2.52,-2.10,-2.32,38.88,-5.93,2.66,-6.28,-0.48,0.39,4.06
37,-24,-438,-196,-281,3931,0.64,-0.24,-4.94,-1.96,-2.81,39.31,-5.91,2.66,-6.26,-0.27,0.23,4.50
21,-32,-495,-13,-418,3991,0.71,-0.41,-7.47,-0.13,-4.18,39.91,-5.91,2.63,-6.23,-0.03,0.36,5.31
13,-59,-504,-31,-462,3951,0.72,-0.73,-9.79,-0.31,-4.62,39.51,-5.92,2.61,-6.20,0.10,0.77,5.68
7,-28,-500,145,-453,3919,0.69,-0.83,-11.86,1.45,-4.53,39.19,-5.92,2.58,-6.15,0.19,0.30,5.92
-2,-21,-481,210,-407,3923,0.61,-0.87,-13.61,2.10,-4.07,39.23,-5.92,2.56,-6.09,0.32,0.19,5.98
2,-3,-368,69,-497,3945,0.56,-0.81,-14.50,0.69,-4.97,39.45,-5.93,2.53,-6.04,0.26,-0.08,5.13
-4,0,-323,83,-512,3988,0.48,-0.73,-15.02,0.83,-5.12,39.88,-5.93,2.50,-5.98,0.36,-0.12,4.82
-9,4,-181,5,-630,3945,0.38,-0.63,-14.62,0.05,-6.30,39.45,-5.95,2.48,-5.92,0.43,-0.18,3.56
-9,26,-124,-51,-650,3823,0.28,-0.41,-13.91,-0.51,-6.50,38.23,-5.97,2.47,-5.86,0.43,-0.52,2.99
-9,23,-42,-245,-540,3929,0.20,-0.23,-12.78,-2.45,-5.40,39.29,-5.98,2.47,-5.81,0.44,-0.47,2.14
-14,21,-10,-163,-506,3917,0.09,-0.08,-11.56,-1.63,-5.06,39.17,-6.00,2.46,-5.76,0.51,-0.44,1.72
-8,17,118,-145,-782,3925,0.04,0.04,-9.69,-1.45,-7.82,39.25,-6.02,2.46,-5.72,0.42,-0.38,0.39
-11,10,219,-222,-927,3879,-0.03,0.09,-7.38,-2.22,-9.27,38.79,-6.04,2.46,-5.69,0.47,-0.28,-0.76
-19,8,181,-120,-483,3941,-0.15,0.13,-5.54,-1.20,-4.83,39.41,-6.06,2.45,-5.67,0.59,-0.24,-0.68
-7,15,174,-123,-639,3889,-0.18,0.21,-3.92,-1.23,-6.39,38.89,-6.08,2.44,-5.66,0.41,-0.35,-0.83
-16,9,244,40,-629,3951,-0.26,0.24,-2.04,0.40,-6.29,39.51,-6.09,2.43,-5.65,0.55,-0.26,-1.66
-13,21,264,53,-572,3888,-0.31,0.35,-0.23,0.53,-5.72,38.88,-6.10,2.41,-5.64,0.50,-0.44,-2.07
-19,12,323,-64,-432,3833,-0.39,0.39,1.77,-0.64,-4.32,38.33,-6.11,2.40,-5.65,0.60,-0.30,-2.82
-8,6,357,-50,-537,3892,-0.40,0.38,3.77,-0.50,-5.37,38.92,-6.12,2.39,-5.67,0.43,-0.21,-3.37
-3,-3,522,-85,-782,3940,-0.38,0.33,6.57,-0.85,-7.82,39.40,-6.14,2.39,-5.69,0.35,-0.07,-5.13
-2,-2,586,-178,-835,3805,-0.36,0.28,9.49,-1.78,-8.35,38.05,-6.16,2.40,-5.73,0.34,-0.09,-6.04
26,-7,822,-80,-721,3907,-0.16,0.21,13.56,-0.80,-7.21,39.07,-6.18,2.40,-5.78,-0.09,-0.01,-8.56
25,5,895,-105,-667,3834,0.01,0.22,17.66,-1.05,-6.67,38.34,-6.19,2.40,-5.85,-0.07,-0.20,-9.71
10,-5,1111,-73,-504,3859,0.07,0.17,22.67,-0.73,-5.04,38.59,-6.20,2.40,-5.94,0.16,-0.04,-12.18
-9,-12,1136,-59,-533,3866,0.01,0.08,27.33,-0.59,-5.33,38.66,-6.21,2.40,-6.05,0.45,0.06,-12.99
-19,9,1033,-57,-293,3903,-0.11,0.13,30.90,-0.57,-2.93,39.03,-6.19,2.40,-6.17,0.60,-0.26,-12.57
-9,35,970,20,-182,3923,-0.15,0.33,33.73,0.20,-1.82,39.23,-6.17,2.41,-6.31,0.45,-0.65,-12.40
-24,33,737,-19,-51,3928,-0.29,0.50,34.85,-0.19,-0.51,39.28,-6.15,2.42,-6.45,0.67,-0.63,-10.57
-15,22,648,-53,-112,3973,-0.35,0.58,35.32,-0.53,-1.12,39.73,-6.13,2.43,-6.59,0.54,-0.46,-9.87
-17,22,563,-185,-205,4016,-0.42,0.66,35.22,-1.85,-2.05,40.16,-6.10,2.45,-6.73,0.57,-0.46,-9.13
-21,11,559,-253,-181,3942,-0.50,0.66,35.11,-2.53,-1.81,39.42,-6.08,2.47,-6.87,0.63,-0.29,-9.08
-17,25,547,-121,-349,3841,-0.56,0.74,34.93,-1.21,-3.49,38.41,-6.06,2.48,-7.01,0.56,-0.51,-8.95
-17,24,563,-116,-379,3906,-0.60,0.82,34.88,-1.16,-3.79,39.06,-6.05,2.48,-7.15,0.56,-0.49,-9.08
-5,15,664,-46,-473,3831,-0.57,0.83,35.44,-0.46,-4.73,38.31,-6.06,2.48,-7.29,0.38,-0.35,-10.00
-8,7,686,-24,-430,3918,-0.57,0.79,36.08,-0.24,-4.30,39.18,-6.05,2.48,-7.43,0.43,-0.23,-10.27
-7,2,740,-48,-416,3923,-0.55,0.72,36.99,-0.48,-4.16,39.23,-6.05,2.48,-7.58,0.41,-0.16,-10.84
-4,-2,737,-3,-355,3872,-0.52,0.64,37.78,-0.03,-3.55,38.72,-6.04,2.48,-7.73,0.36,-0.10,-10.91
-8,22,627,36,-209,3934,-0.52,0.71,37.83,0.36,-2.09,39.34,-6.02,2.49,-7.88,0.42,-0.46,-9.98
-5,45,596,105,-118,3943,-0.50,0.91,37.68,1.05,-1.18,39.43,-6.00,2.50,-8.03,0.38,-0.81,-9.70
-4,48,654,-115,-443,3833,-0.47,1.11,37.90,-1.15,-4.43,38.33,-6.01,2.50,-8.18,0.36,-0.86,-10.21
-20,32,668,-159,-547,3891,-0.55,1.20,38.19,-1.59,-5.47,38.91,-6.02,2.52,-8.33,0.61,-0.62,-10.36
-23,17,670,-163,-635,3883,-0.63,1.18,38.46,-1.63,-6.35,38.83,-6.04,2.54,-8.48,0.65,-0.39,-10.41
-13,33,674,-133,-581,3932,-0.65,1.26,38.72,-1.33,-5.81,39.32,-6.05,2.56,-8.63,0.50,-0.63,-10.47
-11,15,684,-24,-627,3904,-0.65,1.23,39.02,-0.24,-6.27,39.04,-6.06,2.57,-8.79,0.47,-0.36,-10.59
-10,10,690,26,-614,3874,-0.65,1.17,39.33,0.26,-6.14,38.74,-6.07,2.58,-8.94,0.46,-0.28,-10.68
1,-3,750,-115,-566,3858,-0.58,1.03,39.97,-1.15,-5.66,38.58,-6.08,2.59,-9.10,0.29,-0.09,-11.27
-12,-19,758,-104,-549,3931,-0.59,0.81,40.60,-1.04,-5.49,39.31,-6.09,2.60,-9.26,0.49,0.16,-11.41
-7,-1,716,-16,-336,3917,-0.57,0.73,40.91,-0.16,-3.36,39.17,-6.08,2.61,-9.42,0.41,-0.12,-11.09
0,-10,668,-54,-294,3938,-0.52,0.59,40.89,-0.54,-2.94,39.38,-6.06,2.61,-9.59,0.30,0.02,-10.68
-9,4,578,-73,-310,3898,-0.52,0.56,40.33,-0.73,-3.10,38.98,-6.04,2.62,-9.75,0.44,-0.19,-9.84
-11,3,562,-213,-440,3861,-0.54,0.52,39.72,-2.13,-4.40,38.61,-6.05,2.65,-9.91,0.47,-0.18,-9.62
-9,5,535,-172,-502,3908,-0.54,0.50,39.01,-1.72,-5.02,39.08,-6.06,2.67,-10.06,0.44,-0.21,-9.30
-2,13,555,-152,-565,3874,-0.50,0.53,38.50,-1.52,-5.65,38.74,-6.08,2.68,-10.21,0.34,-0.33,-9.40
-9,4,638,-91,-553,3918,-0.50,0.50,38.54,-0.91,-5.53,39.18,-6.09,2.69,-10.37,0.44,-0.20,-10.10
-2,8,655,-53,-558,3902,-0.46,0.50,38.68,-0.53,-5.58,39.02,-6.10,2.70,-10.52,0.34,-0.26,-10.26
-2,6,677,-94,-359,3835,-0.43,0.48,38.94,-0.94,-3.59,38.35,-6.08,2.70,-10.67,0.34,-0.23,-10.48
-14,2,674,-79,-342,3918,-0.47,0.45,39.16,-0.79,-3.42,39.18,-6.06,2.70,-10.83,0.52,-0.17,-10.48
-8,16,564,-74,-331,3901,-0.47,0.50,38.68,-0.74,-3.31,39.01,-6.05,2.71,-10.98,0.43,-0.38,-9.48
-5,16,525,-21,-374,3910,-0.46,0.55,38.02,-0.21,-3.74,39.10,-6.04,2.71,-11.14,0.38,-0.38,-9.06
-4,22,592,17,-411,3931,-0.43,0.63,37.83,0.17,-4.11,39.31,-6.03,2.71,-11.29,0.36,-0.47,-9.60
-13,9,608,-25,-538,3904,-0.47,0.62,37.75,-0.25,-5.38,39.04,-6.04,2.71,-11.44,0.50,-0.27,-9.72
-12,1,572,-67,-431,3926,-0.50,0.56,37.47,-0.67,-4.31,39.26,-6.04,2.71,-11.58,0.49,-0.15,-9.38
1,23,562,-38,-382,3888,-0.44,0.65,37.15,-0.38,-3.82,38.88,-6.03,2.71,-11.73,0.29,-0.49,-9.25
-8,1,621,-110,-560,3869,-0.45,0.59,37.22,-1.10,-5.60,38.69,-6.04,2.72,-11.88,0.43,-0.15,-9.75
