gyroADC_X,gyroADC_Y,gyroADC_Z,accADC_X,accADC_Y,accADC_Z,GyroX,GyroY,GyroZ,AccX,AccY,AccZ,roll_IMU,pitch_IMU,yaw_IMU,roll_PID,pitch_PID,yaw_PID
0,0,0,-46,-428,3909,-0.00,0.01,0.00,-0.46,-4.28,39.09,-6.28,0.68,4.41,4.15,-0.45,-0.40
0,0,0,-38,-432,3914,-0.00,0.01,0.00,-0.38,-4.32,39.14,-6.29,0.66,4.41,4.15,-0.44,-0.40
-1,1,0,-43,-431,3919,-0.01,0.01,0.00,-0.43,-4.31,39.19,-6.28,0.64,4.41,4.17,-0.45,-0.40
0,-1,0,-40,-428,3914,-0.01,0.00,0.00,-0.40,-4.28,39.14,-6.27,0.63,4.41,4.14,-0.40,-0.40
-1,-2,0,-44,-428,3917,-0.01,-0.01,0.00,-0.44,-4.28,39.17,-6.25,0.63,4.41,4.15,-0.38,-0.40
-1,-1,0,-46,-431,3916,-0.02,-0.01,0.00,-0.46,-4.31,39.16,-6.27,0.65,4.41,4.16,-0.40,-0.40
0,0,0,-45,-433,3910,-0.01,-0.01,0.00,-0.45,-4.33,39.10,-6.28,0.65,4.41,4.15,-0.43,-0.40
-1,0,1,-48,-434,3908,-0.02,-0.01,0.01,-0.48,-4.34,39.08,-6.30,0.66,4.41,4.18,-0.43,-0.47
0,0,0,-57,-442,3899,-0.02,-0.01,0.01,-0.57,-4.42,38.99,-6.31,0.68,4.41,4.17,-0.44,-0.39
0,-1,1,-44,-422,3917,-0.02,-0.02,0.01,-0.44,-4.22,39.17,-6.29,0.67,4.41,4.16,-0.42,-0.47
0,-1,1,-47,-434,3916,-0.01,-0.02,0.02,-0.47,-4.34,39.16,-6.31,0.68,4.41,4.17,-0.42,-0.46
0,0,1,-45,-437,3903,-0.01,-0.02,0.02,-0.45,-4.37,39.03,-6.33,0.67,4.41,4.18,-0.44,-0.46
0,0,1,-43,-437,3906,-0.01,-0.02,0.03,-0.43,-4.37,39.06,-6.34,0.66,4.41,4.19,-0.43,-0.46
0,0,1,-46,-431,3900,-0.01,-0.01,0.03,-0.46,-4.31,39.00,-6.32,0.67,4.41,4.18,-0.44,-0.45
0,0,1,-43,-428,3898,-0.01,-0.01,0.03,-0.43,-4.28,38.98,-6.31,0.66,4.41,4.17,-0.43,-0.45
0,-1,2,-48,-434,3906,-0.01,-0.02,0.04,-0.48,-4.34,39.06,-6.32,0.67,4.41,4.17,-0.42,-0.52
0,-1,1,-50,-436,3903,-0.01,-0.02,0.04,-0.50,-4.36,39.03,-6.33,0.68,4.41,4.18,-0.43,-0.44
0,-1,1,-43,-432,3901,-0.01,-0.03,0.04,-0.43,-4.32,39.01,-6.33,0.67,4.41,4.18,-0.41,-0.43
0,-1,1,-41,-436,3922,-0.01,-0.03,0.05,-0.41,-4.36,39.22,-6.33,0.65,4.41,4.18,-0.40,-0.43
0,0,1,-51,-434,3916,-0.01,-0.03,0.05,-0.51,-4.34,39.16,-6.33,0.67,4.41,4.18,-0.43,-0.43
1,0,1,-59,-440,3907,0.00,-0.02,0.05,-0.59,-4.40,39.07,-6.34,0.68,4.41,4.16,-0.44,-0.43
0,-1,1,-47,-441,3904,0.00,-0.03,0.05,-0.47,-4.41,39.04,-6.36,0.68,4.41,4.20,-0.42,-0.43
0,-1,0,-54,-430,3912,0.00,-0.03,0.05,-0.54,-4.30,39.12,-6.35,0.70,4.41,4.19,-0.43,-0.35
-1,1,1,-39,-439,3916,-0.01,-0.02,0.05,-0.39,-4.39,39.16,-6.35,0.68,4.41,4.21,-0.46,-0.43
0,1,1,-42,-430,3920,-0.00,-0.01,0.05,-0.42,-4.30,39.20,-6.34,0.67,4.41,4.18,-0.46,-0.43
0,0,0,-43,-432,3905,-0.00,-0.01,0.04,-0.43,-4.32,39.05,-6.33,0.65,4.41,4.18,-0.43,-0.35
-1,-1,0,-45,-434,3890,-0.01,-0.02,0.04,-0.45,-4.34,38.90,-6.35,0.66,4.41,4.21,-0.41,-0.36
-1,-2,0,-41,-434,3906,-0.02,-0.03,0.04,-0.41,-4.34,39.06,-6.34,0.64,4.41,4.21,-0.37,-0.36
0,-2,1,-46,-432,3918,-0.01,-0.04,0.04,-0.46,-4.32,39.18,-6.33,0.65,4.41,4.18,-0.38,-0.44
-1,-1,2,-54,-436,3911,-0.02,-0.04,0.05,-0.54,-4.36,39.11,-6.33,0.66,4.41,4.21,-0.41,-0.52
0,-1,3,-53,-438,3909,-0.02,-0.04,0.06,-0.53,-4.38,39.09,-6.34,0.68,4.41,4.19,-0.42,-0.59
-3,-3,3,-53,-415,3898,-0.03,-0.06,0.07,-0.53,-4.15,38.98,-6.32,0.69,4.41,4.24,-0.38,-0.57
-2,-3,5,-48,-423,3907,-0.04,-0.07,0.10,-0.48,-4.23,39.07,-6.31,0.69,4.41,4.21,-0.37,-0.72
-1,-2,5,-44,-450,3914,-0.04,-0.07,0.12,-0.44,-4.50,39.14,-6.33,0.68,4.41,4.21,-0.39,-0.70
-2,-2,5,-39,-460,3909,-0.05,-0.08,0.14,-0.39,-4.60,39.09,-6.34,0.68,4.41,4.24,-0.39,-0.68
-1,-2,1,-44,-452,3898,-0.05,-0.08,0.13,-0.44,-4.52,38.98,-6.36,0.68,4.40,4.23,-0.38,-0.35
-1,-1,1,-42,-448,3905,-0.05,-0.08,0.12,-0.42,-4.48,39.05,-6.38,0.67,4.40,4.24,-0.40,-0.35
-1,-1,1,-50,-437,3914,-0.05,-0.08,0.12,-0.50,-4.37,39.14,-6.38,0.69,4.40,4.24,-0.41,-0.36
0,-1,0,-55,-435,3922,-0.05,-0.08,0.10,-0.55,-4.35,39.22,-6.37,0.70,4.40,4.22,-0.42,-0.29
-1,-1,1,-49,-441,3906,-0.05,-0.08,0.10,-0.49,-4.41,39.06,-6.39,0.71,4.40,4.25,-0.43,-0.38
-1,-1,2,-49,-437,3907,-0.05,-0.07,0.10,-0.49,-4.37,39.07,-6.38,0.72,4.40,4.24,-0.44,-0.46
-1,1,0,-53,-436,3910,-0.05,-0.06,0.09,-0.53,-4.36,39.10,-6.37,0.74,4.40,4.24,-0.49,-0.30
0,1,0,-44,-427,3911,-0.05,-0.05,0.08,-0.44,-4.27,39.11,-6.36,0.73,4.40,4.21,-0.49,-0.31
0,1,0,-41,-435,3904,-0.04,-0.04,0.07,-0.41,-4.35,39.04,-6.36,0.71,4.40,4.21,-0.48,-0.32
-1,0,0,-39,-427,3909,-0.04,-0.03,0.07,-0.39,-4.27,39.09,-6.35,0.70,4.40,4.22,-0.45,-0.33
0,-1,1,-45,-437,3908,-0.04,-0.04,0.07,-0.45,-4.37,39.08,-6.36,0.68,4.40,4.21,-0.42,-0.41
0,0,1,-49,-444,3911,-0.04,-0.03,0.07,-0.49,-4.44,39.11,-6.38,0.69,4.40,4.22,-0.44,-0.41
0,-1,1,-51,-442,3895,-0.03,-0.04,0.07,-0.51,-4.42,38.95,-6.39,0.70,4.40,4.23,-0.43,-0.41
0,-1,1,-56,-447,3894,-0.03,-0.04,0.06,-0.56,-4.47,38.94,-6.41,0.71,4.40,4.24,-0.44,-0.41
-1,-1,22,-52,-434,3930,-0.03,-0.04,0.19,-0.52,-4.34,39.30,-6.39,0.71,4.40,4.25,-0.44,-2.06
-1,0,24,-36,-481,3912,-0.04,-0.04,0.32,-0.36,-4.81,39.12,-6.41,0.71,4.40,4.26,-0.46,-2.09
-1,1,5,-43,-467,3905,-0.04,-0.03,0.32,-0.43,-4.67,39.05,-6.43,0.71,4.40,4.27,-0.48,-0.48
-1,2,6,-44,-427,3911,-0.04,-0.01,0.32,-0.44,-4.27,39.11,-6.41,0.70,4.40,4.26,-0.50,-0.56
-2,0,3,-45,-436,3914,-0.05,-0.01,0.31,-0.45,-4.36,39.14,-6.39,0.69,4.39,4.27,-0.45,-0.32
0,0,-1,-47,-431,3920,-0.04,-0.01,0.27,-0.47,-4.31,39.20,-6.38,0.69,4.39,4.22,-0.45,-0.02
-1,2,1,-46,-441,3920,-0.05,0.00,0.25,-0.46,-4.41,39.20,-6.39,0.68,4.39,4.25,-0.49,-0.21
0,1,-1,-42,-446,3918,-0.04,0.01,0.22,-0.42,-4.46,39.18,-6.41,0.67,4.39,4.24,-0.46,-0.08
0,2,-2,-53,-433,3905,-0.04,0.02,0.19,-0.53,-4.33,39.05,-6.40,0.68,4.39,4.23,-0.50,-0.03
0,2,-1,-48,-430,3902,-0.03,0.03,0.16,-0.48,-4.30,39.02,-6.38,0.69,4.39,4.22,-0.50,-0.14
0,2,-1,-44,-437,3923,-0.03,0.04,0.14,-0.44,-4.37,39.23,-6.37,0.67,4.39,4.21,-0.49,-0.16
-2,2,0,-46,-440,3924,-0.04,0.05,0.12,-0.46,-4.40,39.24,-6.39,0.67,4.39,4.27,-0.50,-0.26
2,2,-1,-54,-430,3921,-0.02,0.06,0.11,-0.54,-4.30,39.21,-6.38,0.68,4.39,4.17,-0.51,-0.20
1,3,-1,-38,-434,3903,-0.01,0.07,0.09,-0.38,-4.34,39.03,-6.37,0.66,4.39,4.19,-0.52,-0.22
1,3,-2,-47,-431,3902,-0.01,0.08,0.07,-0.47,-4.31,39.02,-6.35,0.67,4.39,4.18,-0.52,-0.15
1,2,-1,-49,-435,3905,-0.00,0.08,0.06,-0.49,-4.35,39.05,-6.36,0.69,4.39,4.17,-0.52,-0.25
1,4,-3,-56,-429,3901,0.01,0.10,0.03,-0.56,-4.29,39.01,-6.35,0.70,4.39,4.17,-0.57,-0.11
0,4,-3,-50,-425,3906,0.01,0.11,0.01,-0.50,-4.25,39.06,-6.33,0.71,4.39,4.17,-0.58,-0.13
0,4,-2,-45,-448,3917,0.00,0.13,-0.00,-0.45,-4.48,39.17,-6.35,0.70,4.39,4.19,-0.58,-0.23
0,3,-1,-44,-439,3906,0.00,0.13,-0.01,-0.44,-4.39,39.06,-6.36,0.69,4.39,4.20,-0.55,-0.32
0,1,-1,-45,-433,3910,0.00,0.13,-0.01,-0.45,-4.33,39.10,-6.35,0.68,4.39,4.19,-0.50,-0.33
1,1,-2,-48,-431,3913,0.01,0.12,-0.02,-0.48,-4.31,39.13,-6.33,0.69,4.39,4.15,-0.51,-0.25
0,1,-2,-42,-433,3918,0.01,0.11,-0.03,-0.42,-4.33,39.18,-6.32,0.67,4.39,4.17,-0.49,-0.26
0,1,-2,-45,-430,3905,0.01,0.11,-0.04,-0.45,-4.30,39.05,-6.31,0.66,4.39,4.16,-0.49,-0.27
0,1,-3,-48,-438,3924,0.01,0.10,-0.06,-0.48,-4.38,39.24,-6.32,0.67,4.39,4.17,-0.49,-0.20
0,1,-3,-55,-444,3922,0.01,0.10,-0.07,-0.55,-4.44,39.22,-6.33,0.68,4.39,4.18,-0.50,-0.21
1,1,-4,-59,-440,3915,0.01,0.10,-0.09,-0.59,-4.40,39.15,-6.34,0.70,4.39,4.16,-0.51,-0.15
1,2,-3,-52,-438,3917,0.02,0.10,-0.10,-0.52,-4.38,39.17,-6.35,0.72,4.39,4.17,-0.54,-0.24
1,2,-2,-46,-436,3918,0.02,0.10,-0.10,-0.46,-4.36,39.18,-6.35,0.70,4.39,4.17,-0.53,-0.33
0,2,-2,-52,-437,3914,0.02,0.10,-0.10,-0.52,-4.37,39.14,-6.36,0.72,4.39,4.19,-0.54,-0.33
0,3,-4,-48,-436,3914,0.02,0.11,-0.12,-0.48,-4.36,39.14,-6.36,0.70,4.39,4.19,-0.55,-0.18
1,3,-3,-44,-431,3908,0.02,0.12,-0.12,-0.44,-4.31,39.08,-6.34,0.69,4.39,4.16,-0.55,-0.27
1,3,-5,-49,-435,3902,0.03,0.12,-0.14,-0.49,-4.35,39.02,-6.35,0.70,4.39,4.17,-0.56,-0.12
1,4,-6,-37,-428,3907,0.03,0.14,-0.16,-0.37,-4.28,39.07,-6.34,0.69,4.39,4.16,-0.57,-0.06
1,4,-6,-30,-436,3903,0.03,0.15,-0.18,-0.30,-4.36,39.03,-6.35,0.67,4.39,4.16,-0.56,-0.08
1,3,-7,-36,-432,3907,0.04,0.15,-0.21,-0.36,-4.32,39.07,-6.34,0.65,4.39,4.15,-0.53,-0.02
3,1,-13,-40,-473,3914,0.05,0.14,-0.27,-0.40,-4.73,39.14,-6.36,0.65,4.40,4.12,-0.49,0.42
1,1,-13,-47,-446,3918,0.05,0.13,-0.32,-0.47,-4.46,39.18,-6.38,0.66,4.40,4.17,-0.49,0.37
-1,1,-12,-38,-443,3907,0.04,0.13,-0.36,-0.38,-4.43,39.07,-6.39,0.64,4.40,4.23,-0.48,0.24
-1,0,-13,-42,-449,3908,0.03,0.11,-0.40,-0.42,-4.49,39.08,-6.41,0.64,4.40,4.24,-0.45,0.28
0,1,-19,-49,-412,3906,0.03,0.11,-0.48,-0.49,-4.12,39.06,-6.39,0.64,4.40,4.21,-0.47,0.71
2,3,-15,-48,-439,3911,0.04,0.12,-0.52,-0.48,-4.39,39.11,-6.39,0.66,4.40,4.17,-0.53,0.32
-1,3,-7,-57,-415,3911,0.03,0.12,-0.51,-0.57,-4.15,39.11,-6.38,0.67,4.41,4.22,-0.54,-0.35
1,3,-7,-66,-432,3904,0.03,0.13,-0.50,-0.66,-4.32,39.04,-6.37,0.69,4.41,4.18,-0.55,-0.34
1,5,-4,-56,-436,3912,0.03,0.15,-0.48,-0.56,-4.36,39.12,-6.37,0.71,4.41,4.18,-0.61,-0.56
1,5,-4,-58,-430,3906,0.04,0.16,-0.46,-0.58,-4.30,39.06,-6.36,0.72,4.41,4.17,-0.62,-0.54
1,5,-5,-58,-440,3910,0.04,0.18,-0.44,-0.58,-4.40,39.10,-6.37,0.74,4.41,4.17,-0.64,-0.44
2,5,-4,-50,-436,3916,0.05,0.19,-0.42,-0.50,-4.36,39.16,-6.35,0.73,4.42,4.14,-0.63,-0.50
0,2,-2,-43,-431,3912,0.04,0.18,-0.39,-0.43,-4.31,39.12,-6.34,0.71,4.42,4.18,-0.56,-0.64
0,2,-1,-41,-437,3922,0.04,0.18,-0.36,-0.41,-4.37,39.22,-6.35,0.70,4.42,4.18,-0.55,-0.69
1,0,0,-49,-432,3908,0.04,0.16,-0.32,-0.49,-4.32,39.08,-6.33,0.70,4.42,4.15,-0.51,-0.74
0,0,1,-54,-432,3907,0.04,0.14,-0.28,-0.54,-4.32,39.07,-6.32,0.72,4.42,4.16,-0.52,-0.78
-1,-1,2,-52,-428,3906,0.03,0.12,-0.24,-0.52,-4.28,39.06,-6.31,0.73,4.42,4.18,-0.50,-0.82
-1,-2,2,-51,-422,3914,0.02,0.10,-0.21,-0.51,-4.22,39.14,-6.29,0.73,4.42,4.17,-0.47,-0.79
-2,-3,3,-39,-449,3904,0.00,0.07,-0.17,-0.39,-4.49,39.04,-6.31,0.72,4.42,4.20,-0.44,-0.83
-2,-3,2,-44,-436,3909,-0.01,0.04,-0.14,-0.44,-4.36,39.09,-6.32,0.71,4.42,4.21,-0.42,-0.71
0,-2,0,-42,-437,3903,-0.01,0.03,-0.12,-0.42,-4.37,39.03,-6.33,0.69,4.43,4.18,-0.43,-0.53
0,-3,0,-46,-441,3914,-0.01,0.01,-0.11,-0.46,-4.41,39.14,-6.35,0.69,4.43,4.19,-0.40,-0.52
0,-3,-1,-48,-437,3912,-0.01,-0.01,-0.11,-0.48,-4.37,39.12,-6.36,0.70,4.43,4.20,-0.39,-0.43
0,-2,-1,-44,-434,3910,-0.01,-0.02,-0.10,-0.44,-4.34,39.10,-6.35,0.68,4.43,4.20,-0.40,-0.42
0,-1,0,-47,-437,3916,-0.01,-0.03,-0.09,-0.47,-4.37,39.16,-6.37,0.68,4.43,4.21,-0.42,-0.50
0,-1,0,-53,-434,3909,-0.00,-0.03,-0.08,-0.53,-4.34,39.09,-6.36,0.70,4.43,4.20,-0.43,-0.49
0,0,-1,-48,-436,3906,-0.00,-0.03,-0.08,-0.48,-4.36,39.06,-6.38,0.70,4.43,4.21,-0.45,-0.40
0,0,0,-47,-435,3916,-0.00,-0.02,-0.07,-0.47,-4.35,39.16,-6.36,0.69,4.43,4.20,-0.45,-0.48
-1,-1,2,-54,-424,3908,-0.01,-0.03,-0.05,-0.54,-4.24,39.08,-6.35,0.70,4.43,4.21,-0.43,-0.62
0,-1,3,-49,-431,3910,-0.01,-0.03,-0.03,-0.49,-4.31,39.10,-6.33,0.70,4.43,4.18,-0.44,-0.68
-1,-2,0,-37,-442,3911,-0.01,-0.04,-0.03,-0.37,-4.42,39.11,-6.34,0.69,4.43,4.21,-0.40,-0.43
-1,-1,0,-39,-442,3903,-0.02,-0.04,-0.02,-0.39,-4.42,39.03,-6.35,0.68,4.43,4.22,-0.41,-0.42
-1,-2,2,-48,-439,3902,-0.02,-0.05,-0.01,-0.48,-4.39,39.02,-6.37,0.68,4.43,4.23,-0.40,-0.58
-1,-3,2,-47,-436,3908,-0.03,-0.06,0.00,-0.47,-4.36,39.08,-6.36,0.69,4.43,4.22,-0.38,-0.56
0,-2,1,-48,-438,3926,-0.02,-0.07,0.01,-0.48,-4.38,39.26,-6.37,0.70,4.43,4.21,-0.40,-0.47
-1,-2,1,-51,-433,3924,-0.03,-0.07,0.01,-0.51,-4.33,39.24,-6.36,0.71,4.43,4.22,-0.41,-0.47
0,-1,1,-48,-432,3921,-0.02,-0.07,0.02,-0.48,-4.32,39.21,-6.34,0.70,4.43,4.19,-0.42,-0.46
0,-2,2,-56,-425,3912,-0.02,-0.08,0.03,-0.56,-4.25,39.12,-6.32,0.72,4.43,4.18,-0.41,-0.54
-1,-2,1,-46,-437,3903,-0.03,-0.08,0.03,-0.46,-4.37,39.03,-6.34,0.71,4.43,4.21,-0.40,-0.45
-1,-2,0,-48,-438,3914,-0.03,-0.09,0.03,-0.48,-4.38,39.14,-6.36,0.70,4.43,4.22,-0.40,-0.37
-1,-1,0,-47,-427,3922,-0.03,-0.08,0.03,-0.47,-4.27,39.22,-6.34,0.70,4.43,4.21,-0.42,-0.37
0,-1,0,-48,-429,3907,-0.03,-0.08,0.02,-0.48,-4.29,39.07,-6.32,0.70,4.43,4.18,-0.42,-0.37
0,0,-1,-45,-435,3900,-0.03,-0.07,0.02,-0.45,-4.35,39.00,-6.33,0.69,4.43,4.19,-0.43,-0.30
0,-1,-1,-54,-438,3904,-0.02,-0.07,0.01,-0.54,-4.38,39.04,-6.34,0.70,4.43,4.19,-0.42,-0.31
-1,-1,-1,-53,-436,3917,-0.03,-0.07,0.00,-0.53,-4.36,39.17,-6.35,0.72,4.43,4.22,-0.43,-0.31
-1,0,0,-54,-433,3903,-0.03,-0.06,0.00,-0.54,-4.33,39.03,-6.34,0.74,4.43,4.21,-0.47,-0.40
0,0,-1,-46,-437,3896,-0.03,-0.06,-0.01,-0.46,-4.37,38.96,-6.35,0.72,4.43,4.20,-0.46,-0.32
0,0,0,-46,-431,3908,-0.03,-0.05,-0.00,-0.46,-4.31,39.08,-6.34,0.71,4.43,4.19,-0.45,-0.40
-1,0,-1,-56,-429,3903,-0.03,-0.05,-0.01,-0.56,-4.29,39.03,-6.33,0.73,4.43,4.21,-0.47,-0.32
0,0,-1,-51,-433,3907,-0.03,-0.04,-0.02,-0.51,-4.33,39.07,-6.32,0.74,4.43,4.18,-0.48,-0.33
0,-1,-3,-57,-420,3914,-0.02,-0.04,-0.03,-0.57,-4.20,39.14,-6.31,0.75,4.43,4.17,-0.46,-0.18
0,-1,-1,-48,-431,3914,-0.02,-0.05,-0.04,-0.48,-4.31,39.14,-6.30,0.73,4.43,4.16,-0.45,-0.35
-1,0,-2,-49,-440,3909,-0.02,-0.04,-0.04,-0.49,-4.40,39.09,-6.32,0.73,4.43,4.20,-0.47,-0.28
-1,1,0,-50,-430,3907,-0.03,-0.03,-0.04,-0.50,-4.30,39.07,-6.30,0.73,4.43,4.19,-0.49,-0.44
-1,1,1,-50,-442,3913,-0.03,-0.02,-0.03,-0.50,-4.42,39.13,-6.32,0.73,4.43,4.20,-0.50,-0.51
-1,0,1,-50,-438,3903,-0.03,-0.02,-0.02,-0.50,-4.38,39.03,-6.34,0.73,4.43,4.21,-0.48,-0.50
-2,1,1,-53,-436,3909,-0.04,-0.01,-0.01,-0.53,-4.36,39.09,-6.35,0.74,4.43,4.24,-0.51,-0.50
-1,2,0,-47,-436,3900,-0.05,0.00,-0.01,-0.47,-4.36,39.00,-6.36,0.73,4.43,4.23,-0.52,-0.41
-1,2,1,-49,-438,3912,-0.05,0.01,-0.00,-0.49,-4.38,39.12,-6.37,0.72,4.43,4.24,-0.52,-0.49
0,2,0,-49,-438,3912,-0.04,0.02,-0.00,-0.49,-4.38,39.12,-6.39,0.71,4.43,4.23,-0.52,-0.40
0,3,-1,-51,-438,3913,-0.04,0.04,-0.01,-0.51,-4.38,39.13,-6.39,0.73,4.43,4.23,-0.55,-0.32
0,3,0,-51,-433,3914,-0.03,0.05,-0.01,-0.51,-4.33,39.14,-6.37,0.73,4.43,4.21,-0.56,-0.41
0,1,-1,-46,-433,3909,-0.03,0.06,-0.01,-0.46,-4.33,39.09,-6.36,0.72,4.43,4.21,-0.51,-0.33
-1,1,-1,-54,-435,3908,-0.03,0.06,-0.02,-0.54,-4.35,39.08,-6.36,0.74,4.43,4.23,-0.52,-0.33
0,1,0,-54,-436,3906,-0.03,0.06,-0.02,-0.54,-4.36,39.06,-6.36,0.76,4.43,4.21,-0.53,-0.42
0,2,0,-55,-435,3908,-0.03,0.06,-0.01,-0.55,-4.35,39.08,-6.36,0.77,4.43,4.20,-0.57,-0.41
-1,0,0,-46,-433,3921,-0.03,0.06,-0.01,-0.46,-4.33,39.21,-6.35,0.76,4.43,4.22,-0.52,-0.41
0,1,0,-52,-439,3914,-0.03,0.06,-0.01,-0.52,-4.39,39.14,-6.37,0.76,4.43,4.21,-0.54,-0.41
0,1,-2,-48,-435,3914,-0.02,0.06,-0.02,-0.48,-4.35,39.14,-6.36,0.74,4.43,4.20,-0.53,-0.25
1,0,-2,-56,-436,3920,-0.02,0.05,-0.03,-0.56,-4.36,39.20,-6.36,0.76,4.43,4.18,-0.52,-0.26
1,0,-2,-44,-432,3907,-0.01,0.05,-0.04,-0.44,-4.32,39.07,-6.35,0.74,4.43,4.17,-0.50,-0.27
1,1,-1,-51,-432,3922,-0.00,0.05,-0.04,-0.51,-4.32,39.22,-6.33,0.74,4.43,4.16,-0.52,-0.36
-1,1,-2,-44,-434,3903,-0.01,0.05,-0.05,-0.44,-4.34,39.03,-6.33,0.72,4.43,4.20,-0.51,-0.28
0,1,-2,-50,-433,3904,-0.01,0.05,-0.06,-0.50,-4.33,39.04,-6.32,0.74,4.43,4.17,-0.52,-0.29
-1,0,-2,-49,-430,3902,-0.01,0.05,-0.06,-0.49,-4.30,39.02,-6.31,0.73,4.43,4.19,-0.49,-0.30
0,0,-2,-52,-428,3917,-0.01,0.04,-0.07,-0.52,-4.28,39.17,-6.29,0.73,4.43,4.15,-0.50,-0.30
-1,3,-5,-39,-450,3914,-0.02,0.06,-0.09,-0.39,-4.50,39.14,-6.30,0.72,4.43,4.19,-0.55,-0.07
-1,3,-8,-49,-445,3916,-0.02,0.07,-0.13,-0.49,-4.45,39.16,-6.32,0.72,4.43,4.20,-0.56,0.14
0,3,-9,-63,-430,3903,-0.02,0.08,-0.18,-0.63,-4.30,39.03,-6.32,0.74,4.43,4.18,-0.57,0.18
0,3,-8,-58,-434,3909,-0.02,0.09,-0.21,-0.58,-4.34,39.09,-6.32,0.76,4.43,4.18,-0.59,0.06
1,3,-5,-59,-431,3915,-0.01,0.10,-0.22,-0.59,-4.31,39.15,-6.32,0.78,4.43,4.15,-0.60,-0.20
1,2,-4,-54,-429,3915,-0.00,0.10,-0.22,-0.54,-4.29,39.15,-6.30,0.78,4.43,4.14,-0.58,-0.29
1,2,-2,-46,-435,3899,0.00,0.10,-0.21,-0.46,-4.35,38.99,-6.31,0.76,4.43,4.14,-0.57,-0.45
2,3,-7,-53,-416,3905,0.02,0.11,-0.23,-0.53,-4.16,39.05,-6.29,0.77,4.44,4.11,-0.60,-0.05
-1,1,-4,-51,-436,3914,0.01,0.11,-0.23,-0.51,-4.36,39.14,-6.31,0.76,4.44,4.18,-0.55,-0.31
0,0,-4,-55,-428,3907,0.01,0.10,-0.23,-0.55,-4.28,39.07,-6.29,0.77,4.44,4.15,-0.54,-0.31
1,0,-2,-56,-436,3914,0.01,0.09,-0.22,-0.56,-4.36,39.14,-6.31,0.78,4.44,4.14,-0.54,-0.47
0,1,-2,-58,-436,3921,0.01,0.08,-0.21,-0.58,-4.36,39.21,-6.32,0.80,4.44,4.17,-0.57,-0.45
1,2,-9,-70,-401,3899,0.02,0.09,-0.25,-0.70,-4.01,38.99,-6.30,0.81,4.44,4.13,-0.60,0.10
3,3,-14,-63,-421,3911,0.03,0.10,-0.31,-0.63,-4.21,39.11,-6.29,0.82,4.44,4.08,-0.63,0.46
9,9,-7,-58,-425,3918,0.08,0.14,-0.32,-0.58,-4.25,39.18,-6.27,0.82,4.44,3.93,-0.76,-0.14
8,8,-8,-56,-429,3896,0.13,0.18,-0.34,-0.56,-4.29,38.96,-6.28,0.82,4.44,3.95,-0.75,-0.08
2,3,-4,-51,-435,3900,0.12,0.18,-0.33,-0.51,-4.35,39.00,-6.30,0.81,4.45,4.08,-0.64,-0.41
-1,0,-1,-53,-429,3907,0.11,0.16,-0.30,-0.53,-4.29,39.07,-6.28,0.79,4.45,4.14,-0.57,-0.63
-9,-9,0,-48,-428,3904,0.04,0.09,-0.27,-0.48,-4.28,39.04,-6.28,0.78,4.45,4.32,-0.35,-0.69
-13,-11,1,-51,-433,3892,-0.04,0.01,-0.24,-0.51,-4.33,38.92,-6.30,0.77,4.45,4.43,-0.29,-0.74
-3,-4,0,-55,-439,3904,-0.06,-0.01,-0.21,-0.55,-4.39,39.04,-6.31,0.77,4.45,4.24,-0.43,-0.63
-2,-2,0,-57,-429,3910,-0.06,-0.02,-0.19,-0.57,-4.29,39.10,-6.30,0.79,4.45,4.22,-0.47,-0.60
-1,-1,0,-53,-440,3906,-0.06,-0.03,-0.17,-0.53,-4.40,39.06,-6.32,0.78,4.45,4.21,-0.49,-0.58
-1,-1,0,-49,-443,3904,-0.06,-0.03,-0.16,-0.49,-4.43,39.04,-6.34,0.78,4.45,4.22,-0.48,-0.57
-1,-2,0,-49,-430,3908,-0.06,-0.04,-0.14,-0.49,-4.30,39.08,-6.32,0.76,4.45,4.21,-0.45,-0.55
-1,-2,0,-48,-429,3907,-0.06,-0.05,-0.13,-0.48,-4.29,39.07,-6.31,0.75,4.45,4.20,-0.44,-0.53
-1,0,0,-51,-437,3917,-0.06,-0.04,-0.11,-0.51,-4.37,39.17,-6.33,0.75,4.45,4.22,-0.48,-0.52
-1,0,0,-47,-437,3917,-0.06,-0.04,-0.10,-0.47,-4.37,39.17,-6.34,0.73,4.45,4.22,-0.47,-0.51
-1,-1,-1,-47,-436,3912,-0.06,-0.04,-0.10,-0.47,-4.36,39.12,-6.35,0.71,4.45,4.23,-0.44,-0.42
-1,-1,-1,-42,-435,3914,-0.06,-0.04,-0.09,-0.42,-4.35,39.14,-6.35,0.69,4.46,4.23,-0.43,-0.42
-1,0,0,-46,-434,3917,-0.06,-0.04,-0.08,-0.46,-4.34,39.17,-6.33,0.68,4.46,4.22,-0.44,-0.49
-1,-1,-1,-49,-431,3911,-0.06,-0.04,-0.08,-0.49,-4.31,39.11,-6.32,0.69,4.46,4.21,-0.42,-0.40
0,-1,0,-60,-429,3917,-0.06,-0.04,-0.07,-0.60,-4.29,39.17,-6.31,0.71,4.46,4.18,-0.44,-0.48
-1,-1,0,-55,-431,3907,-0.06,-0.04,-0.07,-0.55,-4.31,39.07,-6.31,0.73,4.46,4.20,-0.45,-0.47
-1,-1,0,-53,-438,3904,-0.06,-0.05,-0.06,-0.53,-4.38,39.04,-6.33,0.73,4.46,4.21,-0.45,-0.46
-1,-1,-1,-51,-436,3904,-0.06,-0.05,-0.06,-0.51,-4.36,39.04,-6.34,0.74,4.46,4.22,-0.45,-0.38
0,-1,-1,-58,-432,3903,-0.05,-0.05,-0.06,-0.58,-4.32,39.03,-6.34,0.76,4.46,4.20,-0.46,-0.38
0,-1,0,-58,-432,3903,-0.05,-0.05,-0.05,-0.58,-4.32,39.03,-6.34,0.77,4.46,4.19,-0.48,-0.46
0,-1,1,-60,-439,3908,-0.04,-0.05,-0.04,-0.60,-4.39,39.08,-6.35,0.79,4.46,4.20,-0.49,-0.53
0,-1,1,-54,-427,3904,-0.04,-0.05,-0.03,-0.54,-4.27,39.04,-6.33,0.79,4.46,4.19,-0.48,-0.52
0,-1,1,-54,-436,3907,-0.03,-0.05,-0.02,-0.54,-4.36,39.07,-6.35,0.79,4.46,4.20,-0.48,-0.51
0,-1,1,-52,-433,3903,-0.03,-0.05,-0.01,-0.52,-4.33,39.03,-6.34,0.77,4.46,4.19,-0.47,-0.50
-1,-1,0,-53,-427,3892,-0.03,-0.05,-0.01,-0.53,-4.27,38.92,-6.32,0.77,4.46,4.20,-0.47,-0.42
0,-1,-1,-48,-429,3893,-0.03,-0.06,-0.02,-0.48,-4.29,38.93,-6.31,0.75,4.46,4.17,-0.46,-0.34
0,0,-1,-49,-434,3905,-0.03,-0.05,-0.02,-0.49,-4.34,39.05,-6.32,0.74,4.46,4.18,-0.47,-0.34
-1,0,-1,-50,-439,3902,-0.03,-0.04,-0.03,-0.50,-4.39,39.02,-6.34,0.74,4.46,4.21,-0.47,-0.34
-1,0,-2,-61,-435,3902,-0.03,-0.04,-0.04,-0.61,-4.35,39.02,-6.34,0.76,4.46,4.22,-0.49,-0.27
0,0,-1,-58,-431,3917,-0.03,-0.04,-0.04,-0.58,-4.31,39.17,-6.33,0.77,4.46,4.19,-0.50,-0.36
0,1,-1,-53,-436,3896,-0.03,-0.03,-0.04,-0.53,-4.36,38.96,-6.35,0.77,4.46,4.20,-0.52,-0.36
0,1,-1,-53,-429,3907,-0.02,-0.02,-0.04,-0.53,-4.29,39.07,-6.33,0.77,4.46,4.19,-0.52,-0.36
0,0,-1,-53,-432,3901,-0.02,-0.02,-0.04,-0.53,-4.32,39.01,-6.32,0.77,4.46,4.17,-0.51,-0.36
0,0,-1,-48,-438,3902,-0.02,-0.01,-0.05,-0.48,-4.38,39.02,-6.33,0.76,4.46,4.18,-0.50,-0.37
0,0,0,-51,-440,3910,-0.02,-0.01,-0.04,-0.51,-4.40,39.10,-6.35,0.76,4.46,4.19,-0.50,-0.45
1,0,-1,-49,-441,3906,-0.01,-0.01,-0.04,-0.49,-4.41,39.06,-6.36,0.75,4.46,4.18,-0.49,-0.36
-1,1,0,-46,-438,3919,-0.02,-0.00,-0.04,-0.46,-4.38,39.19,-6.37,0.73,4.46,4.23,-0.50,-0.44
-1,0,-1,-47,-436,3907,-0.02,-0.00,-0.04,-0.47,-4.36,39.07,-6.37,0.71,4.46,4.23,-0.47,-0.36
-1,0,0,-48,-427,3915,-0.02,-0.00,-0.04,-0.48,-4.27,39.15,-6.35,0.71,4.46,4.22,-0.47,-0.44
0,0,0,-48,-436,3912,-0.02,-0.00,-0.03,-0.48,-4.36,39.12,-6.36,0.70,4.46,4.20,-0.46,-0.44
-1,1,1,-49,-427,3909,-0.03,0.00,-0.02,-0.49,-4.27,39.09,-6.34,0.70,4.46,4.21,-0.48,-0.51
0,1,0,-50,-430,3912,-0.02,0.01,-0.02,-0.50,-4.30,39.12,-6.33,0.71,4.46,4.18,-0.49,-0.42
0,-1,0,-50,-435,3899,-0.02,0.00,-0.02,-0.50,-4.35,38.99,-6.34,0.72,4.46,4.19,-0.45,-0.42
-1,-1,1,-49,-435,3896,-0.02,-0.00,-0.01,-0.49,-4.35,38.96,-6.36,0.72,4.46,4.22,-0.45,-0.50
-1,0,0,-51,-435,3918,-0.03,-0.00,-0.01,-0.51,-4.35,39.18,-6.35,0.73,4.46,4.22,-0.48,-0.41
0,0,0,-52,-430,3909,-0.03,-0.00,-0.01,-0.52,-4.30,39.09,-6.33,0.74,4.46,4.18,-0.48,-0.41
-1,0,-1,-47,-425,3912,-0.03,-0.00,-0.01,-0.47,-4.25,39.12,-6.31,0.73,4.46,4.20,-0.48,-0.33
-1,-1,0,-43,-435,3899,-0.03,-0.01,-0.01,-0.43,-4.35,38.99,-6.32,0.71,4.46,4.20,-0.45,-0.42
0,-1,0,-46,-426,3908,-0.03,-0.01,-0.01,-0.46,-4.26,39.08,-6.31,0.71,4.46,4.17,-0.44,-0.41
-1,-1,1,-47,-435,3908,-0.03,-0.02,-0.00,-0.47,-4.35,39.08,-6.32,0.70,4.46,4.20,-0.44,-0.49
-1,-1,0,-47,-433,3910,-0.04,-0.02,-0.00,-0.47,-4.33,39.10,-6.32,0.68,4.46,4.20,-0.42,-0.41
0,-2,0,-53,-435,3913,-0.03,-0.03,-0.00,-0.53,-4.35,39.13,-6.32,0.70,4.46,4.18,-0.41,-0.41
-1,-1,1,-50,-426,3908,-0.03,-0.04,0.00,-0.50,-4.26,39.08,-6.31,0.70,4.46,4.19,-0.43,-0.48
0,-1,0,-44,-430,3915,-0.03,-0.04,0.00,-0.44,-4.30,39.15,-6.30,0.69,4.46,4.16,-0.42,-0.40
0,0,0,-53,-438,3913,-0.03,-0.03,0.00,-0.53,-4.38,39.13,-6.31,0.70,4.46,4.17,-0.45,-0.40
0,0,0,-52,-439,3917,-0.03,-0.03,0.00,-0.52,-4.39,39.17,-6.33,0.71,4.46,4.18,-0.46,-0.40
-1,-1,1,-49,-429,3912,-0.03,-0.03,0.01,-0.49,-4.29,39.12,-6.31,0.71,4.46,4.19,-0.44,-0.48
-1,-1,0,-43,-438,3922,-0.03,-0.04,0.01,-0.43,-4.38,39.22,-6.32,0.70,4.46,4.20,-0.43,-0.39
-1,-1,-1,-52,-431,3905,-0.03,-0.04,0.00,-0.52,-4.31,39.05,-6.31,0.71,4.46,4.20,-0.44,-0.32
-2,-1,-1,-47,-429,3901,-0.04,-0.04,-0.01,-0.47,-4.29,39.01,-6.30,0.70,4.46,4.21,-0.43,-0.32
-1,-1,0,-39,-427,3907,-0.05,-0.04,-0.01,-0.39,-4.27,39.07,-6.29,0.69,4.46,4.18,-0.42,-0.41
-1,-1,0,-38,-428,3906,-0.05,-0.05,-0.00,-0.38,-4.28,39.06,-6.29,0.67,4.46,4.18,-0.41,-0.41
-1,-1,0,-48,-432,3911,-0.05,-0.05,-0.00,-0.48,-4.32,39.11,-6.30,0.68,4.46,4.19,-0.42,-0.41
-1,-1,0,-53,-438,3911,-0.05,-0.05,-0.00,-0.53,-4.38,39.11,-6.31,0.70,4.46,4.20,-0.43,-0.41
0,0,-1,-49,-445,3903,-0.04,-0.04,-0.01,-0.49,-4.45,39.03,-6.33,0.70,4.46,4.19,-0.45,-0.33
-1,0,0,-55,-447,3906,-0.05,-0.04,-0.01,-0.55,-4.47,39.06,-6.34,0.71,4.46,4.22,-0.45,-0.41
0,0,-1,-57,-436,3903,-0.04,-0.04,-0.01,-0.57,-4.36,39.03,-6.35,0.72,4.46,4.20,-0.47,-0.33
-1,0,0,-55,-437,3909,-0.04,-0.03,-0.01,-0.55,-4.37,39.09,-6.35,0.74,4.46,4.23,-0.48,-0.41
0,0,0,-47,-433,3909,-0.04,-0.03,-0.01,-0.47,-4.33,39.09,-6.35,0.72,4.46,4.20,-0.47,-0.41
-1,-1,1,-52,-434,3910,-0.04,-0.03,-0.00,-0.52,-4.34,39.10,-6.34,0.74,4.46,4.22,-0.46,-0.49
0,0,1,-48,-440,3905,-0.04,-0.03,0.00,-0.48,-4.40,39.05,-6.36,0.73,4.46,4.21,-0.48,-0.48
-1,-1,0,-50,-442,3897,-0.04,-0.03,0.00,-0.50,-4.42,38.97,-6.37,0.73,4.46,4.24,-0.45,-0.40
-1,0,0,-52,-442,3907,-0.04,-0.03,0.00,-0.52,-4.42,39.07,-6.39,0.74,4.46,4.25,-0.48,-0.40
-1,-1,0,-53,-440,3912,-0.04,-0.03,0.00,-0.53,-4.40,39.12,-6.40,0.75,4.46,4.26,-0.47,-0.40
0,0,0,-55,-435,3912,-0.04,-0.03,0.00,-0.55,-4.35,39.12,-6.39,0.76,4.46,4.23,-0.50,-0.40
0,0,1,-54,-433,3905,-0.04,-0.03,0.01,-0.54,-4.33,39.05,-6.37,0.77,4.46,4.22,-0.50,-0.48
-1,0,1,-62,-440,3901,-0.04,-0.02,0.01,-0.62,-4.40,39.01,-6.38,0.79,4.46,4.24,-0.51,-0.47
-1,-1,1,-56,-438,3895,-0.04,-0.03,0.02,-0.56,-4.38,38.95,-6.39,0.80,4.46,4.25,-0.50,-0.47
-2,-2,2,-41,-439,3920,-0.05,-0.04,0.03,-0.41,-4.39,39.20,-6.39,0.78,4.46,4.27,-0.46,-0.54
-1,-1,1,-45,-436,3905,-0.05,-0.04,0.03,-0.45,-4.36,39.05,-6.39,0.76,4.46,4.25,-0.47,-0.45
-1,0,0,-52,-440,3912,-0.05,-0.04,0.03,-0.52,-4.40,39.12,-6.41,0.76,4.46,4.26,-0.49,-0.37
0,0,-1,-52,-437,3923,-0.05,-0.03,0.02,-0.52,-4.37,39.23,-6.39,0.76,4.46,4.23,-0.49,-0.30
0,-1,-1,-49,-430,3909,-0.04,-0.03,0.01,-0.49,-4.30,39.09,-6.37,0.75,4.46,4.22,-0.47,-0.30
-1,-1,1,-50,-433,3907,-0.04,-0.04,0.02,-0.50,-4.33,39.07,-6.36,0.74,4.46,4.23,-0.46,-0.47
-1,-2,1,-57,-419,3911,-0.04,-0.05,0.02,-0.57,-4.19,39.11,-6.34,0.75,4.46,4.22,-0.44,-0.46
-1,-2,2,-56,-429,3906,-0.05,-0.05,0.03,-0.56,-4.29,39.06,-6.33,0.76,4.46,4.21,-0.45,-0.54
-1,-2,2,-54,-439,3921,-0.05,-0.06,0.04,-0.54,-4.39,39.21,-6.34,0.77,4.46,4.22,-0.45,-0.53
-2,-1,2,-56,-438,3909,-0.06,-0.06,0.05,-0.56,-4.38,39.09,-6.36,0.78,4.46,4.25,-0.48,-0.52
0,-2,1,-48,-431,3905,-0.05,-0.07,0.05,-0.48,-4.31,39.05,-6.35,0.77,4.46,4.20,-0.45,-0.43
0,-2,1,-43,-434,3903,-0.04,-0.07,0.05,-0.43,-4.34,39.03,-6.35,0.75,4.46,4.20,-0.43,-0.43
0,-1,1,-46,-434,3916,-0.04,-0.07,0.05,-0.46,-4.34,39.16,-6.34,0.73,4.46,4.20,-0.44,-0.43
1,-1,1,-45,-423,3929,-0.03,-0.07,0.05,-0.45,-4.23,39.29,-6.33,0.72,4.46,4.16,-0.44,-0.43
0,-2,2,-54,-429,3910,-0.03,-0.08,0.06,-0.54,-4.29,39.10,-6.31,0.73,4.46,4.17,-0.42,-0.51
0,-1,2,-48,-440,3914,-0.02,-0.07,0.07,-0.48,-4.40,39.14,-6.33,0.73,4.46,4.18,-0.44,-0.50
-1,-3,4,-57,-424,3905,-0.03,-0.08,0.08,-0.57,-4.24,39.05,-6.32,0.74,4.46,4.20,-0.40,-0.65
0,-3,4,-61,-424,3900,-0.03,-0.09,0.10,-0.61,-4.24,39.00,-6.30,0.75,4.46,4.17,-0.41,-0.63
-2,-3,24,-75,-394,3904,-0.03,-0.10,0.24,-0.75,-3.94,39.04,-6.29,0.76,4.45,4.20,-0.41,-2.18
-1,-1,28,-58,-426,3914,-0.04,-0.10,0.38,-0.58,-4.26,39.14,-6.28,0.78,4.45,4.17,-0.46,-2.37
2,2,28,-44,-429,3900,-0.02,-0.08,0.52,-0.44,-4.29,39.00,-6.28,0.76,4.45,4.11,-0.52,-2.23
0,1,29,-47,-463,3920,-0.02,-0.06,0.64,-0.47,-4.63,39.20,-6.29,0.75,4.45,4.16,-0.50,-2.18
-1,0,29,-70,-410,3906,-0.02,-0.06,0.75,-0.70,-4.10,39.06,-6.28,0.77,4.45,4.17,-0.49,-2.06
0,1,34,-65,-408,3905,-0.02,-0.05,0.89,-0.65,-4.08,39.05,-6.27,0.78,4.44,4.14,-0.52,-2.34
2,3,54,-77,-407,3911,-0.01,-0.02,1.13,-0.77,-4.07,39.11,-6.25,0.79,4.44,4.09,-0.58,-3.78
2,3,64,-60,-435,3902,0.01,-0.00,1.40,-0.60,-4.35,39.02,-6.27,0.80,4.43,4.09,-0.59,-4.33
-4,1,72,-39,-456,3915,-0.02,0.00,1.70,-0.39,-4.56,39.15,-6.28,0.79,4.42,4.23,-0.54,-4.69
-5,-1,71,-51,-448,3918,-0.05,-0.00,1.97,-0.51,-4.48,39.18,-6.30,0.79,4.42,4.27,-0.50,-4.33
-6,-5,47,-29,-479,3922,-0.08,-0.03,2.06,-0.29,-4.79,39.22,-6.32,0.78,4.41,4.31,-0.41,-2.20
-6,-7,48,-42,-495,3881,-0.11,-0.07,2.14,-0.42,-4.95,38.81,-6.33,0.78,4.40,4.33,-0.35,-2.19
-1,2,180,-54,-607,3907,-0.10,-0.05,3.03,-0.54,-6.07,39.07,-6.35,0.78,4.39,4.24,-0.54,-12.44
0,2,210,-30,-591,3868,-0.09,-0.03,4.01,-0.30,-5.91,38.68,-6.37,0.78,4.37,4.23,-0.55,-13.94
-3,-3,236,-39,-481,3943,-0.10,-0.05,5.04,-0.39,-4.81,39.43,-6.39,0.78,4.35,4.31,-0.44,-15.04
-1,3,238,-56,-465,3886,-0.10,-0.03,5.99,-0.56,-4.65,38.86,-6.41,0.78,4.33,4.28,-0.57,-14.21
-9,3,219,-29,-411,3941,-0.14,-0.01,6.73,-0.29,-4.11,39.41,-6.39,0.77,4.30,4.44,-0.57,-11.82
-4,3,212,-34,-467,3926,-0.15,0.01,7.35,-0.34,-4.67,39.26,-6.41,0.76,4.27,4.35,-0.57,-10.56
-4,2,222,-66,-391,3888,-0.16,0.02,7.97,-0.66,-3.91,38.88,-6.39,0.77,4.24,4.34,-0.56,-10.75
-4,7,221,-74,-401,3891,-0.17,0.06,8.52,-0.74,-4.01,38.91,-6.38,0.79,4.21,4.34,-0.68,-10.08
-3,9,231,-81,-421,3908,-0.17,0.11,9.08,-0.81,-4.21,39.08,-6.37,0.81,4.17,4.31,-0.75,-10.34
-8,-1,227,-44,-435,3979,-0.20,0.10,9.55,-0.44,-4.35,39.79,-6.36,0.80,4.13,4.41,-0.53,-9.49
-6,8,222,-64,-422,3935,-0.22,0.13,9.95,-0.64,-4.22,39.35,-6.34,0.81,4.09,4.37,-0.73,-8.64
-5,0,213,-42,-407,3965,-0.23,0.12,10.26,-0.42,-4.07,39.65,-6.32,0.81,4.05,4.34,-0.57,-7.55
-6,-3,198,-59,-408,3925,-0.24,0.09,10.44,-0.59,-4.08,39.25,-6.31,0.82,4.01,4.35,-0.50,-6.08
0,5,206,-82,-438,3860,-0.22,0.11,10.65,-0.82,-4.38,38.60,-6.31,0.84,3.97,4.23,-0.68,-6.53
-5,7,244,-44,-443,3961,-0.23,0.14,11.07,-0.44,-4.43,39.61,-6.32,0.83,3.93,4.33,-0.73,-9.30
-11,-6,252,-72,-402,3917,-0.27,0.09,11.50,-0.72,-4.02,39.17,-6.30,0.84,3.88,4.46,-0.46,-9.52
-10,5,262,-69,-455,3938,-0.30,0.11,11.95,-0.69,-4.55,39.38,-6.32,0.85,3.83,4.46,-0.70,-9.89
-3,10,265,-75,-401,3918,-0.29,0.16,12.37,-0.75,-4.01,39.18,-6.30,0.87,3.78,4.30,-0.82,-9.69
-4,7,275,-85,-419,3915,-0.29,0.19,12.81,-0.85,-4.19,39.15,-6.30,0.89,3.73,4.32,-0.78,-10.07
-3,5,277,-46,-431,3907,-0.28,0.20,13.22,-0.46,-4.31,39.07,-6.30,0.88,3.68,4.29,-0.74,-9.80
-9,13,283,-33,-429,3921,-0.30,0.26,13.63,-0.33,-4.29,39.21,-6.29,0.87,3.63,4.42,-0.91,-9.87
-5,12,270,-51,-395,3928,-0.30,0.31,13.91,-0.51,-3.95,39.28,-6.28,0.87,3.57,4.33,-0.90,-8.47
-3,14,268,-37,-454,3946,-0.29,0.36,14.15,-0.37,-4.54,39.46,-6.29,0.86,3.51,4.29,-0.95,-8.03
-8,14,291,-79,-491,3918,-0.31,0.41,14.51,-0.79,-4.91,39.18,-6.31,0.88,3.46,4.41,-0.98,-9.60
-7,0,336,-38,-408,3998,-0.32,0.37,15.11,-0.38,-4.08,39.98,-6.29,0.88,3.40,4.38,-0.68,-12.77
-8,5,355,-42,-427,3914,-0.34,0.36,15.77,-0.42,-4.27,39.14,-6.29,0.87,3.33,4.41,-0.77,-13.68
-10,14,387,-119,-429,3902,-0.37,0.41,16.55,-1.19,-4.29,39.02,-6.29,0.89,3.27,4.45,-0.99,-15.56
-2,8,395,-41,-396,3921,-0.34,0.42,17.30,-0.41,-3.96,39.21,-6.27,0.89,3.20,4.27,-0.87,-15.43
-4,18,492,-46,-532,3913,-0.33,0.49,18.58,-0.46,-5.32,39.13,-6.29,0.90,3.13,4.32,-1.09,-20.00
-13,18,518,-36,-481,3877,-0.38,0.55,19.88,-0.36,-4.81,38.77,-6.31,0.90,3.05,4.53,-1.11,-20.00
5,16,409,-39,-518,3881,-0.31,0.59,20.38,-0.39,-5.18,38.81,-6.33,0.91,2.97,4.16,-1.09,-13.33
-1,14,390,-10,-524,3930,-0.29,0.62,20.73,-0.10,-5.24,39.30,-6.34,0.91,2.88,4.28,-1.06,-11.36
-12,8,339,-33,-407,3912,-0.33,0.61,20.72,-0.33,-4.07,39.12,-6.33,0.91,2.80,4.51,-0.93,-7.03
-8,10,326,-44,-409,3899,-0.35,0.61,20.64,-0.44,-4.09,38.99,-6.31,0.91,2.72,4.42,-0.97,-6.01
-4,22,329,-28,-467,3855,-0.34,0.68,20.58,-0.28,-4.67,38.55,-6.33,0.91,2.64,4.35,-1.23,-6.32
6,10,309,-39,-457,3882,-0.27,0.67,20.41,-0.39,-4.57,38.82,-6.34,0.91,2.56,4.14,-0.99,-4.80
-3,3,280,-55,-472,3903,-0.26,0.62,20.07,-0.55,-4.72,39.03,-6.36,0.92,2.48,4.33,-0.84,-2.69
-3,-3,276,-13,-421,3911,-0.25,0.54,19.75,-0.13,-4.21,39.11,-6.35,0.91,2.40,4.32,-0.69,-2.69
-9,2,280,-28,-512,3937,-0.28,0.50,19.48,-0.28,-5.12,39.37,-6.37,0.91,2.32,4.46,-0.78,-3.30
-8,4,288,-1,-469,3903,-0.30,0.47,19.29,-0.01,-4.69,39.03,-6.38,0.91,2.25,4.45,-0.81,-4.17
-5,7,280,-55,-447,3878,-0.30,0.47,19.07,-0.55,-4.47,38.78,-6.40,0.91,2.17,4.40,-0.87,-3.72
-6,5,281,-23,-434,3914,-0.31,0.45,18.88,-0.23,-4.34,39.14,-6.39,0.90,2.10,4.43,-0.82,-4.01
-5,7,291,-49,-485,3837,-0.31,0.45,18.77,-0.49,-4.85,38.37,-6.41,0.91,2.02,4.42,-0.87,-4.97
-5,12,302,-45,-553,3923,-0.31,0.48,18.73,-0.45,-5.53,39.23,-6.43,0.92,1.95,4.43,-0.98,-5.93
-7,6,288,-68,-431,3948,-0.32,0.47,18.61,-0.68,-4.31,39.48,-6.41,0.93,1.88,4.46,-0.86,-4.86
1,10,288,-50,-418,3842,-0.28,0.48,18.51,-0.50,-4.18,38.42,-6.40,0.93,1.80,4.28,-0.95,-4.96
0,14,274,-29,-494,3837,-0.25,0.52,18.33,-0.29,-4.94,38.37,-6.41,0.93,1.73,4.30,-1.04,-3.96
-12,3,268,-28,-414,4008,-0.30,0.49,18.13,-0.28,-4.14,40.08,-6.40,0.93,1.66,4.55,-0.81,-3.65
-3,6,228,-54,-398,3898,-0.29,0.47,17.71,-0.54,-3.98,38.98,-6.38,0.93,1.59,4.35,-0.87,-0.71
2,11,230,-88,-466,3920,-0.25,0.49,17.34,-0.88,-4.66,39.20,-6.40,0.96,1.52,4.25,-0.99,-1.26
-5,8,267,-67,-456,3916,-0.25,0.49,17.24,-0.67,-4.56,39.16,-6.42,0.97,1.45,4.41,-0.94,-4.50
0,9,277,-55,-463,3926,-0.23,0.50,17.20,-0.55,-4.63,39.26,-6.43,0.97,1.38,4.31,-0.96,-5.38
-6,10,331,-45,-536,3839,-0.24,0.51,17.50,-0.45,-5.36,38.39,-6.45,0.97,1.31,4.44,-0.99,-9.63
8,13,338,-45,-455,3960,-0.17,0.54,17.81,-0.45,-4.55,39.60,-6.45,0.97,1.24,4.14,-1.05,-9.89
-10,2,359,-36,-427,3971,-0.21,0.50,18.22,-0.36,-4.27,39.71,-6.44,0.96,1.17,4.51,-0.81,-11.23
-4,12,346,-51,-363,3865,-0.22,0.52,18.51,-0.51,-3.63,38.65,-6.43,0.97,1.10,4.38,-1.03,-9.81
1,3,242,-92,-221,3863,-0.19,0.49,18.14,-0.92,-2.21,38.63,-6.41,0.98,1.02,4.26,-0.84,-1.39
-8,-2,191,-74,-179,3896,-0.22,0.43,17.49,-0.74,-1.79,38.96,-6.39,0.99,0.95,4.44,-0.73,2.25
-1,-3,43,-36,-351,3903,-0.20,0.36,16.00,-0.36,-3.51,39.03,-6.37,0.99,0.89,4.28,-0.69,13.22
0,-3,24,-21,-404,3889,-0.18,0.31,14.55,-0.21,-4.04,38.89,-6.36,0.99,0.83,4.25,-0.67,13.30
0,-5,6,-37,-458,3912,-0.16,0.25,13.13,-0.37,-4.58,39.12,-6.37,0.98,0.78,4.25,-0.61,13.32
0,-6,4,-45,-444,3923,-0.15,0.19,11.84,-0.45,-4.44,39.23,-6.38,0.97,0.73,4.25,-0.57,12.13
-2,-3,13,-14,-487,3915,-0.15,0.15,10.74,-0.14,-4.87,39.15,-6.39,0.96,0.69,4.30,-0.61,10.20
-3,-2,19,-25,-471,3916,-0.15,0.12,9.78,-0.25,-4.71,39.16,-6.40,0.95,0.65,4.32,-0.62,8.69
-3,-6,33,-57,-446,3953,-0.15,0.07,9.00,-0.57,-4.46,39.53,-6.40,0.93,0.62,4.33,-0.52,6.68
-1,-4,43,-52,-496,3885,-0.14,0.04,8.36,-0.52,-4.96,38.85,-6.42,0.94,0.58,4.30,-0.55,5.16
-2,7,111,-45,-517,3902,-0.14,0.08,8.20,-0.45,-5.17,39.02,-6.44,0.93,0.55,4.33,-0.78,-0.77
-6,-4,118,-29,-477,3972,-0.16,0.05,8.10,-0.29,-4.77,39.72,-6.45,0.92,0.52,4.42,-0.54,-1.46
0,5,157,-43,-455,3905,-0.15,0.07,8.25,-0.43,-4.55,39.05,-6.46,0.91,0.49,4.30,-0.72,-4.61
-3,-1,156,-35,-456,3943,-0.15,0.06,8.38,-0.35,-4.56,39.43,-6.47,0.90,0.45,4.37,-0.59,-4.39
4,0,172,-21,-491,3968,-0.11,0.05,8.59,-0.21,-4.91,39.68,-6.48,0.89,0.42,4.23,-0.60,-5.52
-1,-2,183,-29,-532,3868,-0.11,0.04,8.85,-0.29,-5.32,38.68,-6.50,0.89,0.39,4.34,-0.56,-6.17
-1,-4,167,-69,-340,3857,-0.10,0.01,8.98,-0.69,-3.40,38.57,-6.48,0.89,0.35,4.32,-0.51,-4.67
5,2,149,-104,-331,3930,-0.06,0.02,8.99,-1.04,-3.31,39.30,-6.46,0.91,0.31,4.18,-0.64,-3.13
0,4,105,-62,-373,3910,-0.05,0.04,8.73,-0.62,-3.73,39.10,-6.44,0.91,0.28,4.27,-0.69,0.33
-3,-2,88,-75,-305,4006,-0.07,0.03,8.40,-0.75,-3.05,40.06,-6.42,0.91,0.25,4.32,-0.57,1.41
0,-1,21,-49,-397,3896,-0.06,0.02,7.68,-0.49,-3.97,38.96,-6.41,0.91,0.21,4.25,-0.59,6.34
-1,0,15,-37,-429,3934,-0.06,0.02,7.01,-0.37,-4.29,39.34,-6.40,0.90,0.19,4.26,-0.60,6.13
4,2,7,-53,-415,3891,-0.03,0.03,6.35,-0.53,-4.15,38.91,-6.38,0.90,0.16,4.14,-0.64,6.12
3,3,5,-40,-448,3894,-0.01,0.04,5.75,-0.40,-4.48,38.94,-6.39,0.88,0.14,4.16,-0.65,5.65
3,2,-5,-40,-441,3918,0.01,0.05,5.14,-0.40,-4.41,39.18,-6.39,0.87,0.12,4.15,-0.63,5.86
4,4,-11,-46,-446,3903,0.03,0.07,4.56,-0.46,-4.46,39.03,-6.40,0.85,0.10,4.13,-0.66,5.75
-5,6,-60,-67,-310,3973,-0.00,0.10,3.74,-0.67,-3.10,39.73,-6.38,0.86,0.08,4.31,-0.71,9.03
5,4,-86,-64,-272,3913,0.03,0.11,2.84,-0.64,-2.72,39.13,-6.36,0.86,0.07,4.09,-0.68,10.29
14,1,-238,139,-437,3896,0.11,0.11,1.10,1.39,-4.37,38.96,-6.36,0.84,0.07,3.89,-0.61,20.00
7,9,-253,-54,-410,3967,0.14,0.15,-0.55,-0.54,-4.10,39.67,-6.35,0.84,0.07,4.01,-0.78,20.00
-1,7,-264,-78,-561,3865,0.12,0.18,-2.11,-0.78,-5.61,38.65,-6.36,0.84,0.08,4.19,-0.75,20.00
5,-4,-250,-3,-467,3992,0.14,0.14,-3.42,-0.03,-4.67,39.92,-6.37,0.82,0.09,4.06,-0.50,17.55
-1,3,-85,-104,-550,3948,0.12,0.14,-3.60,-1.04,-5.50,39.48,-6.39,0.83,0.11,4.20,-0.65,3.38
0,4,-47,-82,-469,3904,0.11,0.15,-3.52,-0.82,-4.69,39.04,-6.40,0.84,0.12,4.19,-0.68,0.24
-4,7,1,-53,-466,3908,0.07,0.18,-3.17,-0.53,-4.66,39.08,-6.42,0.84,0.14,4.30,-0.74,-3.45
-5,12,11,-54,-464,3915,0.04,0.23,-2.78,-0.54,-4.64,39.15,-6.44,0.83,0.15,4.34,-0.86,-3.89
0,5,30,-55,-433,3900,0.03,0.24,-2.32,-0.55,-4.33,39.00,-6.42,0.83,0.16,4.23,-0.71,-5.01
2,9,32,-52,-440,3902,0.04,0.27,-1.89,-0.52,-4.40,39.02,-6.42,0.81,0.16,4.19,-0.79,-4.73
-2,5,73,-38,-520,3896,0.03,0.28,-1.26,-0.38,-5.20,38.96,-6.44,0.81,0.17,4.28,-0.71,-7.53
-1,-4,82,-3,-460,3941,0.02,0.22,-0.63,-0.03,-4.60,39.41,-6.45,0.79,0.17,4.27,-0.50,-7.63
-2,-1,60,-43,-428,3914,0.00,0.20,-0.20,-0.43,-4.28,39.14,-6.43,0.78,0.17,4.28,-0.55,-5.31
-1,-2,55,-48,-445,3904,-0.00,0.16,0.15,-0.48,-4.45,39.04,-6.44,0.77,0.17,4.27,-0.51,-4.51
-1,-2,78,-50,-501,3878,-0.01,0.14,0.61,-0.50,-5.01,38.78,-6.46,0.77,0.17,4.29,-0.50,-5.97
0,-4,96,-39,-524,3914,-0.01,0.10,1.14,-0.39,-5.24,39.14,-6.48,0.76,0.17,4.28,-0.45,-6.94
3,4,176,-59,-518,3906,0.01,0.11,2.10,-0.59,-5.18,39.06,-6.50,0.77,0.16,4.22,-0.62,-12.70
-13,-4,208,-54,-507,3947,-0.07,0.08,3.16,-0.54,-5.07,39.47,-6.52,0.77,0.15,4.58,-0.45,-14.29
-4,3,268,-62,-459,3875,-0.09,0.09,4.48,-0.62,-4.59,38.75,-6.53,0.78,0.13,4.42,-0.60,-17.98
-7,8,287,-65,-525,3830,-0.12,0.13,5.78,-0.65,-5.25,38.30,-6.55,0.79,0.11,4.50,-0.72,-18.21
-6,5,323,-47,-502,3791,-0.15,0.14,7.17,-0.47,-5.02,37.91,-6.57,0.79,0.08,4.50,-0.66,-19.78
-13,-2,332,-24,-530,4010,-0.21,0.12,8.48,-0.24,-5.30,40.10,-6.59,0.79,0.04,4.67,-0.51,-19.15
-13,4,379,-39,-552,3938,-0.27,0.13,9.94,-0.39,-5.52,39.38,-6.60,0.79,0.00,4.70,-0.64,-20.00
-6,6,396,-27,-470,3847,-0.28,0.15,11.36,-0.27,-4.70,38.47,-6.62,0.78,-0.04,4.56,-0.68,-20.00
-8,3,433,-45,-465,3889,-0.30,0.16,12.87,-0.45,-4.65,38.89,-6.63,0.78,-0.09,4.62,-0.62,-20.00
-6,6,430,-53,-457,3964,-0.31,0.18,14.21,-0.53,-4.57,39.64,-6.62,0.78,-0.15,4.57,-0.69,-20.00
7,11,431,-44,-479,3860,-0.23,0.23,15.41,-0.44,-4.79,38.60,-6.63,0.78,-0.21,4.30,-0.80,-20.00
0,10,431,-11,-469,3958,-0.21,0.27,16.50,-0.11,-4.69,39.58,-6.64,0.77,-0.27,4.44,-0.79,-19.02
-13,5,403,-73,-363,3953,-0.27,0.27,17.31,-0.73,-3.63,39.53,-6.62,0.79,-0.34,4.71,-0.69,-15.78
-17,9,386,-109,-399,3831,-0.34,0.30,17.93,-1.09,-3.99,38.31,-6.61,0.81,-0.41,4.80,-0.80,-13.68
7,15,354,-43,-426,3882,-0.27,0.36,18.30,-0.43,-4.26,38.82,-6.59,0.81,-0.49,4.28,-0.94,-10.57
-5,7,345,-17,-499,3913,-0.27,0.37,18.57,-0.17,-4.99,39.13,-6.61,0.81,-0.56,4.54,-0.78,-9.51
-14,2,345,7,-448,3924,-0.33,0.34,18.82,0.07,-4.48,39.24,-6.60,0.80,-0.64,4.73,-0.66,-9.24
-10,-2,332,-40,-404,3914,-0.36,0.30,18.96,-0.40,-4.04,39.14,-6.59,0.81,-0.71,4.65,-0.57,-7.98
-1,15,209,54,-448,3910,-0.33,0.36,18.34,0.54,-4.48,39.10,-6.59,0.80,-0.78,4.46,-0.93,1.79
1,-4,176,31,-447,4073,-0.29,0.30,17.58,0.31,-4.47,40.73,-6.58,0.79,-0.85,4.40,-0.52,3.78
-3,-2,112,-14,-377,4039,-0.28,0.26,16.51,-0.14,-3.77,40.39,-6.57,0.79,-0.92,4.47,-0.55,8.07
3,-2,96,-69,-274,3951,-0.23,0.22,15.44,-0.69,-2.74,39.51,-6.55,0.80,-0.98,4.32,-0.55,8.31
0,-37,-44,-137,-219,3923,-0.21,-0.03,13.63,-1.37,-2.19,39.23,-6.53,0.81,-1.04,4.37,0.23,18.25
2,-32,-71,-81,-300,3833,-0.18,-0.22,11.83,-0.81,-3.00,38.33,-6.51,0.82,-1.08,4.31,0.17,18.64
-4,-14,-69,-68,-428,3888,-0.18,-0.29,10.23,-0.68,-4.28,38.88,-6.50,0.83,-1.12,4.42,-0.19,16.78
-4,-10,-43,-87,-435,3923,-0.19,-0.32,8.94,-0.87,-4.35,39.23,-6.49,0.85,-1.16,4.42,-0.27,13.22
-5,-7,-12,-55,-452,3899,-0.20,-0.33,7.98,-0.55,-4.52,38.99,-6.51,0.85,-1.19,4.45,-0.33,9.57
-4,-7,-11,-54,-470,3892,-0.20,-0.34,7.11,-0.54,-4.70,38.92,-6.53,0.85,-1.22,4.45,-0.32,8.57
-2,-3,-15,-27,-536,3899,-0.20,-0.32,6.31,-0.27,-5.36,38.99,-6.55,0.84,-1.24,4.41,-0.41,8.06
-3,-3,-18,-10,-537,3928,-0.20,-0.31,5.57,-0.10,-5.37,39.28,-6.56,0.84,-1.27,4.45,-0.41,7.54
-7,-8,-28,-10,-510,3900,-0.22,-0.33,4.84,-0.10,-5.10,39.00,-6.58,0.83,-1.29,4.54,-0.29,7.61
-10,-8,-32,3,-553,3861,-0.26,-0.34,4.16,0.03,-5.53,38.61,-6.59,0.82,-1.30,4.63,-0.28,7.23
-6,-11,0,4,-607,3869,-0.27,-0.38,3.75,0.04,-6.07,38.69,-6.61,0.81,-1.32,4.56,-0.21,4.08
-7,-4,30,-11,-551,3867,-0.28,-0.36,3.55,-0.11,-5.51,38.67,-6.63,0.80,-1.33,4.60,-0.35,1.34
-1,-1,131,-28,-599,3871,-0.26,-0.33,4.00,-0.28,-5.99,38.71,-6.65,0.80,-1.35,4.48,-0.42,-6.74
-5,5,174,-23,-618,3866,-0.27,-0.27,4.66,-0.23,-6.18,38.66,-6.67,0.80,-1.36,4.57,-0.56,-9.69
2,-1,248,2,-592,3837,-0.23,-0.25,5.71,0.02,-5.92,38.37,-6.68,0.79,-1.39,4.43,-0.44,-14.84
-12,1,261,-14,-508,3974,-0.28,-0.22,6.73,-0.14,-5.08,39.74,-6.70,0.78,-1.41,4.74,-0.48,-14.86
0,-9,322,-33,-464,3991,-0.25,-0.25,8.02,-0.33,-4.64,39.91,-6.69,0.77,-1.45,4.49,-0.26,-18.66
-14,-7,331,-51,-461,3884,-0.31,-0.27,9.24,-0.51,-4.61,38.84,-6.71,0.77,-1.48,4.80,-0.29,-18.13
-8,-8,356,-16,-375,3945,-0.33,-0.29,10.48,-0.16,-3.75,39.45,-6.70,0.76,-1.52,4.67,-0.26,-18.92
-6,-1,349,-46,-370,3844,-0.33,-0.27,11.56,-0.46,-3.70,38.44,-6.68,0.77,-1.57,4.62,-0.41,-17.18
-6,-2,320,-43,-438,3842,-0.34,-0.25,12.36,-0.43,-4.38,38.42,-6.67,0.76,-1.62,4.61,-0.39,-13.88
-14,-1,325,-43,-418,3918,-0.39,-0.23,13.11,-0.43,-4.18,39.18,-6.65,0.76,-1.67,4.78,-0.42,-13.51
-4,9,297,-44,-448,3885,-0.37,-0.16,13.61,-0.44,-4.48,38.85,-6.64,0.75,-1.73,4.57,-0.64,-10.60
-10,4,295,-69,-432,3844,-0.40,-0.12,14.05,-0.69,-4.32,38.44,-6.63,0.77,-1.78,4.69,-0.56,-9.96
-5,1,284,-74,-410,3761,-0.39,-0.10,14.37,-0.74,-4.10,37.61,-6.62,0.79,-1.84,4.57,-0.51,-8.67
-1,2,281,-34,-369,4015,-0.35,-0.08,14.65,-0.34,-3.69,40.15,-6.60,0.79,-1.90,4.47,-0.54,-8.12
-15,-2,254,-93,-334,3913,-0.41,-0.08,14.74,-0.93,-3.34,39.13,-6.58,0.80,-1.96,4.76,-0.47,-5.74
-1,1,239,-51,-350,3983,-0.38,-0.07,14.72,-0.51,-3.50,39.83,-6.56,0.81,-2.02,4.46,-0.54,-4.48
-10,0,208,-52,-305,4062,-0.40,-0.06,14.52,-0.52,-3.05,40.62,-6.55,0.82,-2.07,4.63,-0.52,-2.06
-4,-14,194,-49,-328,3960,-0.38,-0.14,14.25,-0.49,-3.28,39.60,-6.53,0.82,-2.13,4.50,-0.22,-1.16
3,9,176,-77,-417,3887,-0.33,-0.07,13.90,-0.77,-4.17,38.87,-6.52,0.84,-2.19,4.33,-0.72,0.00
-8,7,172,-104,-363,3912,-0.34,-0.02,13.56,-1.04,-3.63,39.12,-6.50,0.85,-2.24,4.55,-0.70,-0.02
-6,2,126,-31,-434,3924,-0.35,-0.01,12.97,-0.31,-4.34,39.24,-6.49,0.84,-2.29,4.50,-0.59,3.26
-1,4,113,-23,-462,3896,-0.32,0.02,12.36,-0.23,-4.62,38.96,-6.50,0.83,-2.34,4.40,-0.63,3.73
-5,-1,99,-93,-376,3927,-0.32,0.01,11.73,-0.93,-3.76,39.27,-6.49,0.84,-2.39,4.47,-0.54,4.25
-8,-3,89,-96,-333,3898,-0.33,-0.01,11.10,-0.96,-3.33,38.98,-6.47,0.86,-2.43,4.52,-0.50,4.43
4,3,20,-52,-385,3921,-0.28,0.01,10.11,-0.52,-3.85,39.21,-6.45,0.86,-2.47,4.25,-0.63,9.24
1,3,12,-42,-434,3895,-0.24,0.03,9.17,-0.42,-4.34,38.95,-6.45,0.85,-2.51,4.30,-0.63,8.92
1,2,2,-35,-455,3903,-0.21,0.04,8.27,-0.35,-4.55,39.03,-6.46,0.83,-2.54,4.30,-0.60,8.81
-2,2,4,-42,-448,3912,-0.20,0.05,7.47,-0.42,-4.48,39.12,-6.46,0.82,-2.57,4.36,-0.59,7.80
-1,1,3,-36,-442,3908,-0.19,0.05,6.74,-0.36,-4.42,39.08,-6.46,0.80,-2.60,4.34,-0.56,7.11
0,2,4,-18,-454,3909,-0.17,0.05,6.09,-0.18,-4.54,39.09,-6.47,0.79,-2.62,4.32,-0.58,6.34
1,1,1,-30,-460,3908,-0.15,0.06,5.49,-0.30,-4.60,39.08,-6.48,0.78,-2.64,4.30,-0.55,5.96
1,0,1,-39,-456,3908,-0.13,0.05,4.94,-0.39,-4.56,39.08,-6.49,0.77,-2.66,4.30,-0.52,5.39
0,1,2,-39,-457,3903,-0.11,0.05,4.46,-0.39,-4.57,39.03,-6.50,0.75,-2.68,4.32,-0.53,4.80
1,2,2,-38,-462,3902,-0.10,0.06,4.03,-0.38,-4.62,39.02,-6.52,0.75,-2.70,4.31,-0.55,4.34
0,2,1,-33,-451,3898,-0.09,0.06,3.63,-0.33,-4.51,38.98,-6.52,0.73,-2.71,4.33,-0.54,4.00
-1,2,0,-32,-452,3912,-0.08,0.07,3.27,-0.32,-4.52,39.12,-6.53,0.71,-2.72,4.35,-0.53,3.71
0,2,0,-30,-451,3915,-0.08,0.08,2.94,-0.30,-4.51,39.15,-6.53,0.70,-2.74,4.33,-0.52,3.36
0,1,0,-27,-450,3916,-0.07,0.07,2.65,-0.27,-4.50,39.16,-6.53,0.68,-2.75,4.33,-0.49,3.05
1,1,2,-26,-454,3890,-0.05,0.07,2.39,-0.26,-4.54,38.90,-6.54,0.67,-2.76,4.31,-0.48,2.61
0,1,1,-29,-452,3893,-0.05,0.07,2.16,-0.29,-4.52,38.93,-6.55,0.65,-2.76,4.33,-0.47,2.45
0,1,1,-30,-458,3899,-0.04,0.07,1.95,-0.30,-4.58,38.99,-6.56,0.64,-2.77,4.34,-0.46,2.23
1,1,-1,-37,-448,3892,-0.03,0.07,1.75,-0.37,-4.48,38.92,-6.56,0.62,-2.78,4.32,-0.45,2.19
1,0,-1,-37,-459,3912,-0.02,0.06,1.57,-0.37,-4.59,39.12,-6.57,0.61,-2.79,4.33,-0.42,2.00
0,0,-2,-42,-456,3918,-0.02,0.06,1.40,-0.42,-4.56,39.18,-6.59,0.61,-2.79,4.36,-0.42,1.90
0,0,-2,-32,-452,3904,-0.02,0.05,1.25,-0.32,-4.52,39.04,-6.59,0.59,-2.80,4.36,-0.41,1.74
0,0,-1,-28,-451,3910,-0.02,0.05,1.12,-0.28,-4.51,39.10,-6.59,0.58,-2.80,4.36,-0.39,1.52
5,2,2,-34,-480,3891,0.01,0.05,1.02,-0.34,-4.80,38.91,-6.61,0.57,-2.80,4.26,-0.43,1.16
2,3,8,-16,-492,3914,0.03,0.07,0.96,-0.16,-4.92,39.14,-6.63,0.56,-2.81,4.33,-0.45,0.60
2,4,29,-21,-497,3926,0.03,0.08,1.04,-0.21,-4.97,39.26,-6.64,0.56,-2.81,4.33,-0.47,-1.10
0,0,35,-19,-500,3909,0.03,0.08,1.15,-0.19,-5.00,39.09,-6.66,0.55,-2.82,4.39,-0.38,-1.49
-1,2,70,-28,-538,3899,0.02,0.08,1.47,-0.28,-5.38,38.99,-6.68,0.55,-2.82,4.42,-0.43,-4.13
-1,6,93,-5,-522,3938,0.01,0.11,1.89,-0.05,-5.22,39.38,-6.69,0.54,-2.83,4.43,-0.51,-5.63
-1,8,106,-32,-460,3910,0.01,0.15,2.34,-0.32,-4.60,39.10,-6.70,0.53,-2.84,4.44,-0.55,-6.24
2,8,107,-41,-454,3875,0.02,0.18,2.76,-0.41,-4.54,38.75,-6.69,0.55,-2.85,4.37,-0.57,-5.88
3,5,94,-57,-394,3857,0.03,0.19,3.06,-0.57,-3.94,38.57,-6.68,0.55,-2.86,4.34,-0.52,-4.47
2,7,83,-53,-380,3907,0.04,0.22,3.26,-0.53,-3.80,39.07,-6.66,0.56,-2.87,4.34,-0.57,-3.32
1,6,65,-48,-473,3920,0.04,0.23,3.33,-0.48,-4.73,39.20,-6.67,0.57,-2.89,4.37,-0.56,-1.72
2,0,68,-26,-449,3941,0.05,0.21,3.41,-0.26,-4.49,39.41,-6.66,0.56,-2.90,4.34,-0.43,-1.89
0,1,67,-17,-452,3974,0.05,0.19,3.48,-0.17,-4.52,39.74,-6.65,0.55,-2.91,4.38,-0.43,-1.73
-1,2,67,-27,-466,3876,0.04,0.19,3.54,-0.27,-4.66,38.76,-6.67,0.54,-2.93,4.41,-0.45,-1.66
-3,3,84,-44,-441,3930,0.01,0.19,3.70,-0.44,-4.41,39.30,-6.65,0.55,-2.94,4.44,-0.47,-2.94
-1,4,74,-45,-399,3914,0.01,0.19,3.78,-0.45,-3.99,39.14,-6.63,0.55,-2.96,4.39,-0.50,-2.00
-2,3,49,-29,-428,3927,-0.01,0.19,3.70,-0.29,-4.28,39.27,-6.61,0.55,-2.97,4.41,-0.48,0.04
0,6,45,-32,-444,3898,-0.01,0.21,3.61,-0.32,-4.44,38.98,-6.60,0.54,-2.99,4.36,-0.54,0.27
-13,2,39,-51,-353,4000,-0.08,0.20,3.48,-0.51,-3.53,40.00,-6.58,0.55,-3.00,4.63,-0.46,0.65
-3,-2,14,-78,-340,3901,-0.09,0.17,3.22,-0.78,-3.40,39.01,-6.56,0.55,-3.01,4.42,-0.37,2.49
-6,4,8,-38,-427,3944,-0.12,0.18,2.95,-0.38,-4.27,39.44,-6.55,0.56,-3.03,4.47,-0.50,2.71
-2,3,3,-51,-418,3888,-0.12,0.18,2.67,-0.51,-4.18,38.88,-6.53,0.57,-3.04,4.38,-0.48,2.85
2,1,-1,-44,-378,3870,-0.10,0.16,2.40,-0.44,-3.78,38.70,-6.51,0.57,-3.05,4.28,-0.44,2.90
-3,0,-9,-73,-317,3882,-0.11,0.15,2.10,-0.73,-3.17,38.82,-6.49,0.58,-3.05,4.38,-0.42,3.26
-6,33,-54,-63,-453,3965,-0.13,0.33,1.56,-0.63,-4.53,39.65,-6.50,0.60,-3.06,4.45,-1.16,6.51
-2,26,-74,-60,-356,3916,-0.13,0.46,0.96,-0.60,-3.56,39.16,-6.48,0.60,-3.06,4.35,-1.05,7.56
-1,15,-118,-74,-410,3935,-0.12,0.51,0.14,-0.74,-4.10,39.35,-6.47,0.62,-3.07,4.32,-0.85,10.42
3,12,-117,-69,-416,3909,-0.09,0.53,-0.59,-0.69,-4.16,39.09,-6.45,0.63,-3.06,4.22,-0.80,9.57
7,-3,-83,24,-567,3936,-0.04,0.46,-1.04,0.24,-5.67,39.36,-6.47,0.62,-3.06,4.14,-0.47,6.21
12,-3,-64,48,-495,3900,0.04,0.39,-1.32,0.48,-4.95,39.00,-6.48,0.61,-3.05,4.02,-0.45,4.30
5,-13,-14,-8,-574,3863,0.06,0.27,-1.28,-0.08,-5.74,38.63,-6.50,0.60,-3.05,4.17,-0.21,0.11
0,-19,0,-25,-615,3879,0.06,0.13,-1.15,-0.25,-6.15,38.79,-6.51,0.60,-3.04,4.28,-0.05,-0.94
-4,16,38,-14,-542,3856,0.03,0.22,-0.80,-0.14,-5.42,38.56,-6.53,0.60,-3.04,4.38,-0.78,-3.79
-4,38,48,-31,-515,3860,-0.00,0.43,-0.43,-0.31,-5.15,38.60,-6.55,0.60,-3.04,4.40,-1.28,-4.25
2,86,128,-39,-585,3895,0.01,0.91,0.40,-0.39,-5.85,38.95,-6.57,0.60,-3.04,4.29,-2.39,-10.15
1,42,159,-82,-399,3936,0.02,1.07,1.33,-0.82,-3.99,39.36,-6.55,0.62,-3.04,4.30,-1.55,-11.79
7,18,96,-67,-380,3906,0.06,1.08,1.78,-0.67,-3.80,39.06,-6.53,0.63,-3.05,4.15,-1.07,-5.98
7,17,90,-58,-423,3902,0.09,1.07,2.15,-0.58,-4.23,39.02,-6.52,0.64,-3.06,4.13,-1.06,-5.07
5,18,50,-50,-420,3926,0.12,1.07,2.24,-0.50,-4.20,39.26,-6.50,0.65,-3.07,4.16,-1.09,-1.59
5,19,32,-50,-434,3912,0.13,1.08,2.21,-0.50,-4.34,39.12,-6.48,0.66,-3.07,4.14,-1.12,-0.09
-1,19,25,-108,-411,3897,0.12,1.09,2.14,-1.08,-4.11,38.97,-6.47,0.69,-3.08,4.26,-1.14,0.43
-1,16,28,-105,-403,3905,0.10,1.08,2.10,-1.05,-4.03,39.05,-6.46,0.71,-3.09,4.26,-1.09,0.13
-7,14,20,-198,-441,3902,0.05,1.06,2.01,-1.98,-4.41,39.02,-6.46,0.73,-3.10,4.40,-1.05,0.71
-6,14,28,-224,-454,3924,0.00,1.04,1.98,-2.24,-4.54,39.24,-6.46,0.75,-3.11,4.39,-1.06,0.00
-13,18,67,-143,-499,3945,-0.08,1.04,2.19,-1.43,-4.99,39.45,-6.47,0.77,-3.11,4.56,-1.16,-3.08
-12,19,110,-131,-550,3918,-0.14,1.05,2.64,-1.31,-5.50,39.18,-6.49,0.79,-3.12,4.56,-1.20,-6.24
-1,21,127,234,-522,3849,-0.13,1.08,3.15,2.34,-5.22,38.49,-6.49,0.78,-3.14,4.34,-1.23,-7.14
0,14,135,22,-499,3945,-0.12,1.05,3.66,0.22,-4.99,39.45,-6.50,0.77,-3.15,4.33,-1.08,-7.28
-11,23,177,-86,-520,3897,-0.18,1.09,4.38,-0.86,-5.20,38.97,-6.52,0.78,-3.17,4.58,-1.28,-10.08
-8,2,200,-44,-387,3973,-0.21,0.99,5.16,-0.44,-3.87,39.73,-6.50,0.79,-3.19,4.51,-0.83,-11.20
-1,-3,148,70,-353,3906,-0.19,0.88,5.54,0.70,-3.53,39.06,-6.49,0.78,-3.21,4.36,-0.69,-6.38
1,-2,120,-36,-432,3896,-0.17,0.78,5.72,-0.36,-4.32,38.96,-6.48,0.77,-3.23,4.30,-0.68,-3.82
-5,7,120,-22,-446,3915,-0.18,0.74,5.88,-0.22,-4.46,39.15,-6.48,0.76,-3.25,4.43,-0.84,-3.65
-8,8,158,124,-361,3900,-0.21,0.72,6.26,1.24,-3.61,39.00,-6.48,0.74,-3.28,4.50,-0.85,-6.46
-34,-5,460,1,-515,3911,-0.40,0.61,8.44,0.01,-5.15,39.11,-6.49,0.74,-3.31,5.09,-0.55,-20.00
-26,17,552,-147,-505,3909,-0.52,0.66,10.96,-1.47,-5.05,39.09,-6.50,0.76,-3.35,4.96,-1.03,-20.00
-7,18,536,-234,-612,3912,-0.51,0.70,13.13,-2.34,-6.12,39.12,-6.52,0.79,-3.41,4.58,-1.08,-20.00
-22,-2,514,-190,-579,3899,-0.59,0.62,14.96,-1.90,-5.79,38.99,-6.53,0.81,-3.47,4.92,-0.66,-20.00
-13,3,445,-118,-480,3988,-0.61,0.57,16.18,-1.18,-4.80,39.88,-6.54,0.83,-3.53,4.75,-0.77,-20.00
-5,14,422,-175,-397,3885,-0.58,0.60,17.13,-1.75,-3.97,38.85,-6.53,0.86,-3.60,4.57,-1.02,-17.29
0,8,375,-158,-351,3914,-0.52,0.59,17.71,-1.58,-3.51,39.14,-6.52,0.89,-3.67,4.45,-0.91,-12.69
1,6,375,-114,-330,3903,-0.46,0.57,18.22,-1.14,-3.30,39.03,-6.51,0.90,-3.74,4.40,-0.87,-12.14
10,5,335,65,-338,3856,-0.36,0.54,18.44,0.65,-3.38,38.56,-6.50,0.90,-3.81,4.18,-0.84,-8.51
18,14,315,11,-416,3855,-0.21,0.57,18.52,0.11,-4.16,38.55,-6.49,0.89,-3.89,3.98,-1.03,-6.73
7,10,321,11,-502,3924,-0.15,0.58,18.63,0.11,-5.02,39.24,-6.50,0.89,-3.96,4.19,-0.95,-7.11
-4,20,365,-64,-565,3894,-0.16,0.64,18.99,-0.64,-5.65,38.94,-6.52,0.90,-4.04,4.43,-1.18,-10.45
-1,-5,475,-34,-571,3908,-0.15,0.55,19.99,-0.34,-5.71,39.08,-6.54,0.91,-4.11,4.37,-0.65,-18.71
-1,24,501,-41,-551,3922,-0.14,0.64,21.05,-0.41,-5.51,39.22,-6.55,0.92,-4.20,4.38,-1.27,-19.78
-21,-11,611,-33,-562,3963,-0.25,0.51,22.67,-0.33,-5.62,39.63,-6.57,0.92,-4.29,4.83,-0.52,-20.00
-15,16,624,-132,-569,3788,-0.32,0.55,24.21,-1.32,-5.69,37.88,-6.59,0.95,-4.38,4.74,-1.10,-20.00
-10,18,494,-5,-485,3898,-0.35,0.61,24.80,-0.05,-4.85,38.98,-6.59,0.94,-4.48,4.65,-1.15,-15.19
-7,-12,436,-30,-493,3980,-0.36,0.47,24.98,-0.30,-4.93,39.80,-6.61,0.94,-4.58,4.60,-0.51,-10.07
-4,-3,320,-139,-639,3947,-0.34,0.41,24.43,-1.39,-6.39,39.47,-6.62,0.96,-4.68,4.55,-0.69,-0.82
-20,13,343,-36,-589,3819,-0.43,0.45,24.08,-0.36,-5.89,38.19,-6.64,0.97,-4.77,4.91,-1.03,-3.13
-14,36,401,-31,-474,3752,-0.47,0.62,24.12,-0.31,-4.74,37.52,-6.66,0.97,-4.87,4.81,-1.54,-7.99
-18,-16,416,4,-441,3950,-0.54,0.46,24.25,0.04,-4.41,39.50,-6.65,0.97,-4.96,4.90,-0.44,-9.12
-8,-3,403,-40,-453,3918,-0.53,0.40,24.28,-0.40,-4.53,39.18,-6.65,0.96,-5.06,4.70,-0.68,-7.98
-7,5,383,-114,-408,3866,-0.52,0.39,24.19,-1.14,-4.08,38.66,-6.64,0.99,-5.16,4.67,-0.86,-6.37
-4,8,319,-19,-429,3868,-0.49,0.40,23.72,-0.19,-4.29,38.68,-6.63,0.99,-5.25,4.59,-0.92,-1.44
-3,8,320,66,-419,3938,-0.46,0.41,23.30,0.66,-4.19,39.38,-6.63,0.98,-5.34,4.56,-0.92,-1.96
1,6,362,58,-599,3901,-0.41,0.40,23.17,0.58,-5.99,39.01,-6.64,0.98,-5.43,4.47,-0.88,-5.64
1,17,394,6,-625,3822,-0.36,0.47,23.26,0.06,-6.25,38.22,-6.66,0.99,-5.53,4.47,-1.12,-8.25
-4,11,430,-18,-513,3906,-0.35,0.49,23.56,-0.18,-5.13,39.06,-6.67,0.99,-5.62,4.58,-1.01,-10.98
-10,13,435,37,-467,3868,-0.38,0.52,23.86,0.37,-4.67,38.68,-6.67,0.98,-5.71,4.71,-1.05,-11.08
-7,27,396,-17,-356,3780,-0.38,0.63,23.89,-0.17,-3.56,37.80,-6.66,0.99,-5.81,4.64,-1.37,-7.74
-16,-14,371,21,-412,3901,-0.44,0.48,23.76,0.21,-4.12,39.01,-6.65,0.98,-5.90,4.83,-0.50,-5.74
0,-17,329,-115,-392,3943,-0.40,0.33,23.39,-1.15,-3.92,39.43,-6.63,1.01,-6.00,4.49,-0.41,-2.57
6,7,336,-129,-528,3863,-0.32,0.34,23.10,-1.29,-5.28,38.63,-6.65,1.03,-6.09,4.35,-0.91,-3.46
6,2,306,-119,-424,3894,-0.25,0.32,22.66,-1.19,-4.24,38.94,-6.64,1.06,-6.18,4.33,-0.82,-1.38
4,10,331,-91,-453,3868,-0.20,0.35,22.41,-0.91,-4.53,38.68,-6.64,1.09,-6.27,4.36,-1.02,-3.75
-16,14,419,-25,-547,3937,-0.28,0.40,22.73,-0.25,-5.47,39.37,-6.65,1.09,-6.36,4.79,-1.11,-10.86
-5,10,430,-5,-581,3876,-0.28,0.42,23.08,-0.05,-5.81,38.76,-6.67,1.09,-6.45,4.58,-1.04,-11.42
-14,12,482,-48,-446,3909,-0.34,0.45,23.71,-0.48,-4.46,39.09,-6.66,1.09,-6.54,4.77,-1.09,-15.14
-29,-19,493,16,-501,3931,-0.48,0.29,24.35,0.16,-5.01,39.31,-6.67,1.09,-6.64,5.12,-0.41,-15.39
-19,27,542,-115,-515,3852,-0.55,0.43,25.22,-1.15,-5.15,38.52,-6.69,1.11,-6.74,4.95,-1.40,-18.61
-22,20,530,-46,-402,3855,-0.63,0.50,25.93,-0.46,-4.02,38.55,-6.67,1.11,-6.84,5.02,-1.28,-16.83
-15,23,441,-59,-332,3873,-0.66,0.59,26.03,-0.59,-3.32,38.73,-6.65,1.13,-6.94,4.88,-1.37,-9.18
-11,-6,402,9,-273,4009,-0.66,0.50,25.88,0.09,-2.73,40.09,-6.64,1.13,-7.05,4.78,-0.76,-6.03
-8,3,386,23,-570,3907,-0.64,0.47,25.64,0.23,-5.70,39.07,-6.65,1.13,-7.15,4.73,-0.94,-4.91
-9,14,403,1,-497,3835,-0.63,0.51,25.54,0.01,-4.97,38.35,-6.66,1.13,-7.25,4.75,-1.17,-6.45
-13,4,471,-41,-540,3921,-0.65,0.48,25.86,-0.41,-5.40,39.21,-6.68,1.14,-7.35,4.85,-0.96,-11.86
-20,-1,486,-51,-595,3892,-0.71,0.43,26.23,-0.51,-5.95,38.92,-6.70,1.15,-7.46,5.02,-0.85,-12.72
-27,9,504,-108,-486,3954,-0.80,0.44,26.69,-1.08,-4.86,39.54,-6.71,1.18,-7.56,5.20,-1.08,-13.76
-12,17,474,-178,-510,3972,-0.79,0.50,26.91,-1.78,-5.10,39.72,-6.72,1.21,-7.67,4.89,-1.28,-10.98
-11,-19,364,-15,-341,4064,-0.78,0.33,26.44,-0.15,-3.41,40.64,-6.70,1.21,-7.77,4.86,-0.51,-2.14
-18,14,359,-3,-396,3733,-0.81,0.38,25.98,-0.03,-3.96,37.33,-6.70,1.21,-7.88,5.01,-1.19,-2.19
1,14,373,-56,-601,3803,-0.73,0.43,25.66,-0.56,-6.01,38.03,-6.71,1.22,-7.98,4.61,-1.21,-3.71
-6,15,388,-97,-505,3898,-0.69,0.48,25.46,-0.97,-5.05,38.98,-6.73,1.24,-8.08,4.75,-1.25,-5.18
-9,8,409,-84,-519,3969,-0.68,0.48,25.41,-0.84,-5.19,39.69,-6.75,1.25,-8.18,4.82,-1.12,-7.01
-11,2,390,13,-410,3854,-0.67,0.44,25.25,0.13,-4.10,38.54,-6.74,1.25,-8.28,4.86,-0.99,-5.56
-11,-10,346,-25,-443,3934,-0.67,0.34,24.83,-0.25,-4.43,39.34,-6.74,1.25,-8.38,4.85,-0.71,-2.26
-10,1,359,-17,-504,3878,-0.67,0.31,24.54,-0.17,-5.04,38.78,-6.75,1.24,-8.47,4.84,-0.93,-3.67
-1,-7,317,-7,-404,3835,-0.61,0.24,24.02,-0.07,-4.04,38.35,-6.74,1.24,-8.57,4.63,-0.74,-0.65
7,5,328,-38,-485,3876,-0.50,0.24,23.62,-0.38,-4.85,38.76,-6.75,1.24,-8.66,4.45,-0.98,-2.00
2,3,438,-30,-403,4034,-0.44,0.24,23.93,-0.30,-4.03,40.34,-6.73,1.24,-8.76,4.52,-0.94,-10.98
11,15,500,-57,-423,3908,-0.33,0.31,24.59,-0.57,-4.23,39.08,-6.72,1.24,-8.86,4.30,-1.21,-15.53
-30,-6,743,67,-520,3898,-0.48,0.24,26.66,0.67,-5.20,38.98,-6.72,1.24,-8.96,5.18,-0.76,-20.00
-7,41,784,-2,-418,3803,-0.47,0.46,28.78,-0.02,-4.18,38.03,-6.72,1.23,-9.08,4.71,-1.78,-20.00
-10,5,751,-49,-481,3860,-0.49,0.45,30.48,-0.49,-4.81,38.60,-6.73,1.24,-9.20,4.78,-1.04,-20.00
16,31,756,-32,-573,3912,-0.34,0.59,32.04,-0.32,-5.73,39.12,-6.74,1.25,-9.32,4.22,-1.61,-20.00
5,31,771,-87,-567,3843,-0.28,0.72,33.54,-0.87,-5.67,38.43,-6.76,1.26,-9.46,4.43,-1.66,-20.00
-10,2,769,-12,-585,3932,-0.31,0.66,34.88,-0.12,-5.85,39.32,-6.77,1.27,-9.59,4.76,-1.06,-20.00
-18,30,748,-59,-572,3784,-0.39,0.78,35.95,-0.59,-5.72,37.84,-6.79,1.29,-9.74,4.95,-1.67,-20.00
-12,16,709,-85,-585,4041,-0.42,0.80,36.68,-0.85,-5.85,40.41,-6.81,1.31,-9.88,4.85,-1.41,-20.00
-7,8,554,-40,-532,3811,-0.42,0.77,36.39,-0.40,-5.32,38.11,-6.82,1.32,-10.03,4.76,-1.24,-7.50
-6,-1,495,-7,-600,3947,-0.42,0.69,35.77,-0.07,-6.00,39.47,-6.83,1.33,-10.17,4.75,-1.04,-3.14
-3,6,432,-36,-477,3907,-0.39,0.65,34.83,-0.36,-4.77,39.07,-6.83,1.33,-10.30,4.68,-1.18,1.21
-4,9,421,28,-407,3938,-0.38,0.64,33.92,0.28,-4.07,39.38,-6.82,1.33,-10.44,4.69,-1.24,1.19
2,7,460,98,-372,4020,-0.33,0.62,33.33,0.98,-3.72,40.20,-6.81,1.34,-10.57,4.55,-1.19,-2.73
1,-8,457,2,-332,3943,-0.29,0.51,32.79,0.02,-3.32,39.43,-6.80,1.34,-10.70,4.54,-0.86,-3.04
-6,-14,525,42,-353,3951,-0.30,0.37,32.71,0.42,-3.53,39.51,-6.78,1.35,-10.83,4.68,-0.71,-8.87
-5,15,547,-40,-363,3889,-0.30,0.43,32.78,-0.40,-3.63,38.89,-6.76,1.35,-10.96,4.65,-1.32,-10.65
-5,19,608,-87,-444,3835,-0.30,0.50,33.21,-0.87,-4.44,38.35,-6.75,1.37,-11.09,4.64,-1.42,-15.35
-8,-1,632,-38,-398,3896,-0.32,0.44,33.74,-0.38,-3.98,38.96,-6.73,1.37,-11.23,4.69,-1.01,-16.81
1,32,684,-50,-467,3861,-0.28,0.60,34.54,-0.50,-4.67,38.61,-6.73,1.37,-11.37,4.50,-1.72,-20.00
-9,11,708,73,-532,3831,-0.31,0.60,35.40,0.73,-5.32,38.31,-6.74,1.37,-11.51,4.71,-1.30,-20.00
-19,20,740,-77,-588,3805,-0.39,0.66,36.38,-0.77,-5.88,38.05,-6.75,1.39,-11.65,4.95,-1.51,-20.00
-5,13,731,14,-630,4054,-0.38,0.68,37.20,0.14,-6.30,40.54,-6.77,1.40,-11.80,4.67,-1.37,-20.00
-8,23,736,-117,-601,3977,-0.39,0.75,37.97,-1.17,-6.01,39.77,-6.78,1.42,-11.95,4.75,-1.61,-20.00
3,2,747,-128,-627,3869,-0.34,0.69,38.73,-1.28,-6.27,38.69,-6.80,1.45,-12.10,4.52,-1.18,-20.00
-11,22,686,-60,-517,3874,-0.37,0.75,39.04,-0.60,-5.17,38.74,-6.81,1.46,-12.25,4.82,-1.62,-15.68
-40,9,657,31,-335,3827,-0.58,0.73,39.14,0.31,-3.35,38.27,-6.80,1.47,-12.41,5.46,-1.35,-13.10
-11,-7,504,-126,-358,3945,-0.59,0.62,38.30,-1.26,-3.58,39.45,-6.78,1.49,-12.56,4.86,-1.01,-1.01
0,2,494,-151,-464,3870,-0.53,0.57,37.49,-1.51,-4.64,38.70,-6.78,1.53,-12.71,4.62,-1.21,-1.01
-12,-6,531,-39,-516,3910,-0.55,0.47,36.98,-0.39,-5.16,39.10,-6.79,1.54,-12.86,4.87,-1.02,-4.68
-10,13,552,-92,-538,3937,-0.55,0.51,36.65,-0.92,-5.38,39.37,-6.80,1.55,-13.00,4.84,-1.43,-6.79
-11,-2,537,-113,-425,3963,-0.57,0.44,36.26,-1.13,-4.25,39.63,-6.78,1.57,-13.15,4.85,-1.12,-5.92
-21,16,525,-22,-374,3827,-0.64,0.50,35.83,-0.22,-3.74,38.27,-6.77,1.58,-13.29,5.07,-1.50,-5.34
-22,21,464,-15,-363,3867,-0.71,0.57,35.08,-0.15,-3.63,38.67,-6.75,1.58,-13.43,5.10,-1.63,-0.96
-4,13,448,-36,-342,3977,-0.66,0.60,34.31,-0.36,-3.42,39.77,-6.74,1.59,-13.56,4.71,-1.48,-0.41
-16,14,443,-136,-485,3848,-0.69,0.62,33.58,-1.36,-4.85,38.48,-6.75,1.62,-13.70,4.97,-1.53,-0.74
-14,4,434,-152,-488,3936,-0.71,0.58,32.87,-1.52,-4.88,39.36,-6.76,1.66,-13.83,4.94,-1.33,-0.72
-4,7,387,-54,-383,3827,-0.66,0.57,31.94,-0.54,-3.83,38.27,-6.74,1.66,-13.95,4.71,-1.40,2.29
-10,12,378,3,-374,3928,-0.66,0.59,31.05,0.03,-3.74,39.28,-6.73,1.67,-14.08,4.82,-1.50,2.12
-3,5,333,-6,-403,3927,-0.61,0.56,29.98,-0.06,-4.03,39.27,-6.72,1.67,-14.20,4.66,-1.35,4.81
3,6,298,-43,-358,3934,-0.53,0.54,28.80,-0.43,-3.58,39.34,-6.70,1.67,-14.31,4.51,-1.37,6.54
-1,4,254,27,-444,3885,-0.48,0.51,27.47,0.27,-4.44,38.85,-6.70,1.67,-14.42,4.58,-1.32,8.86
-6,6,266,14,-479,3882,-0.47,0.49,26.34,0.14,-4.79,38.82,-6.70,1.66,-14.53,4.68,-1.36,6.67
-11,9,293,177,-501,3864,-0.49,0.50,25.50,1.77,-5.01,38.64,-6.71,1.66,-14.63,4.78,-1.42,3.49
-13,24,331,84,-553,3821,-0.52,0.60,24.97,0.84,-5.53,38.21,-6.71,1.66,-14.72,4.84,-1.74,-0.28
-14,30,393,-65,-405,3933,-0.56,0.72,24.87,-0.65,-4.05,39.33,-6.70,1.66,-14.82,4.86,-1.90,-5.63
-15,-16,384,37,-478,3983,-0.59,0.55,24.72,0.37,-4.78,39.83,-6.70,1.66,-14.92,4.89,-0.92,-5.01
-8,12,379,15,-446,3861,-0.58,0.57,24.56,0.15,-4.46,38.61,-6.70,1.65,-15.02,4.74,-1.49,-4.75
-11,9,363,2,-397,3952,-0.59,0.57,24.32,0.02,-3.97,39.52,-6.69,1.65,-15.12,4.80,-1.43,-3.64
-6,0,342,42,-419,3959,-0.57,0.51,23.97,0.42,-4.19,39.59,-6.68,1.64,-15.21,4.69,-1.22,-2.22
-10,4,383,78,-523,3848,-0.57,0.48,23.91,0.78,-5.23,38.48,-6.69,1.64,-15.31,4.77,-1.30,-5.75
-15,11,484,53,-479,3884,-0.61,0.50,24.47,0.53,-4.79,38.84,-6.69,1.64,-15.40,4.89,-1.44,-13.70
-2,14,493,-32,-515,3879,-0.56,0.54,25.03,-0.32,-5.15,38.79,-6.70,1.64,-15.50,4.62,-1.51,-13.86
5,35,514,-100,-379,3893,-0.47,0.70,25.67,-1.00,-3.79,38.93,-6.68,1.65,-15.60,4.44,-1.99,-14.97
-17,-6,490,-35,-532,3943,-0.53,0.59,26.09,-0.35,-5.32,39.43,-6.69,1.65,-15.71,4.91,-1.13,-12.48
0,13,438,35,-532,3861,-0.48,0.61,26.15,0.35,-5.32,38.61,-6.70,1.65,-15.81,4.55,-1.52,-7.99
-4,16,441,-72,-520,3877,-0.45,0.65,26.23,-0.72,-5.20,38.77,-6.72,1.65,-15.91,4.64,-1.59,-8.16
-13,0,491,-76,-589,3889,-0.49,0.58,26.60,-0.76,-5.89,38.89,-6.73,1.66,-16.02,4.84,-1.26,-11.99
-5,13,515,-9,-562,3914,-0.47,0.60,27.08,-0.09,-5.62,39.14,-6.74,1.66,-16.13,4.68,-1.53,-13.51
-10,53,565,-94,-509,3812,-0.48,0.87,27.82,-0.94,-5.09,38.12,-6.76,1.67,-16.24,4.80,-2.42,-16.95
-4,18,541,-39,-439,3873,-0.46,0.89,28.34,-0.39,-4.39,38.73,-6.75,1.67,-16.35,4.66,-1.71,-14.36
-11,-27,546,2,-496,3976,-0.48,0.64,28.83,0.02,-4.96,39.76,-6.76,1.67,-16.46,4.81,-0.73,-14.24
4,33,555,-44,-527,3824,-0.41,0.77,29.34,-0.44,-5.27,38.24,-6.77,1.68,-16.58,4.50,-1.99,-14.47
-12,26,649,-115,-498,3898,-0.44,0.85,30.36,-1.15,-4.98,38.98,-6.78,1.69,-16.70,4.84,-1.88,-20.00
-10,3,682,-121,-489,3946,-0.46,0.79,31.49,-1.21,-4.89,39.46,-6.80,1.71,-16.82,4.82,-1.41,-20.00
-16,17,724,-198,-517,3904,-0.51,0.81,32.75,-1.98,-5.17,39.04,-6.81,1.75,-16.95,4.96,-1.72,-20.00
-20,20,712,-184,-451,3874,-0.58,0.85,33.82,-1.84,-4.51,38.74,-6.80,1.79,-17.09,5.05,-1.82,-20.00
-11,13,676,-97,-304,3916,-0.59,0.85,34.56,-0.97,-3.04,39.16,-6.78,1.80,-17.22,4.86,-1.69,-19.12
-19,7,662,-151,-250,3875,-0.65,0.81,35.14,-1.51,-2.50,38.75,-6.76,1.83,-17.36,5.03,-1.57,-17.31
-24,3,673,-106,-135,3934,-0.73,0.74,35.74,-1.06,-1.35,39.34,-6.74,1.84,-17.50,5.14,-1.48,-17.60
-14,11,631,-51,-199,3966,-0.74,0.74,36.01,-0.51,-1.99,39.66,-6.72,1.86,-17.65,4.92,-1.65,-13.74
-1,29,642,-31,-559,3847,-0.67,0.84,36.33,-0.31,-5.59,38.47,-6.74,1.87,-17.79,4.65,-2.05,-14.33
-9,21,629,-11,-377,3955,-0.66,0.88,36.53,-0.11,-3.77,39.55,-6.72,1.87,-17.94,4.80,-1.90,-12.99
8,31,588,-76,-564,3891,-0.55,0.98,36.46,-0.76,-5.64,38.91,-6.74,1.89,-18.08,4.43,-2.14,-9.58
-3,2,574,35,-522,3916,-0.51,0.90,36.32,0.35,-5.22,39.16,-6.74,1.89,-18.22,4.65,-1.53,-8.53
-8,3,545,45,-656,3922,-0.51,0.83,36.01,0.45,-6.56,39.22,-6.75,1.90,-18.37,4.76,-1.54,-6.39
-10,20,549,-60,-687,3844,-0.52,0.87,35.76,-0.60,-6.87,38.44,-6.77,1.91,-18.51,4.81,-1.90,-6.98
-24,3,566,-11,-671,3831,-0.61,0.80,35.64,-0.11,-6.71,38.31,-6.78,1.92,-18.65,5.13,-1.55,-8.54
-19,16,565,-32,-580,3931,-0.67,0.82,35.52,-0.32,-5.80,39.31,-6.79,1.93,-18.79,5.05,-1.82,-8.57
-13,8,522,50,-621,3888,-0.68,0.78,35.15,0.50,-6.21,38.88,-6.80,1.94,-18.93,4.94,-1.65,-5.30
-16,9,477,23,-586,3901,-0.71,0.76,34.55,0.23,-5.86,39.01,-6.81,1.94,-19.06,5.01,-1.67,-2.12
0,4,439,-12,-499,3871,-0.64,0.71,33.77,-0.12,-4.99,38.71,-6.81,1.94,-19.20,4.67,-1.56,0.29
-6,14,439,-41,-500,3853,-0.61,0.72,33.07,-0.41,-5.00,38.53,-6.82,1.94,-19.33,4.79,-1.77,-0.44
-11,5,417,-24,-500,3946,-0.62,0.68,32.31,-0.24,-5.00,39.46,-6.82,1.95,-19.46,4.89,-1.57,0.63
-9,4,388,-106,-444,3920,-0.61,0.64,31.44,-1.06,-4.44,39.20,-6.81,1.95,-19.58,4.84,-1.54,2.18
1,9,297,57,-428,3908,-0.54,0.63,30.11,0.57,-4.28,39.08,-6.80,1.95,-19.70,4.62,-1.64,8.49
0,4,297,61,-411,3885,-0.49,0.59,28.91,0.61,-4.11,38.85,-6.80,1.95,-19.82,4.62,-1.53,7.23
0,8,252,29,-440,3883,-0.44,0.58,27.56,0.29,-4.40,38.83,-6.79,1.94,-19.93,4.60,-1.60,9.62
-1,12,262,-7,-415,3886,-0.40,0.59,26.40,-0.07,-4.15,38.86,-6.78,1.94,-20.03,4.61,-1.69,7.56
8,-1,279,-83,-447,3896,-0.31,0.53,25.46,-0.83,-4.47,38.96,-6.77,1.94,-20.13,4.39,-1.40,5.14
4,0,274,-4,-604,3893,-0.26,0.48,24.59,-0.04,-6.04,38.93,-6.79,1.94,-20.23,4.47,-1.41,4.64
-1,-5,244,22,-439,3937,-0.24,0.40,23.62,0.22,-4.39,39.37,-6.78,1.93,-20.32,4.56,-1.28,6.16
-11,26,262,-86,-501,3842,-0.28,0.52,22.85,-0.86,-5.01,38.42,-6.79,1.93,-20.41,4.78,-1.95,3.84
7,-2,205,86,-356,3868,-0.21,0.45,21.82,0.86,-3.56,38.68,-6.78,1.93,-20.50,4.39,-1.36,7.58
0,7,222,81,-482,3822,-0.19,0.45,20.99,0.81,-4.82,38.22,-6.78,1.92,-20.58,4.53,-1.53,5.27
1,23,199,79,-238,3897,-0.16,0.55,20.11,0.79,-2.38,38.97,-6.77,1.92,-20.66,4.49,-1.88,6.29
1,16,173,109,-250,3914,-0.14,0.59,19.15,1.09,-2.50,39.14,-6.75,1.92,-20.74,4.47,-1.75,7.49
-1,7,160,43,-475,3937,-0.13,0.57,18.21,0.43,-4.75,39.37,-6.75,1.91,-20.81,4.51,-1.56,7.60
-5,2,179,47,-532,3921,-0.15,0.53,17.48,0.47,-5.32,39.21,-6.76,1.91,-20.88,4.60,-1.44,5.23
-10,-14,345,88,-355,4073,-0.20,0.39,17.84,0.88,-3.55,40.73,-6.75,1.90,-20.95,4.71,-1.08,-8.45
-6,8,383,-37,-551,3908,-0.21,0.40,18.39,-0.37,-5.51,39.08,-6.76,1.90,-21.02,4.64,-1.52,-11.08
-9,15,471,18,-565,3866,-0.25,0.45,19.42,0.18,-5.65,38.66,-6.77,1.89,-21.10,4.72,-1.68,-17.44
-16,-3,466,69,-560,3893,-0.32,0.39,20.32,0.69,-5.60,38.93,-6.77,1.89,-21.18,4.88,-1.29,-16.05
-2,30,445,-137,-503,3858,-0.30,0.53,21.01,-1.37,-5.03,38.58,-6.79,1.90,-21.26,4.60,-2.01,-13.54
-5,3,458,-167,-524,3985,-0.30,0.50,21.70,-1.67,-5.24,39.85,-6.80,1.92,-21.35,4.67,-1.47,-13.90
-12,6,480,-47,-526,3907,-0.34,0.48,22.46,-0.47,-5.26,39.07,-6.81,1.92,-21.44,4.83,-1.52,-14.96
-4,21,491,1,-509,3879,-0.33,0.56,23.21,0.01,-5.09,38.79,-6.81,1.92,-21.53,4.67,-1.85,-15.09
2,11,499,-8,-492,3930,-0.29,0.57,23.93,-0.08,-4.92,39.30,-6.82,1.91,-21.62,4.54,-1.64,-14.99
-10,10,517,1,-585,3864,-0.32,0.58,24.69,0.01,-5.85,38.64,-6.83,1.91,-21.72,4.80,-1.62,-15.70
-16,17,557,-2,-418,3828,-0.39,0.62,25.62,-0.02,-4.18,38.28,-6.82,1.91,-21.82,4.93,-1.78,-18.10
8,-11,556,-6,-401,3857,-0.30,0.49,26.45,-0.06,-4.01,38.57,-6.81,1.91,-21.93,4.41,-1.17,-17.13
-10,15,519,151,-504,3830,-0.33,0.54,26.97,1.51,-5.04,38.30,-6.81,1.91,-22.03,4.79,-1.71,-13.43
-6,18,531,162,-561,3958,-0.33,0.59,27.51,1.62,-5.61,39.58,-6.81,1.90,-22.14,4.71,-1.78,-13.86
-8,21,620,-130,-507,3812,-0.35,0.66,28.54,-1.30,-5.07,38.12,-6.83,1.92,-22.26,4.76,-1.88,-20.00
-1,6,668,-33,-559,3967,-0.32,0.63,29.76,-0.33,-5.59,39.67,-6.84,1.92,-22.37,4.62,-1.56,-20.00
-21,13,616,59,-462,3827,-0.42,0.65,30.54,0.59,-4.62,38.27,-6.84,1.92,-22.49,5.05,-1.71,-17.82
-17,3,589,76,-512,3948,-0.48,0.60,31.08,0.76,-5.12,39.48,-6.84,1.92,-22.62,4.99,-1.49,-14.95
-11,12,540,2,-463,3910,-0.50,0.61,31.27,0.02,-4.63,39.10,-6.83,1.92,-22.74,4.87,-1.68,-10.59
-8,10,534,21,-440,3862,-0.50,0.61,31.40,0.21,-4.40,38.62,-6.83,1.92,-22.87,4.80,-1.64,-9.94
-2,15,511,4,-457,3842,-0.46,0.64,31.38,0.04,-4.57,38.42,-6.83,1.92,-22.99,4.67,-1.75,-8.00
-15,17,495,-31,-428,3848,-0.50,0.68,31.26,-0.31,-4.28,38.48,-6.82,1.92,-23.11,4.94,-1.80,-6.76
2,19,392,-47,-411,3948,-0.44,0.73,30.52,-0.47,-4.11,39.48,-6.81,1.92,-23.24,4.57,-1.85,1.20
5,1,332,-27,-398,3990,-0.37,0.66,29.50,-0.27,-3.98,39.90,-6.79,1.92,-23.35,4.48,-1.47,5.21
6,3,277,-11,-430,3993,-0.29,0.62,28.24,-0.11,-4.30,39.93,-6.78,1.92,-23.47,4.44,-1.50,8.54
2,0,256,-1,-465,3851,-0.25,0.55,26.97,-0.01,-4.65,38.51,-6.78,1.92,-23.57,4.50,-1.42,9.00
-8,-13,251,126,-511,3894,-0.28,0.42,25.81,1.26,-5.11,38.94,-6.78,1.92,-23.67,4.71,-1.11,8.19
-12,19,287,72,-515,3819,-0.32,0.49,24.98,0.72,-5.15,38.19,-6.79,1.91,-23.77,4.81,-1.78,4.27
1,2,248,-74,-400,3864,-0.28,0.46,23.99,-0.74,-4.00,38.64,-6.77,1.91,-23.87,4.53,-1.43,6.54
7,11,244,-74,-410,3915,-0.21,0.48,23.08,-0.74,-4.10,39.15,-6.76,1.91,-23.96,4.37,-1.62,5.93
-5,-1,331,22,-480,3896,-0.22,0.42,22.79,0.22,-4.80,38.96,-6.76,1.91,-24.05,4.62,-1.35,-1.74
-5,6,318,-31,-460,3909,-0.23,0.42,22.45,-0.31,-4.60,39.09,-6.75,1.90,-24.14,4.62,-1.49,-0.99
4,7,211,85,-450,3889,-0.18,0.42,21.50,0.85,-4.50,38.89,-6.75,1.89,-24.23,4.42,-1.51,7.07
6,11,217,78,-509,3906,-0.13,0.44,20.67,0.78,-5.09,39.06,-6.75,1.89,-24.31,4.37,-1.59,5.69
-8,1,230,34,-582,3950,-0.16,0.41,20.01,0.34,-5.82,39.50,-6.76,1.88,-24.39,4.67,-1.37,3.89
5,19,254,31,-576,3907,-0.12,0.48,19.55,0.31,-5.76,39.07,-6.77,1.88,-24.46,4.40,-1.76,1.39
-8,0,311,-18,-575,3937,-0.15,0.43,19.50,-0.18,-5.75,39.37,-6.78,1.88,-24.54,4.68,-1.36,-3.50
-12,-11,316,-63,-503,3877,-0.21,0.32,19.47,-0.63,-5.03,38.77,-6.79,1.87,-24.62,4.78,-1.10,-3.94
-10,-2,257,94,-442,3863,-0.25,0.28,19.09,0.94,-4.42,38.63,-6.78,1.86,-24.69,4.75,-1.26,0.67
0,16,251,66,-442,3865,-0.23,0.35,18.72,0.66,-4.42,38.65,-6.78,1.86,-24.77,4.54,-1.64,0.78
0,-1,240,54,-562,3916,-0.20,0.31,18.31,0.54,-5.62,39.16,-6.79,1.85,-24.84,4.54,-1.28,1.29
-3,5,277,7,-595,3934,-0.20,0.31,18.17,0.07,-5.95,39.34,-6.80,1.85,-24.91,4.60,-1.40,-1.99
-3,15,312,-27,-597,3906,-0.20,0.37,18.25,-0.27,-5.97,39.06,-6.81,1.84,-24.98,4.61,-1.62,-4.86
-13,-10,320,154,-487,3935,-0.26,0.27,18.38,1.54,-4.87,39.35,-6.81,1.84,-25.06,4.83,-1.08,-5.39
-6,20,294,73,-413,3864,-0.27,0.36,18.34,0.73,-4.13,38.64,-6.81,1.83,-25.13,4.69,-1.71,-3.23
0,-16,283,25,-486,3969,-0.24,0.23,18.23,0.25,-4.86,39.69,-6.81,1.82,-25.20,4.56,-0.94,-2.41
-18,6,324,89,-450,3900,-0.33,0.24,18.38,0.89,-4.50,39.00,-6.80,1.81,-25.27,4.95,-1.38,-5.71
-1,8,316,62,-515,3980,-0.30,0.27,18.47,0.62,-5.15,39.80,-6.81,1.80,-25.35,4.60,-1.43,-4.93
-9,19,310,-86,-397,3900,-0.33,0.36,18.52,-0.86,-3.97,39.00,-6.79,1.80,-25.42,4.75,-1.67,-4.37
-10,-5,302,-86,-379,3919,-0.35,0.29,18.51,-0.86,-3.79,39.19,-6.77,1.81,-25.50,4.77,-1.17,-3.70
3,19,253,-12,-380,3885,-0.30,0.38,18.20,-0.12,-3.80,38.85,-6.76,1.80,-25.57,4.48,-1.68,0.14
-8,1,259,-7,-441,3861,-0.32,0.35,17.96,-0.07,-4.41,38.61,-6.76,1.79,-25.64,4.71,-1.30,-0.62
-21,-17,294,22,-346,4015,-0.42,0.21,17.96,0.22,-3.46,40.15,-6.74,1.79,-25.71,4.99,-0.89,-3.58
-20,-1,293,-123,-329,3890,-0.50,0.18,17.95,-1.23,-3.29,38.90,-6.73,1.80,-25.78,4.98,-1.22,-3.50
19,21,141,-108,-358,3940,-0.33,0.29,17.01,-1.08,-3.58,39.40,-6.71,1.80,-25.85,4.13,-1.70,8.40
21,16,130,31,-432,3918,-0.17,0.36,16.10,0.31,-4.32,39.18,-6.70,1.80,-25.91,4.04,-1.61,8.37
-8,3,246,146,-481,3948,-0.20,0.34,15.99,1.46,-4.81,39.48,-6.70,1.79,-25.98,4.64,-1.33,-1.57
-10,7,324,71,-518,3955,-0.24,0.35,16.37,0.71,-5.18,39.55,-6.71,1.78,-26.04,4.70,-1.41,-7.77
-26,-27,427,-71,-480,3918,-0.38,0.15,17.34,-0.71,-4.80,39.18,-6.71,1.77,-26.11,5.06,-0.66,-15.47
-18,6,449,-82,-484,3828,-0.45,0.17,18.34,-0.82,-4.84,38.28,-6.72,1.76,-26.18,4.93,-1.33,-16.26
-5,-5,327,-11,-549,3901,-0.43,0.12,18.50,-0.11,-5.49,39.01,-6.74,1.76,-26.26,4.67,-1.09,-5.75
-17,3,314,-97,-476,3886,-0.49,0.13,18.57,-0.97,-4.76,38.86,-6.75,1.75,-26.33,4.93,-1.25,-4.57
-1,8,247,-77,-505,3933,-0.45,0.17,18.22,-0.77,-5.05,39.33,-6.76,1.75,-26.40,4.60,-1.36,0.74
-6,6,262,-14,-504,3896,-0.44,0.19,18.00,-0.14,-5.04,38.96,-6.76,1.74,-26.47,4.71,-1.32,-0.76
-19,6,375,-45,-493,3930,-0.51,0.20,18.48,-0.45,-4.93,39.30,-6.77,1.73,-26.55,4.99,-1.32,-9.81
-13,5,317,-111,-418,3922,-0.54,0.21,18.57,-1.11,-4.18,39.22,-6.75,1.74,-26.62,4.87,-1.31,-4.80
-16,0,217,-74,-588,3856,-0.59,0.19,18.04,-0.74,-5.88,38.56,-6.77,1.74,-26.69,4.95,-1.20,3.12
-16,5,235,-64,-569,3933,-0.62,0.20,17.67,-0.64,-5.69,39.33,-6.79,1.74,-26.76,4.97,-1.31,1.20
-16,-5,268,43,-482,3931,-0.66,0.15,17.53,0.43,-4.82,39.31,-6.79,1.73,-26.83,4.99,-1.09,-1.72
-9,-9,297,29,-407,3883,-0.65,0.08,17.59,0.29,-4.07,38.83,-6.78,1.73,-26.90,4.84,-0.98,-4.11
-17,17,370,27,-488,3860,-0.69,0.18,18.09,0.27,-4.88,38.60,-6.79,1.72,-26.97,5.01,-1.53,-9.76
2,21,366,57,-559,3914,-0.61,0.29,18.51,0.57,-5.59,39.14,-6.79,1.71,-27.05,4.61,-1.64,-8.97
10,23,353,67,-549,3924,-0.48,0.40,18.82,0.67,-5.49,39.24,-6.80,1.71,-27.12,4.42,-1.70,-7.54
7,15,360,91,-594,3847,-0.39,0.45,19.13,0.91,-5.94,38.47,-6.81,1.70,-27.20,4.46,-1.55,-7.80
-6,15,412,61,-531,3863,-0.39,0.50,19.73,0.61,-5.31,38.63,-6.82,1.69,-27.27,4.73,-1.56,-11.56
-18,-2,415,18,-502,3873,-0.46,0.44,20.29,0.18,-5.02,38.73,-6.82,1.69,-27.35,4.99,-1.19,-11.21
-12,-1,417,14,-539,3944,-0.49,0.39,20.80,0.14,-5.39,39.44,-6.83,1.68,-27.44,4.88,-1.20,-10.83
-7,29,401,-77,-430,3853,-0.48,0.52,21.17,-0.77,-4.30,38.53,-6.82,1.68,-27.52,4.77,-1.84,-9.08
-15,-1,349,-156,-436,3917,-0.53,0.47,21.18,-1.56,-4.36,39.17,-6.81,1.71,-27.60,4.94,-1.23,-4.66
-1,-3,336,61,-399,3936,-0.48,0.40,21.11,0.61,-3.99,39.36,-6.80,1.70,-27.69,4.64,-1.17,-3.62
-7,16,414,8,-448,3898,-0.47,0.46,21.53,0.08,-4.48,38.98,-6.79,1.70,-27.77,4.76,-1.57,-9.78
-25,-5,540,35,-419,3832,-0.58,0.38,22.67,0.35,-4.19,38.32,-6.79,1.69,-27.86,5.15,-1.12,-19.24
-14,32,581,-35,-400,3785,-0.61,0.54,23.95,-0.35,-4.00,37.85,-6.78,1.69,-27.96,4.92,-1.91,-20.00
-4,30,556,-55,-213,3935,-0.57,0.67,24.94,-0.55,-2.13,39.35,-6.76,1.70,-28.06,4.70,-1.91,-18.17
1,24,598,-18,-513,3856,-0.51,0.75,26.10,-0.18,-5.13,38.56,-6.77,1.70,-28.16,4.59,-1.81,-20.00
-7,2,617,-11,-545,3945,-0.50,0.69,27.25,-0.11,-5.45,39.45,-6.78,1.70,-28.27,4.75,-1.35,-20.00
-3,27,593,-26,-334,3867,-0.47,0.78,28.14,-0.26,-3.34,38.67,-6.76,1.71,-28.38,4.65,-1.89,-17.89
11,23,567,-110,-332,3990,-0.35,0.84,28.79,-1.10,-3.32,39.90,-6.74,1.72,-28.50,4.32,-1.83,-14.99
-1,34,576,15,-419,3880,-0.32,0.97,29.42,0.15,-4.19,38.80,-6.74,1.72,-28.61,4.55,-2.09,-15.07
7,29,538,-140,-257,4035,-0.25,1.05,29.76,-1.40,-2.57,40.35,-6.71,1.74,-28.73,4.36,-2.02,-11.48
6,11,453,107,-503,3943,-0.19,1.01,29.55,1.07,-5.03,39.43,-6.71,1.74,-28.85,4.36,-1.65,-4.49
1,19,499,90,-505,3890,-0.16,1.02,29.64,0.90,-5.05,38.90,-6.72,1.74,-28.96,4.46,-1.81,-8.29
-10,31,478,155,-585,3782,-0.21,1.11,29.59,1.55,-5.85,37.82,-6.72,1.74,-29.08,4.70,-2.08,-6.55
9,36,404,38,-553,3969,-0.13,1.22,29.10,0.38,-5.53,39.69,-6.73,1.74,-29.20,4.29,-2.22,-0.79
-12,-2,398,122,-656,4034,-0.19,1.09,28.61,1.22,-6.56,40.34,-6.73,1.75,-29.31,4.74,-1.41,-0.78
-21,-13,449,185,-699,3760,-0.30,0.90,28.49,1.85,-6.99,37.60,-6.74,1.75,-29.42,4.96,-1.14,-5.22
-13,22,626,-38,-147,3789,-0.35,0.94,29.46,-0.38,-1.47,37.89,-6.72,1.76,-29.54,4.80,-1.87,-19.18
-9,-14,709,77,-247,3811,-0.37,0.76,30.84,0.77,-2.47,38.11,-6.71,1.77,-29.66,4.71,-1.09,-20.00
15,21,602,172,-383,3873,-0.24,0.81,31.43,1.72,-3.83,38.73,-6.70,1.77,-29.79,4.18,-1.82,-15.04
11,29,465,94,-395,3861,-0.15,0.91,31.12,0.94,-3.95,38.61,-6.69,1.77,-29.91,4.24,-2.01,-3.75
3,23,238,-27,-492,4116,-0.12,0.96,29.46,-0.27,-4.92,41.16,-6.69,1.77,-30.03,4.39,-1.90,13.73
-8,-10,264,126,-564,3917,-0.15,0.80,28.13,1.26,-5.64,39.17,-6.70,1.77,-30.14,4.62,-1.18,10.13
-3,1,208,3,-467,3901,-0.16,0.73,26.58,0.03,-4.67,39.01,-6.70,1.76,-30.24,4.52,-1.38,13.25
-10,-8,209,84,-493,3916,-0.20,0.61,25.20,0.84,-4.93,39.16,-6.70,1.76,-30.34,4.68,-1.16,11.71
-9,26,854,-138,-352,3923,-0.24,0.70,27.89,-1.38,-3.52,39.23,-6.68,1.78,-30.45,4.65,-1.89,-20.00
-11,-16,916,166,-526,3935,-0.28,0.54,30.69,1.66,-5.26,39.35,-6.68,1.78,-30.58,4.71,-0.99,-20.00
0,38,611,143,-312,3853,-0.25,0.71,31.35,1.43,-3.12,38.53,-6.67,1.78,-30.70,4.47,-2.14,-15.81
24,22,546,65,-279,3911,-0.08,0.78,31.54,0.65,-2.79,39.11,-6.65,1.78,-30.83,3.92,-1.84,-10.09
-11,2,619,-31,-619,3979,-0.14,0.71,32.16,-0.31,-6.19,39.79,-6.66,1.79,-30.95,4.66,-1.42,-15.60
1,18,638,75,-502,3958,-0.12,0.75,32.84,0.75,-5.02,39.58,-6.66,1.79,-31.08,4.41,-1.75,-16.48
-18,24,668,90,-547,3876,-0.22,0.82,33.63,0.90,-5.47,38.76,-6.67,1.79,-31.22,4.82,-1.90,-18.18
-10,8,633,-10,-503,3843,-0.26,0.79,34.13,-0.10,-5.03,38.43,-6.67,1.80,-31.35,4.68,-1.56,-14.67
-2,15,621,-54,-341,3862,-0.24,0.80,34.50,-0.54,-3.41,38.62,-6.65,1.81,-31.49,4.50,-1.72,-13.24
7,7,637,-45,-377,3874,-0.18,0.76,34.94,-0.45,-3.77,38.74,-6.64,1.81,-31.63,4.29,-1.55,-14.13
-9,37,649,-63,-328,3908,-0.21,0.91,35.40,-0.63,-3.28,39.08,-6.62,1.82,-31.77,4.61,-2.21,-14.64
-7,26,599,-130,-246,3854,-0.23,0.98,35.52,-1.30,-2.46,38.54,-6.59,1.84,-31.91,4.56,-2.01,-10.27
-8,19,609,79,-479,3977,-0.26,1.00,35.68,0.79,-4.79,39.77,-6.59,1.85,-32.05,4.58,-1.88,-10.93
1,-4,605,103,-589,3872,-0.23,0.87,35.80,1.03,-5.89,38.72,-6.60,1.85,-32.19,4.40,-1.38,-10.45
-11,27,584,-17,-580,3782,-0.27,0.95,35.78,-0.17,-5.80,37.82,-6.61,1.86,-32.33,4.66,-2.04,-8.68
-28,-12,569,-127,-704,4019,-0.42,0.78,35.68,-1.27,-7.04,40.19,-6.62,1.88,-32.47,5.05,-1.21,-7.51
-22,4,626,18,-575,3841,-0.51,0.73,35.93,0.18,-5.75,38.41,-6.63,1.89,-32.62,4.96,-1.52,-12.06
-17,17,633,10,-577,3847,-0.56,0.76,36.20,0.10,-5.77,38.47,-6.64,1.89,-32.76,4.88,-1.80,-12.35
-29,27,588,30,-423,3944,-0.68,0.85,36.16,0.30,-4.23,39.44,-6.64,1.89,-32.90,5.16,-2.03,-8.56
-12,16,553,-22,-346,3844,-0.69,0.86,35.92,-0.22,-3.46,38.44,-6.62,1.90,-33.05,4.80,-1.81,-5.84
-10,3,538,-79,-333,3941,-0.68,0.79,35.61,-0.79,-3.33,39.41,-6.60,1.91,-33.19,4.75,-1.54,-4.89
-5,25,556,-52,-263,3913,-0.64,0.87,35.44,-0.52,-2.63,39.13,-6.59,1.93,-33.33,4.62,-2.02,-6.58
8,15,527,-93,-214,3870,-0.53,0.87,35.11,-0.93,-2.14,38.70,-6.56,1.94,-33.47,4.31,-1.82,-4.46
16,32,510,-197,-311,3872,-0.38,0.98,34.71,-1.97,-3.11,38.72,-6.55,1.97,-33.61,4.10,-2.22,-3.43
6,16,467,-90,-391,3873,-0.30,0.98,34.09,-0.90,-3.91,38.73,-6.53,1.98,-33.74,4.27,-1.90,-0.43
10,17,478,21,-361,3888,-0.21,0.98,33.60,0.21,-3.61,38.88,-6.52,1.98,-33.88,4.15,-1.92,-1.87
-8,23,531,75,-389,3867,-0.24,1.03,33.48,0.75,-3.89,38.67,-6.51,1.98,-34.01,4.52,-2.06,-6.48
-3,9,497,151,-478,3895,-0.23,0.98,33.16,1.51,-4.78,38.95,-6.51,1.98,-34.14,4.42,-1.76,-3.92
-7,21,541,75,-550,3960,-0.25,1.01,33.14,0.75,-5.50,39.60,-6.51,1.99,-34.27,4.51,-2.01,-7.65
-9,16,543,26,-456,3929,-0.28,1.01,33.14,0.26,-4.56,39.29,-6.51,1.99,-34.40,4.55,-1.91,-7.81
2,0,422,63,-299,3882,-0.24,0.91,32.40,0.63,-2.99,38.82,-6.49,1.99,-34.53,4.31,-1.56,1.66
4,-11,465,165,-296,3914,-0.19,0.75,32.00,1.65,-2.96,39.14,-6.48,1.99,-34.66,4.25,-1.29,-2.39
-16,5,651,4,-489,3947,-0.27,0.70,32.77,0.04,-4.89,39.47,-6.48,1.99,-34.79,4.68,-1.61,-17.32
-18,-22,619,48,-510,3908,-0.35,0.50,33.27,0.48,-5.10,39.08,-6.49,1.99,-34.92,4.74,-1.00,-14.07
-10,5,509,40,-437,3894,-0.38,0.48,33.05,0.40,-4.37,38.94,-6.48,1.99,-35.05,4.59,-1.55,-4.98
-2,10,478,11,-473,3923,-0.35,0.49,32.66,0.11,-4.73,39.23,-6.48,1.99,-35.18,4.42,-1.65,-2.75
7,13,400,54,-415,3928,-0.28,0.52,31.83,0.54,-4.15,39.28,-6.48,1.99,-35.31,4.21,-1.72,3.00
4,12,470,95,-568,3923,-0.22,0.54,31.52,0.95,-5.68,39.23,-6.48,1.99,-35.43,4.26,-1.70,-3.26
-25,12,657,55,-778,3907,-0.35,0.56,32.37,0.55,-7.78,39.07,-6.49,1.99,-35.56,4.89,-1.71,-18.18
-19,1,633,-10,-609,3920,-0.43,0.51,33.00,-0.10,-6.09,39.20,-6.51,2.00,-35.69,4.80,-1.48,-15.48
4,-3,506,141,-543,3904,-0.37,0.44,32.78,1.41,-5.43,39.04,-6.51,2.00,-35.82,4.31,-1.38,-4.93
5,12,524,71,-608,3833,-0.30,0.47,32.70,0.71,-6.08,38.33,-6.52,2.00,-35.95,4.28,-1.69,-6.53
-4,15,462,-105,-656,3936,-0.29,0.52,32.25,-1.05,-6.56,39.36,-6.53,2.02,-36.08,4.47,-1.78,-1.75
-6,5,409,-42,-618,3915,-0.30,0.49,31.52,-0.42,-6.18,39.15,-6.54,2.02,-36.20,4.52,-1.57,1.98
-11,12,387,-36,-672,3861,-0.34,0.52,30.73,-0.36,-6.72,38.61,-6.56,2.03,-36.32,4.64,-1.73,3.02
-16,13,412,-48,-689,3920,-0.40,0.55,30.17,-0.48,-6.89,39.20,-6.57,2.04,-36.44,4.77,-1.76,0.32
-29,-6,588,180,-483,3873,-0.54,0.45,30.74,1.80,-4.83,38.73,-6.57,2.04,-36.56,5.07,-1.35,-13.98
-13,15,610,70,-393,3960,-0.56,0.50,31.39,0.70,-3.93,39.60,-6.56,2.04,-36.69,4.75,-1.79,-15.14
-9,10,564,-18,-440,3866,-0.56,0.51,31.69,-0.18,-4.40,38.66,-6.56,2.04,-36.81,4.67,-1.69,-10.92
-19,9,536,45,-495,3895,-0.62,0.52,31.79,0.45,-4.95,38.95,-6.56,2.03,-36.94,4.89,-1.67,-8.43
-5,38,419,-31,-444,3919,-0.59,0.70,31.17,-0.31,-4.44,39.19,-6.56,2.03,-37.06,4.59,-2.30,0.84
-5,27,367,-107,-453,3939,-0.56,0.79,30.29,-1.07,-4.53,39.39,-6.56,2.03,-37.18,4.58,-2.11,4.32
-9,16,288,34,-523,4027,-0.56,0.81,29.02,0.34,-5.23,40.27,-6.56,2.03,-37.30,4.67,-1.89,9.68
-6,14,305,114,-531,3926,-0.54,0.81,27.97,1.14,-5.31,39.26,-6.57,2.03,-37.41,4.60,-1.85,7.15
-24,-2,370,144,-465,3832,-0.63,0.72,27.43,1.44,-4.65,38.32,-6.57,2.03,-37.52,4.99,-1.49,1.08
-22,8,365,73,-517,3881,-0.70,0.70,26.92,0.73,-5.17,38.81,-6.57,2.02,-37.62,4.98,-1.69,0.96
-1,-5,280,114,-361,3909,-0.64,0.60,25.93,1.14,-3.61,39.09,-6.56,2.02,-37.73,4.53,-1.39,7.13
-1,12,280,75,-400,3941,-0.58,0.61,25.05,0.75,-4.00,39.41,-6.56,2.02,-37.83,4.51,-1.74,6.21
-13,21,290,-41,-492,3846,-0.60,0.68,24.31,-0.41,-4.92,38.46,-6.57,2.01,-37.92,4.76,-1.94,4.59
-6,-6,281,-19,-452,3994,-0.58,0.57,23.60,-0.19,-4.52,39.94,-6.56,2.01,-38.02,4.61,-1.36,4.60
-23,-7,237,-81,-382,3969,-0.66,0.47,22.68,-0.81,-3.82,39.69,-6.55,2.01,-38.11,4.97,-1.31,7.37
-15,-10,214,-24,-390,3891,-0.69,0.36,21.72,-0.24,-3.90,38.91,-6.54,2.01,-38.19,4.81,-1.22,8.30
-7,4,203,-63,-355,3938,-0.66,0.35,20.79,-0.63,-3.55,39.38,-6.53,2.00,-38.28,4.63,-1.50,8.26
9,19,172,40,-388,3859,-0.54,0.43,19.76,0.40,-3.88,38.59,-6.52,2.00,-38.36,4.27,-1.82,9.80
-7,13,185,-43,-532,3874,-0.53,0.47,18.91,-0.43,-5.32,38.74,-6.53,2.00,-38.43,4.60,-1.71,7.81
-5,7,195,-28,-504,3924,-0.51,0.47,18.21,-0.28,-5.04,39.24,-6.54,1.99,-38.50,4.56,-1.58,6.22
-1,12,199,16,-434,3892,-0.46,0.49,17.60,0.16,-4.34,38.92,-6.54,1.98,-38.57,4.46,-1.69,5.25
-1,12,185,79,-403,3843,-0.42,0.52,16.97,0.79,-4.03,38.43,-6.53,1.97,-38.64,4.45,-1.69,5.77
-6,-15,217,36,-533,3931,-0.42,0.37,16.60,0.36,-5.33,39.31,-6.54,1.96,-38.70,4.55,-1.09,2.67
-11,-13,233,54,-518,3926,-0.44,0.26,16.36,0.54,-5.18,39.26,-6.55,1.96,-38.77,4.67,-1.10,1.07
-14,-9,211,84,-477,3889,-0.48,0.18,16.01,0.84,-4.77,38.89,-6.55,1.95,-38.83,4.74,-1.15,2.57
-17,-3,213,69,-467,3855,-0.54,0.14,15.71,0.69,-4.67,38.55,-6.55,1.94,-38.89,4.82,-1.25,2.09
-4,8,165,97,-420,3913,-0.51,0.17,15.14,0.97,-4.20,39.13,-6.55,1.92,-38.96,4.54,-1.48,5.56
-1,8,142,132,-393,3880,-0.46,0.21,14.49,1.32,-3.93,38.80,-6.55,1.91,-39.01,4.47,-1.48,6.83
-10,15,181,14,-460,3911,-0.48,0.28,14.15,0.14,-4.60,39.11,-6.55,1.90,-39.07,4.66,-1.64,3.16
-13,19,192,-15,-428,3953,-0.51,0.37,13.91,-0.15,-4.28,39.53,-6.54,1.89,-39.12,4.72,-1.74,1.98
9,3,135,95,-412,3924,-0.40,0.35,13.34,0.95,-4.12,39.24,-6.54,1.88,-39.18,4.24,-1.40,6.21
11,3,117,92,-413,3905,-0.30,0.33,12.72,0.92,-4.13,39.05,-6.54,1.87,-39.23,4.17,-1.39,7.09
-6,-3,154,132,-454,3908,-0.30,0.28,12.39,1.32,-4.54,39.08,-6.54,1.86,-39.28,4.52,-1.24,3.60
-6,-8,183,233,-441,3866,-0.31,0.20,12.26,2.33,-4.41,38.66,-6.54,1.85,-39.33,4.52,-1.11,1.02
-2,19,344,160,-677,3880,-0.29,0.30,13.14,1.60,-6.77,38.80,-6.55,1.84,-39.38,4.44,-1.68,-11.69
-2,23,333,144,-649,3910,-0.27,0.41,13.85,1.44,-6.49,39.10,-6.56,1.83,-39.43,4.44,-1.79,-9.99
-4,26,333,152,-577,3878,-0.27,0.53,14.50,1.52,-5.77,38.78,-6.57,1.83,-39.49,4.49,-1.88,-9.31
-35,-24,347,-34,-557,3931,-0.46,0.33,15.17,-0.34,-5.57,39.31,-6.58,1.82,-39.55,5.18,-0.80,-9.78
-6,-2,344,47,-450,3900,-0.45,0.28,15.75,0.47,-4.50,39.00,-6.58,1.81,-39.61,4.59,-1.23,-8.90
-11,0,348,55,-403,3879,-0.47,0.25,16.30,0.55,-4.03,38.79,-6.57,1.80,-39.68,4.69,-1.26,-8.66
-1,22,281,-6,-386,3901,-0.43,0.36,16.38,-0.06,-3.86,39.01,-6.57,1.80,-39.74,4.47,-1.73,-2.89
-6,-9,232,0,-383,3915,-0.42,0.27,16.16,0.00,-3.83,39.15,-6.56,1.79,-39.81,4.56,-1.07,1.04
13,-3,261,186,-460,3813,-0.30,0.23,16.13,1.86,-4.60,38.13,-6.56,1.78,-39.87,4.15,-1.17,-1.44
1,13,298,189,-482,3957,-0.27,0.28,16.34,1.89,-4.82,39.57,-6.56,1.77,-39.93,4.38,-1.51,-4.35
-5,28,337,60,-523,3922,-0.27,0.43,16.76,0.60,-5.23,39.22,-6.56,1.76,-40.00,4.51,-1.85,-7.20
-9,-11,358,122,-547,3920,-0.30,0.32,17.27,1.22,-5.47,39.20,-6.57,1.75,-40.07,4.60,-1.02,-8.44
-7,-4,362,-84,-574,3937,-0.31,0.26,17.75,-0.84,-5.74,39.37,-6.59,1.76,-40.14,4.57,-1.15,-8.26
-15,-8,321,-5,-343,3883,-0.37,0.19,17.93,-0.05,-3.43,38.83,-6.57,1.75,-40.21,4.74,-1.04,-4.59
3,10,315,47,-462,3855,-0.32,0.23,18.06,0.47,-4.62,38.55,-6.57,1.74,-40.28,4.36,-1.42,-3.94
-7,6,310,-35,-356,3868,-0.33,0.24,18.15,-0.35,-3.56,38.68,-6.56,1.74,-40.35,4.56,-1.34,-3.42
2,5,242,9,-476,3937,-0.28,0.25,17.81,0.09,-4.76,39.37,-6.56,1.73,-40.42,4.37,-1.31,1.99
9,13,244,166,-581,3966,-0.20,0.30,17.52,1.66,-5.81,39.66,-6.57,1.72,-40.49,4.21,-1.48,1.52
-6,6,298,46,-387,4036,-0.22,0.31,17.58,0.46,-3.87,40.36,-6.56,1.72,-40.56,4.51,-1.34,-2.98
10,17,277,-66,-409,3804,-0.13,0.38,17.51,-0.66,-4.09,38.04,-6.55,1.71,-40.63,4.15,-1.58,-1.27
0,-3,299,-34,-506,3906,-0.12,0.33,17.59,-0.34,-5.06,39.06,-6.56,1.70,-40.70,4.36,-1.15,-3.05
-8,8,326,-48,-491,3978,-0.16,0.34,17.82,-0.48,-4.91,39.78,-6.56,1.70,-40.77,4.54,-1.38,-5.09
-16,8,401,-48,-478,3816,-0.24,0.36,18.48,-0.48,-4.78,38.16,-6.57,1.69,-40.85,4.73,-1.38,-10.73
-15,7,392,43,-614,3859,-0.31,0.36,19.02,0.43,-6.14,38.59,-6.58,1.69,-40.92,4.73,-1.36,-9.38
8,6,216,-208,-234,3916,-0.23,0.36,18.44,-2.08,-2.34,39.16,-6.57,1.71,-41.00,4.23,-1.35,4.91
-1,4,183,-59,-285,3875,-0.21,0.35,17.71,-0.59,-2.85,38.75,-6.55,1.71,-41.07,4.40,-1.31,6.95
3,15,248,188,-556,3867,-0.17,0.41,17.45,1.88,-5.56,38.67,-6.55,1.70,-41.14,4.31,-1.54,1.17
-10,-1,309,130,-486,3864,-0.21,0.36,17.59,1.30,-4.86,38.64,-6.55,1.69,-41.20,4.59,-1.20,-3.84
-12,4,342,103,-441,3889,-0.27,0.35,17.92,1.03,-4.41,38.89,-6.55,1.68,-41.28,4.64,-1.29,-6.29
-2,7,324,189,-463,3845,-0.25,0.36,18.10,1.89,-4.63,38.45,-6.55,1.68,-41.35,4.43,-1.35,-4.56
-1,12,352,71,-439,3907,-0.23,0.39,18.44,0.71,-4.39,39.07,-6.55,1.67,-41.42,4.41,-1.45,-6.57
-28,-2,380,6,-356,3879,-0.38,0.34,18.91,0.06,-3.56,38.79,-6.54,1.66,-41.50,4.99,-1.15,-8.43
-9,0,339,-9,-399,3945,-0.40,0.31,19.09,-0.09,-3.99,39.45,-6.53,1.66,-41.57,4.60,-1.18,-4.76
2,13,312,-38,-469,3927,-0.35,0.36,19.09,-0.38,-4.69,39.27,-6.53,1.65,-41.65,4.37,-1.45,-2.48
-1,9,265,98,-376,3797,-0.32,0.38,18.79,0.98,-3.76,37.97,-6.53,1.64,-41.72,4.42,-1.37,1.20
5,6,270,148,-489,3972,-0.25,0.38,18.56,1.48,-4.89,39.72,-6.53,1.63,-41.80,4.28,-1.30,0.54
-10,-6,354,166,-608,3951,-0.29,0.30,18.86,1.66,-6.08,39.51,-6.54,1.63,-41.87,4.60,-1.03,-6.25
-18,-12,372,73,-583,3929,-0.37,0.20,19.25,0.73,-5.83,39.29,-6.55,1.62,-41.95,4.79,-0.88,-7.36
-28,-7,356,186,-389,3844,-0.50,0.14,19.49,1.86,-3.89,38.44,-6.54,1.61,-42.02,5.03,-0.96,-5.74
-16,-5,376,93,-377,3948,-0.55,0.09,19.84,0.93,-3.77,39.48,-6.54,1.60,-42.10,4.79,-0.98,-7.06
-16,1,356,26,-327,3953,-0.59,0.09,20.03,0.26,-3.27,39.53,-6.53,1.60,-42.18,4.79,-1.10,-5.16
5,2,333,8,-350,3935,-0.50,0.09,20.05,0.08,-3.50,39.35,-6.51,1.60,-42.26,4.33,-1.12,-3.17
24,18,258,-4,-438,3909,-0.31,0.19,19.62,-0.04,-4.38,39.09,-6.51,1.59,-42.34,3.89,-1.47,2.73
14,16,276,34,-428,3858,-0.19,0.27,19.34,0.34,-4.28,38.58,-6.51,1.58,-42.42,4.06,-1.44,0.92
6,1,225,-191,-504,3960,-0.14,0.25,18.78,-1.91,-5.04,39.60,-6.52,1.60,-42.49,4.22,-1.15,4.65
6,14,212,-49,-489,3905,-0.09,0.31,18.20,-0.49,-4.89,39.05,-6.52,1.60,-42.56,4.21,-1.42,5.14
-10,16,247,50,-483,3899,-0.14,0.38,17.88,0.50,-4.83,38.99,-6.53,1.59,-42.64,4.55,-1.48,1.85
2,21,235,117,-439,3829,-0.11,0.47,17.53,1.17,-4.39,38.29,-6.53,1.58,-42.70,4.30,-1.60,2.50
-14,-1,358,52,-693,3939,-0.19,0.41,17.96,0.52,-6.93,39.39,-6.54,1.58,-42.78,4.65,-1.14,-7.46
-18,4,372,-64,-653,3902,-0.28,0.40,18.43,-0.64,-6.53,39.02,-6.56,1.59,-42.85,4.77,-1.24,-8.14
-7,2,254,139,-439,3903,-0.29,0.37,18.14,1.39,-4.39,39.03,-6.56,1.58,-42.92,4.55,-1.18,1.55
-9,17,289,-113,-554,3893,-0.32,0.44,18.09,-1.13,-5.54,38.93,-6.57,1.59,-42.99,4.61,-1.51,-1.46
-7,-18,342,-74,-433,3956,-0.33,0.28,18.37,-0.74,-4.33,39.56,-6.56,1.58,-43.06,4.56,-0.76,-5.65
-13,17,380,10,-430,3893,-0.38,0.36,18.85,0.10,-4.30,38.93,-6.56,1.58,-43.14,4.70,-1.48,-8.35
-10,26,409,-68,-662,3873,-0.40,0.48,19.46,-0.68,-6.62,38.73,-6.58,1.58,-43.22,4.65,-1.70,-10.16
-5,-5,436,104,-761,3990,-0.39,0.40,20.17,1.04,-7.61,39.90,-6.59,1.58,-43.30,4.56,-1.05,-11.68
-16,-18,500,111,-442,3996,-0.45,0.25,21.20,1.11,-4.42,39.96,-6.59,1.58,-43.38,4.80,-0.74,-16.00
-17,20,566,278,-510,3873,-0.51,0.35,22.54,2.78,-5.10,38.73,-6.59,1.57,-43.47,4.83,-1.54,-20.00
7,23,409,80,-439,3948,-0.41,0.45,22.78,0.80,-4.39,39.48,-6.59,1.56,-43.56,4.32,-1.62,-6.61
8,22,368,24,-438,3838,-0.32,0.54,22.74,0.24,-4.38,38.38,-6.59,1.56,-43.65,4.27,-1.62,-3.17
18,3,303,115,-459,3971,-0.18,0.51,22.32,1.15,-4.59,39.71,-6.59,1.55,-43.74,4.03,-1.22,1.90
22,22,302,66,-448,3916,-0.03,0.59,21.93,0.66,-4.48,39.16,-6.58,1.55,-43.82,3.91,-1.63,1.58
20,12,274,-38,-394,3849,0.10,0.60,21.41,-0.38,-3.94,38.49,-6.57,1.54,-43.91,3.90,-1.43,3.41
4,8,267,15,-355,3856,0.11,0.59,20.90,0.15,-3.55,38.56,-6.56,1.54,-43.99,4.22,-1.34,3.46
10,16,181,-145,-370,3876,0.16,0.63,19.91,-1.45,-3.70,38.76,-6.54,1.56,-44.07,4.07,-1.53,9.71
10,-2,152,-124,-376,3978,0.21,0.56,18.85,-1.24,-3.76,39.78,-6.52,1.58,-44.15,4.04,-1.15,11.05
11,17,145,-51,-360,3885,0.25,0.60,17.85,-0.51,-3.60,38.85,-6.50,1.58,-44.22,4.00,-1.55,10.59
16,11,109,97,-391,3906,0.32,0.61,16.73,0.97,-3.91,39.06,-6.49,1.57,-44.29,3.87,-1.42,12.46
13,-1,137,338,-353,3872,0.37,0.54,15.89,3.38,-3.53,38.72,-6.48,1.56,-44.35,3.91,-1.16,9.21
8,12,189,308,-418,3869,0.38,0.56,15.45,3.08,-4.18,38.69,-6.48,1.55,-44.41,4.01,-1.42,4.35
9,10,166,-24,-418,3855,0.40,0.57,14.92,-0.24,-4.18,38.55,-6.47,1.54,-44.47,3.98,-1.38,5.74
14,7,151,-46,-453,3893,0.45,0.55,14.35,-0.46,-4.53,38.93,-6.47,1.53,-44.53,3.87,-1.30,6.41
5,16,10,-226,-417,3922,0.43,0.60,12.98,-2.26,-4.17,39.22,-6.46,1.56,-44.58,4.05,-1.52,16.90
3,13,-2,-11,-412,3849,0.41,0.62,11.67,-0.11,-4.12,38.49,-6.46,1.55,-44.62,4.09,-1.45,16.54
10,6,42,90,-472,3933,0.43,0.59,10.76,0.90,-4.72,39.33,-6.46,1.54,-44.67,3.94,-1.30,11.85
-9,-8,70,-6,-455,3912,0.33,0.48,10.11,-0.06,-4.55,39.12,-6.46,1.53,-44.71,4.35,-0.98,8.80
5,6,27,-21,-460,3943,0.33,0.47,9.26,-0.21,-4.60,39.43,-6.46,1.51,-44.74,4.07,-1.25,11.55
-1,-3,43,105,-585,3880,0.29,0.41,8.60,1.05,-5.85,38.80,-6.47,1.50,-44.78,4.21,-1.04,9.49
8,14,129,266,-468,3899,0.31,0.45,8.52,2.66,-4.68,38.99,-6.46,1.49,-44.81,4.02,-1.39,2.13
5,2,157,263,-481,3803,0.31,0.42,8.63,2.63,-4.81,38.03,-6.47,1.48,-44.84,4.08,-1.13,-0.13
9,14,137,-11,-355,3890,0.33,0.46,8.60,-0.11,-3.55,38.90,-6.45,1.47,-44.88,3.98,-1.38,1.54
13,7,114,88,-423,3931,0.38,0.46,8.44,0.88,-4.23,39.31,-6.45,1.46,-44.91,3.89,-1.23,3.32
6,15,206,23,-477,3903,0.38,0.50,8.85,0.23,-4.77,39.03,-6.45,1.45,-44.95,4.03,-1.40,-4.04
4,6,222,-88,-495,3888,0.36,0.49,9.32,-0.88,-4.95,38.88,-6.46,1.45,-44.98,4.09,-1.21,-4.89
-1,-1,199,-45,-521,3978,0.32,0.43,9.60,-0.45,-5.21,39.78,-6.48,1.44,-45.02,4.21,-1.05,-2.64
1,19,193,-70,-479,3952,0.29,0.51,9.82,-0.70,-4.79,39.52,-6.49,1.44,-45.06,4.18,-1.47,-1.90
-1,24,194,-91,-530,3918,0.26,0.60,10.02,-0.91,-5.30,39.18,-6.50,1.44,-45.10,4.24,-1.60,-1.77
-6,2,149,-158,-524,3903,0.20,0.55,9.93,-1.58,-5.24,39.03,-6.52,1.46,-45.14,4.37,-1.16,1.95
-9,-3,88,-85,-585,3939,0.12,0.48,9.47,-0.85,-5.85,39.39,-6.53,1.46,-45.17,4.46,-1.04,6.64
-5,4,84,-6,-615,3893,0.08,0.46,9.04,-0.06,-6.15,38.93,-6.55,1.46,-45.21,4.40,-1.17,6.52
-7,-5,106,85,-454,3915,0.03,0.38,8.78,0.85,-4.54,39.15,-6.55,1.45,-45.24,4.46,-0.96,4.39
-7,-3,107,80,-496,3883,-0.02,0.32,8.55,0.80,-4.96,38.83,-6.55,1.44,-45.28,4.47,-0.98,4.07
0,9,104,145,-377,3919,-0.02,0.35,8.33,1.45,-3.77,39.19,-6.54,1.42,-45.31,4.32,-1.22,4.09
3,3,99,13,-349,3906,0.00,0.33,8.10,0.13,-3.49,39.06,-6.53,1.41,-45.34,4.25,-1.08,4.27
14,14,34,158,-418,3879,0.09,0.38,7.50,1.58,-4.18,38.79,-6.53,1.40,-45.37,4.00,-1.31,9.15
12,2,42,114,-486,3869,0.15,0.36,7.01,1.14,-4.86,38.69,-6.53,1.39,-45.40,4.02,-1.05,7.95
-1,5,85,22,-434,3897,0.13,0.35,6.82,0.22,-4.34,38.97,-6.53,1.37,-45.43,4.29,-1.10,4.11
4,7,98,43,-480,3875,0.14,0.36,6.74,0.43,-4.80,38.75,-6.53,1.36,-45.45,4.19,-1.14,2.92
-1,12,83,74,-385,3935,0.12,0.40,6.57,0.74,-3.85,39.35,-6.52,1.35,-45.48,4.29,-1.24,4.02
4,7,89,35,-379,3939,0.14,0.40,6.46,0.35,-3.79,39.39,-6.51,1.34,-45.50,4.18,-1.13,3.39
3,8,76,-51,-461,3915,0.14,0.41,6.28,-0.51,-4.61,39.15,-6.52,1.32,-45.53,4.20,-1.15,4.30
-1,5,63,-11,-379,3936,0.12,0.40,6.03,-0.11,-3.79,39.36,-6.51,1.31,-45.55,4.28,-1.08,5.15
4,7,46,-2,-505,3901,0.13,0.40,5.71,-0.02,-5.05,39.01,-6.52,1.30,-45.58,4.18,-1.11,6.25
-2,-11,60,68,-434,3964,0.11,0.29,5.50,0.68,-4.34,39.64,-6.51,1.29,-45.60,4.31,-0.71,4.85
-4,1,142,79,-460,3902,0.07,0.27,5.82,0.79,-4.60,39.02,-6.51,1.27,-45.62,4.36,-0.94,-1.76
-4,-7,144,79,-459,3904,0.04,0.20,6.12,0.79,-4.59,39.04,-6.51,1.26,-45.64,4.37,-0.74,-1.61
-15,-6,177,60,-400,3829,-0.06,0.14,6.58,0.60,-4.00,38.29,-6.51,1.25,-45.67,4.62,-0.74,-3.91
-12,0,189,21,-387,3972,-0.12,0.13,7.08,0.21,-3.87,39.72,-6.50,1.23,-45.70,4.57,-0.85,-4.40
-11,6,274,32,-488,3853,-0.18,0.15,8.04,0.32,-4.88,38.53,-6.51,1.22,-45.73,4.57,-0.97,-10.58
-18,-4,301,-25,-488,3892,-0.27,0.11,9.07,-0.25,-4.88,38.92,-6.52,1.21,-45.77,4.74,-0.75,-11.77
-26,0,297,35,-434,3889,-0.40,0.10,9.98,0.35,-4.34,38.89,-6.52,1.20,-45.81,4.94,-0.82,-10.47
-27,6,309,95,-464,3953,-0.53,0.13,10.87,0.95,-4.64,39.53,-6.52,1.19,-45.85,5.00,-0.94,-10.55
-38,9,333,102,-522,3865,-0.71,0.17,11.81,1.02,-5.22,38.65,-6.53,1.17,-45.90,5.27,-1.00,-11.58
-35,-12,307,43,-532,3967,-0.85,0.08,12.50,0.43,-5.32,39.67,-6.54,1.16,-45.95,5.26,-0.55,-8.64
-56,-8,228,-57,-329,3921,-1.10,0.02,12.64,-0.57,-3.29,39.21,-6.53,1.17,-46.00,5.75,-0.61,-1.79
-47,-19,212,-112,-379,4004,-1.28,-0.09,12.67,-1.12,-3.79,40.04,-6.51,1.18,-46.05,5.60,-0.37,-0.40
-19,-18,190,54,-343,3959,-1.27,-0.20,12.56,0.54,-3.43,39.59,-6.51,1.17,-46.10,5.03,-0.35,1.35
-28,-5,194,65,-321,3768,-1.31,-0.21,12.49,0.65,-3.21,37.68,-6.50,1.16,-46.15,5.22,-0.61,0.94
-18,-2,172,230,-411,3881,-1.29,-0.20,12.29,2.30,-4.11,38.81,-6.50,1.15,-46.20,5.01,-0.66,2.60
-14,18,165,171,-361,3866,-1.25,-0.07,12.07,1.71,-3.61,38.66,-6.50,1.13,-46.24,4.91,-1.10,2.96
0,17,89,-25,-370,3938,-1.12,0.04,11.40,-0.25,-3.70,39.38,-6.49,1.13,-46.29,4.59,-1.10,8.70
1,8,82,-4,-362,3958,-1.00,0.09,10.76,-0.04,-3.62,39.58,-6.48,1.12,-46.33,4.53,-0.93,8.62
1,-11,73,211,-403,3883,-0.90,0.01,10.13,2.11,-4.03,38.83,-6.48,1.11,-46.37,4.50,-0.51,8.72
8,-1,120,273,-414,3955,-0.76,0.00,9.85,2.73,-4.14,39.55,-6.48,1.10,-46.41,4.32,-0.70,4.44
-9,-5,89,-121,-436,3885,-0.74,-0.03,9.41,-1.21,-4.36,38.85,-6.48,1.12,-46.45,4.66,-0.63,6.60
-6,-3,49,-14,-384,3872,-0.70,-0.04,8.77,-0.14,-3.84,38.72,-6.47,1.11,-46.49,4.58,-0.66,9.32
3,0,16,50,-466,3929,-0.61,-0.04,7.99,0.50,-4.66,39.29,-6.47,1.09,-46.52,4.38,-0.71,11.29
7,-1,28,82,-510,3920,-0.51,-0.04,7.36,0.82,-5.10,39.20,-6.48,1.08,-46.55,4.27,-0.68,9.61
13,4,91,198,-501,3876,-0.38,-0.01,7.18,1.98,-5.01,38.76,-6.49,1.06,-46.57,4.12,-0.78,4.08
4,-5,118,197,-526,3869,-0.32,-0.04,7.18,1.97,-5.26,38.69,-6.49,1.05,-46.60,4.29,-0.58,1.80
3,23,174,-35,-540,3893,-0.27,0.10,7.52,-0.35,-5.40,38.93,-6.51,1.05,-46.63,4.31,-1.19,-2.58
0,21,139,-146,-489,3904,-0.24,0.22,7.62,-1.46,-4.89,39.04,-6.52,1.07,-46.66,4.37,-1.19,0.49
-1,-12,187,43,-531,3874,-0.22,0.13,8.00,0.43,-5.31,38.74,-6.53,1.06,-46.69,4.39,-0.49,-3.17
-4,9,197,-31,-459,3838,-0.22,0.17,8.40,-0.31,-4.59,38.38,-6.54,1.05,-46.73,4.46,-0.92,-3.59
5,18,129,-13,-438,3857,-0.17,0.26,8.35,-0.13,-4.38,38.57,-6.54,1.03,-46.76,4.26,-1.12,2.12
6,8,109,-78,-443,3918,-0.12,0.28,8.18,-0.78,-4.43,39.18,-6.53,1.05,-46.79,4.22,-0.93,3.64
-9,4,110,52,-424,3889,-0.16,0.28,8.03,0.52,-4.24,38.89,-6.52,1.04,-46.82,4.53,-0.84,3.40
-4,5,105,2,-388,3912,-0.17,0.28,7.87,0.02,-3.88,39.12,-6.51,1.03,-46.86,4.43,-0.86,3.65
-2,4,98,39,-473,3933,-0.16,0.28,7.68,0.39,-4.73,39.33,-6.52,1.01,-46.89,4.39,-0.83,4.05
-6,4,88,10,-434,3899,-0.18,0.27,7.45,0.10,-4.34,38.99,-6.51,1.00,-46.92,4.47,-0.82,4.65
0,-3,68,4,-430,3931,-0.17,0.23,7.12,0.04,-4.30,39.31,-6.51,0.99,-46.94,4.34,-0.65,6.00
0,0,65,13,-425,3859,-0.15,0.21,6.80,0.13,-4.25,38.59,-6.51,0.97,-46.97,4.33,-0.70,5.92
-2,10,58,-6,-440,3858,-0.15,0.25,6.48,-0.06,-4.40,38.58,-6.51,0.96,-47.00,4.37,-0.90,6.17
-4,2,45,-56,-401,3899,-0.16,0.23,6.10,-0.56,-4.01,38.99,-6.49,0.96,-47.02,4.41,-0.74,6.88
-2,6,46,12,-460,3905,-0.15,0.25,5.77,0.12,-4.60,39.05,-6.49,0.94,-47.04,4.37,-0.81,6.45
-6,0,61,-8,-488,3954,-0.17,0.22,5.57,-0.08,-4.88,39.54,-6.50,0.93,-47.07,4.46,-0.68,4.96
-11,-2,97,-14,-553,3913,-0.22,0.19,5.60,-0.14,-5.53,39.13,-6.52,0.93,-47.09,4.59,-0.62,1.95
-17,-2,124,23,-513,3843,-0.31,0.16,5.80,0.23,-5.13,38.43,-6.53,0.92,-47.11,4.74,-0.61,-0.12
-25,7,200,-7,-498,3842,-0.43,0.18,6.44,-0.07,-4.98,38.42,-6.55,0.91,-47.14,4.95,-0.79,-5.88
-29,-9,219,-76,-554,3921,-0.56,0.11,7.13,-0.76,-5.54,39.21,-6.57,0.91,-47.16,5.08,-0.45,-6.76
-25,1,310,-66,-480,3857,-0.66,0.11,8.31,-0.66,-4.80,38.57,-6.59,0.92,-47.20,5.04,-0.66,-13.22
-17,0,331,-140,-500,3937,-0.70,0.10,9.50,-1.40,-5.00,39.37,-6.60,0.94,-47.23,4.89,-0.65,-13.74
-15,9,388,102,-526,3889,-0.72,0.14,10.91,1.02,-5.26,38.89,-6.61,0.93,-47.28,4.86,-0.83,-17.06
-15,-1,390,-14,-520,3890,-0.74,0.12,12.20,-0.14,-5.20,38.90,-6.63,0.93,-47.33,4.88,-0.62,-15.86
-15,-10,415,70,-583,3866,-0.76,0.05,13.51,0.70,-5.83,38.66,-6.64,0.92,-47.38,4.89,-0.42,-16.59
-29,3,413,101,-475,3865,-0.86,0.06,14.68,1.01,-4.75,38.65,-6.65,0.91,-47.44,5.21,-0.68,-15.18
-26,4,349,97,-395,3868,-0.93,0.08,15.34,0.97,-3.95,38.68,-6.64,0.90,-47.50,5.17,-0.70,-9.05
-17,12,299,98,-357,3886,-0.94,0.14,15.63,0.98,-3.57,38.86,-6.64,0.89,-47.56,4.98,-0.87,-4.50
9,10,227,177,-495,3961,-0.79,0.19,15.45,1.77,-4.95,39.61,-6.64,0.88,-47.62,4.42,-0.84,1.42
11,25,211,157,-453,3860,-0.65,0.32,15.19,1.57,-4.53,38.60,-6.64,0.87,-47.68,4.34,-1.17,2.50
3,-7,207,154,-406,4096,-0.56,0.25,14.94,1.54,-4.06,40.96,-6.64,0.86,-47.74,4.47,-0.49,2.58
17,27,178,190,-429,3846,-0.40,0.39,14.53,1.90,-4.29,38.46,-6.64,0.85,-47.80,4.14,-1.22,4.61
4,-4,144,-47,-512,3933,-0.34,0.33,13.96,-0.47,-5.12,39.33,-6.66,0.85,-47.85,4.40,-0.57,6.88
10,7,131,9,-468,4019,-0.24,0.34,13.36,0.09,-4.68,40.19,-6.66,0.84,-47.91,4.26,-0.79,7.36
9,9,134,114,-379,3857,-0.16,0.36,12.84,1.14,-3.79,38.57,-6.65,0.83,-47.96,4.25,-0.83,6.56
10,8,124,78,-288,3908,-0.09,0.37,12.31,0.78,-2.88,39.08,-6.63,0.83,-48.01,4.20,-0.81,6.85
22,22,123,148,-316,3844,0.06,0.47,11.83,1.48,-3.16,38.44,-6.62,0.82,-48.05,3.91,-1.12,6.43
21,6,116,47,-347,3929,0.18,0.46,11.36,0.47,-3.47,39.29,-6.61,0.82,-48.10,3.89,-0.78,6.53
-1,5,166,66,-504,3863,0.15,0.44,11.23,0.66,-5.04,38.63,-6.62,0.81,-48.14,4.34,-0.75,2.16
12,20,176,74,-475,3945,0.21,0.52,11.18,0.74,-4.75,39.45,-6.62,0.79,-48.19,4.06,-1.07,1.27
6,6,128,-65,-405,3933,0.23,0.50,10.85,-0.65,-4.05,39.33,-6.60,0.81,-48.23,4.17,-0.79,4.98
6,3,122,38,-387,3947,0.24,0.47,10.51,0.38,-3.87,39.47,-6.58,0.80,-48.27,4.16,-0.72,5.13
3,-6,128,-28,-459,3967,0.24,0.39,10.24,-0.28,-4.59,39.67,-6.58,0.79,-48.31,4.22,-0.50,4.34
6,8,138,77,-434,3881,0.25,0.40,10.05,0.77,-4.34,38.81,-6.58,0.77,-48.35,4.15,-0.78,3.31
1,-1,126,42,-380,3909,0.23,0.35,9.82,0.42,-3.80,39.09,-6.57,0.76,-48.39,4.25,-0.58,4.08
2,5,108,-13,-334,3854,0.22,0.35,9.49,-0.13,-3.34,38.54,-6.55,0.76,-48.43,4.22,-0.70,5.26
12,5,72,98,-357,3867,0.27,0.34,8.98,0.98,-3.57,38.67,-6.54,0.75,-48.47,4.00,-0.69,7.78
13,3,76,62,-408,3916,0.32,0.33,8.55,0.62,-4.08,39.16,-6.53,0.74,-48.50,3.96,-0.64,6.98
9,11,69,12,-375,3917,0.35,0.36,8.12,0.12,-3.75,39.17,-6.52,0.73,-48.53,4.02,-0.81,7.12
11,7,69,46,-397,3905,0.38,0.37,7.72,0.46,-3.97,39.05,-6.51,0.72,-48.56,3.97,-0.72,6.70
13,16,48,77,-404,3902,0.42,0.43,7.24,0.77,-4.04,39.02,-6.50,0.71,-48.59,3.91,-0.91,7.98
13,16,39,82,-428,3901,0.46,0.48,6.76,0.82,-4.28,39.01,-6.49,0.70,-48.62,3.90,-0.92,8.23
4,13,44,38,-445,3905,0.44,0.51,6.35,0.38,-4.45,39.05,-6.49,0.68,-48.64,4.08,-0.86,7.37
3,10,52,14,-472,3920,0.41,0.52,6.03,0.14,-4.72,39.20,-6.50,0.67,-48.67,4.11,-0.79,6.36
14,-3,98,147,-408,3985,0.45,0.45,6.03,1.47,-4.08,39.85,-6.49,0.66,-48.69,3.87,-0.50,2.46
18,4,121,39,-425,3939,0.52,0.43,6.16,0.39,-4.25,39.39,-6.48,0.65,-48.71,3.77,-0.63,0.66
5,12,63,56,-460,3865,0.50,0.46,5.93,0.56,-4.60,38.65,-6.48,0.63,-48.74,4.04,-0.79,5.33
-1,6,57,66,-460,3886,0.44,0.45,5.69,0.66,-4.60,38.86,-6.49,0.62,-48.76,4.18,-0.65,5.58
-4,-2,84,274,-540,3920,0.37,0.40,5.63,2.74,-5.40,39.20,-6.49,0.61,-48.78,4.26,-0.47,3.23
-2,4,132,374,-493,3873,0.32,0.38,5.87,3.74,-4.93,38.73,-6.49,0.59,-48.80,4.24,-0.58,-0.57
-1,-17,269,78,-444,3940,0.29,0.24,6.93,0.78,-4.44,39.40,-6.49,0.58,-48.83,4.22,-0.10,-11.06
-10,-11,290,73,-460,3868,0.20,0.15,8.00,0.73,-4.60,38.68,-6.49,0.56,-48.86,4.43,-0.19,-11.70
-1,-4,347,-129,-529,3915,0.17,0.11,9.32,-1.29,-5.29,39.15,-6.50,0.58,-48.90,4.26,-0.33,-15.13
-16,-15,334,57,-608,3895,0.06,0.01,10.42,0.57,-6.08,38.95,-6.52,0.58,-48.94,4.61,-0.08,-12.85
-12,-5,396,44,-666,3911,-0.02,-0.03,11.80,0.44,-6.66,39.11,-6.53,0.58,-48.99,4.56,-0.27,-16.65
-13,-3,392,16,-578,3921,-0.10,-0.04,13.01,0.16,-5.78,39.21,-6.55,0.57,-49.04,4.61,-0.31,-15.02
0,-1,355,93,-471,3838,-0.09,-0.04,13.87,0.93,-4.71,38.38,-6.55,0.56,-49.10,4.35,-0.34,-10.97
2,-1,361,166,-402,3873,-0.07,-0.04,14.69,1.66,-4.02,38.73,-6.55,0.55,-49.15,4.30,-0.33,-10.61
15,13,442,15,-530,3870,0.03,0.04,15.92,0.15,-5.30,38.70,-6.56,0.55,-49.22,4.02,-0.64,-16.17
-9,7,448,52,-532,3784,-0.03,0.08,17.06,0.52,-5.32,37.84,-6.58,0.54,-49.28,4.53,-0.52,-15.46
3,20,434,100,-589,3875,-0.01,0.19,18.00,1.00,-5.89,38.75,-6.59,0.54,-49.36,4.29,-0.82,-13.27
3,16,432,113,-593,3933,0.01,0.27,18.83,1.13,-5.93,39.33,-6.60,0.54,-49.43,4.29,-0.75,-12.21
-6,3,436,20,-519,3968,-0.03,0.26,19.61,0.20,-5.19,39.68,-6.61,0.53,-49.51,4.49,-0.48,-11.72
-6,9,428,7,-598,3901,-0.06,0.29,20.26,0.07,-5.98,39.01,-6.63,0.54,-49.59,4.51,-0.62,-10.35
-10,1,390,41,-555,3909,-0.12,0.27,20.61,0.41,-5.55,39.09,-6.64,0.54,-49.67,4.62,-0.45,-6.74
-9,5,382,31,-599,3897,-0.16,0.27,20.88,0.31,-5.99,38.97,-6.66,0.54,-49.75,4.62,-0.53,-5.77
-9,0,413,99,-567,3925,-0.20,0.24,21.31,0.99,-5.67,39.25,-6.67,0.54,-49.84,4.64,-0.42,-7.94
-12,-2,439,132,-511,3938,-0.25,0.21,21.86,1.32,-5.11,39.38,-6.68,0.53,-49.92,4.72,-0.37,-9.55
-13,-3,440,84,-444,3895,-0.31,0.17,22.36,0.84,-4.44,38.95,-6.68,0.52,-50.01,4.75,-0.33,-9.10
-14,3,425,16,-376,3905,-0.36,0.17,22.71,0.16,-3.76,39.05,-6.66,0.53,-50.10,4.78,-0.45,-7.45
1,3,320,-72,-271,3876,-0.32,0.17,22.39,-0.72,-2.71,38.76,-6.64,0.54,-50.19,4.45,-0.46,1.12
-5,6,297,-32,-248,3905,-0.32,0.19,21.97,-0.32,-2.48,39.05,-6.63,0.55,-50.28,4.56,-0.54,2.62
8,8,242,-15,-358,3957,-0.24,0.22,21.25,-0.15,-3.58,39.57,-6.61,0.56,-50.36,4.26,-0.59,6.53
-3,3,249,43,-346,3846,-0.23,0.22,20.64,0.43,-3.46,38.46,-6.59,0.56,-50.45,4.48,-0.49,5.30
10,14,276,1,-507,3793,-0.15,0.28,20.26,0.01,-5.07,37.93,-6.61,0.56,-50.53,4.20,-0.73,2.62
19,21,287,38,-514,3858,-0.02,0.38,19.98,0.38,-5.14,38.58,-6.62,0.55,-50.61,3.99,-0.90,1.40
12,18,334,-53,-601,3842,0.06,0.45,20.02,-0.53,-6.01,38.42,-6.64,0.57,-50.68,4.12,-0.86,-2.53
11,22,341,-8,-574,3928,0.12,0.54,20.10,-0.08,-5.74,39.28,-6.66,0.57,-50.76,4.14,-0.97,-3.04
16,14,285,-103,-578,3911,0.21,0.57,19.83,-1.03,-5.78,39.11,-6.67,0.59,-50.84,4.02,-0.83,1.43
17,10,256,-103,-565,3914,0.29,0.58,19.41,-1.03,-5.65,39.14,-6.68,0.61,-50.92,3.99,-0.77,3.45
35,13,106,-261,-616,3953,0.47,0.60,18.11,-2.61,-6.16,39.53,-6.69,0.64,-50.99,3.58,-0.85,14.79
31,6,43,-285,-607,3865,0.62,0.57,16.57,-2.85,-6.07,38.65,-6.70,0.67,-51.06,3.62,-0.72,18.49
46,11,-174,-178,-607,3940,0.83,0.58,13.85,-1.78,-6.07,39.40,-6.71,0.69,-51.11,3.26,-0.84,20.00
14,-8,-224,-189,-604,3789,0.84,0.48,11.10,-1.89,-6.04,37.89,-6.72,0.71,-51.15,3.92,-0.43,20.00
2,4,-308,0,-433,3869,0.76,0.45,8.11,0.00,-4.33,38.69,-6.71,0.70,-51.19,4.18,-0.66,20.00
16,11,-302,40,-330,3970,0.79,0.48,5.45,0.40,-3.30,39.70,-6.69,0.69,-51.21,3.87,-0.81,20.00
7,0,-195,210,-213,3948,0.75,0.43,3.72,2.10,-2.13,39.48,-6.67,0.68,-51.22,4.06,-0.57,20.00
-3,-6,-139,262,-245,3872,0.66,0.35,2.50,2.62,-2.45,38.72,-6.66,0.67,-51.23,4.28,-0.41,19.03
-2,-12,-1,360,-308,3817,0.58,0.24,2.24,3.60,-3.08,38.17,-6.65,0.65,-51.24,4.27,-0.25,7.07
6,10,41,293,-293,3794,0.56,0.28,2.27,2.93,-2.93,37.94,-6.64,0.64,-51.25,4.11,-0.70,3.54
6,19,124,66,-318,3817,0.54,0.37,2.80,0.66,-3.18,38.17,-6.62,0.63,-51.26,4.10,-0.90,-2.93
12,9,122,-7,-373,4012,0.56,0.38,3.26,-0.07,-3.73,40.12,-6.60,0.62,-51.27,3.96,-0.70,-2.27
207,201,56,-43,-554,4000,1.76,1.57,3.28,-0.43,-5.54,40.00,-6.62,0.63,-51.29,-0.32,-4.93,3.34
305,268,18,-40,-528,4084,3.45,3.05,3.06,-0.40,-5.28,40.84,-6.62,0.64,-51.30,-2.77,-6.71,6.33
32,32,-110,-96,-586,3993,3.30,2.94,2.08,-0.96,-5.86,39.93,-6.62,0.66,-51.30,2.82,-1.89,16.14
105,97,-145,-104,-541,3977,3.61,3.24,0.99,-1.04,-5.41,39.77,-6.62,0.69,-51.31,1.25,-3.31,17.95
22,14,-309,-204,-429,4150,3.38,3.00,-0.99,-2.04,-4.29,41.50,-6.60,0.72,-51.30,2.99,-1.58,20.00
41,24,-374,-200,-495,3790,3.29,2.85,-3.18,-2.00,-4.95,37.90,-6.60,0.74,-51.29,2.62,-1.75,20.00
25,18,-472,-133,-547,3916,3.12,2.67,-5.74,-1.33,-5.47,39.16,-6.60,0.76,-51.26,3.00,-1.60,20.00
17,1,-497,-149,-541,3835,2.91,2.41,-8.20,-1.49,-5.41,38.35,-6.60,0.78,-51.23,3.22,-1.19,20.00
23,10,-631,-201,-548,3980,2.76,2.23,-11.22,-2.01,-5.48,39.80,-6.60,0.80,-51.18,3.14,-1.34,20.00
-4,9,-689,-242,-526,3722,2.46,2.06,-14.31,-2.42,-5.26,37.22,-6.60,0.82,-51.13,3.77,-1.29,20.00
24,-2,-970,-458,-704,3781,2.36,1.84,-18.79,-4.58,-7.04,37.81,-6.60,0.83,-51.05,3.23,-1.01,20.00
3,-16,-1079,-452,-793,3865,2.14,1.56,-23.49,-4.52,-7.93,38.65,-6.61,0.84,-50.96,3.71,-0.66,20.00
1,0,-1433,-244,-963,4031,1.93,1.41,-29.89,-2.44,-9.63,40.31,-6.62,0.84,-50.84,3.82,-0.94,20.00
1,-31,-1522,-245,-1000,3908,1.75,1.08,-36.18,-2.45,-10.00,39.08,-6.63,0.83,-50.69,3.88,-0.21,20.00
30,-12,-1757,-107,-1027,3918,1.75,0.89,-43.28,-1.07,-10.27,39.18,-6.64,0.82,-50.52,3.30,-0.54,20.00
26,9,-1830,-50,-909,3962,1.74,0.86,-50.12,-0.50,-9.09,39.62,-6.66,0.80,-50.32,3.39,-0.95,20.00
36,12,-1914,-62,-824,3919,1.78,0.85,-56.78,-0.62,-8.24,39.19,-6.67,0.78,-50.09,3.18,-0.99,20.00
12,-8,-1920,26,-677,4014,1.68,0.71,-62.81,0.26,-6.77,40.14,-6.68,0.74,-49.84,3.71,-0.52,20.00
-3,-44,-2023,-257,-669,3883,1.49,0.37,-68.87,-2.57,-6.69,38.83,-6.70,0.73,-49.57,4.07,0.31,20.00
59,21,-2079,-280,-741,3828,1.70,0.46,-74.67,-2.80,-7.41,38.28,-6.71,0.70,-49.27,2.76,-1.02,20.00
-11,-63,-2270,-136,-804,3760,1.47,0.03,-81.05,-1.36,-8.04,37.60,-6.72,0.67,-48.95,4.26,0.83,20.00
17,3,-2332,-124,-917,3773,1.42,0.05,-87.17,-1.24,-9.17,37.73,-6.74,0.63,-48.60,3.71,-0.49,20.00
20,-1,-2549,-80,-812,3785,1.40,0.04,-94.00,-0.80,-8.12,37.85,-6.75,0.59,-48.23,3.67,-0.38,20.00
35,-11,-2595,-65,-732,4150,1.48,-0.03,-100.43,-0.65,-7.32,41.50,-6.77,0.55,-47.83,3.35,-0.13,20.00
-10,-34,-2828,-22,-552,4079,1.27,-0.24,-107.64,-0.22,-5.52,40.79,-6.79,0.49,-47.40,4.34,0.43,20.00
16,-42,-2919,77,-592,3791,1.24,-0.47,-114.68,0.77,-5.92,37.91,-6.80,0.42,-46.95,3.83,0.70,20.00
16,-24,-2980,177,-578,3810,1.21,-0.57,-121.39,1.77,-5.78,38.10,-6.81,0.35,-46.47,3.84,0.41,20.00
1,-31,-2967,246,-533,3783,1.10,-0.70,-127.35,2.46,-5.33,37.83,-6.81,0.27,-45.96,4.18,0.65,20.00
5,-26,-2846,366,-296,3829,1.02,-0.79,-131.98,3.66,-2.96,38.29,-6.80,0.18,-45.44,4.11,0.62,20.00
-7,-36,-2804,592,-392,3912,0.87,-0.93,-135.88,5.92,-3.92,39.12,-6.80,0.10,-44.90,4.39,0.92,20.00
0,3,-2651,729,229,3885,0.79,-0.82,-138.46,7.29,2.29,38.85,-6.78,0.01,-44.35,4.26,0.15,20.00
16,5,-2547,457,576,3943,0.80,-0.71,-140.16,4.57,5.76,39.43,-6.76,-0.06,-43.79,3.92,0.13,20.00
7,-12,-1872,984,746,3890,0.77,-0.71,-137.56,9.84,7.46,38.90,-6.75,-0.14,-43.24,4.10,0.53,16.83
11,-16,-1657,1164,795,3986,0.76,-0.74,-133.91,11.64,7.95,39.86,-6.73,-0.22,-42.71,4.01,0.67,2.43
-19,-16,-799,1242,971,3938,0.57,-0.76,-125.39,12.42,9.71,39.38,-6.71,-0.29,-42.21,4.66,0.73,-20.00
-7,-19,-329,1096,798,3857,0.47,-0.80,-114.86,10.96,7.98,38.57,-6.69,-0.36,-41.76,4.43,0.84,-20.00
-2,13,318,392,-288,3910,0.41,-0.64,-101.44,3.92,-2.88,39.10,-6.68,-0.43,-41.36,4.34,0.19,-20.00
9,21,438,183,-410,3906,0.42,-0.45,-88.62,1.83,-4.10,39.06,-6.67,-0.49,-41.00,4.10,0.02,-20.00
2,19,756,230,-531,3965,0.39,-0.29,-75.15,2.30,-5.31,39.65,-6.67,-0.54,-40.71,4.25,0.05,-20.00
-7,21,802,139,-375,3906,0.31,-0.13,-62.74,1.39,-3.75,39.06,-6.65,-0.59,-40.46,4.45,-0.00,-20.00
13,31,824,108,-387,3956,0.36,0.07,-51.44,1.08,-3.87,39.56,-6.64,-0.62,-40.25,4.02,-0.24,-20.00
13,31,799,149,-436,3890,0.40,0.25,-41.42,1.49,-4.36,38.90,-6.63,-0.66,-40.09,4.00,-0.27,-20.00
27,34,636,-92,-453,3994,0.53,0.44,-33.40,-0.92,-4.53,39.94,-6.63,-0.65,-39.95,3.68,-0.38,-20.00
11,10,603,42,-539,3708,0.54,0.45,-26.38,0.42,-5.39,37.08,-6.64,-0.66,-39.85,4.01,0.11,-20.00
6,8,493,-8,-516,3698,0.52,0.46,-20.74,-0.08,-5.16,36.98,-6.65,-0.66,-39.77,4.13,0.15,-20.00
16,-7,431,-213,-332,4232,0.57,0.37,-16.03,-2.13,-3.32,42.32,-6.64,-0.65,-39.70,3.90,0.47,-20.00
-3,-10,343,-5,-600,3984,0.49,0.27,-12.34,-0.05,-6.00,39.84,-6.66,-0.65,-39.65,4.32,0.56,-20.00
16,-4,337,-62,-526,3728,0.54,0.22,-9.05,-0.62,-5.26,37.28,-6.67,-0.64,-39.62,3.93,0.44,-20.00
8,6,366,1,-524,3755,0.54,0.23,-5.91,0.01,-5.24,37.55,-6.68,-0.63,-39.59,4.10,0.23,-20.00
-1,-6,386,-23,-594,3899,0.48,0.17,-2.97,-0.23,-5.94,38.99,-6.69,-0.63,-39.58,4.31,0.49,-20.00
-2,12,416,-93,-616,3770,0.42,0.23,-0.13,-0.93,-6.16,37.70,-6.71,-0.61,-39.58,4.35,0.10,-20.00
6,8,442,31,-497,4016,0.41,0.26,2.58,0.31,-4.97,40.16,-6.72,-0.60,-39.59,4.20,0.17,-20.00
-3,-2,447,-167,-383,3916,0.35,0.22,5.05,-1.67,-3.83,39.16,-6.71,-0.58,-39.61,4.40,0.37,-20.00
-15,3,453,-163,-301,3973,0.23,0.21,7.31,-1.63,-3.01,39.73,-6.70,-0.56,-39.64,4.67,0.25,-20.00
3,14,402,-41,-426,3974,0.22,0.28,9.03,-0.41,-4.26,39.74,-6.69,-0.54,-39.68,4.30,-0.00,-20.00
-2,7,389,31,-390,3875,0.19,0.29,10.50,0.31,-3.90,38.75,-6.67,-0.54,-39.72,4.39,0.13,-18.27
5,0,371,-32,-381,3951,0.20,0.26,11.71,-0.32,-3.81,39.51,-6.66,-0.52,-39.76,4.24,0.27,-15.45
9,9,353,36,-420,3952,0.23,0.29,12.69,0.36,-4.20,39.52,-6.64,-0.51,-39.82,4.14,0.07,-12.88
-5,5,329,0,-371,3943,0.18,0.29,13.43,0.00,-3.71,39.43,-6.62,-0.50,-39.87,4.42,0.15,-10.06
-1,13,330,-65,-368,3880,0.16,0.34,14.10,-0.65,-3.68,38.80,-6.61,-0.47,-39.92,4.34,-0.05,-9.43
6,12,384,-26,-318,3962,0.18,0.38,15.03,-0.26,-3.18,39.62,-6.60,-0.46,-39.98,4.18,-0.05,-13.02
4,5,424,-18,-259,3892,0.18,0.37,16.12,-0.18,-2.59,38.92,-6.58,-0.45,-40.05,4.21,0.09,-15.25
2,19,539,-34,-373,4038,0.18,0.45,17.79,-0.34,-3.73,40.38,-6.56,-0.42,-40.12,4.24,-0.23,-20.00
13,-1,562,-85,-404,3994,0.24,0.40,19.44,-0.85,-4.04,39.94,-6.55,-0.40,-40.19,4.00,0.17,-20.00
11,8,600,-9,-330,3906,0.28,0.41,21.16,-0.09,-3.30,39.06,-6.54,-0.38,-40.28,4.01,-0.02,-20.00
9,25,594,-147,-322,4041,0.31,0.52,22.66,-1.47,-3.22,40.41,-6.52,-0.35,-40.37,4.04,-0.42,-20.00
-23,3,553,73,-358,3984,0.14,0.49,23.77,0.73,-3.58,39.84,-6.51,-0.35,-40.46,4.73,0.04,-18.04
-2,19,548,-52,-322,4007,0.11,0.55,24.74,-0.52,-3.22,40.07,-6.49,-0.33,-40.56,4.29,-0.32,-16.58
-5,3,443,-136,-381,4018,0.07,0.52,24.97,-1.36,-3.81,40.18,-6.48,-0.30,-40.66,4.36,-0.01,-7.44
0,11,399,-130,-368,3866,0.06,0.53,24.90,-1.30,-3.68,38.66,-6.48,-0.27,-40.76,4.26,-0.19,-3.77
8,7,293,-10,-555,3794,0.11,0.52,24.20,-0.10,-5.55,37.94,-6.49,-0.25,-40.85,4.09,-0.12,4.48
-11,2,272,54,-658,3820,0.03,0.48,23.44,0.54,-6.58,38.20,-6.51,-0.24,-40.95,4.51,-0.01,5.46
-1,10,292,-9,-492,3831,0.02,0.50,22.88,-0.09,-4.92,38.31,-6.53,-0.22,-41.04,4.32,-0.19,3.18
1,17,307,48,-444,3982,0.02,0.55,22.46,0.48,-4.44,39.82,-6.52,-0.23,-41.13,4.28,-0.35,1.48
-5,4,374,88,-467,3891,-0.01,0.52,22.50,0.88,-4.67,38.91,-6.53,-0.23,-41.22,4.41,-0.07,-4.15
13,7,393,-107,-354,4063,0.07,0.51,22.64,-1.07,-3.54,40.63,-6.52,-0.21,-41.31,4.02,-0.15,-5.60
-5,8,285,-15,-322,3885,0.03,0.51,22.12,-0.15,-3.22,38.85,-6.50,-0.19,-41.39,4.38,-0.18,3.00
-4,2,265,-31,-285,3976,0.01,0.47,21.52,-0.31,-2.85,39.76,-6.48,-0.17,-41.48,4.36,-0.05,4.07
-1,3,106,-133,-320,3905,-0.00,0.44,20.02,-1.33,-3.20,39.05,-6.47,-0.15,-41.56,4.29,-0.08,15.96
4,5,73,-85,-392,3906,0.02,0.43,18.46,-0.85,-3.92,39.06,-6.46,-0.12,-41.63,4.18,-0.14,17.11
2,0,51,57,-412,3897,0.03,0.38,16.93,0.57,-4.12,38.97,-6.45,-0.13,-41.70,4.21,-0.02,17.35
0,2,49,60,-450,3931,0.03,0.36,15.53,0.60,-4.50,39.31,-6.45,-0.14,-41.76,4.25,-0.05,16.05
-15,18,199,237,-503,3913,-0.06,0.43,15.19,2.37,-5.03,39.13,-6.46,-0.15,-41.82,4.59,-0.39,2.99
-2,0,265,171,-399,4109,-0.07,0.39,15.29,1.71,-3.99,41.09,-6.45,-0.16,-41.88,4.32,-0.00,-2.49
-3,0,410,112,-400,3954,-0.08,0.35,16.26,1.12,-4.00,39.54,-6.45,-0.16,-41.94,4.34,0.01,-13.74
-1,0,468,61,-334,3992,-0.08,0.31,17.49,0.61,-3.34,39.92,-6.43,-0.16,-42.01,4.29,0.02,-17.35
-14,16,538,36,-273,3983,-0.16,0.38,19.02,0.36,-2.73,39.83,-6.41,-0.15,-42.09,4.56,-0.33,-20.00
-11,-25,558,-101,-65,4009,-0.21,0.19,20.52,-1.01,-0.65,40.09,-6.40,-0.14,-42.17,4.50,0.55,-20.00
3,-3,549,-19,-388,3988,-0.17,0.15,21.82,-0.19,-3.88,39.88,-6.38,-0.12,-42.26,4.20,0.10,-19.60
-3,18,534,79,-280,3880,-0.17,0.25,22.90,0.79,-2.80,38.80,-6.36,-0.12,-42.35,4.31,-0.36,-17.19
7,4,476,-59,-378,3876,-0.11,0.25,23.51,-0.59,-3.78,38.76,-6.35,-0.09,-42.44,4.08,-0.09,-11.61
4,8,444,-47,-471,3830,-0.08,0.27,23.87,-0.47,-4.71,38.30,-6.37,-0.07,-42.54,4.14,-0.19,-8.51
-6,-5,400,-26,-419,3849,-0.10,0.21,23.92,-0.26,-4.19,38.49,-6.36,-0.04,-42.63,4.35,0.07,-4.72
0,7,393,40,-423,3923,-0.09,0.23,23.93,0.40,-4.23,39.23,-6.35,-0.04,-42.73,4.22,-0.18,-4.12
-3,-1,374,19,-556,3852,-0.10,0.21,23.82,0.19,-5.56,38.52,-6.37,-0.03,-42.82,4.30,-0.01,-2.61
-4,2,333,26,-547,3884,-0.12,0.20,23.46,0.26,-5.47,38.84,-6.39,-0.03,-42.91,4.33,-0.08,0.50
-10,-3,333,-49,-469,3830,-0.17,0.16,23.15,-0.49,-4.69,38.30,-6.40,-0.00,-43.01,4.47,0.02,0.17
13,8,356,-64,-442,3928,-0.07,0.19,23.01,-0.64,-4.42,39.28,-6.40,0.03,-43.10,3.98,-0.23,-1.92
-16,-5,464,231,-316,3971,-0.16,0.14,23.54,2.31,-3.16,39.71,-6.40,0.02,-43.19,4.59,0.05,-10.50
12,26,489,67,-426,3809,-0.07,0.29,24.17,0.67,-4.26,38.09,-6.40,0.02,-43.29,4.00,-0.62,-11.94
12,18,586,96,-357,3899,0.01,0.37,25.32,0.96,-3.57,38.99,-6.38,0.02,-43.39,3.97,-0.48,-18.93
2,25,628,151,-397,3863,0.02,0.48,26.62,1.51,-3.97,38.63,-6.38,0.01,-43.49,4.16,-0.65,-20.00
-3,2,771,298,-300,3950,-0.00,0.45,28.66,2.98,-3.00,39.50,-6.37,0.01,-43.61,4.27,-0.17,-20.00
24,15,780,255,-321,3885,0.15,0.49,30.55,2.55,-3.21,38.85,-6.36,0.01,-43.73,3.67,-0.45,-20.00
-1,17,869,125,-355,4015,0.13,0.55,32.80,1.25,-3.55,40.15,-6.35,0.01,-43.86,4.18,-0.50,-20.00
-13,-3,855,38,-394,3946,0.03,0.48,34.74,0.38,-3.94,39.46,-6.34,0.02,-44.00,4.44,-0.08,-20.00
-1,-26,829,-167,-290,3972,0.02,0.27,36.32,-1.67,-2.90,39.72,-6.33,0.05,-44.14,4.19,0.42,-20.00
5,8,834,56,-253,3900,0.05,0.29,37.77,0.56,-2.53,39.00,-6.31,0.06,-44.29,4.05,-0.28,-20.00
-11,21,816,5,-331,3779,-0.02,0.39,38.97,0.05,-3.31,37.79,-6.29,0.07,-44.45,4.38,-0.58,-20.00
3,11,789,65,-390,3802,0.00,0.42,39.89,0.65,-3.90,38.02,-6.28,0.08,-44.60,4.09,-0.39,-20.00
-2,27,738,68,-427,3759,-0.01,0.54,40.40,0.68,-4.27,37.59,-6.29,0.08,-44.76,4.19,-0.75,-15.71
-13,-20,729,117,-407,3944,-0.09,0.36,40.81,1.17,-4.07,39.44,-6.28,0.08,-44.93,4.44,0.25,-14.51
-9,-4,748,25,-292,3995,-0.14,0.30,41.29,0.25,-2.92,39.95,-6.26,0.10,-45.09,4.35,-0.06,-15.59
1,-4,740,48,-308,3947,-0.12,0.25,41.68,0.48,-3.08,39.47,-6.25,0.11,-45.26,4.14,-0.06,-14.49
14,5,696,-129,-592,3921,-0.02,0.25,41.75,-1.29,-5.92,39.21,-6.26,0.14,-45.42,3.85,-0.26,-10.67
-9,-9,637,-137,-477,3942,-0.07,0.17,41.46,-1.37,-4.77,39.42,-6.27,0.17,-45.59,4.34,0.02,-5.96
-10,3,553,-92,-517,3827,-0.13,0.18,40.69,-0.92,-5.17,38.27,-6.28,0.20,-45.75,4.38,-0.24,0.35
-3,9,538,8,-418,4019,-0.13,0.21,39.90,0.08,-4.18,40.19,-6.27,0.21,-45.91,4.23,-0.38,0.80
-11,13,496,0,-288,3997,-0.19,0.27,38.94,0.00,-2.88,39.97,-6.25,0.23,-46.06,4.40,-0.49,3.36
10,3,482,-125,-400,3884,-0.11,0.26,37.99,-1.25,-4.00,38.84,-6.25,0.26,-46.21,3.95,-0.31,3.55
3,-2,395,61,-492,3814,-0.08,0.22,36.60,0.61,-4.92,38.14,-6.26,0.27,-46.36,4.09,-0.20,9.46
-4,0,377,42,-372,4058,-0.09,0.20,35.24,0.42,-3.72,40.58,-6.24,0.27,-46.50,4.23,-0.23,9.56
-11,13,390,212,-319,4013,-0.15,0.26,34.09,2.12,-3.19,40.13,-6.24,0.27,-46.63,4.38,-0.51,7.25
7,12,426,58,-344,3925,-0.09,0.31,33.28,0.58,-3.44,39.25,-6.22,0.27,-46.77,3.99,-0.51,3.36
7,-8,525,71,-369,3797,-0.04,0.23,33.16,0.71,-3.69,37.97,-6.21,0.27,-46.90,3.97,-0.08,-5.15
3,-6,585,111,-227,4007,-0.02,0.17,33.41,1.11,-2.27,40.07,-6.20,0.28,-47.03,4.03,-0.11,-9.95
-12,5,720,229,-247,3947,-0.09,0.18,34.46,2.29,-2.47,39.47,-6.19,0.28,-47.17,4.35,-0.33,-20.00
1,8,772,162,-174,3944,-0.08,0.21,35.72,1.62,-1.74,39.44,-6.17,0.28,-47.31,4.07,-0.41,-20.00
-4,22,898,231,-316,3879,-0.09,0.33,37.63,2.31,-3.16,38.79,-6.16,0.28,-47.46,4.17,-0.72,-20.00
6,-17,929,70,-380,3957,-0.05,0.19,39.53,0.70,-3.80,39.57,-6.15,0.29,-47.62,3.95,0.11,-20.00
-9,14,952,114,-613,3762,-0.10,0.26,41.39,1.14,-6.13,37.62,-6.17,0.29,-47.78,4.28,-0.55,-20.00
-8,-1,942,-8,-569,4014,-0.14,0.22,42.99,-0.08,-5.69,40.14,-6.19,0.31,-47.95,4.28,-0.25,-20.00
-12,-12,771,-298,-525,3977,-0.20,0.13,43.40,-2.98,-5.25,39.77,-6.19,0.35,-48.12,4.38,-0.02,-15.04
9,11,696,-309,-531,4025,-0.12,0.18,43.30,-3.09,-5.31,40.25,-6.20,0.39,-48.30,3.94,-0.53,-8.77
8,13,428,-472,-609,4044,-0.06,0.24,41.58,-4.72,-6.09,40.44,-6.20,0.42,-48.46,3.95,-0.61,12.13
-13,3,324,-263,-599,3851,-0.13,0.24,39.40,-2.63,-5.99,38.51,-6.21,0.45,-48.62,4.40,-0.43,18.65
8,14,147,-243,-661,3824,-0.07,0.30,36.36,-2.43,-6.61,38.24,-6.23,0.48,-48.76,3.97,-0.69,20.00
2,7,104,-188,-615,3929,-0.05,0.31,33.36,-1.88,-6.15,39.29,-6.24,0.51,-48.89,4.09,-0.56,20.00
-8,-1,55,-23,-415,3897,-0.10,0.27,30.36,-0.23,-4.15,38.97,-6.23,0.51,-49.02,4.30,-0.39,20.00
-7,-3,57,-18,-406,3899,-0.13,0.23,27.67,-0.18,-4.06,38.99,-6.21,0.51,-49.13,4.28,-0.34,20.00
-7,-2,63,0,-426,3924,-0.16,0.19,25.29,0.00,-4.26,39.24,-6.21,0.51,-49.23,4.29,-0.35,20.00
-7,7,59,9,-435,3904,-0.19,0.22,23.12,0.09,-4.35,39.04,-6.22,0.50,-49.32,4.30,-0.53,20.00
2,12,57,45,-431,3923,-0.15,0.27,21.15,0.45,-4.31,39.23,-6.22,0.49,-49.40,4.10,-0.64,20.00
-2,9,56,40,-420,3903,-0.15,0.30,19.38,0.40,-4.20,39.03,-6.22,0.48,-49.48,4.18,-0.58,20.00
-2,5,44,19,-379,3909,-0.15,0.30,17.71,0.19,-3.79,39.09,-6.20,0.48,-49.55,4.18,-0.50,19.48
1,4,37,24,-379,3922,-0.13,0.29,16.16,0.24,-3.79,39.22,-6.19,0.47,-49.61,4.10,-0.47,18.45
4,2,14,42,-437,3905,-0.09,0.28,14.63,0.42,-4.37,39.05,-6.19,0.46,-49.67,4.03,-0.42,18.78
2,-1,10,41,-439,3915,-0.07,0.24,13.23,0.41,-4.39,39.15,-6.20,0.45,-49.72,4.07,-0.34,17.64
-3,3,4,12,-411,3917,-0.08,0.24,11.93,0.12,-4.11,39.17,-6.19,0.44,-49.77,4.17,-0.41,16.78
-4,3,7,14,-401,3922,-0.10,0.23,10.78,0.14,-4.01,39.22,-6.18,0.43,-49.81,4.19,-0.41,15.31
-3,3,3,20,-391,3919,-0.11,0.23,9.72,0.20,-3.91,39.19,-6.17,0.42,-49.85,4.16,-0.40,14.53
-2,3,1,13,-392,3910,-0.11,0.22,8.76,0.13,-3.92,39.10,-6.16,0.41,-49.89,4.14,-0.39,13.68
-4,1,2,13,-405,3908,-0.12,0.21,7.89,0.13,-4.05,39.08,-6.16,0.39,-49.92,4.18,-0.34,12.68
-5,2,2,1,-404,3906,-0.14,0.20,7.12,0.01,-4.04,39.06,-6.15,0.38,-49.95,4.20,-0.35,11.86
-7,3,5,4,-386,3911,-0.17,0.20,6.43,0.04,-3.86,39.11,-6.13,0.37,-49.97,4.24,-0.36,10.89
-7,4,9,7,-381,3929,-0.19,0.20,5.85,0.07,-3.81,39.29,-6.12,0.37,-50.00,4.23,-0.38,9.93
2,2,46,89,-370,3903,-0.16,0.19,5.54,0.89,-3.70,39.03,-6.11,0.35,-50.02,4.04,-0.33,6.47
4,-6,79,140,-331,3872,-0.12,0.14,5.47,1.40,-3.31,38.72,-6.11,0.34,-50.04,3.98,-0.14,3.60
0,9,186,124,-308,3970,-0.11,0.18,6.06,1.24,-3.08,39.70,-6.09,0.33,-50.06,4.05,-0.45,-4.84
-5,-10,231,110,-374,3919,-0.13,0.10,6.86,1.10,-3.74,39.19,-6.09,0.31,-50.09,4.16,-0.03,-7.80
-2,-8,279,64,-374,3824,-0.13,0.04,7.88,0.64,-3.74,38.24,-6.08,0.30,-50.12,4.09,-0.05,-10.79
-5,2,294,96,-356,3949,-0.15,0.05,8.88,0.96,-3.56,39.49,-6.07,0.29,-50.16,4.15,-0.24,-10.99
-8,-5,335,5,-379,3970,-0.18,0.01,10.04,0.05,-3.79,39.70,-6.06,0.28,-50.20,4.21,-0.09,-13.24
-3,1,345,-29,-304,3869,-0.18,0.02,11.14,-0.29,-3.04,38.69,-6.04,0.29,-50.24,4.10,-0.22,-12.91
-1,-2,321,-38,-409,3831,-0.17,0.00,11.98,-0.38,-4.09,38.31,-6.04,0.31,-50.29,4.06,-0.17,-9.98
-3,9,298,-55,-373,4022,-0.17,0.06,12.60,-0.55,-3.73,40.22,-6.03,0.33,-50.34,4.09,-0.42,-7.37
-8,-9,219,-94,-569,3906,-0.20,-0.00,12.68,-0.94,-5.69,39.06,-6.05,0.34,-50.39,4.21,-0.04,-0.59
1,7,184,-165,-550,4029,-0.18,0.04,12.53,-1.65,-5.50,40.29,-6.06,0.36,-50.44,4.03,-0.39,2.22
-5,3,86,-37,-393,3885,-0.19,0.05,11.80,-0.37,-3.93,38.85,-6.04,0.38,-50.49,4.14,-0.32,9.76
0,1,83,18,-413,3895,-0.17,0.06,11.13,0.18,-4.13,38.95,-6.05,0.36,-50.53,4.04,-0.27,9.30
-3,6,97,32,-418,3869,-0.17,0.09,10.61,0.32,-4.18,38.69,-6.05,0.35,-50.57,4.10,-0.38,7.57
-4,1,98,20,-406,3915,-0.18,0.08,10.15,0.20,-4.06,39.15,-6.05,0.34,-50.61,4.12,-0.26,7.00
-6,1,97,24,-389,3904,-0.20,0.08,9.72,0.24,-3.89,39.04,-6.04,0.32,-50.65,4.16,-0.26,6.64
-4,2,103,-4,-312,3963,-0.20,0.09,9.38,-0.04,-3.12,39.63,-6.02,0.32,-50.69,4.11,-0.28,5.77
-8,6,126,-9,-426,3889,-0.23,0.11,9.21,-0.09,-4.26,38.89,-6.03,0.32,-50.73,4.21,-0.36,3.64
-6,0,122,31,-350,3962,-0.24,0.10,9.03,0.31,-3.50,39.62,-6.02,0.31,-50.76,4.16,-0.23,3.80
6,-4,166,4,-403,3814,-0.18,0.07,9.14,0.04,-4.03,38.14,-6.02,0.30,-50.80,3.90,-0.13,0.19
2,-3,162,86,-395,3985,-0.15,0.04,9.22,0.86,-3.95,39.85,-6.02,0.28,-50.84,3.97,-0.14,0.61
-4,-8,326,339,-59,3975,-0.16,-0.01,10.28,3.39,-0.59,39.75,-6.01,0.27,-50.88,4.09,-0.02,-12.15
-13,7,413,390,-45,3843,-0.22,0.03,11.77,3.90,-0.45,38.43,-5.99,0.26,-50.92,4.28,-0.33,-17.94
-2,4,690,376,-80,3940,-0.21,0.05,14.81,3.76,-0.80,39.40,-5.98,0.26,-50.98,4.05,-0.27,-20.00
39,8,718,362,-97,4043,0.04,0.10,17.70,3.62,-0.97,40.43,-5.97,0.25,-51.05,3.14,-0.36,-20.00
1,3,829,179,-245,4008,0.05,0.11,20.99,1.79,-2.45,40.08,-5.96,0.25,-51.14,3.90,-0.25,-20.00
0,-14,845,63,-269,3832,0.04,0.01,24.05,0.63,-2.69,38.32,-5.94,0.25,-51.23,3.91,0.12,-20.00
-9,-10,890,60,-278,3836,-0.02,-0.05,27.07,0.60,-2.78,38.36,-5.93,0.25,-51.34,4.10,0.05,-20.00
9,3,909,30,-343,3891,0.04,-0.03,29.91,0.30,-3.43,38.91,-5.91,0.25,-51.46,3.71,-0.22,-20.00
0,3,893,-32,-447,3816,0.04,-0.01,32.37,-0.32,-4.47,38.16,-5.93,0.27,-51.59,3.90,-0.24,-20.00
5,15,862,-137,-460,4050,0.06,0.09,34.39,-1.37,-4.60,40.50,-5.93,0.30,-51.72,3.80,-0.53,-20.00
-7,14,741,40,-455,3996,0.01,0.16,35.47,0.40,-4.55,39.96,-5.94,0.30,-51.87,4.06,-0.53,-20.00
0,5,721,-33,-525,3853,0.01,0.18,36.32,-0.33,-5.25,38.53,-5.96,0.32,-52.01,3.93,-0.36,-17.95
-7,14,644,-39,-559,3913,-0.03,0.24,36.62,-0.39,-5.59,39.13,-5.98,0.34,-52.15,4.10,-0.57,-11.09
3,13,597,-186,-550,3959,-0.01,0.30,36.60,-1.86,-5.50,39.59,-5.99,0.37,-52.30,3.89,-0.59,-7.12
23,2,513,-109,-517,4111,0.13,0.28,36.07,-1.09,-5.17,41.11,-6.00,0.39,-52.44,3.46,-0.38,-0.55
3,1,486,-47,-514,3718,0.14,0.26,35.42,-0.47,-5.14,37.18,-6.02,0.41,-52.58,3.87,-0.36,1.07
-5,1,470,-16,-463,3850,0.09,0.24,34.75,-0.16,-4.63,38.50,-6.03,0.43,-52.72,4.06,-0.37,1.72
6,9,489,-33,-414,3990,0.12,0.27,34.26,-0.33,-4.14,39.90,-6.01,0.45,-52.86,3.81,-0.55,-0.40
-7,0,511,2,-534,3944,0.06,0.24,33.95,0.02,-5.34,39.44,-6.03,0.46,-52.99,4.10,-0.37,-2.58
3,-4,498,-49,-580,3856,0.08,0.19,33.59,-0.49,-5.80,38.56,-6.05,0.48,-53.13,3.91,-0.29,-1.84
6,15,430,-292,-649,3902,0.11,0.27,32.85,-2.92,-6.49,39.02,-6.06,0.50,-53.26,3.85,-0.71,3.15
5,-2,373,-178,-618,3770,0.13,0.23,31.84,-1.78,-6.18,37.70,-6.07,0.53,-53.38,3.87,-0.37,6.92
-4,-1,231,-221,-523,3904,0.09,0.20,30.07,-2.21,-5.23,39.04,-6.08,0.56,-53.50,4.07,-0.40,17.08
3,7,189,-215,-520,3930,0.10,0.22,28.22,-2.15,-5.20,39.30,-6.09,0.59,-53.62,3.93,-0.59,18.69
4,1,122,159,-541,3898,0.11,0.21,26.14,1.59,-5.41,38.98,-6.09,0.58,-53.72,3.91,-0.46,20.00
3,-4,144,234,-563,3908,0.12,0.16,24.40,2.34,-5.63,39.08,-6.10,0.58,-53.82,3.93,-0.34,18.48
2,-5,169,188,-418,3853,0.12,0.11,22.99,1.88,-4.18,38.53,-6.10,0.57,-53.91,3.95,-0.31,14.88
-11,-12,241,305,-403,3876,0.04,0.03,22.16,3.05,-4.03,38.76,-6.10,0.56,-54.00,4.24,-0.13,7.91
-6,0,321,10,-287,3898,0.00,0.03,21.91,0.10,-2.87,38.98,-6.08,0.56,-54.08,4.14,-0.38,0.87
0,4,299,-103,-281,3961,0.00,0.05,21.54,-1.03,-2.81,39.61,-6.06,0.58,-54.17,4.00,-0.48,2.35
5,11,129,-209,-351,3927,0.03,0.11,20.17,-2.09,-3.51,39.27,-6.06,0.61,-54.25,3.89,-0.65,15.31
5,4,95,-195,-254,3875,0.06,0.12,18.73,-1.95,-2.54,38.75,-6.04,0.63,-54.32,3.87,-0.53,16.68
-4,-5,42,25,-376,3919,0.03,0.08,17.12,0.25,-3.76,39.19,-6.03,0.62,-54.39,4.05,-0.33,19.46
-7,-7,40,54,-380,3917,-0.02,0.03,15.65,0.54,-3.80,39.17,-6.03,0.61,-54.45,4.12,-0.27,18.08
-3,-2,40,47,-368,3901,-0.03,0.01,14.33,0.47,-3.68,39.01,-6.02,0.60,-54.51,4.04,-0.36,16.69
