gyroADC_X,gyroADC_Y,gyroADC_Z,accADC_X,accADC_Y,accADC_Z,GyroX,GyroY,GyroZ,AccX,AccY,AccZ,roll_IMU,pitch_IMU,yaw_IMU,roll_PID,pitch_PID,yaw_PID
0,18,-7,-21,-386,3908,0.05,0.44,-0.49,-0.21,-3.86,39.08,-5.11,0.25,17.38,3.36,-0.65,-2.89
1,18,16,19,-333,3947,0.05,0.51,-0.34,0.19,-3.33,39.47,-5.10,0.23,17.38,3.33,-0.66,-4.73
10,23,5,14,-304,3881,0.11,0.59,-0.28,0.14,-3.04,38.81,-5.08,0.22,17.38,3.12,-0.78,-3.76
4,27,5,34,-289,3972,0.12,0.70,-0.22,0.34,-2.89,39.72,-5.07,0.22,17.38,3.23,-0.88,-3.71
8,31,2,-26,-294,3970,0.16,0.82,-0.19,-0.26,-2.94,39.70,-5.05,0.22,17.38,3.13,-1.00,-3.43
9,30,-4,-23,-286,3919,0.20,0.92,-0.19,-0.23,-2.86,39.19,-5.03,0.23,17.38,3.08,-1.01,-2.93
7,20,-25,-68,-313,3864,0.22,0.95,-0.33,-0.68,-3.13,38.64,-5.02,0.25,17.38,3.11,-0.83,-1.25
7,21,-26,-77,-359,3910,0.24,0.98,-0.45,-0.77,-3.59,39.10,-5.02,0.27,17.39,3.11,-0.87,-1.26
5,11,-24,-34,-394,3885,0.25,0.95,-0.55,-0.34,-3.94,38.85,-5.04,0.28,17.39,3.16,-0.67,-1.50
3,6,-14,-22,-401,3893,0.24,0.89,-0.58,-0.22,-4.01,38.93,-5.06,0.28,17.39,3.21,-0.55,-2.37
1,0,-7,-12,-341,3898,0.22,0.80,-0.57,-0.12,-3.41,38.98,-5.05,0.27,17.39,3.25,-0.40,-2.95
0,-4,-7,-18,-352,3878,0.20,0.70,-0.55,-0.18,-3.52,38.78,-5.07,0.27,17.40,3.29,-0.29,-2.94
0,-8,-7,-31,-368,3901,0.18,0.58,-0.54,-0.31,-3.68,39.01,-5.08,0.28,17.40,3.30,-0.18,-2.93
-1,-10,-8,-39,-368,3890,0.16,0.46,-0.54,-0.39,-3.68,38.90,-5.09,0.30,17.40,3.34,-0.12,-2.84
0,-12,-4,-79,-302,3929,0.14,0.34,-0.51,-0.79,-3.02,39.29,-5.08,0.31,17.40,3.32,-0.06,-3.16
0,-13,-1,-50,-322,3936,0.13,0.23,-0.46,-0.50,-3.22,39.36,-5.07,0.33,17.41,3.31,-0.01,-3.38
-1,-8,-14,-14,-333,3935,0.11,0.16,-0.50,-0.14,-3.33,39.35,-5.05,0.32,17.41,3.33,-0.09,-2.31
-2,-7,-15,-2,-338,3931,0.09,0.10,-0.54,-0.02,-3.38,39.31,-5.04,0.30,17.41,3.35,-0.08,-2.26
0,-2,-10,30,-347,3907,0.08,0.08,-0.55,0.30,-3.47,39.07,-5.04,0.28,17.41,3.31,-0.17,-2.69
1,-2,-8,13,-335,3905,0.08,0.06,-0.54,0.13,-3.35,39.05,-5.04,0.27,17.41,3.28,-0.15,-2.85
0,-2,-7,-26,-352,3916,0.07,0.04,-0.53,-0.26,-3.52,39.16,-5.05,0.28,17.42,3.31,-0.15,-2.93
1,-2,-8,-19,-361,3914,0.07,0.02,-0.53,-0.19,-3.61,39.14,-5.07,0.28,17.42,3.31,-0.15,-2.84
-1,-2,-10,-34,-361,3919,0.05,0.01,-0.54,-0.34,-3.61,39.19,-5.08,0.29,17.42,3.36,-0.15,-2.68
-1,-6,-13,-22,-374,3913,0.04,-0.03,-0.56,-0.22,-3.74,39.13,-5.10,0.29,17.42,3.37,-0.06,-2.44
-1,-5,-11,-22,-350,3907,0.03,-0.06,-0.57,-0.22,-3.50,39.07,-5.11,0.31,17.43,3.38,-0.09,-2.62
-2,-6,-12,-20,-340,3894,0.02,-0.09,-0.59,-0.20,-3.40,38.94,-5.09,0.31,17.43,3.40,-0.06,-2.55
-2,-7,-15,-10,-323,3896,0.00,-0.12,-0.62,-0.10,-3.23,38.96,-5.07,0.30,17.43,3.39,-0.02,-2.32
0,-6,-14,-17,-323,3894,0.00,-0.15,-0.64,-0.17,-3.23,38.94,-5.06,0.29,17.43,3.34,-0.03,-2.42
2,-5,-17,-24,-335,3908,0.01,-0.16,-0.68,-0.24,-3.35,39.08,-5.04,0.30,17.44,3.28,-0.05,-2.20
1,-7,-19,-19,-336,3899,0.02,-0.19,-0.73,-0.19,-3.36,38.99,-5.02,0.29,17.44,3.29,-0.00,-2.06
-1,-8,-10,-23,-374,3917,0.01,-0.22,-0.72,-0.23,-3.74,39.17,-5.04,0.30,17.44,3.34,0.03,-2.82
-1,-6,-7,-19,-360,3927,0.00,-0.23,-0.69,-0.19,-3.60,39.27,-5.06,0.29,17.44,3.36,-0.01,-3.05
-1,-3,-9,-7,-339,3900,-0.00,-0.23,-0.68,-0.07,-3.39,39.00,-5.05,0.27,17.45,3.35,-0.06,-2.87
-1,-1,-11,-10,-339,3901,-0.01,-0.21,-0.68,-0.10,-3.39,39.01,-5.04,0.26,17.45,3.35,-0.09,-2.70
0,-2,-13,2,-345,3888,-0.01,-0.20,-0.69,0.02,-3.45,38.88,-5.04,0.24,17.45,3.33,-0.06,-2.54
0,-3,-14,5,-348,3894,-0.01,-0.20,-0.70,0.05,-3.48,38.94,-5.05,0.22,17.45,3.33,-0.03,-2.47
1,-2,-12,10,-354,3895,0.00,-0.19,-0.71,0.10,-3.54,38.95,-5.05,0.20,17.46,3.31,-0.04,-2.64
1,-2,-10,5,-354,3897,0.01,-0.19,-0.70,0.05,-3.54,38.97,-5.06,0.18,17.46,3.32,-0.03,-2.80
0,-2,-9,-23,-354,3899,0.01,-0.18,-0.68,-0.23,-3.54,38.99,-5.07,0.20,17.46,3.35,-0.04,-2.88
0,0,-9,-24,-352,3894,0.00,-0.16,-0.67,-0.24,-3.52,38.94,-5.08,0.21,17.46,3.35,-0.10,-2.87
0,-1,-9,-16,-355,3907,0.00,-0.15,-0.66,-0.16,-3.55,39.07,-5.10,0.22,17.47,3.36,-0.08,-2.86
1,-1,-9,-21,-356,3908,0.01,-0.14,-0.65,-0.21,-3.56,39.08,-5.11,0.23,17.47,3.35,-0.09,-2.85
1,-2,-10,-10,-353,3896,0.02,-0.14,-0.64,-0.10,-3.53,38.96,-5.12,0.21,17.47,3.36,-0.06,-2.77
1,-1,-11,-3,-355,3908,0.02,-0.13,-0.65,-0.03,-3.55,39.08,-5.13,0.19,17.48,3.36,-0.07,-2.68
1,1,-7,5,-347,3901,0.02,-0.11,-0.62,0.05,-3.47,39.01,-5.13,0.17,17.48,3.36,-0.10,-3.01
2,1,-7,-1,-343,3909,0.03,-0.10,-0.60,-0.01,-3.43,39.09,-5.12,0.16,17.48,3.33,-0.10,-2.99
1,-1,-7,-17,-337,3904,0.04,-0.09,-0.59,-0.17,-3.37,39.04,-5.10,0.17,17.48,3.34,-0.06,-2.98
-4,-4,-7,-22,-316,3888,0.01,-0.11,-0.57,-0.22,-3.16,38.88,-5.08,0.17,17.48,3.43,-0.00,-2.97
3,-1,-20,-2,-362,3920,0.03,-0.10,-0.64,-0.02,-3.62,39.20,-5.10,0.16,17.49,3.30,-0.06,-1.92
0,-1,-11,11,-346,3936,0.02,-0.10,-0.64,0.11,-3.46,39.36,-5.09,0.14,17.49,3.36,-0.05,-2.68
8,6,-26,-10,-323,3919,0.07,-0.05,-0.73,-0.10,-3.23,39.19,-5.08,0.14,17.49,3.17,-0.20,-1.48
6,0,-28,-11,-360,3935,0.10,-0.05,-0.83,-0.11,-3.60,39.35,-5.09,0.14,17.50,3.21,-0.08,-1.38
1,2,-11,-29,-367,3907,0.10,-0.03,-0.81,-0.29,-3.67,39.07,-5.11,0.16,17.50,3.32,-0.14,-2.81
2,1,-11,-19,-368,3899,0.10,-0.02,-0.80,-0.19,-3.68,38.99,-5.12,0.16,17.50,3.31,-0.12,-2.80
1,0,-10,-20,-343,3899,0.09,-0.02,-0.78,-0.20,-3.43,38.99,-5.11,0.18,17.51,3.33,-0.11,-2.87
1,1,-9,-13,-352,3903,0.09,-0.01,-0.76,-0.13,-3.52,39.03,-5.13,0.18,17.51,3.34,-0.14,-2.94
1,1,-8,-15,-358,3898,0.09,-0.00,-0.73,-0.15,-3.58,38.98,-5.15,0.19,17.51,3.35,-0.14,-3.01
1,1,-6,-16,-354,3889,0.09,0.00,-0.69,-0.16,-3.54,38.89,-5.16,0.20,17.51,3.36,-0.15,-3.15
1,3,-6,-7,-342,3899,0.08,0.02,-0.66,-0.07,-3.42,38.99,-5.14,0.19,17.52,3.35,-0.19,-3.13
1,3,-6,-13,-339,3902,0.08,0.04,-0.63,-0.13,-3.39,39.02,-5.12,0.19,17.52,3.34,-0.20,-3.11
0,1,-8,-14,-350,3917,0.07,0.04,-0.62,-0.14,-3.50,39.17,-5.11,0.20,17.52,3.35,-0.16,-2.93
1,1,-9,-8,-351,3907,0.07,0.04,-0.61,-0.08,-3.51,39.07,-5.11,0.18,17.52,3.34,-0.15,-2.84
1,1,-10,-4,-353,3910,0.07,0.04,-0.61,-0.04,-3.53,39.10,-5.12,0.17,17.53,3.34,-0.14,-2.75
0,2,-9,-2,-352,3910,0.06,0.05,-0.60,-0.02,-3.52,39.10,-5.12,0.15,17.53,3.36,-0.15,-2.83
0,3,-10,-30,-352,3907,0.06,0.06,-0.61,-0.30,-3.52,39.07,-5.12,0.17,17.53,3.37,-0.19,-2.75
0,3,-10,-38,-356,3912,0.05,0.08,-0.61,-0.38,-3.56,39.12,-5.13,0.18,17.53,3.37,-0.20,-2.75
-2,1,-12,-24,-362,3925,0.03,0.07,-0.62,-0.24,-3.62,39.25,-5.14,0.20,17.54,3.42,-0.17,-2.59
-3,-1,-11,-36,-356,3913,0.01,0.06,-0.62,-0.36,-3.56,39.13,-5.14,0.22,17.54,3.45,-0.14,-2.68
-2,-6,6,-6,-390,3898,-0.00,0.02,-0.52,-0.06,-3.90,38.98,-5.16,0.21,17.54,3.45,-0.02,-4.05
-1,-3,18,36,-368,3895,-0.01,-0.00,-0.36,0.36,-3.68,38.95,-5.17,0.19,17.54,3.43,-0.07,-4.95
-2,-15,6,4,-351,3912,-0.02,-0.09,-0.29,0.04,-3.51,39.12,-5.16,0.18,17.54,3.45,0.21,-3.88
-1,-19,6,1,-360,3903,-0.02,-0.20,-0.22,0.01,-3.60,39.03,-5.17,0.16,17.54,3.44,0.34,-3.83
-4,-9,1,36,-292,3866,-0.04,-0.23,-0.20,0.36,-2.92,38.66,-5.16,0.15,17.55,3.50,0.15,-3.39
-3,3,-3,28,-311,3860,-0.06,-0.19,-0.19,0.28,-3.11,38.60,-5.15,0.13,17.55,3.47,-0.10,-3.05
-3,-3,-7,-15,-361,3924,-0.07,-0.19,-0.22,-0.15,-3.61,39.24,-5.16,0.14,17.55,3.49,0.02,-2.72
-4,-6,-12,-19,-358,3887,-0.09,-0.21,-0.27,-0.19,-3.58,38.87,-5.17,0.16,17.55,3.52,0.08,-2.34
5,-1,-14,0,-411,3933,-0.05,-0.19,-0.33,0.00,-4.11,39.33,-5.19,0.15,17.55,3.34,-0.03,-2.21
2,-6,-7,-16,-387,3905,-0.03,-0.21,-0.34,-0.16,-3.87,39.05,-5.21,0.15,17.55,3.41,0.08,-2.81
1,-13,-14,-33,-353,3919,-0.02,-0.27,-0.39,-0.33,-3.53,39.19,-5.21,0.17,17.55,3.42,0.23,-2.26
0,-3,-7,-9,-323,3903,-0.02,-0.26,-0.39,-0.09,-3.23,39.03,-5.19,0.17,17.55,3.43,0.02,-2.85
2,-1,-6,-8,-361,3896,-0.01,-0.24,-0.39,-0.08,-3.61,38.96,-5.20,0.16,17.55,3.40,-0.02,-2.94
-1,-3,-4,-8,-345,3904,-0.01,-0.24,-0.38,-0.08,-3.45,39.04,-5.19,0.15,17.56,3.45,0.02,-3.09
1,-1,-4,-13,-351,3920,-0.00,-0.22,-0.36,-0.13,-3.51,39.20,-5.17,0.16,17.56,3.39,-0.03,-3.09
1,0,-1,-16,-348,3895,0.00,-0.20,-0.33,-0.16,-3.48,38.95,-5.16,0.17,17.56,3.38,-0.06,-3.32
3,2,-2,-16,-351,3894,0.02,-0.16,-0.31,-0.16,-3.51,38.94,-5.16,0.19,17.56,3.34,-0.12,-3.22
2,1,-1,-16,-346,3893,0.03,-0.14,-0.29,-0.16,-3.46,38.93,-5.14,0.20,17.56,3.34,-0.11,-3.28
3,4,-2,-2,-350,3891,0.05,-0.10,-0.27,-0.02,-3.50,38.91,-5.14,0.18,17.56,3.32,-0.17,-3.19
2,5,-3,-3,-346,3891,0.05,-0.06,-0.26,-0.03,-3.46,38.91,-5.13,0.16,17.56,3.33,-0.19,-3.10
2,3,-5,-12,-358,3898,0.06,-0.04,-0.27,-0.12,-3.58,38.98,-5.15,0.17,17.56,3.34,-0.16,-2.93
-1,7,-6,-9,-357,3892,0.05,0.01,-0.28,-0.09,-3.57,38.92,-5.17,0.16,17.57,3.42,-0.25,-2.85
-1,-1,-9,-4,-349,3917,0.04,0.00,-0.30,-0.04,-3.49,39.17,-5.16,0.14,17.57,3.41,-0.08,-2.62
-1,-1,-11,-3,-348,3908,0.03,-0.00,-0.34,-0.03,-3.48,39.08,-5.15,0.13,17.57,3.41,-0.06,-2.48
1,1,-8,-6,-341,3900,0.03,0.00,-0.35,-0.06,-3.41,39.00,-5.13,0.12,17.57,3.36,-0.10,-2.74
1,1,-7,-3,-342,3901,0.03,0.01,-0.36,-0.03,-3.42,39.01,-5.11,0.11,17.57,3.34,-0.10,-2.83
5,8,-26,-6,-319,3930,0.06,0.06,-0.48,-0.06,-3.19,39.30,-5.09,0.11,17.57,3.24,-0.25,-1.31
3,5,-27,-30,-352,3907,0.07,0.08,-0.60,-0.30,-3.52,39.07,-5.10,0.13,17.57,3.28,-0.21,-1.31
2,6,-8,-22,-363,3896,0.08,0.11,-0.59,-0.22,-3.63,38.96,-5.11,0.14,17.58,3.31,-0.25,-2.92
1,5,-8,-21,-361,3901,0.08,0.13,-0.58,-0.21,-3.61,39.01,-5.12,0.16,17.58,3.34,-0.24,-2.91
2,5,-5,-10,-336,3899,0.08,0.15,-0.55,-0.10,-3.36,38.99,-5.10,0.15,17.58,3.31,-0.24,-3.14
3,6,-6,-12,-343,3901,0.09,0.17,-0.53,-0.12,-3.43,39.01,-5.09,0.16,17.58,3.27,-0.27,-3.05
3,6,-10,-10,-370,3889,0.10,0.19,-0.54,-0.10,-3.70,38.89,-5.10,0.16,17.59,3.28,-0.28,-2.71
2,7,-9,-1,-361,3887,0.10,0.21,-0.54,-0.01,-3.61,38.87,-5.12,0.15,17.59,3.31,-0.30,-2.80
3,10,-14,10,-318,3893,0.11,0.25,-0.57,0.10,-3.18,38.93,-5.10,0.14,17.59,3.28,-0.36,-2.40
6,13,-18,6,-312,3909,0.14,0.31,-0.63,0.06,-3.12,39.09,-5.09,0.13,17.59,3.20,-0.44,-2.10
12,11,-17,5,-282,3893,0.20,0.34,-0.67,0.05,-2.82,38.93,-5.07,0.13,17.60,3.05,-0.40,-2.21
8,15,-15,36,-317,3969,0.22,0.40,-0.69,0.36,-3.17,39.69,-5.06,0.12,17.60,3.11,-0.49,-2.40
1,10,-33,-1,-247,3924,0.21,0.42,-0.82,-0.01,-2.47,39.24,-5.04,0.12,17.60,3.25,-0.40,-0.97
9,19,-43,-14,-230,3840,0.24,0.49,-1.00,-0.14,-2.30,38.40,-5.02,0.12,17.61,3.06,-0.60,-0.26
3,12,-67,-20,-303,3872,0.24,0.52,-1.31,-0.20,-3.03,38.72,-5.00,0.13,17.61,3.17,-0.47,1.55
5,9,-78,-37,-332,3931,0.24,0.52,-1.66,-0.37,-3.32,39.31,-4.99,0.15,17.62,3.13,-0.42,2.23
5,-3,-102,-29,-331,3983,0.25,0.45,-2.11,-0.29,-3.31,39.83,-4.98,0.16,17.63,3.12,-0.17,3.93
6,-2,-113,-13,-352,3874,0.26,0.39,-2.59,-0.13,-3.52,38.74,-4.99,0.16,17.64,3.10,-0.18,4.51
3,-4,-124,-64,-383,3831,0.25,0.33,-3.09,-0.64,-3.83,38.31,-5.01,0.18,17.65,3.17,-0.13,5.08
4,0,-127,-66,-387,3845,0.25,0.30,-3.55,-0.66,-3.87,38.45,-5.02,0.19,17.66,3.16,-0.21,4.99
8,1,-115,-22,-464,3859,0.28,0.27,-3.90,-0.22,-4.64,38.59,-5.03,0.19,17.68,3.08,-0.22,3.72
5,0,-93,-36,-460,3908,0.28,0.25,-4.08,-0.36,-4.60,39.08,-5.05,0.20,17.70,3.16,-0.20,1.72
1,0,-27,-14,-458,3910,0.26,0.22,-3.83,-0.14,-4.58,39.10,-5.07,0.20,17.71,3.25,-0.19,-3.70
0,1,-14,-18,-390,3905,0.23,0.21,-3.54,-0.18,-3.90,39.05,-5.09,0.20,17.73,3.29,-0.21,-4.58
1,0,-4,-23,-349,3892,0.21,0.18,-3.21,-0.23,-3.49,38.92,-5.09,0.21,17.74,3.28,-0.19,-5.19
1,2,-8,-10,-308,3901,0.20,0.18,-2.94,-0.10,-3.08,39.01,-5.07,0.21,17.75,3.27,-0.23,-4.66
0,7,-20,-5,-243,3889,0.18,0.20,-2.76,-0.05,-2.43,38.89,-5.05,0.21,17.76,3.29,-0.34,-3.52
1,1,-30,-22,-242,3945,0.17,0.19,-2.67,-0.22,-2.42,39.45,-5.03,0.21,17.77,3.26,-0.21,-2.60
3,-2,-70,-29,-322,3950,0.17,0.16,-2.83,-0.29,-3.22,39.50,-5.02,0.22,17.78,3.20,-0.15,0.67
4,-2,-79,-23,-329,3883,0.18,0.13,-3.03,-0.23,-3.29,38.83,-5.00,0.23,17.80,3.17,-0.15,1.28
1,-2,-91,-30,-309,3860,0.16,0.10,-3.28,-0.30,-3.09,38.60,-4.98,0.24,17.81,3.22,-0.14,2.11
1,-1,-96,-40,-339,3894,0.15,0.09,-3.54,-0.40,-3.39,38.94,-4.98,0.25,17.82,3.23,-0.17,2.35
6,2,-86,-29,-428,3905,0.18,0.09,-3.71,-0.29,-4.28,39.05,-5.00,0.26,17.84,3.13,-0.23,1.37
1,-4,-73,-19,-467,3964,0.16,0.06,-3.78,-0.19,-4.67,39.64,-5.02,0.25,17.85,3.25,-0.10,0.21
-2,-2,-28,-24,-445,3906,0.14,0.04,-3.58,-0.24,-4.45,39.06,-5.04,0.26,17.87,3.33,-0.14,-3.45
-1,-1,-20,-23,-384,3899,0.12,0.03,-3.34,-0.23,-3.84,38.99,-5.05,0.26,17.88,3.32,-0.16,-3.96
1,3,-15,-21,-352,3895,0.11,0.05,-3.10,-0.21,-3.52,38.95,-5.07,0.26,17.89,3.30,-0.25,-4.21
2,4,-15,-17,-359,3890,0.11,0.07,-2.88,-0.17,-3.59,38.90,-5.09,0.26,17.90,3.29,-0.27,-4.05
0,3,-22,3,-318,3886,0.10,0.08,-2.73,0.03,-3.18,38.86,-5.07,0.25,17.92,3.32,-0.25,-3.35
3,4,-28,-12,-339,3922,0.11,0.09,-2.62,-0.12,-3.39,39.22,-5.06,0.24,17.93,3.25,-0.27,-2.77
1,2,-21,-41,-363,3910,0.10,0.10,-2.49,-0.41,-3.63,39.10,-5.07,0.25,17.94,3.30,-0.24,-3.26
1,1,-17,-27,-352,3917,0.10,0.09,-2.34,-0.27,-3.52,39.17,-5.07,0.27,17.95,3.30,-0.22,-3.50
0,0,-13,-13,-346,3904,0.09,0.08,-2.19,-0.13,-3.46,39.04,-5.07,0.25,17.95,3.32,-0.19,-3.73
1,0,-14,-16,-347,3896,0.09,0.08,-2.06,-0.16,-3.47,38.96,-5.08,0.24,17.96,3.31,-0.18,-3.55
2,1,-17,-10,-338,3897,0.09,0.07,-1.95,-0.10,-3.38,38.97,-5.07,0.23,17.97,3.28,-0.19,-3.22
2,2,-16,-19,-336,3900,0.09,0.08,-1.86,-0.19,-3.36,39.00,-5.05,0.23,17.98,3.27,-0.22,-3.23
2,4,-21,-55,-334,3895,0.10,0.10,-1.80,-0.55,-3.34,38.95,-5.05,0.25,17.98,3.26,-0.27,-2.77
1,4,-16,-54,-366,3915,0.09,0.11,-1.72,-0.54,-3.66,39.15,-5.06,0.27,17.99,3.29,-0.29,-3.13
4,-2,-10,-45,-350,3909,0.11,0.09,-1.61,-0.45,-3.50,39.09,-5.06,0.28,18.00,3.23,-0.17,-3.56
2,1,-6,-41,-343,3905,0.11,0.08,-1.48,-0.41,-3.43,39.05,-5.06,0.30,18.00,3.27,-0.24,-3.81
2,6,5,28,-321,3891,0.11,0.11,-1.30,0.28,-3.21,38.91,-5.05,0.29,18.01,3.26,-0.34,-4.62
1,5,5,28,-312,3901,0.11,0.13,-1.14,0.28,-3.12,39.01,-5.04,0.27,18.01,3.27,-0.32,-4.50
2,5,-2,1,-344,3905,0.11,0.15,-1.04,0.01,-3.44,39.05,-5.04,0.25,18.02,3.25,-0.31,-3.83
2,5,-1,-16,-345,3908,0.11,0.16,-0.94,-0.16,-3.45,39.08,-5.04,0.24,18.02,3.26,-0.30,-3.85
1,9,13,-60,-293,3918,0.10,0.20,-0.77,-0.60,-2.93,39.18,-5.03,0.25,18.02,3.27,-0.40,-4.91
-1,9,28,-57,-295,3904,0.09,0.24,-0.52,-0.57,-2.95,39.04,-5.01,0.26,18.03,3.31,-0.42,-6.00
2,3,-3,10,-402,3937,0.09,0.23,-0.49,0.10,-4.02,39.37,-5.03,0.25,18.03,3.25,-0.29,-3.35
3,3,-3,22,-412,3884,0.10,0.23,-0.46,0.22,-4.12,38.84,-5.05,0.25,18.03,3.24,-0.29,-3.32
1,-1,-11,-3,-366,3894,0.10,0.20,-0.48,-0.03,-3.66,38.94,-5.06,0.24,18.03,3.29,-0.19,-2.66
-2,-1,-12,-9,-349,3908,0.07,0.17,-0.50,-0.09,-3.49,39.08,-5.07,0.22,18.04,3.36,-0.17,-2.60
-2,-1,-16,-16,-342,3902,0.05,0.15,-0.55,-0.16,-3.42,39.02,-5.05,0.22,18.04,3.36,-0.17,-2.29
-1,-2,-16,-27,-336,3900,0.04,0.12,-0.59,-0.27,-3.36,39.00,-5.04,0.24,18.04,3.33,-0.15,-2.32
0,1,-9,-28,-345,3905,0.04,0.12,-0.59,-0.28,-3.45,39.05,-5.04,0.26,18.04,3.32,-0.22,-2.91
0,2,-8,-29,-340,3914,0.03,0.12,-0.58,-0.29,-3.40,39.14,-5.03,0.28,18.04,3.31,-0.25,-2.99
2,0,-6,-13,-351,3911,0.04,0.10,-0.56,-0.13,-3.51,39.11,-5.05,0.26,18.05,3.28,-0.20,-3.15
1,1,-7,-12,-351,3907,0.05,0.10,-0.54,-0.12,-3.51,39.07,-5.06,0.25,18.05,3.31,-0.21,-3.05
-1,-1,-11,-14,-359,3902,0.03,0.08,-0.56,-0.14,-3.59,39.02,-5.08,0.25,18.05,3.36,-0.17,-2.72
-1,-1,-11,-9,-348,3898,0.03,0.07,-0.57,-0.09,-3.48,38.98,-5.08,0.23,18.05,3.37,-0.15,-2.73
-1,-1,-11,-12,-349,3894,0.02,0.06,-0.58,-0.12,-3.49,38.94,-5.09,0.21,18.06,3.38,-0.14,-2.74
1,0,-12,-21,-341,3907,0.02,0.05,-0.59,-0.21,-3.41,39.07,-5.08,0.23,18.06,3.32,-0.16,-2.67
1,1,-10,-18,-339,3892,0.03,0.05,-0.60,-0.18,-3.39,38.92,-5.06,0.23,18.06,3.31,-0.19,-2.84
2,1,-11,-25,-344,3906,0.03,0.05,-0.60,-0.25,-3.44,39.06,-5.06,0.25,18.06,3.29,-0.20,-2.76
2,2,-7,-33,-345,3896,0.04,0.06,-0.59,-0.33,-3.45,38.96,-5.06,0.27,18.07,3.28,-0.23,-3.09
2,2,-6,-33,-352,3893,0.05,0.07,-0.56,-0.33,-3.52,38.93,-5.06,0.29,18.07,3.29,-0.25,-3.15
1,0,-6,-24,-363,3912,0.05,0.06,-0.54,-0.24,-3.63,39.12,-5.08,0.29,18.07,3.32,-0.21,-3.14
1,-3,-7,-23,-340,3918,0.05,0.04,-0.53,-0.23,-3.40,39.18,-5.06,0.30,18.07,3.31,-0.14,-3.05
2,1,-8,-13,-351,3904,0.06,0.04,-0.53,-0.13,-3.51,39.04,-5.07,0.28,18.07,3.29,-0.22,-2.96
1,1,-8,-7,-358,3909,0.06,0.04,-0.52,-0.07,-3.58,39.09,-5.09,0.27,18.08,3.32,-0.21,-2.96
1,0,-10,-9,-345,3899,0.06,0.04,-0.53,-0.09,-3.45,38.99,-5.08,0.25,18.08,3.32,-0.17,-2.79
1,1,-10,-8,-344,3897,0.06,0.04,-0.54,-0.08,-3.44,38.97,-5.08,0.23,18.08,3.31,-0.18,-2.80
1,3,-10,-22,-331,3890,0.06,0.05,-0.55,-0.22,-3.31,38.90,-5.06,0.24,18.08,3.30,-0.23,-2.81
2,3,-8,-17,-343,3894,0.07,0.07,-0.54,-0.17,-3.43,38.94,-5.04,0.25,18.08,3.27,-0.24,-2.97
2,4,-22,-10,-341,3928,0.07,0.08,-0.62,-0.10,-3.41,39.28,-5.03,0.23,18.09,3.26,-0.26,-1.84
1,3,-20,-29,-350,3883,0.07,0.09,-0.68,-0.29,-3.50,38.83,-5.04,0.25,18.09,3.29,-0.25,-2.06
3,8,-13,-31,-368,3893,0.08,0.13,-0.69,-0.31,-3.68,38.93,-5.06,0.26,18.09,3.25,-0.37,-2.66
1,7,-13,-33,-362,3905,0.08,0.16,-0.70,-0.33,-3.62,39.05,-5.07,0.27,18.10,3.30,-0.36,-2.67
1,8,-13,-32,-360,3908,0.08,0.20,-0.71,-0.32,-3.60,39.08,-5.08,0.28,18.10,3.31,-0.40,-2.67
1,9,-13,-24,-361,3907,0.08,0.23,-0.72,-0.24,-3.61,39.07,-5.10,0.29,18.10,3.32,-0.44,-2.68
0,8,-17,-15,-351,3900,0.07,0.26,-0.75,-0.15,-3.51,39.00,-5.11,0.28,18.10,3.35,-0.41,-2.37
0,7,-19,-11,-345,3909,0.06,0.27,-0.79,-0.11,-3.45,39.09,-5.10,0.26,18.11,3.35,-0.39,-2.23
1,5,-25,4,-337,3909,0.06,0.28,-0.87,0.04,-3.37,39.09,-5.09,0.24,18.11,3.32,-0.34,-1.77
-6,1,-28,13,-315,3913,0.02,0.25,-0.95,0.13,-3.15,39.13,-5.08,0.23,18.12,3.47,-0.24,-1.58
2,3,-40,-45,-372,3886,0.03,0.25,-1.10,-0.45,-3.72,38.86,-5.09,0.25,18.12,3.31,-0.29,-0.67
2,5,-34,-49,-396,3908,0.04,0.25,-1.20,-0.49,-3.96,39.08,-5.10,0.26,18.12,3.32,-0.34,-1.25
2,2,-26,-3,-427,3888,0.05,0.24,-1.24,-0.03,-4.27,38.88,-5.12,0.26,18.13,3.33,-0.27,-1.96
3,5,-21,3,-434,3901,0.06,0.25,-1.24,0.03,-4.34,39.01,-5.14,0.25,18.14,3.31,-0.33,-2.39
4,6,-19,21,-423,3896,0.08,0.26,-1.23,0.21,-4.23,38.96,-5.15,0.24,18.14,3.30,-0.35,-2.55
4,4,-8,45,-434,3953,0.10,0.26,-1.16,0.45,-4.34,39.53,-5.17,0.23,18.14,3.30,-0.31,-3.43
0,6,17,56,-366,3946,0.09,0.27,-0.94,0.56,-3.66,39.46,-5.17,0.22,18.15,3.39,-0.34,-5.39
2,3,16,51,-362,3907,0.09,0.26,-0.75,0.51,-3.62,39.07,-5.17,0.20,18.15,3.35,-0.26,-5.17
-3,0,35,-29,-316,3907,0.06,0.23,-0.46,-0.29,-3.16,39.07,-5.16,0.21,18.15,3.45,-0.20,-6.57
-2,3,37,-50,-322,3861,0.04,0.23,-0.19,-0.50,-3.22,38.61,-5.14,0.22,18.15,3.42,-0.27,-6.54
1,1,23,-108,-283,3865,0.05,0.21,-0.03,-1.08,-2.83,38.65,-5.13,0.24,18.15,3.36,-0.23,-5.24
1,2,19,-88,-302,3904,0.05,0.20,0.09,-0.88,-3.02,39.04,-5.12,0.25,18.15,3.35,-0.26,-4.81
0,6,8,-69,-220,3892,0.04,0.22,0.13,-0.69,-2.20,38.92,-5.11,0.26,18.15,3.36,-0.35,-3.85
4,5,-5,-72,-250,3889,0.06,0.23,0.09,-0.72,-2.50,38.89,-5.09,0.27,18.15,3.26,-0.34,-2.78
4,5,-8,-36,-340,3896,0.08,0.24,0.03,-0.36,-3.40,38.96,-5.08,0.29,18.15,3.25,-0.36,-2.57
3,4,-8,-33,-331,3895,0.09,0.24,-0.02,-0.33,-3.31,38.95,-5.07,0.30,18.15,3.26,-0.34,-2.61
2,5,-10,-10,-337,3902,0.09,0.24,-0.08,-0.10,-3.37,39.02,-5.06,0.29,18.15,3.27,-0.36,-2.48
2,4,-8,-9,-336,3908,0.10,0.24,-0.12,-0.09,-3.36,39.08,-5.04,0.28,18.15,3.26,-0.33,-2.68
2,5,-8,-28,-334,3911,0.10,0.25,-0.16,-0.28,-3.34,39.11,-5.03,0.29,18.15,3.25,-0.36,-2.71
-1,6,-8,-1,-322,3958,0.08,0.26,-0.19,-0.01,-3.22,39.58,-5.01,0.28,18.16,3.31,-0.38,-2.73
-2,2,-3,-30,-351,3892,0.06,0.25,-0.19,-0.30,-3.51,38.92,-5.03,0.29,18.16,3.34,-0.30,-3.15
2,3,-5,-27,-352,3893,0.07,0.24,-0.20,-0.27,-3.52,38.93,-5.04,0.31,18.16,3.27,-0.33,-2.99
1,0,-5,-27,-354,3897,0.07,0.22,-0.21,-0.27,-3.54,38.97,-5.06,0.32,18.16,3.30,-0.27,-3.00
1,1,-7,-27,-359,3900,0.07,0.20,-0.23,-0.27,-3.59,39.00,-5.07,0.32,18.16,3.31,-0.29,-2.85
0,-1,-12,-24,-362,3904,0.06,0.17,-0.28,-0.24,-3.62,39.04,-5.09,0.33,18.16,3.34,-0.24,-2.46
0,-1,-11,-16,-351,3911,0.05,0.15,-0.32,-0.16,-3.51,39.11,-5.10,0.31,18.16,3.35,-0.22,-2.57
1,-2,-11,-10,-355,3900,0.06,0.12,-0.36,-0.10,-3.55,39.00,-5.11,0.29,18.16,3.34,-0.19,-2.60
0,-1,-12,-7,-345,3880,0.05,0.11,-0.39,-0.07,-3.45,38.80,-5.10,0.28,18.17,3.36,-0.19,-2.54
-7,-8,-18,10,-281,3948,0.00,0.05,-0.46,0.10,-2.81,39.48,-5.09,0.27,18.17,3.50,-0.03,-2.08
-3,-7,-29,26,-284,3864,-0.02,-0.00,-0.60,0.26,-2.84,38.64,-5.07,0.26,18.17,3.41,-0.03,-1.25
4,-3,-72,-11,-309,3882,0.01,-0.02,-0.98,-0.11,-3.09,38.82,-5.05,0.25,18.17,3.25,-0.10,2.12
2,-4,-82,-22,-297,3895,0.02,-0.04,-1.38,-0.22,-2.97,38.95,-5.04,0.26,18.18,3.28,-0.08,2.67
3,-4,-80,-19,-360,3929,0.04,-0.06,-1.73,-0.19,-3.60,39.29,-5.05,0.26,18.19,3.26,-0.07,2.24
2,-1,-71,-9,-360,3883,0.05,-0.06,-1.99,-0.09,-3.60,38.83,-5.07,0.25,18.19,3.29,-0.13,1.29
0,0,-66,-43,-320,3896,0.04,-0.06,-2.19,-0.43,-3.20,38.96,-5.06,0.26,18.20,3.33,-0.16,0.72
0,1,-68,-41,-322,3888,0.04,-0.04,-2.39,-0.41,-3.22,38.88,-5.04,0.27,18.21,3.32,-0.19,0.74
0,1,-61,-19,-402,3897,0.03,-0.03,-2.52,-0.19,-4.02,38.97,-5.06,0.27,18.22,3.33,-0.19,0.05
0,-1,-55,-23,-413,3906,0.03,-0.04,-2.60,-0.23,-4.13,39.06,-5.08,0.27,18.23,3.35,-0.15,-0.52
1,-1,-48,-51,-383,3908,0.03,-0.04,-2.64,-0.51,-3.83,39.08,-5.09,0.28,18.24,3.33,-0.16,-1.14
1,-1,-42,-55,-382,3888,0.04,-0.04,-2.63,-0.55,-3.82,38.88,-5.11,0.29,18.25,3.34,-0.16,-1.64
-1,1,-19,-49,-356,3916,0.03,-0.03,-2.48,-0.49,-3.56,39.16,-5.11,0.31,18.26,3.39,-0.22,-3.49
0,1,-15,-44,-352,3909,0.02,-0.02,-2.33,-0.44,-3.52,39.09,-5.11,0.33,18.27,3.37,-0.23,-3.71
-8,-5,-12,-75,-290,3881,-0.03,-0.05,-2.17,-0.75,-2.90,38.81,-5.10,0.34,18.28,3.54,-0.11,-3.85
2,0,-26,-59,-276,3881,-0.01,-0.04,-2.11,-0.59,-2.76,38.81,-5.08,0.35,18.29,3.32,-0.22,-2.63
-1,-3,-67,-45,-345,3925,-0.02,-0.06,-2.31,-0.45,-3.45,39.25,-5.08,0.36,18.30,3.38,-0.16,0.70
5,3,-72,0,-377,3957,0.01,-0.03,-2.51,0.00,-3.77,39.57,-5.09,0.35,18.31,3.26,-0.28,0.97
2,4,-43,28,-412,3904,0.03,-0.01,-2.53,0.28,-4.12,39.04,-5.11,0.34,18.32,3.32,-0.30,-1.50
3,2,-33,29,-408,3913,0.04,0.01,-2.47,0.29,-4.08,39.13,-5.12,0.32,18.33,3.31,-0.26,-2.31
1,2,-11,-13,-359,3905,0.04,0.02,-2.29,-0.13,-3.59,39.05,-5.13,0.31,18.34,3.36,-0.25,-4.04
1,3,-10,-14,-350,3916,0.04,0.03,-2.13,-0.14,-3.50,39.16,-5.13,0.29,18.35,3.35,-0.26,-4.00
1,5,-9,-30,-364,3901,0.05,0.06,-1.97,-0.30,-3.64,39.01,-5.14,0.30,18.35,3.36,-0.32,-3.98
1,4,-8,-27,-368,3891,0.05,0.08,-1.82,-0.27,-3.68,38.91,-5.16,0.31,18.36,3.37,-0.31,-3.95
-1,1,-12,-26,-363,3906,0.04,0.08,-1.71,-0.26,-3.63,39.06,-5.18,0.32,18.37,3.43,-0.25,-3.54
-1,0,-14,-17,-355,3900,0.03,0.07,-1.63,-0.17,-3.55,39.00,-5.18,0.30,18.38,3.43,-0.22,-3.31
-1,-1,-19,-23,-334,3921,0.02,0.06,-1.58,-0.23,-3.34,39.21,-5.16,0.30,18.38,3.42,-0.19,-2.85
-1,-2,-19,-15,-343,3903,0.01,0.04,-1.54,-0.15,-3.43,39.03,-5.15,0.29,18.39,3.42,-0.16,-2.82
-1,-1,-19,-19,-344,3905,0.00,0.03,-1.50,-0.19,-3.44,39.05,-5.13,0.29,18.39,3.41,-0.18,-2.79
0,-1,-17,-22,-338,3895,0.00,0.02,-1.45,-0.22,-3.38,38.95,-5.11,0.29,18.40,3.37,-0.18,-2.93
2,1,-16,-27,-335,3907,0.01,0.02,-1.41,-0.27,-3.35,39.07,-5.10,0.30,18.40,3.32,-0.22,-2.98
2,1,-15,-29,-340,3906,0.03,0.03,-1.36,-0.29,-3.40,39.06,-5.08,0.31,18.41,3.31,-0.23,-3.03
-6,5,-22,-81,-353,3906,-0.01,0.06,-1.35,-0.81,-3.53,39.06,-5.09,0.33,18.42,3.48,-0.33,-2.44
1,-6,-40,-95,-317,3860,-0.01,0.01,-1.46,-0.95,-3.17,38.60,-5.08,0.35,18.42,3.33,-0.11,-0.99
4,3,-42,4,-346,3893,0.02,0.03,-1.57,0.04,-3.46,38.93,-5.08,0.33,18.43,3.27,-0.29,-0.91
3,4,-23,11,-372,3899,0.04,0.05,-1.56,0.11,-3.72,38.99,-5.09,0.31,18.43,3.29,-0.30,-2.50
3,5,-7,1,-342,3887,0.05,0.08,-1.44,0.01,-3.42,38.87,-5.09,0.29,18.44,3.28,-0.32,-3.78
4,5,-4,10,-340,3876,0.07,0.10,-1.32,0.10,-3.40,38.76,-5.08,0.28,18.44,3.25,-0.31,-3.95
-2,2,-6,-10,-331,3917,0.05,0.10,-1.23,-0.10,-3.31,39.17,-5.07,0.27,18.45,3.37,-0.25,-3.71
0,3,-7,-24,-345,3870,0.05,0.11,-1.15,-0.24,-3.45,38.70,-5.07,0.29,18.45,3.34,-0.28,-3.57
-1,1,-10,-33,-370,3908,0.03,0.11,-1.09,-0.33,-3.70,39.08,-5.09,0.29,18.46,3.37,-0.24,-3.27
-2,0,-12,-34,-366,3910,0.02,0.09,-1.06,-0.34,-3.66,39.10,-5.10,0.31,18.46,3.40,-0.23,-3.08
-1,-1,-14,-22,-338,3903,0.01,0.08,-1.04,-0.22,-3.38,39.03,-5.08,0.31,18.47,3.37,-0.20,-2.89
-2,-1,-14,-11,-344,3907,-0.00,0.07,-1.02,-0.11,-3.44,39.07,-5.08,0.29,18.47,3.39,-0.19,-2.88
-2,-2,-13,-19,-347,3915,-0.01,0.05,-1.00,-0.19,-3.47,39.15,-5.07,0.28,18.48,3.39,-0.15,-2.95
-2,-2,-13,-22,-348,3916,-0.03,0.03,-0.98,-0.22,-3.48,39.16,-5.07,0.29,18.48,3.39,-0.16,-2.94
-1,-2,-14,-10,-357,3911,-0.03,0.01,-0.96,-0.10,-3.57,39.11,-5.08,0.28,18.48,3.38,-0.15,-2.84
-1,-2,-15,-13,-359,3902,-0.03,0.00,-0.96,-0.13,-3.59,39.02,-5.10,0.27,18.49,3.40,-0.14,-2.76
9,4,-18,7,-362,3968,0.03,0.03,-0.97,0.07,-3.62,39.68,-5.11,0.25,18.49,3.18,-0.26,-2.51
2,-6,-17,13,-405,3904,0.04,-0.01,-0.98,0.13,-4.05,39.04,-5.12,0.25,18.49,3.33,-0.04,-2.60
3,2,0,-11,-320,3898,0.05,-0.00,-0.88,-0.11,-3.20,38.98,-5.10,0.24,18.50,3.29,-0.20,-3.97
3,4,3,-23,-298,3899,0.06,0.02,-0.77,-0.23,-2.98,38.99,-5.08,0.24,18.50,3.28,-0.25,-4.15
3,4,1,-43,-293,3918,0.08,0.05,-0.69,-0.43,-2.93,39.18,-5.07,0.25,18.50,3.26,-0.26,-3.92
0,4,-3,-43,-308,3908,0.07,0.07,-0.64,-0.43,-3.08,39.08,-5.05,0.26,18.51,3.32,-0.27,-3.54
0,7,-3,-49,-347,3898,0.06,0.10,-0.59,-0.49,-3.47,38.98,-5.05,0.28,18.51,3.32,-0.35,-3.51
1,7,-6,-48,-340,3916,0.06,0.13,-0.57,-0.48,-3.40,39.16,-5.05,0.30,18.51,3.30,-0.38,-3.24
3,8,-5,-27,-353,3902,0.07,0.17,-0.55,-0.27,-3.53,39.02,-5.06,0.31,18.51,3.26,-0.41,-3.31
3,8,-4,-15,-355,3907,0.08,0.20,-0.52,-0.15,-3.55,39.07,-5.08,0.30,18.52,3.27,-0.42,-3.37
1,2,0,-25,-287,3918,0.08,0.19,-0.46,-0.25,-2.87,39.18,-5.06,0.30,18.52,3.30,-0.29,-3.67
-2,2,2,11,-283,3905,0.06,0.19,-0.40,0.11,-2.83,39.05,-5.04,0.29,18.52,3.35,-0.29,-3.80
1,5,-2,8,-320,3898,0.06,0.20,-0.38,0.08,-3.20,38.98,-5.03,0.28,18.52,3.28,-0.34,-3.44
1,5,-3,12,-309,3889,0.06,0.21,-0.36,0.12,-3.09,38.89,-5.02,0.27,18.52,3.27,-0.34,-3.34
3,8,-13,-13,-342,3901,0.07,0.24,-0.40,-0.13,-3.42,39.01,-5.02,0.25,18.52,3.23,-0.39,-2.53
3,8,-16,-23,-344,3935,0.08,0.26,-0.46,-0.23,-3.44,39.35,-5.01,0.27,18.53,3.22,-0.41,-2.31
2,1,-17,-46,-381,3899,0.09,0.24,-0.52,-0.46,-3.81,38.99,-5.03,0.28,18.53,3.25,-0.27,-2.27
1,3,-14,-45,-381,3910,0.09,0.24,-0.55,-0.45,-3.81,39.10,-5.04,0.29,18.53,3.28,-0.32,-2.55
0,2,-10,-43,-357,3904,0.08,0.22,-0.56,-0.43,-3.57,39.04,-5.05,0.31,18.53,3.31,-0.31,-2.89
0,1,-9,-47,-368,3909,0.07,0.21,-0.56,-0.47,-3.68,39.09,-5.06,0.32,18.53,3.32,-0.29,-2.98
1,-1,-11,-56,-370,3897,0.07,0.18,-0.57,-0.56,-3.70,38.97,-5.07,0.34,18.54,3.31,-0.25,-2.82
-1,-3,-11,-67,-348,3895,0.06,0.14,-0.58,-0.67,-3.48,38.95,-5.07,0.36,18.54,3.35,-0.22,-2.83
1,-4,-19,-48,-396,3912,0.06,0.11,-0.64,-0.48,-3.96,39.12,-5.09,0.37,18.54,3.32,-0.19,-2.19
2,-4,-17,-50,-409,3915,0.06,0.07,-0.68,-0.50,-4.09,39.15,-5.10,0.37,18.55,3.31,-0.18,-2.39
-1,-3,5,-10,-399,3919,0.05,0.05,-0.58,-0.10,-3.99,39.19,-5.12,0.37,18.55,3.39,-0.19,-4.18
-1,-4,6,-17,-387,3899,0.04,0.02,-0.48,-0.17,-3.87,38.99,-5.14,0.36,18.55,3.40,-0.16,-4.20
-3,-3,14,-6,-418,3929,0.02,-0.00,-0.35,-0.06,-4.18,39.29,-5.16,0.36,18.55,3.46,-0.17,-4.78
-2,-4,24,-10,-464,3881,0.00,-0.03,-0.17,-0.10,-4.64,38.81,-5.18,0.36,18.55,3.46,-0.15,-5.50
-2,-6,70,-15,-516,3877,-0.01,-0.06,0.28,-0.15,-5.16,38.77,-5.19,0.35,18.55,3.47,-0.10,-9.07
-1,-9,86,-14,-507,3913,-0.01,-0.11,0.77,-0.14,-5.07,39.13,-5.21,0.35,18.55,3.46,-0.02,-10.06
-7,-8,124,-7,-329,3875,-0.06,-0.15,1.45,-0.07,-3.29,38.75,-5.20,0.34,18.54,3.59,-0.02,-12.78
-3,-3,120,-18,-276,3855,-0.07,-0.15,2.04,-0.18,-2.76,38.55,-5.18,0.34,18.53,3.50,-0.12,-12.02
-4,-5,90,31,-334,3887,-0.09,-0.17,2.38,0.31,-3.34,38.87,-5.17,0.32,18.52,3.52,-0.07,-9.22
-1,-4,88,14,-310,4024,-0.08,-0.17,2.68,0.14,-3.10,40.24,-5.16,0.31,18.51,3.45,-0.08,-8.83
4,-12,68,-36,-330,3984,-0.05,-0.23,2.83,-0.36,-3.30,39.84,-5.14,0.32,18.50,3.33,0.09,-7.03
-1,-28,63,-49,-338,3843,-0.05,-0.38,2.93,-0.49,-3.38,38.43,-5.14,0.34,18.49,3.43,0.45,-6.53
-9,-19,61,-157,-298,3888,-0.10,-0.46,3.01,-1.57,-2.98,38.88,-5.13,0.36,18.48,3.60,0.28,-6.30
0,-7,40,-183,-289,3872,-0.09,-0.45,2.95,-1.83,-2.89,38.72,-5.13,0.37,18.47,3.41,0.02,-4.56
-1,2,42,82,-287,3920,-0.09,-0.40,2.91,0.82,-2.87,39.20,-5.12,0.36,18.45,3.42,-0.17,-4.76
2,20,51,92,-281,4036,-0.07,-0.23,2.93,0.92,-2.81,40.36,-5.11,0.34,18.44,3.35,-0.57,-5.50
4,21,74,195,-147,3841,-0.04,-0.08,3.09,1.95,-1.47,38.41,-5.09,0.33,18.43,3.29,-0.62,-7.33
-1,3,62,179,-113,3916,-0.04,-0.06,3.16,1.79,-1.13,39.16,-5.08,0.32,18.42,3.38,-0.26,-6.26
-1,4,15,-84,-347,3934,-0.04,-0.03,2.94,-0.84,-3.47,39.34,-5.08,0.34,18.41,3.38,-0.30,-2.44
1,6,10,-117,-394,3895,-0.03,0.01,2.70,-1.17,-3.94,38.95,-5.09,0.35,18.39,3.35,-0.36,-2.19
1,-3,-7,-94,-404,3977,-0.02,-0.01,2.39,-0.94,-4.04,39.77,-5.10,0.37,18.39,3.35,-0.18,-0.97
-2,-9,-9,-70,-402,4010,-0.03,-0.06,2.10,-0.70,-4.02,40.10,-5.11,0.38,18.38,3.42,-0.05,-1.02
3,12,-18,-89,-346,3872,-0.01,0.02,1.78,-0.89,-3.46,38.72,-5.11,0.40,18.37,3.32,-0.51,-0.49
2,-4,-17,12,-323,3838,0.00,-0.01,1.50,0.12,-3.23,38.38,-5.10,0.39,18.36,3.33,-0.17,-0.78
-3,-5,-6,20,-286,3928,-0.02,-0.04,1.31,0.20,-2.86,39.28,-5.09,0.38,18.36,3.42,-0.14,-1.84
1,4,-6,-18,-270,3894,-0.01,-0.01,1.14,-0.18,-2.70,38.94,-5.07,0.37,18.35,3.33,-0.33,-1.96
1,-3,-7,-17,-351,3880,-0.00,-0.03,0.98,-0.17,-3.51,38.80,-5.08,0.36,18.35,3.33,-0.17,-1.99
0,-3,-11,6,-363,3939,-0.00,-0.04,0.82,0.06,-3.63,39.39,-5.09,0.34,18.35,3.36,-0.15,-1.77
5,10,-12,-43,-397,3885,0.03,0.02,0.66,-0.43,-3.97,38.85,-5.10,0.35,18.34,3.26,-0.44,-1.80
3,5,-9,-25,-374,3875,0.05,0.05,0.54,-0.25,-3.74,38.75,-5.12,0.35,18.34,3.31,-0.35,-2.14
0,0,-15,25,-362,3924,0.04,0.05,0.40,0.25,-3.62,39.24,-5.13,0.33,18.34,3.37,-0.23,-1.74
-2,0,-10,-9,-328,3917,0.02,0.04,0.30,-0.09,-3.28,39.17,-5.11,0.33,18.34,3.41,-0.23,-2.24
3,3,-12,1,-334,3880,0.04,0.06,0.19,0.01,-3.34,38.80,-5.10,0.31,18.34,3.30,-0.28,-2.14
1,-1,-10,17,-346,3917,0.04,0.04,0.11,0.17,-3.46,39.17,-5.10,0.29,18.34,3.33,-0.18,-2.37
0,-1,-20,-32,-349,3897,0.04,0.03,-0.02,-0.32,-3.49,38.97,-5.10,0.31,18.34,3.36,-0.19,-1.62
2,0,-19,-50,-351,3892,0.05,0.03,-0.13,-0.50,-3.51,38.92,-5.10,0.33,18.34,3.31,-0.22,-1.79
1,-4,-20,-27,-355,3913,0.05,0.00,-0.24,-0.27,-3.55,39.13,-5.12,0.34,18.34,3.34,-0.14,-1.78
0,-3,-20,-35,-373,3907,0.04,-0.02,-0.34,-0.35,-3.73,39.07,-5.13,0.35,18.34,3.38,-0.16,-1.86
0,-2,-12,-16,-336,3886,0.04,-0.03,-0.38,-0.16,-3.36,38.86,-5.12,0.34,18.34,3.37,-0.18,-2.56
0,-2,-12,-16,-332,3915,0.03,-0.04,-0.41,-0.16,-3.32,39.15,-5.10,0.33,18.34,3.36,-0.17,-2.59
2,1,-12,-17,-339,3891,0.04,-0.03,-0.45,-0.17,-3.39,38.91,-5.09,0.32,18.35,3.30,-0.22,-2.61
2,0,-12,-17,-335,3893,0.05,-0.02,-0.48,-0.17,-3.35,38.93,-5.07,0.31,18.35,3.29,-0.20,-2.63
1,0,-13,-38,-393,3922,0.05,-0.02,-0.51,-0.38,-3.93,39.22,-5.09,0.32,18.35,3.32,-0.20,-2.57
0,-1,-10,-40,-396,3899,0.05,-0.03,-0.52,-0.40,-3.96,38.99,-5.10,0.33,18.35,3.35,-0.19,-2.83
0,-3,-2,-48,-385,3892,0.04,-0.04,-0.48,-0.48,-3.85,38.92,-5.12,0.34,18.35,3.37,-0.15,-3.48
-2,-3,3,-54,-369,3881,0.03,-0.06,-0.41,-0.54,-3.69,38.81,-5.13,0.35,18.36,3.42,-0.16,-3.86
0,3,17,-16,-322,3880,0.02,-0.03,-0.27,-0.16,-3.22,38.80,-5.11,0.34,18.36,3.37,-0.28,-4.94
2,6,18,-21,-315,3885,0.03,0.01,-0.13,-0.21,-3.15,38.85,-5.09,0.34,18.36,3.31,-0.35,-4.92
-1,3,14,-14,-317,3899,0.02,0.03,-0.03,-0.14,-3.17,38.99,-5.07,0.34,18.36,3.36,-0.29,-4.51
-1,2,10,-17,-321,3927,0.02,0.04,0.03,-0.17,-3.21,39.27,-5.06,0.33,18.36,3.35,-0.27,-4.13
0,-2,-1,-4,-355,3896,0.01,0.02,0.02,-0.04,-3.55,38.96,-5.06,0.32,18.36,3.34,-0.17,-3.20
0,-2,-3,8,-353,3887,0.01,0.01,0.00,0.08,-3.53,38.87,-5.07,0.30,18.36,3.34,-0.16,-3.05
-1,-3,-10,26,-337,3902,0.01,-0.01,-0.06,0.26,-3.37,39.02,-5.07,0.28,18.36,3.36,-0.12,-2.50
-1,-3,-16,15,-328,3927,-0.00,-0.03,-0.15,0.15,-3.28,39.27,-5.06,0.27,18.36,3.36,-0.11,-2.06
0,-4,-26,-16,-331,3911,-0.00,-0.05,-0.29,-0.16,-3.31,39.11,-5.04,0.26,18.36,3.33,-0.08,-1.32
-1,-4,-24,-25,-324,3907,-0.01,-0.07,-0.41,-0.25,-3.24,39.07,-5.02,0.27,18.36,3.34,-0.08,-1.57
0,-5,-24,-24,-373,3897,-0.01,-0.09,-0.52,-0.24,-3.73,38.97,-5.04,0.27,18.36,3.33,-0.05,-1.65
0,-4,-23,-13,-379,3904,-0.01,-0.11,-0.61,-0.13,-3.79,39.04,-5.06,0.27,18.36,3.34,-0.07,-1.80
-1,-1,-18,-37,-340,3914,-0.01,-0.10,-0.65,-0.37,-3.40,39.14,-5.05,0.28,18.37,3.36,-0.14,-2.26
0,-1,-17,-44,-309,3911,-0.01,-0.10,-0.69,-0.44,-3.09,39.11,-5.04,0.29,18.37,3.33,-0.15,-2.37
1,0,-14,-13,-309,3898,-0.00,-0.09,-0.71,-0.13,-3.09,38.98,-5.02,0.29,18.37,3.29,-0.17,-2.64
1,-1,-12,-15,-323,3904,0.00,-0.09,-0.71,-0.15,-3.23,39.04,-5.00,0.29,18.38,3.28,-0.14,-2.81
0,5,-6,-2,-324,3897,0.00,-0.05,-0.68,-0.02,-3.24,38.97,-4.99,0.27,18.38,3.29,-0.27,-3.29
-1,8,0,15,-294,3900,-0.00,0.01,-0.61,0.15,-2.94,39.00,-4.97,0.26,18.38,3.30,-0.34,-3.75
8,15,-12,11,-289,3901,0.05,0.10,-0.62,0.11,-2.89,39.01,-4.96,0.25,18.38,3.10,-0.50,-2.74
1,8,-14,-14,-263,3856,0.05,0.14,-0.64,-0.14,-2.63,38.56,-4.94,0.25,18.39,3.23,-0.37,-2.59
4,3,-15,3,-227,3860,0.07,0.14,-0.67,0.03,-2.27,38.60,-4.92,0.25,18.39,3.15,-0.26,-2.53
4,4,-27,-5,-238,3933,0.08,0.15,-0.77,-0.05,-2.38,39.33,-4.90,0.25,18.39,3.13,-0.29,-1.58
1,-1,-55,-51,-217,3933,0.08,0.13,-1.03,-0.51,-2.17,39.33,-4.88,0.25,18.39,3.18,-0.18,0.60
5,-2,-67,-70,-216,3917,0.10,0.10,-1.33,-0.70,-2.16,39.17,-4.87,0.26,18.40,3.08,-0.16,1.39
0,-1,-118,-74,-261,3903,0.09,0.09,-1.92,-0.74,-2.61,39.03,-4.85,0.27,18.41,3.18,-0.18,5.28
6,1,-142,-67,-290,3959,0.12,0.09,-2.59,-0.67,-2.90,39.59,-4.84,0.28,18.42,3.04,-0.23,6.82
3,-7,-174,-104,-335,3982,0.13,0.03,-3.40,-1.04,-3.35,39.82,-4.84,0.30,18.43,3.10,-0.06,8.95
1,-5,-184,-97,-361,3826,0.12,0.00,-4.18,-0.97,-3.61,38.26,-4.85,0.32,18.45,3.15,-0.11,9.22
4,4,-193,-80,-438,3879,0.13,0.02,-4.94,-0.80,-4.38,38.79,-4.86,0.32,18.47,3.09,-0.30,9.43
8,-3,-193,-58,-428,3939,0.17,0.00,-5.62,-0.58,-4.28,39.39,-4.88,0.33,18.49,3.01,-0.16,8.93
5,-5,-145,-13,-432,3927,0.18,-0.03,-5.94,-0.13,-4.32,39.27,-4.90,0.32,18.51,3.08,-0.10,4.62
5,0,-124,-20,-444,3799,0.19,-0.02,-6.11,-0.20,-4.44,37.99,-4.91,0.32,18.54,3.09,-0.20,2.72
1,2,-80,-31,-494,3839,0.18,-0.01,-5.98,-0.31,-4.94,38.39,-4.93,0.32,18.56,3.18,-0.25,-0.92
6,10,-64,-29,-491,3897,0.20,0.05,-5.78,-0.29,-4.91,38.97,-4.95,0.32,18.59,3.09,-0.43,-2.13
0,2,-15,-6,-497,3888,0.18,0.06,-5.29,-0.06,-4.97,38.88,-4.97,0.32,18.61,3.23,-0.26,-5.93
2,-2,-9,16,-495,3922,0.17,0.04,-4.82,0.16,-4.95,39.22,-4.98,0.31,18.63,3.20,-0.17,-6.10
0,-3,19,-24,-575,3945,0.16,0.02,-4.22,-0.24,-5.75,39.45,-5.00,0.31,18.64,3.26,-0.15,-8.04
0,-5,33,-66,-562,3852,0.14,-0.01,-3.59,-0.66,-5.62,38.52,-5.02,0.31,18.66,3.27,-0.10,-8.77
-10,-5,155,-22,-599,3827,0.07,-0.04,-2.29,-0.22,-5.99,38.27,-5.04,0.31,18.67,3.51,-0.09,-18.16
-12,12,195,20,-542,3911,-0.01,0.03,-0.87,0.20,-5.42,39.11,-5.05,0.31,18.67,3.58,-0.46,-20.00
-2,15,291,34,-578,3775,-0.02,0.12,0.99,0.34,-5.78,37.75,-5.07,0.30,18.67,3.40,-0.54,-20.00
0,24,327,-7,-516,3959,-0.02,0.26,2.89,-0.07,-5.16,39.59,-5.09,0.30,18.66,3.37,-0.76,-20.00
-4,25,430,-129,-476,3856,-0.04,0.38,5.22,-1.29,-4.76,38.56,-5.11,0.32,18.63,3.46,-0.82,-20.00
-15,9,447,-96,-469,4093,-0.13,0.40,7.43,-0.96,-4.69,40.93,-5.12,0.33,18.61,3.72,-0.51,-20.00
-1,10,505,-77,-458,4065,-0.12,0.42,9.76,-0.77,-4.58,40.65,-5.14,0.35,18.57,3.44,-0.55,-20.00
-2,2,524,-56,-465,3869,-0.12,0.39,11.98,-0.56,-4.65,38.69,-5.15,0.36,18.52,3.48,-0.38,-20.00
-3,6,558,6,-346,3952,-0.13,0.39,14.19,0.06,-3.46,39.52,-5.15,0.35,18.46,3.49,-0.46,-20.00
-10,21,554,18,-273,3839,-0.18,0.48,16.15,0.18,-2.73,38.39,-5.13,0.35,18.40,3.64,-0.79,-20.00
-8,22,500,-64,-150,3808,-0.21,0.56,17.58,-0.64,-1.50,38.08,-5.12,0.36,18.33,3.60,-0.84,-20.00
-16,4,481,-24,-74,3991,-0.29,0.53,18.76,-0.24,-0.74,39.91,-5.10,0.37,18.25,3.77,-0.47,-20.00
-11,3,380,-93,-117,3818,-0.32,0.50,19.20,-0.93,-1.17,38.18,-5.08,0.38,18.18,3.67,-0.45,-20.00
2,16,355,-200,-33,3851,-0.28,0.55,19.45,-2.00,-0.33,38.51,-5.07,0.40,18.10,3.38,-0.74,-19.16
8,16,237,71,-106,3877,-0.20,0.59,18.95,0.71,-1.06,38.77,-5.05,0.40,18.02,3.23,-0.75,-9.51
7,4,207,53,-150,3989,-0.14,0.55,18.32,0.53,-1.50,39.89,-5.03,0.40,17.95,3.22,-0.50,-7.42
3,8,190,-37,-407,3975,-0.11,0.55,17.64,-0.37,-4.07,39.75,-5.05,0.41,17.88,3.30,-0.59,-6.46
4,-2,182,-17,-390,3899,-0.07,0.48,16.99,-0.17,-3.90,38.99,-5.07,0.42,17.81,3.28,-0.37,-6.24
4,8,230,-76,-408,3907,-0.04,0.48,16.69,-0.76,-4.08,39.07,-5.08,0.44,17.75,3.28,-0.58,-10.51
-1,7,254,-101,-365,3923,-0.04,0.48,16.57,-1.01,-3.65,39.23,-5.09,0.46,17.68,3.39,-0.58,-12.62
-9,9,298,-2,-327,3876,-0.09,0.48,16.73,-0.02,-3.27,38.76,-5.08,0.45,17.62,3.56,-0.61,-16.22
-3,10,287,-19,-332,3949,-0.10,0.50,16.81,-0.19,-3.32,39.49,-5.06,0.45,17.55,3.43,-0.64,-15.22
-1,7,262,-10,-418,3896,-0.10,0.49,16.73,-0.10,-4.18,38.96,-5.08,0.46,17.48,3.40,-0.58,-13.15
-7,2,264,-18,-400,3927,-0.13,0.45,16.67,-0.18,-4.00,39.27,-5.10,0.46,17.42,3.54,-0.47,-13.35
-2,8,246,-59,-394,3880,-0.13,0.46,16.50,-0.59,-3.94,38.80,-5.11,0.47,17.35,3.45,-0.60,-11.94
0,12,256,-62,-354,3940,-0.12,0.48,16.41,-0.62,-3.54,39.40,-5.11,0.50,17.29,3.41,-0.71,-12.84
-1,15,264,19,-386,3935,-0.11,0.53,16.38,0.19,-3.86,39.35,-5.12,0.49,17.22,3.43,-0.77,-13.53
-11,9,255,-13,-333,3977,-0.17,0.53,16.30,-0.13,-3.33,39.77,-5.11,0.49,17.16,3.64,-0.65,-12.81
-7,6,231,36,-229,3854,-0.19,0.51,16.08,0.36,-2.29,38.54,-5.09,0.49,17.09,3.56,-0.58,-10.93
-7,10,226,33,-235,3918,-0.22,0.52,15.85,0.33,-2.35,39.18,-5.08,0.49,17.03,3.55,-0.67,-10.66
-2,10,188,31,-310,3901,-0.21,0.53,15.41,0.31,-3.10,39.01,-5.07,0.48,16.97,3.44,-0.66,-7.75
-5,10,185,-6,-331,3876,-0.22,0.54,15.00,-0.06,-3.31,38.76,-5.06,0.47,16.91,3.50,-0.66,-7.79
-8,1,193,-10,-402,3920,-0.24,0.49,14.68,-0.10,-4.02,39.20,-5.08,0.47,16.85,3.58,-0.46,-8.69
-5,5,190,-73,-362,3833,-0.25,0.47,14.37,-0.73,-3.62,38.33,-5.09,0.49,16.79,3.53,-0.56,-8.65
4,15,212,-40,-405,3858,-0.20,0.52,14.22,-0.40,-4.05,38.58,-5.11,0.50,16.74,3.34,-0.78,-10.61
-9,5,220,-99,-391,3959,-0.24,0.50,14.14,-0.99,-3.91,39.59,-5.12,0.52,16.68,3.62,-0.58,-11.33
-3,-1,252,-97,-345,3938,-0.23,0.44,14.27,-0.97,-3.45,39.38,-5.11,0.55,16.62,3.50,-0.46,-13.94
3,9,263,-115,-371,3844,-0.19,0.45,14.44,-1.15,-3.71,38.44,-5.12,0.57,16.57,3.37,-0.68,-14.74
-7,12,269,-6,-229,3888,-0.21,0.48,14.64,-0.06,-2.29,38.88,-5.10,0.58,16.51,3.57,-0.75,-15.09
1,3,253,-34,-258,3959,-0.19,0.45,14.72,-0.34,-2.58,39.59,-5.08,0.58,16.45,3.39,-0.57,-13.67
-2,11,262,-105,-336,3944,-0.18,0.47,14.85,-1.05,-3.36,39.44,-5.08,0.61,16.39,3.44,-0.75,-14.33
1,8,269,-98,-315,3933,-0.16,0.47,15.00,-0.98,-3.15,39.33,-5.07,0.63,16.33,3.37,-0.71,-14.79
-6,9,333,24,-308,3973,-0.18,0.48,15.53,0.24,-3.08,39.73,-5.06,0.62,16.27,3.51,-0.72,-19.82
-3,1,341,35,-301,3921,-0.18,0.44,16.06,0.35,-3.01,39.21,-5.05,0.61,16.20,3.44,-0.54,-20.00
-5,0,283,19,-160,3937,-0.19,0.39,16.18,0.19,-1.60,39.37,-5.03,0.61,16.14,3.48,-0.51,-15.09
0,11,270,22,-156,3848,-0.17,0.42,16.21,0.22,-1.56,38.48,-5.02,0.62,16.08,3.36,-0.75,-13.95
-2,10,253,35,-199,3880,-0.17,0.44,16.13,0.35,-1.99,38.80,-5.00,0.61,16.01,3.39,-0.73,-12.56
3,14,247,-15,-257,3944,-0.13,0.48,16.03,-0.15,-2.57,39.44,-4.98,0.62,15.95,3.26,-0.82,-12.12
-3,0,166,-116,-399,3951,-0.14,0.43,15.44,-1.16,-3.99,39.51,-4.99,0.64,15.89,3.39,-0.54,-5.67
-1,0,133,-60,-393,3863,-0.13,0.39,14.70,-0.60,-3.93,38.63,-5.01,0.65,15.83,3.36,-0.54,-3.40
-6,1,146,79,-298,3888,-0.15,0.36,14.12,0.79,-2.98,38.88,-5.01,0.64,15.77,3.47,-0.54,-4.91
-7,0,148,86,-298,3923,-0.18,0.32,13.61,0.86,-2.98,39.23,-5.00,0.63,15.72,3.49,-0.50,-5.45
-8,-1,139,-65,-323,3881,-0.21,0.28,13.10,-0.65,-3.23,38.81,-4.99,0.65,15.67,3.51,-0.49,-5.05
-1,4,144,-65,-318,3963,-0.20,0.28,12.67,-0.65,-3.18,39.63,-4.97,0.66,15.61,3.36,-0.60,-5.78
-3,7,115,60,-496,3958,-0.19,0.29,12.10,0.60,-4.96,39.58,-4.99,0.66,15.57,3.41,-0.66,-3.72
0,2,95,-11,-471,3934,-0.17,0.28,11.47,-0.11,-4.71,39.34,-5.01,0.66,15.52,3.35,-0.55,-2.48
-1,3,97,-77,-433,3942,-0.16,0.27,10.92,-0.77,-4.33,39.42,-5.02,0.67,15.48,3.38,-0.58,-3.05
2,5,102,-35,-438,3889,-0.14,0.27,10.45,-0.35,-4.38,38.89,-5.04,0.67,15.44,3.32,-0.62,-3.81
2,5,147,45,-190,3871,-0.11,0.27,10.30,0.45,-1.90,38.71,-5.03,0.67,15.40,3.31,-0.62,-7.72
2,8,191,64,-103,3952,-0.09,0.30,10.43,0.64,-1.03,39.52,-5.01,0.67,15.35,3.29,-0.68,-11.34
-3,-1,203,56,-262,3938,-0.10,0.26,10.63,0.56,-2.62,39.38,-5.00,0.66,15.31,3.39,-0.48,-12.21
-2,8,193,13,-310,3919,-0.10,0.28,10.74,0.13,-3.10,39.19,-4.99,0.65,15.27,3.36,-0.67,-11.27
-3,3,143,-35,-365,3901,-0.11,0.27,10.54,-0.35,-3.65,39.01,-5.01,0.64,15.23,3.39,-0.56,-7.17
-5,1,133,8,-420,3849,-0.13,0.25,10.30,0.08,-4.20,38.49,-5.02,0.64,15.19,3.45,-0.51,-6.49
0,8,51,-73,-473,3882,-0.11,0.28,9.58,-0.73,-4.73,38.82,-5.04,0.65,15.15,3.36,-0.67,-0.06
4,10,42,-82,-436,3886,-0.08,0.31,8.88,-0.82,-4.36,38.86,-5.06,0.66,15.11,3.28,-0.72,0.19
4,7,36,-89,-442,3887,-0.05,0.32,8.21,-0.89,-4.42,38.87,-5.07,0.67,15.08,3.28,-0.67,0.22
1,5,45,-62,-419,3881,-0.04,0.32,7.66,-0.62,-4.19,38.81,-5.09,0.68,15.05,3.35,-0.64,-0.94
-6,10,123,-17,-345,3875,-0.07,0.35,7.65,-0.17,-3.45,38.75,-5.09,0.66,15.02,3.50,-0.74,-7.55
-5,9,180,69,-168,3920,-0.09,0.37,7.98,0.69,-1.68,39.20,-5.08,0.66,14.99,3.48,-0.72,-12.13
1,8,274,32,-251,3901,-0.08,0.38,8.85,0.32,-2.51,39.01,-5.06,0.65,14.95,3.34,-0.70,-19.45
-4,6,276,29,-225,3993,-0.09,0.38,9.65,0.29,-2.25,39.93,-5.05,0.65,14.91,3.44,-0.65,-19.03
1,7,239,-98,-327,3992,-0.08,0.38,10.14,-0.98,-3.27,39.92,-5.04,0.67,14.87,3.33,-0.69,-15.53
1,12,230,-83,-301,3857,-0.06,0.42,10.53,-0.83,-3.01,38.57,-5.02,0.69,14.83,3.31,-0.81,-14.48
-3,8,153,-109,-411,3892,-0.08,0.43,10.41,-1.09,-4.11,38.92,-5.04,0.70,14.79,3.41,-0.74,-8.03
-7,5,129,-99,-397,3887,-0.11,0.41,10.16,-0.99,-3.97,38.87,-5.05,0.72,14.75,3.51,-0.69,-6.18
-6,-1,97,-134,-509,3909,-0.14,0.37,9.73,-1.34,-5.09,39.09,-5.07,0.74,14.71,3.50,-0.57,-3.77
-5,3,81,-155,-532,3876,-0.15,0.35,9.26,-1.55,-5.32,38.76,-5.08,0.75,14.68,3.50,-0.65,-2.76
1,7,96,-179,-426,3888,-0.13,0.36,8.92,-1.79,-4.26,38.88,-5.09,0.77,14.64,3.38,-0.75,-4.27
-3,-1,107,-180,-375,3880,-0.14,0.31,8.68,-1.80,-3.75,38.80,-5.10,0.79,14.61,3.46,-0.59,-5.37
-3,5,124,-246,-515,3895,-0.14,0.31,8.57,-2.46,-5.15,38.95,-5.11,0.81,14.57,3.47,-0.72,-6.89
-4,3,112,-271,-504,3956,-0.15,0.30,8.39,-2.71,-5.04,39.56,-5.12,0.83,14.54,3.50,-0.69,-5.99
-3,5,85,-237,-474,3977,-0.16,0.30,8.07,-2.37,-4.74,39.77,-5.13,0.85,14.51,3.49,-0.74,-3.93
-7,1,82,-198,-473,3910,-0.18,0.28,7.76,-1.98,-4.73,39.10,-5.14,0.87,14.48,3.59,-0.67,-3.89
-9,-5,100,43,-330,3904,-0.22,0.22,7.60,0.43,-3.30,39.04,-5.14,0.85,14.45,3.63,-0.52,-5.53
2,5,114,1,-328,3786,-0.18,0.23,7.53,0.01,-3.28,37.86,-5.14,0.84,14.42,3.40,-0.72,-6.76
-8,8,128,119,-424,3813,-0.22,0.25,7.56,1.19,-4.24,38.13,-5.14,0.82,14.39,3.62,-0.78,-7.92
3,1,143,96,-324,4014,-0.18,0.23,7.68,0.96,-3.24,40.14,-5.14,0.81,14.36,3.38,-0.62,-9.10
-7,10,206,167,-358,3930,-0.20,0.27,8.17,1.67,-3.58,39.30,-5.14,0.80,14.32,3.59,-0.80,-14.08
-5,10,201,219,-299,3850,-0.21,0.31,8.58,2.19,-2.99,38.50,-5.14,0.78,14.29,3.55,-0.80,-13.35
-7,8,177,127,-179,3926,-0.23,0.32,8.80,1.27,-1.79,39.26,-5.12,0.77,14.25,3.59,-0.76,-11.15
0,1,175,100,-185,3945,-0.21,0.30,8.99,1.00,-1.85,39.45,-5.11,0.77,14.22,3.43,-0.61,-10.84
0,11,139,42,-294,3919,-0.19,0.33,8.93,0.42,-2.94,39.19,-5.10,0.75,14.18,3.42,-0.81,-7.82
-2,6,124,92,-267,3942,-0.18,0.34,8.80,0.92,-2.67,39.42,-5.09,0.74,14.15,3.45,-0.70,-6.64
2,1,96,-39,-276,3901,-0.15,0.31,8.50,-0.39,-2.76,39.01,-5.08,0.74,14.11,3.35,-0.60,-4.48
1,6,98,-65,-300,3879,-0.13,0.32,8.25,-0.65,-3.00,38.79,-5.06,0.75,14.08,3.35,-0.71,-4.82
7,7,133,-76,-369,3938,-0.07,0.33,8.24,-0.76,-3.69,39.38,-5.07,0.77,14.05,3.22,-0.74,-7.79
-3,-3,133,29,-417,3995,-0.09,0.28,8.22,0.29,-4.17,39.95,-5.08,0.76,14.02,3.44,-0.52,-7.80
-2,0,123,-72,-419,3994,-0.09,0.25,8.15,-0.72,-4.19,39.94,-5.10,0.77,13.98,3.43,-0.58,-7.00
-5,-5,130,37,-417,3777,-0.11,0.19,8.13,0.37,-4.17,37.77,-5.11,0.76,13.95,3.51,-0.45,-7.60
-4,3,131,-6,-347,3854,-0.12,0.19,8.12,-0.06,-3.47,38.54,-5.11,0.75,13.92,3.49,-0.61,-7.69
-1,5,121,40,-339,3924,-0.12,0.20,8.04,0.40,-3.39,39.24,-5.11,0.73,13.89,3.42,-0.64,-6.89
-3,8,109,-39,-387,3902,-0.12,0.23,7.90,-0.39,-3.87,39.02,-5.13,0.73,13.86,3.48,-0.71,-5.97
-3,4,106,-11,-352,3906,-0.13,0.23,7.76,-0.11,-3.52,39.06,-5.13,0.72,13.83,3.48,-0.62,-5.81
-3,-1,81,52,-264,3915,-0.14,0.20,7.48,0.52,-2.64,39.15,-5.12,0.71,13.80,3.47,-0.50,-3.90
0,3,61,54,-263,3899,-0.12,0.20,7.10,0.54,-2.63,38.99,-5.10,0.69,13.77,3.40,-0.57,-2.47
2,0,6,-3,-345,3902,-0.10,0.18,6.43,-0.03,-3.45,39.02,-5.10,0.68,13.74,3.35,-0.50,1.70
0,-1,0,-15,-351,3892,-0.09,0.16,5.79,-0.15,-3.51,38.92,-5.11,0.66,13.72,3.39,-0.46,1.75
-3,-6,-13,-24,-361,3887,-0.10,0.10,5.13,-0.24,-3.61,38.87,-5.12,0.65,13.70,3.46,-0.34,2.37
-3,-7,-14,-34,-340,3901,-0.11,0.05,4.53,-0.34,-3.40,39.01,-5.10,0.64,13.68,3.46,-0.29,2.03
1,-4,-4,-2,-360,3909,-0.09,0.02,4.05,-0.02,-3.60,39.09,-5.11,0.62,13.66,3.38,-0.34,0.83
3,1,4,-13,-373,3898,-0.06,0.03,3.67,-0.13,-3.73,38.98,-5.12,0.61,13.65,3.34,-0.43,-0.12
-1,1,18,-38,-354,3894,-0.06,0.03,3.41,-0.38,-3.54,38.94,-5.14,0.60,13.64,3.43,-0.42,-1.49
4,-3,16,-48,-387,3870,-0.03,0.01,3.17,-0.48,-3.87,38.70,-5.15,0.61,13.62,3.33,-0.34,-1.50
-2,0,20,-45,-396,3891,-0.04,0.01,2.98,-0.45,-3.96,38.91,-5.17,0.61,13.61,3.46,-0.40,-1.98
-2,3,26,-43,-394,3892,-0.05,0.02,2.84,-0.43,-3.94,38.92,-5.19,0.61,13.60,3.48,-0.47,-2.58
1,6,25,-49,-320,3896,-0.04,0.06,2.71,-0.49,-3.20,38.96,-5.17,0.61,13.59,3.40,-0.54,-2.59
2,7,19,-46,-310,3893,-0.02,0.10,2.55,-0.46,-3.10,38.93,-5.15,0.62,13.58,3.37,-0.58,-2.19
0,2,20,-86,-376,3893,-0.02,0.10,2.42,-0.86,-3.76,38.93,-5.16,0.63,13.57,3.41,-0.49,-2.37
-3,2,35,-27,-349,3933,-0.04,0.10,2.39,-0.27,-3.49,39.33,-5.16,0.62,13.56,3.47,-0.48,-3.66
-1,3,24,-89,-328,3921,-0.04,0.11,2.30,-0.89,-3.28,39.21,-5.15,0.64,13.55,3.43,-0.51,-2.80
3,1,22,-81,-360,3892,-0.02,0.10,2.20,-0.81,-3.60,38.92,-5.15,0.66,13.54,3.34,-0.48,-2.70
1,2,59,-74,-433,3894,-0.01,0.11,2.34,-0.74,-4.33,38.94,-5.17,0.66,13.53,3.39,-0.51,-5.73
-4,5,69,-61,-444,3873,-0.03,0.13,2.53,-0.61,-4.44,38.73,-5.19,0.67,13.52,3.51,-0.58,-6.44
3,5,112,-95,-418,3887,-0.01,0.14,2.96,-0.95,-4.18,38.87,-5.20,0.68,13.51,3.37,-0.59,-9.76
-4,5,122,-78,-428,3879,-0.03,0.16,3.41,-0.78,-4.28,38.79,-5.22,0.69,13.50,3.53,-0.60,-10.28
-1,0,145,-39,-365,3901,-0.04,0.14,3.95,-0.39,-3.65,39.01,-5.23,0.68,13.48,3.48,-0.49,-11.83
5,13,143,-23,-405,3892,-0.00,0.21,4.43,-0.23,-4.05,38.92,-5.25,0.67,13.47,3.36,-0.77,-11.31
-2,7,130,29,-308,3897,-0.01,0.23,4.78,0.29,-3.08,38.97,-5.24,0.66,13.45,3.50,-0.64,-9.95
-4,0,108,40,-289,3877,-0.04,0.21,4.96,0.40,-2.89,38.77,-5.23,0.65,13.43,3.54,-0.48,-7.95
2,3,56,41,-266,3898,-0.02,0.21,4.80,0.41,-2.66,38.98,-5.21,0.64,13.41,3.41,-0.54,-3.66
0,2,44,53,-296,3912,-0.02,0.20,4.59,0.53,-2.96,39.12,-5.20,0.63,13.39,3.44,-0.51,-2.79
-2,-7,2,23,-328,3896,-0.03,0.13,4.15,0.23,-3.28,38.96,-5.20,0.61,13.37,3.48,-0.30,0.45
-1,-8,-7,6,-341,3900,-0.03,0.07,3.69,0.06,-3.41,39.00,-5.19,0.59,13.36,3.46,-0.25,0.88
0,-5,-19,-41,-368,3909,-0.03,0.03,3.20,-0.41,-3.68,39.09,-5.21,0.60,13.35,3.45,-0.30,1.54
0,-4,-19,-52,-367,3912,-0.03,0.01,2.77,-0.52,-3.67,39.12,-5.22,0.61,13.33,3.45,-0.32,1.23
5,5,-21,23,-384,3890,0.01,0.04,2.36,0.23,-3.84,38.90,-5.23,0.59,13.33,3.35,-0.50,1.10
2,6,-11,24,-352,3920,0.02,0.07,2.06,0.24,-3.52,39.20,-5.23,0.58,13.32,3.40,-0.52,0.04
6,9,-2,184,-503,3873,0.05,0.12,1.84,1.84,-5.03,38.73,-5.24,0.56,13.31,3.32,-0.59,-0.88
5,6,11,-114,-366,3951,0.08,0.14,1.72,-1.14,-3.66,39.51,-5.24,0.58,13.30,3.33,-0.55,-2.07
0,-11,54,-104,-372,3976,0.07,0.06,1.88,-1.04,-3.72,39.76,-5.24,0.60,13.30,3.44,-0.19,-5.60
-5,-12,53,-40,-309,3853,0.03,-0.02,2.02,-0.40,-3.09,38.53,-5.22,0.60,13.29,3.54,-0.15,-5.41
-6,-14,135,27,-653,3805,-0.01,-0.10,2.64,0.27,-6.53,38.05,-5.24,0.60,13.28,3.58,-0.08,-11.90
-7,-2,179,40,-686,3903,-0.05,-0.10,3.47,0.40,-6.86,39.03,-5.26,0.60,13.26,3.62,-0.32,-15.03
-3,4,290,14,-536,3940,-0.06,-0.07,4.89,0.14,-5.36,39.40,-5.27,0.59,13.24,3.56,-0.45,-20.00
-6,4,312,7,-514,3937,-0.09,-0.04,6.30,0.07,-5.14,39.37,-5.29,0.59,13.22,3.64,-0.46,-20.00
-3,13,415,116,-601,3888,-0.10,0.05,8.20,1.16,-6.01,38.88,-5.31,0.58,13.19,3.59,-0.66,-20.00
-4,11,445,100,-576,3882,-0.12,0.11,10.10,1.00,-5.76,38.82,-5.32,0.58,13.15,3.63,-0.63,-20.00
0,13,556,-80,-574,3987,-0.10,0.18,12.48,-0.80,-5.74,39.87,-5.34,0.58,13.10,3.55,-0.70,-20.00
-30,-3,608,13,-653,3788,-0.28,0.14,14.94,0.13,-6.53,37.88,-5.36,0.59,13.04,4.22,-0.37,-20.00
-36,-5,722,-30,-408,3828,-0.47,0.10,17.85,-0.30,-4.08,38.28,-5.38,0.59,12.97,4.41,-0.31,-20.00
27,44,757,-117,-423,3765,-0.26,0.35,20.68,-1.17,-4.23,37.65,-5.39,0.61,12.88,3.08,-1.40,-20.00
-18,32,874,-165,-517,3712,-0.34,0.51,23.95,-1.65,-5.17,37.12,-5.40,0.64,12.79,4.03,-1.21,-20.00
-32,8,878,-27,-443,3985,-0.50,0.51,26.91,-0.27,-4.43,39.85,-5.42,0.64,12.68,4.37,-0.73,-20.00
-10,23,917,-60,-327,3941,-0.51,0.60,29.81,-0.60,-3.27,39.41,-5.41,0.66,12.56,3.91,-1.07,-20.00
-14,21,943,-50,-346,3957,-0.55,0.67,32.58,-0.50,-3.46,39.57,-5.39,0.68,12.43,3.99,-1.06,-20.00
-6,20,985,-49,-426,3915,-0.53,0.72,35.33,-0.49,-4.26,39.15,-5.41,0.70,12.29,3.84,-1.06,-20.00
-17,22,978,-74,-382,3916,-0.58,0.79,37.76,-0.74,-3.82,39.16,-5.42,0.73,12.14,4.08,-1.14,-20.00
-26,10,982,-58,-308,3938,-0.68,0.77,39.98,-0.58,-3.08,39.38,-5.40,0.75,11.99,4.28,-0.91,-20.00
-1,26,981,-6,-343,3858,-0.62,0.85,41.96,-0.06,-3.43,38.58,-5.39,0.75,11.82,3.75,-1.26,-20.00
-23,22,977,-41,-234,3852,-0.70,0.90,43.73,-0.41,-2.34,38.52,-5.37,0.77,11.64,4.20,-1.20,-20.00
2,28,982,-29,-229,3995,-0.62,0.98,45.35,-0.29,-2.29,39.95,-5.35,0.79,11.46,3.66,-1.36,-20.00
-11,20,996,-106,-222,3935,-0.62,1.00,46.89,-1.06,-2.22,39.35,-5.34,0.82,11.28,3.92,-1.22,-20.00
-15,18,1000,-148,-226,3922,-0.65,1.01,48.30,-1.48,-2.26,39.22,-5.32,0.85,11.09,3.99,-1.20,-20.00
-15,23,953,-87,-264,3926,-0.68,1.05,49.28,-0.87,-2.64,39.26,-5.30,0.88,10.89,3.99,-1.33,-20.00
8,27,941,-5,-199,3901,-0.56,1.11,50.09,-0.05,-1.99,39.01,-5.29,0.89,10.69,3.48,-1.44,-20.00
-9,25,943,-37,-288,3819,-0.56,1.15,50.84,-0.37,-2.88,38.19,-5.27,0.91,10.49,3.81,-1.42,-20.00
-13,32,949,-59,-286,3877,-0.58,1.23,51.54,-0.59,-2.86,38.77,-5.25,0.94,10.28,3.89,-1.60,-20.00
-8,31,945,-3,-387,3928,-0.57,1.30,52.15,-0.03,-3.87,39.28,-5.25,0.94,10.07,3.79,-1.61,-20.00
4,46,949,0,-277,3855,-0.49,1.45,52.73,0.00,-2.77,38.55,-5.24,0.96,9.87,3.51,-1.96,-20.00
-37,43,1046,11,-340,3822,-0.67,1.57,53.83,0.11,-3.40,38.22,-5.24,0.96,9.65,4.39,-1.94,-20.00
0,43,1085,39,-268,4047,-0.60,1.67,55.07,0.39,-2.68,40.47,-5.22,0.98,9.43,3.61,-1.98,-20.00
-44,28,1199,0,-269,3993,-0.81,1.68,56.88,0.00,-2.69,39.93,-5.21,0.99,9.21,4.55,-1.68,-20.00
-17,14,1232,-25,-173,3874,-0.83,1.59,58.70,-0.25,-1.73,38.74,-5.19,1.02,8.97,4.00,-1.39,-20.00
-21,8,1323,-12,-257,3898,-0.88,1.48,60.90,-0.12,-2.57,38.98,-5.17,1.04,8.73,4.08,-1.25,-20.00
-27,27,1346,10,-270,3788,-0.95,1.50,63.02,0.10,-2.70,37.88,-5.16,1.05,8.48,4.21,-1.65,-20.00
0,24,1443,-41,-192,3894,-0.86,1.50,65.52,-0.41,-1.92,38.94,-5.14,1.08,8.22,3.63,-1.61,-20.00
-15,44,1464,-83,-320,3931,-0.86,1.61,67.90,-0.83,-3.20,39.31,-5.12,1.11,7.95,3.92,-2.07,-20.00
-13,37,1470,-90,-144,4000,-0.86,1.68,70.08,-0.90,-1.44,40.00,-5.10,1.15,7.67,3.86,-1.97,-20.00
-27,21,1469,-86,-240,3862,-0.94,1.64,72.03,-0.86,-2.40,38.62,-5.08,1.18,7.38,4.16,-1.65,-20.00
-27,34,1441,-136,-288,3804,-1.01,1.68,73.62,-1.36,-2.88,38.04,-5.06,1.23,7.09,4.17,-1.96,-20.00
-10,33,1429,-152,-192,3961,-0.97,1.72,74.97,-1.52,-1.92,39.61,-5.04,1.27,6.79,3.80,-1.97,-20.00
-4,31,1344,-240,-246,3873,-0.90,1.73,75.67,-2.40,-2.46,38.73,-5.03,1.32,6.49,3.65,-1.97,-20.00
-36,14,1321,-213,-278,3950,-1.03,1.65,76.17,-2.13,-2.78,39.50,-5.02,1.36,6.19,4.32,-1.63,-20.00
4,25,1208,-133,-253,3997,-0.90,1.63,75.92,-1.33,-2.53,39.97,-5.00,1.40,5.88,3.46,-1.88,-20.00
-18,23,1170,-159,-439,3841,-0.92,1.61,75.46,-1.59,-4.39,38.41,-5.01,1.45,5.58,3.92,-1.86,-20.00
-13,29,1094,-67,-424,3858,-0.91,1.63,74.59,-0.67,-4.24,38.58,-5.02,1.47,5.29,3.83,-2.00,-20.00
-13,14,1063,-36,-369,3967,-0.89,1.55,73.62,-0.36,-3.69,39.67,-5.03,1.49,4.99,3.82,-1.69,-20.00
-5,23,1013,41,-409,3859,-0.84,1.53,72.43,0.41,-4.09,38.59,-5.03,1.50,4.71,3.65,-1.88,-20.00
-18,14,1004,31,-511,3954,-0.86,1.47,71.31,0.31,-5.11,39.54,-5.04,1.52,4.42,3.93,-1.69,-20.00
-15,22,980,-140,-532,3943,-0.87,1.45,70.16,-1.40,-5.32,39.43,-5.05,1.56,4.14,3.88,-1.87,-20.00
-37,4,979,-136,-540,3747,-1.01,1.33,69.12,-1.36,-5.40,37.47,-5.07,1.59,3.87,4.37,-1.49,-20.00
4,26,962,-90,-449,3833,-0.88,1.36,68.07,-0.90,-4.49,38.33,-5.08,1.61,3.60,3.51,-1.96,-20.00
-11,25,954,-105,-445,4001,-0.86,1.37,67.09,-1.05,-4.45,40.01,-5.10,1.64,3.33,3.82,-1.97,-20.00
-13,26,987,24,-437,4060,-0.85,1.40,66.40,0.24,-4.37,40.60,-5.10,1.65,3.07,3.86,-2.00,-20.00
-15,-6,996,197,-377,3925,-0.86,1.22,65.83,1.97,-3.77,39.25,-5.10,1.66,2.81,3.90,-1.31,-20.00
-39,4,974,-115,-524,3804,-1.01,1.12,65.19,-1.15,-5.24,38.04,-5.11,1.69,2.55,4.44,-1.50,-20.00
3,41,986,-197,-527,3935,-0.89,1.26,64.69,-1.97,-5.27,39.35,-5.12,1.73,2.29,3.56,-2.32,-20.00
-16,13,866,-38,-501,3949,-0.90,1.21,63.50,-0.38,-5.01,39.49,-5.14,1.75,2.04,3.96,-1.75,-20.00
-13,32,806,-261,-546,3823,-0.89,1.29,62.07,-2.61,-5.46,38.23,-5.15,1.79,1.79,3.90,-2.18,-20.00
-3,30,863,47,-487,3823,-0.82,1.34,61.12,0.47,-4.87,38.23,-5.15,1.80,1.55,3.69,-2.16,-20.00
-6,25,850,68,-508,3985,-0.77,1.36,60.20,0.68,-5.08,39.85,-5.16,1.81,1.31,3.74,-2.07,-20.00
-25,24,846,-31,-578,3910,-0.85,1.37,59.34,-0.31,-5.78,39.10,-5.17,1.83,1.08,4.15,-2.07,-20.00
-32,16,855,7,-397,3917,-0.96,1.33,58.62,0.07,-3.97,39.17,-5.18,1.84,0.84,4.33,-1.90,-20.00
0,27,894,-35,-547,3856,-0.86,1.36,58.21,-0.35,-5.47,38.56,-5.19,1.86,0.61,3.66,-2.15,-20.00
-11,27,940,34,-560,3911,-0.84,1.39,58.12,0.34,-5.60,39.11,-5.20,1.87,0.38,3.89,-2.16,-20.00
-13,39,1002,-65,-512,3988,-0.84,1.49,58.42,-0.65,-5.12,39.88,-5.21,1.89,0.15,3.93,-2.45,-20.00
-16,18,1037,-26,-427,3945,-0.85,1.45,58.91,-0.26,-4.27,39.45,-5.22,1.91,-0.08,4.00,-2.02,-20.00
4,47,1080,-99,-317,3832,-0.74,1.59,59.60,-0.99,-3.17,38.32,-5.20,1.92,-0.32,3.55,-2.66,-20.00
-22,28,1054,-31,-276,3921,-0.80,1.60,60.07,-0.31,-2.76,39.21,-5.18,1.93,-0.56,4.09,-2.28,-20.00
-24,14,896,-74,-162,3789,-0.87,1.53,59.53,-0.74,-1.62,37.89,-5.16,1.96,-0.80,4.13,-1.99,-20.00
-6,27,840,-119,-157,3897,-0.82,1.54,58.70,-1.19,-1.57,38.97,-5.14,1.98,-1.03,3.74,-2.28,-20.00
5,25,601,-240,-28,3932,-0.71,1.54,56.50,-2.40,-0.28,39.32,-5.11,2.02,-1.26,3.47,-2.26,-9.51
-2,13,525,-219,-81,3976,-0.65,1.46,54.05,-2.19,-0.81,39.76,-5.09,2.05,-1.47,3.58,-2.01,-4.82
-4,4,342,-130,-330,3892,-0.61,1.34,50.73,-1.30,-3.30,38.92,-5.07,2.06,-1.68,3.59,-1.81,8.30
1,11,321,-114,-371,3918,-0.54,1.28,47.62,-1.14,-3.71,39.18,-5.08,2.07,-1.86,3.48,-1.94,7.85
6,20,267,-97,-406,3874,-0.45,1.27,44.48,-0.97,-4.06,38.74,-5.09,2.08,-2.04,3.36,-2.12,10.17
5,18,264,-101,-384,3946,-0.37,1.25,41.65,-1.01,-3.84,39.46,-5.10,2.08,-2.21,3.36,-2.08,8.39
-12,6,245,-79,-367,3915,-0.41,1.16,38.98,-0.79,-3.67,39.15,-5.10,2.08,-2.36,3.72,-1.81,8.08
-9,12,295,-130,-433,3906,-0.42,1.12,36.88,-1.30,-4.33,39.06,-5.11,2.10,-2.51,3.67,-1.93,2.34
-6,8,378,-50,-434,3960,-0.42,1.06,35.50,-0.50,-4.34,39.60,-5.12,2.10,-2.65,3.61,-1.84,-5.68
-4,19,388,-40,-448,3865,-0.40,1.07,34.31,-0.40,-4.48,38.65,-5.13,2.10,-2.78,3.58,-2.07,-7.36
3,29,448,-219,-382,3806,-0.34,1.14,33.61,-2.19,-3.82,38.06,-5.13,2.14,-2.92,3.42,-2.31,-12.93
-10,19,463,-43,-398,3934,-0.37,1.14,33.08,-0.43,-3.98,39.34,-5.14,2.14,-3.05,3.69,-2.11,-14.57
-11,9,416,-237,-581,3960,-0.40,1.08,32.31,-2.37,-5.81,39.60,-5.15,2.16,-3.18,3.73,-1.90,-11.12
-8,18,490,-197,-594,3902,-0.41,1.08,32.07,-1.97,-5.94,39.02,-5.17,2.18,-3.30,3.68,-2.10,-17.55
-4,0,432,-6,-481,3986,-0.39,0.97,31.49,-0.06,-4.81,39.86,-5.17,2.18,-3.43,3.60,-1.70,-13.03
-9,16,462,-251,-522,3892,-0.41,0.97,31.16,-2.51,-5.22,38.92,-5.19,2.20,-3.55,3.72,-2.05,-15.79
-14,16,591,70,-505,3923,-0.45,0.97,31.65,0.70,-5.05,39.23,-5.19,2.20,-3.68,3.84,-2.05,-20.00
-7,15,585,38,-487,3869,-0.45,0.97,32.06,0.38,-4.87,38.69,-5.20,2.21,-3.80,3.70,-2.02,-20.00
-10,14,631,-37,-539,3830,-0.47,0.96,32.70,-0.37,-5.39,38.30,-5.21,2.21,-3.93,3.77,-2.01,-20.00
-4,13,650,-18,-457,3889,-0.44,0.94,33.39,-0.18,-4.57,38.89,-5.22,2.21,-4.07,3.65,-1.98,-20.00
-1,10,687,76,-338,3816,-0.41,0.91,34.25,0.76,-3.38,38.16,-5.22,2.21,-4.20,3.57,-1.91,-20.00
-23,7,665,-41,-334,3984,-0.51,0.86,34.88,-0.41,-3.34,39.84,-5.21,2.21,-4.34,4.04,-1.83,-20.00
-13,15,739,-101,-365,3903,-0.53,0.87,35.90,-1.01,-3.65,39.03,-5.21,2.21,-4.48,3.85,-2.00,-20.00
-8,6,704,165,-308,3843,-0.53,0.82,36.60,1.65,-3.08,38.43,-5.20,2.21,-4.63,3.74,-1.80,-20.00
-11,20,750,-190,-576,3873,-0.54,0.86,37.52,-1.90,-5.76,38.73,-5.22,2.23,-4.78,3.82,-2.11,-20.00
-15,17,777,-123,-469,3982,-0.58,0.87,38.50,-1.23,-4.69,39.82,-5.23,2.24,-4.93,3.92,-2.06,-20.00
-16,19,742,-106,-401,4050,-0.62,0.90,39.18,-1.06,-4.01,40.50,-5.24,2.24,-5.09,3.95,-2.11,-20.00
-3,17,748,-55,-394,3728,-0.58,0.92,39.83,-0.55,-3.94,37.28,-5.24,2.24,-5.24,3.68,-2.08,-20.00
-4,0,735,-44,-455,3863,-0.54,0.82,40.33,-0.44,-4.55,38.63,-5.25,2.25,-5.40,3.69,-1.71,-20.00
-14,26,762,-246,-556,3742,-0.57,0.90,40.94,-2.46,-5.56,37.42,-5.26,2.27,-5.57,3.91,-2.27,-20.00
-17,25,815,-186,-505,3779,-0.62,0.96,41.82,-1.86,-5.05,37.79,-5.28,2.30,-5.73,4.00,-2.29,-20.00
-10,27,837,-100,-482,3944,-0.62,1.03,42.74,-1.00,-4.82,39.44,-5.29,2.31,-5.90,3.86,-2.35,-20.00
-10,22,830,-36,-442,3870,-0.62,1.06,43.53,-0.36,-4.42,38.70,-5.29,2.31,-6.07,3.87,-2.26,-20.00
-23,8,821,4,-408,3948,-0.70,1.00,44.19,0.04,-4.08,39.48,-5.29,2.32,-6.25,4.15,-1.97,-20.00
-32,17,785,-135,-393,4003,-0.82,1.01,44.56,-1.35,-3.93,40.03,-5.30,2.32,-6.43,4.37,-2.15,-20.00
-4,13,791,-119,-324,3943,-0.76,0.99,44.93,-1.19,-3.24,39.43,-5.29,2.33,-6.60,3.78,-2.07,-20.00
3,11,802,-78,-264,4007,-0.67,0.96,45.33,-0.78,-2.64,40.07,-5.27,2.34,-6.79,3.60,-2.03,-20.00
-9,34,820,-208,-425,3816,-0.66,1.07,45.79,-2.08,-4.25,38.16,-5.28,2.37,-6.97,3.84,-2.55,-20.00
-23,1,801,-113,-464,3872,-0.73,0.97,46.10,-1.13,-4.64,38.72,-5.29,2.38,-7.15,4.16,-1.86,-20.00
-7,30,784,-175,-393,4002,-0.70,1.05,46.27,-1.75,-3.93,40.02,-5.30,2.41,-7.33,3.83,-2.49,-20.00
-19,3,690,-84,-424,3960,-0.75,0.97,45.86,-0.84,-4.24,39.60,-5.31,2.42,-7.52,4.09,-1.92,-20.00
-12,13,670,-142,-387,3898,-0.75,0.95,45.36,-1.42,-3.87,38.98,-5.31,2.42,-7.70,3.96,-2.12,-20.00
-9,5,629,-79,-279,3927,-0.73,0.88,44.66,-0.79,-2.79,39.27,-5.30,2.43,-7.87,3.88,-1.95,-19.32
-15,14,623,-187,-376,3821,-0.75,0.88,43.99,-1.87,-3.76,38.21,-5.31,2.46,-8.05,4.01,-2.15,-19.27
-10,14,571,-146,-491,3787,-0.73,0.88,43.08,-1.46,-4.91,37.87,-5.32,2.48,-8.22,3.91,-2.16,-15.50
-15,9,590,-135,-538,3930,-0.75,0.85,42.37,-1.35,-5.38,39.30,-5.33,2.50,-8.39,4.03,-2.06,-17.60
-8,15,600,-96,-489,3994,-0.72,0.85,41.79,-0.96,-4.89,39.94,-5.34,2.51,-8.55,3.89,-2.19,-18.83
-6,6,573,9,-382,3835,-0.69,0.80,41.11,0.09,-3.82,38.35,-5.34,2.51,-8.72,3.83,-2.00,-17.01
-10,12,581,-99,-447,3783,-0.68,0.80,40.54,-0.99,-4.47,37.83,-5.35,2.51,-8.88,3.92,-2.12,-18.08
-25,4,588,-20,-395,3968,-0.76,0.74,40.07,-0.20,-3.95,39.68,-5.35,2.51,-9.04,4.25,-1.94,-18.98
-7,26,619,-108,-329,3935,-0.73,0.83,39.84,-1.08,-3.29,39.35,-5.34,2.52,-9.19,3.86,-2.41,-20.00
-12,18,635,-51,-318,3915,-0.73,0.85,39.73,-0.51,-3.18,39.15,-5.33,2.52,-9.35,3.96,-2.26,-20.00
-9,16,672,-122,-299,3997,-0.71,0.87,39.86,-1.22,-2.99,39.97,-5.31,2.52,-9.51,3.88,-2.23,-20.00
-10,14,673,-121,-373,3769,-0.70,0.86,39.98,-1.21,-3.73,37.69,-5.31,2.53,-9.67,3.90,-2.19,-20.00
-19,12,690,-47,-428,3758,-0.75,0.85,40.19,-0.47,-4.28,37.58,-5.32,2.53,-9.83,4.10,-2.15,-20.00
-10,19,691,-76,-373,3971,-0.73,0.88,40.38,-0.76,-3.73,39.71,-5.31,2.53,-9.99,3.91,-2.30,-20.00
-21,8,716,-113,-423,3994,-0.79,0.84,40.71,-1.13,-4.23,39.94,-5.32,2.53,-10.15,4.15,-2.06,-20.00
-18,15,736,-87,-470,3846,-0.82,0.85,41.13,-0.87,-4.70,38.46,-5.33,2.54,-10.32,4.11,-2.21,-20.00
-13,23,759,-117,-394,3866,-0.82,0.90,41.65,-1.17,-3.94,38.66,-5.34,2.54,-10.48,4.01,-2.39,-20.00
-7,27,749,-46,-426,3930,-0.78,0.98,42.05,-0.46,-4.26,39.30,-5.34,2.55,-10.65,3.88,-2.50,-20.00
-12,22,753,-80,-445,3958,-0.77,1.02,42.44,-0.80,-4.45,39.58,-5.35,2.55,-10.82,3.98,-2.41,-20.00
-12,22,746,-80,-507,3885,-0.77,1.05,42.75,-0.80,-5.07,38.85,-5.36,2.56,-10.99,3.99,-2.42,-20.00
-8,15,723,-55,-477,3896,-0.74,1.03,42.88,-0.55,-4.77,38.96,-5.37,2.57,-11.16,3.91,-2.28,-20.00
-7,20,726,-63,-499,3876,-0.71,1.05,43.02,-0.63,-4.99,38.76,-5.38,2.58,-11.33,3.88,-2.40,-20.00
-10,14,722,-60,-404,3986,-0.70,1.03,43.12,-0.60,-4.04,39.86,-5.37,2.58,-11.50,3.94,-2.27,-20.00
-2,19,713,-131,-439,3953,-0.64,1.05,43.16,-1.31,-4.39,39.53,-5.38,2.59,-11.67,3.77,-2.38,-20.00
-19,11,753,-137,-420,3895,-0.69,1.01,43.44,-1.37,-4.20,38.95,-5.39,2.60,-11.84,4.14,-2.21,-20.00
-12,26,757,-146,-388,3905,-0.70,1.07,43.71,-1.46,-3.88,39.05,-5.40,2.60,-12.01,4.00,-2.54,-20.00
-20,22,766,9,-500,3871,-0.75,1.09,44.01,0.09,-5.00,38.71,-5.40,2.61,-12.19,4.18,-2.47,-20.00
-3,21,777,80,-507,3989,-0.69,1.11,44.35,0.80,-5.07,39.89,-5.41,2.61,-12.36,3.82,-2.46,-20.00
-15,15,771,52,-456,3948,-0.72,1.09,44.62,0.52,-4.56,39.48,-5.41,2.62,-12.54,4.07,-2.33,-20.00
-14,13,754,-75,-391,3778,-0.73,1.06,44.76,-0.75,-3.91,37.78,-5.41,2.62,-12.72,4.05,-2.28,-20.00
-14,6,733,-43,-359,3806,-0.74,0.99,44.75,-0.43,-3.59,38.06,-5.40,2.62,-12.90,4.05,-2.13,-20.00
-8,11,734,-63,-391,3902,-0.72,0.96,44.76,-0.63,-3.91,39.02,-5.40,2.63,-13.08,3.92,-2.22,-20.00
-23,18,705,-126,-554,3913,-0.78,0.97,44.58,-1.26,-5.54,39.13,-5.41,2.64,-13.25,4.25,-2.38,-20.00
-16,-6,696,57,-417,4009,-0.80,0.84,44.37,0.57,-4.17,40.09,-5.41,2.64,-13.43,4.12,-1.85,-20.00
6,36,811,-52,-532,3979,-0.69,0.98,44.88,-0.52,-5.32,39.79,-5.42,2.65,-13.61,3.64,-2.75,-20.00
-5,30,844,-49,-337,3843,-0.65,1.06,45.54,-0.49,-3.37,38.43,-5.41,2.66,-13.79,3.85,-2.65,-20.00
-21,10,831,-58,-406,3840,-0.71,1.02,46.05,-0.58,-4.06,38.40,-5.41,2.66,-13.97,4.19,-2.24,-20.00
-3,18,827,-31,-407,3845,-0.66,1.02,46.49,-0.31,-4.07,38.45,-5.41,2.67,-14.15,3.81,-2.40,-20.00
-12,15,826,-49,-468,3800,-0.67,1.01,46.88,-0.49,-4.68,38.00,-5.42,2.67,-14.34,4.00,-2.35,-20.00
-10,31,824,-86,-476,3955,-0.66,1.10,47.22,-0.86,-4.76,39.55,-5.42,2.68,-14.53,3.96,-2.70,-20.00
-16,11,762,-74,-413,3967,-0.69,1.06,47.15,-0.74,-4.13,39.67,-5.42,2.69,-14.72,4.09,-2.29,-20.00
-13,7,745,-14,-381,3818,-0.70,1.00,46.98,-0.14,-3.81,38.18,-5.42,2.69,-14.90,4.03,-2.19,-20.00
6,17,683,-90,-406,3809,-0.60,1.00,46.45,-0.90,-4.06,38.09,-5.42,2.70,-15.09,3.62,-2.40,-20.00
-15,9,686,-87,-560,3915,-0.63,0.95,45.99,-0.87,-5.60,39.15,-5.43,2.71,-15.27,4.06,-2.23,-20.00
-1,16,679,44,-292,4011,-0.57,0.96,45.53,0.44,-2.92,40.11,-5.42,2.71,-15.45,3.75,-2.38,-20.00
-19,3,659,-39,-308,3814,-0.63,0.88,45.00,-0.39,-3.08,38.14,-5.40,2.72,-15.63,4.13,-2.09,-20.00
-13,15,647,-86,-361,3857,-0.65,0.88,44.44,-0.86,-3.61,38.57,-5.40,2.72,-15.81,4.00,-2.34,-19.58
-6,22,649,-87,-397,3871,-0.62,0.93,43.96,-0.87,-3.97,38.71,-5.40,2.72,-15.98,3.85,-2.50,-20.00
-11,4,651,-81,-358,3947,-0.62,0.86,43.53,-0.81,-3.58,39.47,-5.39,2.72,-16.15,3.95,-2.11,-20.00
-9,8,649,-23,-375,3905,-0.62,0.82,43.14,-0.23,-3.75,39.05,-5.38,2.72,-16.33,3.90,-2.18,-20.00
-5,19,606,-126,-446,3830,-0.58,0.86,42.52,-1.26,-4.46,38.30,-5.39,2.73,-16.49,3.82,-2.42,-17.38
-9,10,601,-50,-407,3971,-0.58,0.83,41.94,-0.50,-4.07,39.71,-5.39,2.73,-16.66,3.90,-2.23,-17.35
-16,8,561,-111,-450,3949,-0.62,0.80,41.16,-1.11,-4.50,39.49,-5.40,2.74,-16.82,4.06,-2.19,-14.50
-3,15,555,-104,-362,3884,-0.58,0.81,40.43,-1.04,-3.62,38.84,-5.39,2.74,-16.99,3.78,-2.33,-14.49
-11,8,548,-78,-356,3912,-0.59,0.78,39.73,-0.78,-3.56,39.12,-5.39,2.74,-17.14,3.94,-2.18,-14.38
-2,5,547,-50,-351,3894,-0.54,0.73,39.10,-0.50,-3.51,38.94,-5.38,2.74,-17.30,3.74,-2.11,-14.73
-16,-2,507,-29,-393,3813,-0.58,0.64,38.28,-0.29,-3.93,38.13,-5.38,2.74,-17.45,4.03,-1.94,-11.91
-17,6,504,-142,-444,3873,-0.63,0.62,37.53,-1.42,-4.44,38.73,-5.39,2.74,-17.60,4.07,-2.10,-12.18
-9,12,464,-52,-363,3926,-0.62,0.63,36.60,-0.52,-3.63,39.26,-5.38,2.74,-17.75,3.91,-2.23,-9.44
-13,-4,458,14,-399,3981,-0.64,0.54,35.74,0.14,-3.99,39.81,-5.38,2.74,-17.89,3.99,-1.87,-9.53
-9,2,366,-36,-432,3843,-0.63,0.50,34.40,-0.36,-4.32,38.43,-5.39,2.74,-18.02,3.91,-1.98,-2.69
-2,3,352,-25,-498,3899,-0.58,0.47,33.10,-0.25,-4.98,38.99,-5.39,2.74,-18.16,3.76,-2.00,-2.43
-6,3,361,-28,-467,3925,-0.56,0.44,32.00,-0.28,-4.67,39.25,-5.40,2.74,-18.28,3.84,-1.99,-3.97
-4,1,366,-138,-379,3949,-0.53,0.40,31.03,-1.38,-3.79,39.49,-5.40,2.73,-18.41,3.79,-1.93,-5.08
-5,5,366,-106,-473,3862,-0.50,0.39,30.16,-1.06,-4.73,38.62,-5.41,2.73,-18.53,3.81,-2.01,-5.69
1,0,393,25,-402,4043,-0.45,0.35,29.54,0.25,-4.02,40.43,-5.41,2.73,-18.64,3.67,-1.90,-8.41
-17,2,376,-159,-534,3942,-0.51,0.33,28.88,-1.59,-5.34,39.42,-5.42,2.74,-18.76,4.06,-1.94,-7.43
2,3,367,-15,-294,3847,-0.44,0.31,28.23,-0.15,-2.94,38.47,-5.41,2.73,-18.87,3.65,-1.95,-7.12
-2,2,358,-123,-498,3852,-0.41,0.30,27.59,-1.23,-4.98,38.52,-5.42,2.74,-18.98,3.73,-1.93,-6.80
0,17,380,-136,-514,3938,-0.37,0.37,27.15,-1.36,-5.14,39.38,-5.44,2.74,-19.09,3.69,-2.26,-8.97
-2,16,393,-63,-419,3898,-0.35,0.43,26.83,-0.63,-4.19,38.98,-5.44,2.74,-19.19,3.72,-2.25,-10.28
7,17,394,3,-423,3896,-0.27,0.49,26.55,0.03,-4.23,38.96,-5.44,2.73,-19.30,3.52,-2.28,-10.55
-11,-3,394,-49,-366,3893,-0.31,0.42,26.30,-0.49,-3.66,38.93,-5.43,2.72,-19.40,3.89,-1.85,-10.72
-3,12,395,-16,-426,3876,-0.30,0.45,26.08,-0.16,-4.26,38.76,-5.44,2.72,-19.51,3.73,-2.16,-10.94
-14,14,390,-125,-509,3958,-0.35,0.49,25.85,-1.25,-5.09,39.58,-5.45,2.72,-19.61,3.98,-2.22,-10.67
1,8,413,-38,-463,3846,-0.31,0.49,25.79,-0.38,-4.63,38.46,-5.46,2.72,-19.71,3.67,-2.09,-12.65
-2,-7,456,1,-377,3854,-0.29,0.40,25.99,0.01,-3.77,38.54,-5.45,2.71,-19.81,3.72,-1.76,-16.12
-7,29,458,-56,-462,3727,-0.31,0.54,26.18,-0.56,-4.62,37.27,-5.46,2.71,-19.92,3.83,-2.52,-16.13
0,19,446,-108,-337,3916,-0.27,0.60,26.29,-1.08,-3.37,39.16,-5.45,2.71,-20.02,3.67,-2.34,-15.02
-23,-6,418,-51,-249,3889,-0.39,0.50,26.21,-0.51,-2.49,38.89,-5.43,2.70,-20.13,4.16,-1.80,-12.69
-3,10,384,47,-458,3803,-0.37,0.51,25.93,0.47,-4.58,38.03,-5.44,2.70,-20.23,3.75,-2.12,-9.99
-3,11,389,54,-484,3874,-0.35,0.53,25.71,0.54,-4.84,38.74,-5.44,2.69,-20.33,3.75,-2.15,-10.56
-1,21,400,-17,-517,3819,-0.32,0.61,25.58,-0.17,-5.17,38.19,-5.45,2.69,-20.43,3.71,-2.37,-11.57
-7,5,388,52,-414,4009,-0.33,0.58,25.39,0.52,-4.14,40.09,-5.45,2.69,-20.53,3.83,-2.03,-10.67
-6,8,302,-103,-477,4001,-0.33,0.57,24.69,-1.03,-4.77,40.01,-5.46,2.69,-20.63,3.82,-2.09,-3.88
-5,15,317,-9,-479,3767,-0.33,0.60,24.15,-0.09,-4.79,37.67,-5.47,2.68,-20.73,3.80,-2.24,-5.52
-3,29,364,57,-387,3788,-0.32,0.72,23.96,0.57,-3.87,37.88,-5.47,2.68,-20.82,3.76,-2.55,-9.63
0,28,363,17,-388,3951,-0.28,0.82,23.78,0.17,-3.88,39.51,-5.46,2.67,-20.92,3.68,-2.55,-9.66
7,29,358,-142,-474,3955,-0.21,0.91,23.58,-1.42,-4.74,39.55,-5.48,2.68,-21.01,3.53,-2.60,-9.36
-1,11,348,-185,-452,3963,-0.20,0.89,23.35,-1.85,-4.52,39.63,-5.49,2.69,-21.10,3.70,-2.24,-8.67
2,20,313,-211,-358,3857,-0.17,0.92,22.92,-2.11,-3.58,38.57,-5.48,2.72,-21.19,3.62,-2.45,-6.00
-4,14,313,-80,-489,3890,-0.17,0.91,22.54,-0.80,-4.89,38.90,-5.49,2.72,-21.28,3.75,-2.33,-6.26
-8,7,311,113,-404,3848,-0.21,0.87,22.18,1.13,-4.04,38.48,-5.49,2.71,-21.37,3.84,-2.17,-6.33
-5,7,292,89,-446,3802,-0.22,0.82,21.75,0.89,-4.46,38.02,-5.49,2.70,-21.46,3.79,-2.15,-5.03
-3,0,267,36,-355,3899,-0.21,0.74,21.20,0.36,-3.55,38.99,-5.49,2.70,-21.54,3.74,-1.98,-3.29
2,5,233,-10,-409,3963,-0.18,0.70,20.50,-0.10,-4.09,39.63,-5.49,2.69,-21.62,3.63,-2.07,-0.91
-12,-3,227,-157,-376,3976,-0.23,0.61,19.84,-1.57,-3.76,39.76,-5.48,2.68,-21.70,3.93,-1.87,-0.87
3,6,220,-119,-328,3893,-0.19,0.58,19.19,-1.19,-3.28,38.93,-5.47,2.68,-21.78,3.60,-2.05,-0.73
1,10,208,-6,-405,3892,-0.17,0.59,18.54,-0.06,-4.05,38.92,-5.47,2.67,-21.85,3.63,-2.12,-0.17
0,15,217,26,-415,3862,-0.15,0.62,18.01,0.26,-4.15,38.62,-5.47,2.66,-21.92,3.65,-2.23,-1.31
-2,14,229,-117,-400,3957,-0.15,0.64,17.61,-1.17,-4.00,39.57,-5.47,2.65,-21.99,3.69,-2.21,-2.61
-3,12,235,-25,-478,3852,-0.15,0.65,17.28,-0.25,-4.78,38.52,-5.48,2.64,-22.06,3.72,-2.17,-3.34
-2,7,232,46,-494,3856,-0.15,0.63,16.97,0.46,-4.94,38.56,-5.49,2.64,-22.13,3.70,-2.05,-3.30
5,9,233,34,-442,3921,-0.10,0.62,16.69,0.34,-4.42,39.21,-5.49,2.63,-22.19,3.55,-2.09,-3.58
5,20,278,3,-505,3831,-0.06,0.68,16.72,0.03,-5.05,38.31,-5.50,2.62,-22.26,3.54,-2.32,-7.36
5,3,297,-15,-469,3944,-0.03,0.63,16.86,-0.15,-4.69,39.44,-5.50,2.62,-22.33,3.54,-1.96,-8.86
1,7,352,-88,-484,3851,-0.02,0.61,17.32,-0.88,-4.84,38.51,-5.51,2.61,-22.39,3.62,-2.03,-13.17
-10,7,373,-110,-490,3872,-0.08,0.59,17.86,-1.10,-4.90,38.72,-5.53,2.61,-22.46,3.87,-2.03,-14.54
-17,5,408,-174,-323,3879,-0.17,0.56,18.57,-1.74,-3.23,38.79,-5.51,2.62,-22.54,4.03,-1.99,-16.98
-3,13,415,-183,-362,3968,-0.17,0.59,19.24,-1.83,-3.62,39.68,-5.49,2.63,-22.62,3.73,-2.16,-17.06
-13,4,457,-212,-336,3944,-0.24,0.55,20.10,-2.12,-3.36,39.44,-5.47,2.65,-22.70,3.94,-1.98,-19.98
-7,8,473,-236,-373,3865,-0.25,0.55,20.98,-2.36,-3.73,38.65,-5.47,2.68,-22.78,3.82,-2.08,-20.00
-13,12,537,-39,-511,3931,-0.31,0.56,22.16,-0.39,-5.11,39.31,-5.48,2.68,-22.87,3.96,-2.17,-20.00
-14,10,538,-29,-477,3887,-0.36,0.57,23.22,-0.29,-4.77,38.87,-5.48,2.67,-22.96,4.00,-2.12,-20.00
-8,17,560,-102,-436,3859,-0.38,0.62,24.32,-1.02,-4.36,38.59,-5.49,2.67,-23.06,3.89,-2.28,-20.00
-3,20,551,-93,-391,3964,-0.36,0.68,25.25,-0.93,-3.91,39.64,-5.49,2.67,-23.16,3.78,-2.35,-20.00
-15,7,509,-69,-456,3908,-0.41,0.65,25.83,-0.69,-4.56,39.08,-5.50,2.66,-23.26,4.05,-2.08,-20.00
4,15,488,-76,-449,3880,-0.35,0.68,26.22,-0.76,-4.49,38.80,-5.50,2.66,-23.36,3.65,-2.25,-18.03
-10,1,455,7,-468,3953,-0.37,0.62,26.37,0.07,-4.68,39.53,-5.51,2.66,-23.47,3.94,-1.94,-15.10
0,11,432,-43,-464,3871,-0.34,0.62,26.37,-0.43,-4.64,38.71,-5.52,2.65,-23.57,3.73,-2.15,-13.14
-5,1,382,-44,-484,3895,-0.33,0.57,26.06,-0.44,-4.84,38.95,-5.52,2.65,-23.67,3.84,-1.93,-9.10
8,5,351,-27,-338,3980,-0.25,0.54,25.60,-0.27,-3.38,39.80,-5.51,2.65,-23.78,3.54,-2.00,-6.80
-10,-2,262,-90,-519,3954,-0.29,0.47,24.64,-0.90,-5.19,39.54,-5.53,2.65,-23.87,3.93,-1.84,0.06
-6,2,282,-81,-532,3853,-0.29,0.44,23.89,-0.81,-5.32,38.53,-5.54,2.65,-23.97,3.86,-1.91,-2.16
-3,5,323,1,-460,3933,-0.28,0.42,23.48,0.01,-4.60,39.33,-5.54,2.64,-24.06,3.80,-1.96,-5.92
9,16,351,-32,-374,3927,-0.20,0.48,23.27,-0.32,-3.74,39.27,-5.54,2.64,-24.15,3.53,-2.20,-8.43
-5,4,252,-67,-390,3937,-0.21,0.46,22.48,-0.67,-3.90,39.37,-5.54,2.63,-24.24,3.81,-1.94,-0.60
-9,-1,252,-31,-438,3869,-0.24,0.40,21.77,-0.31,-4.38,38.69,-5.54,2.62,-24.33,3.91,-1.82,-1.10
-6,2,294,-149,-504,3899,-0.26,0.38,21.38,-1.49,-5.04,38.99,-5.56,2.63,-24.41,3.86,-1.88,-4.93
-3,7,302,-92,-470,3936,-0.25,0.38,21.09,-0.92,-4.70,39.36,-5.56,2.62,-24.50,3.80,-1.98,-5.81
-2,8,305,-31,-489,3991,-0.24,0.39,20.84,-0.31,-4.89,39.91,-5.57,2.62,-24.58,3.78,-2.00,-6.23
-4,-1,300,-17,-522,3868,-0.24,0.35,20.59,-0.17,-5.22,38.68,-5.58,2.61,-24.66,3.83,-1.80,-5.97
-8,6,297,-153,-431,3879,-0.26,0.35,20.34,-1.53,-4.31,38.79,-5.60,2.61,-24.74,3.93,-1.94,-5.88
1,11,300,-110,-390,3891,-0.23,0.38,20.14,-1.10,-3.90,38.91,-5.59,2.61,-24.82,3.74,-2.05,-6.27
-10,8,298,-25,-367,3867,-0.27,0.39,19.94,-0.25,-3.67,38.67,-5.59,2.60,-24.90,3.97,-1.98,-6.23
0,16,291,-25,-375,3957,-0.24,0.45,19.72,-0.25,-3.75,39.57,-5.59,2.59,-24.98,3.75,-2.16,-5.78
-7,7,295,-77,-398,3877,-0.26,0.45,19.55,-0.77,-3.98,38.77,-5.59,2.58,-25.06,3.90,-1.97,-6.23
1,4,288,-74,-352,3930,-0.23,0.43,19.35,-0.74,-3.52,39.30,-5.58,2.57,-25.13,3.72,-1.89,-5.77
-7,6,272,26,-433,3959,-0.25,0.42,19.07,0.26,-4.33,39.59,-5.58,2.56,-25.21,3.89,-1.93,-4.60
1,6,263,-6,-381,3898,-0.22,0.42,18.77,-0.06,-3.81,38.98,-5.58,2.55,-25.28,3.72,-1.92,-4.05
3,2,262,11,-427,3925,-0.18,0.39,18.49,0.11,-4.27,39.25,-5.58,2.54,-25.36,3.67,-1.82,-4.15
-3,10,262,-31,-477,3868,-0.18,0.41,18.24,-0.31,-4.77,38.68,-5.59,2.54,-25.43,3.80,-1.99,-4.32
-1,15,322,-63,-411,3860,-0.17,0.46,18.38,-0.63,-4.11,38.60,-5.59,2.53,-25.50,3.76,-2.10,-9.29
-1,16,327,-101,-424,3903,-0.16,0.51,18.54,-1.01,-4.24,39.03,-5.60,2.52,-25.57,3.76,-2.13,-9.59
-3,16,316,-92,-496,3884,-0.16,0.56,18.61,-0.92,-4.96,38.84,-5.61,2.52,-25.65,3.81,-2.14,-8.59
1,7,315,-63,-358,3850,-0.14,0.54,18.67,-0.63,-3.58,38.50,-5.60,2.51,-25.72,3.72,-1.95,-8.45
2,16,277,-91,-548,3868,-0.11,0.59,18.49,-0.91,-5.48,38.68,-5.62,2.51,-25.80,3.70,-2.14,-5.34
2,15,316,-54,-620,3944,-0.09,0.62,18.57,-0.54,-6.20,39.44,-5.63,2.52,-25.87,3.70,-2.13,-8.58
-4,18,353,-205,-444,3893,-0.10,0.67,18.87,-2.05,-4.44,38.93,-5.64,2.53,-25.94,3.83,-2.22,-11.48
-14,4,367,-198,-458,3941,-0.18,0.63,19.22,-1.98,-4.58,39.41,-5.66,2.55,-26.02,4.07,-1.94,-12.40
-3,-2,362,-27,-378,3941,-0.18,0.55,19.51,-0.27,-3.78,39.41,-5.65,2.54,-26.10,3.84,-1.79,-11.75
-2,10,356,-79,-460,3807,-0.17,0.56,19.73,-0.79,-4.60,38.07,-5.66,2.54,-26.17,3.83,-2.03,-11.07
-13,12,343,-29,-384,3767,-0.23,0.57,19.85,-0.29,-3.84,37.67,-5.66,2.53,-26.25,4.07,-2.07,-9.87
-5,11,344,-78,-335,4001,-0.24,0.58,19.96,-0.78,-3.35,40.01,-5.65,2.52,-26.33,3.90,-2.05,-9.86
-15,10,356,-41,-490,3900,-0.31,0.59,20.14,-0.41,-4.90,39.00,-5.66,2.52,-26.41,4.12,-2.03,-10.73
-3,6,383,-10,-421,4058,-0.30,0.56,20.46,-0.10,-4.21,40.58,-5.66,2.51,-26.49,3.88,-1.93,-12.77
-18,19,365,-64,-540,3991,-0.38,0.62,20.64,-0.64,-5.40,39.91,-5.67,2.51,-26.57,4.21,-2.21,-11.10
-8,8,374,-34,-439,3955,-0.39,0.61,20.86,-0.34,-4.39,39.55,-5.68,2.51,-26.66,4.01,-1.98,-11.69
-5,1,349,-60,-414,3909,-0.38,0.56,20.90,-0.60,-4.14,39.09,-5.68,2.50,-26.74,3.95,-1.82,-9.52
-6,25,370,-170,-508,3723,-0.38,0.65,21.07,-1.70,-5.08,37.23,-5.69,2.51,-26.82,3.98,-2.34,-11.16
-2,25,360,-300,-420,3820,-0.35,0.74,21.16,-3.00,-4.20,38.20,-5.70,2.54,-26.91,3.90,-2.39,-10.24
-7,18,373,-178,-444,3972,-0.36,0.78,21.32,-1.78,-4.44,39.72,-5.71,2.55,-26.99,4.01,-2.26,-11.21
5,15,404,3,-344,3905,-0.29,0.79,21.65,0.03,-3.44,39.05,-5.71,2.54,-27.08,3.74,-2.20,-13.57
-10,25,414,-195,-434,3819,-0.33,0.86,22.01,-1.95,-4.34,38.19,-5.72,2.56,-27.16,4.07,-2.44,-14.14
2,13,409,-8,-273,3899,-0.28,0.86,22.30,-0.08,-2.73,38.99,-5.71,2.56,-27.25,3.80,-2.19,-13.49
-10,12,384,-23,-380,3933,-0.31,0.84,22.42,-0.23,-3.80,39.33,-5.70,2.56,-27.34,4.05,-2.16,-11.27
2,17,370,-18,-318,3904,-0.27,0.86,22.43,-0.18,-3.18,39.04,-5.69,2.55,-27.43,3.79,-2.26,-10.06
-7,16,351,-43,-389,3931,-0.29,0.87,22.33,-0.43,-3.89,39.31,-5.69,2.55,-27.52,3.97,-2.24,-8.51
1,24,345,-273,-366,3953,-0.25,0.93,22.20,-2.73,-3.66,39.53,-5.68,2.58,-27.61,3.80,-2.44,-8.08
7,22,370,-111,-539,3959,-0.18,0.97,22.24,-1.11,-5.39,39.59,-5.69,2.58,-27.69,3.67,-2.42,-10.15
12,21,320,-148,-414,3942,-0.09,1.00,21.97,-1.48,-4.14,39.42,-5.70,2.58,-27.78,3.54,-2.40,-6.10
-1,13,336,-74,-462,3816,-0.09,0.98,21.82,-0.74,-4.62,38.16,-5.71,2.58,-27.87,3.81,-2.23,-7.55
-1,29,355,-45,-497,3880,-0.09,1.06,21.80,-0.45,-4.97,38.80,-5.72,2.58,-27.95,3.82,-2.58,-9.15
1,13,327,171,-266,4022,-0.07,1.04,21.62,1.71,-2.66,40.22,-5.71,2.57,-28.04,3.77,-2.24,-6.90
-5,15,285,48,-470,3959,-0.09,1.02,21.19,0.48,-4.70,39.59,-5.71,2.57,-28.12,3.90,-2.28,-3.64
-4,13,267,40,-441,3895,-0.11,1.00,20.70,0.40,-4.41,38.95,-5.71,2.56,-28.20,3.88,-2.23,-2.45
-1,9,231,-39,-355,3955,-0.10,0.96,20.04,-0.39,-3.55,39.55,-5.70,2.55,-28.28,3.81,-2.13,0.13
3,-4,219,138,-380,3957,-0.08,0.84,19.37,1.38,-3.80,39.57,-5.70,2.55,-28.36,3.72,-1.83,0.67
1,5,153,-55,-412,3933,-0.06,0.78,18.37,-0.55,-4.12,39.33,-5.70,2.54,-28.43,3.76,-1.99,5.54
-1,3,137,-6,-413,3925,-0.06,0.72,17.37,-0.06,-4.13,39.25,-5.70,2.53,-28.50,3.80,-1.93,6.18
-1,8,19,117,-313,3802,-0.06,0.70,15.75,1.17,-3.13,38.02,-5.69,2.52,-28.57,3.79,-2.02,15.01
4,12,-35,56,-261,3941,-0.03,0.70,13.96,0.56,-2.61,39.41,-5.68,2.51,-28.62,3.68,-2.10,18.29
-1,8,-251,-270,-31,3958,-0.03,0.68,11.03,-2.70,-0.31,39.58,-5.66,2.53,-28.67,3.76,-2.02,20.00
-4,-10,-321,-248,-13,4097,-0.06,0.55,7.97,-2.48,-0.13,40.97,-5.64,2.54,-28.70,3.82,-1.62,20.00
2,-1,-363,-250,-663,3822,-0.04,0.49,4.96,-2.50,-6.63,38.22,-5.66,2.54,-28.72,3.70,-1.79,20.00
3,-9,-199,38,-1050,3984,-0.02,0.39,3.25,0.38,-10.50,39.84,-5.67,2.54,-28.73,3.69,-1.60,20.00
0,0,83,110,-779,3992,-0.01,0.35,3.43,1.10,-7.79,39.92,-5.69,2.53,-28.74,3.76,-1.77,0.64
3,-2,114,62,-584,3880,0.01,0.30,3.78,0.62,-5.84,38.80,-5.70,2.52,-28.76,3.70,-1.71,-1.72
6,0,65,15,-422,3943,0.04,0.27,3.80,0.15,-4.22,39.43,-5.70,2.51,-28.77,3.63,-1.73,2.44
2,1,62,-18,-452,3915,0.05,0.25,3.80,-0.18,-4.52,39.15,-5.71,2.49,-28.79,3.71,-1.73,2.70
-6,-5,101,-139,-458,3950,0.01,0.19,4.04,-1.39,-4.58,39.50,-5.72,2.48,-28.80,3.90,-1.59,-0.43
-10,10,150,-224,-618,3847,-0.05,0.24,4.55,-2.24,-6.18,38.47,-5.74,2.49,-28.82,4.01,-1.91,-4.21
-11,7,216,151,-451,3831,-0.12,0.25,5.41,1.51,-4.51,38.31,-5.74,2.48,-28.84,4.05,-1.85,-9.17
-2,19,197,73,-415,3923,-0.12,0.35,6.07,0.73,-4.15,39.23,-5.74,2.46,-28.86,3.86,-2.11,-7.07
-3,13,158,-54,-379,3956,-0.12,0.39,6.43,-0.54,-3.79,39.56,-5.74,2.45,-28.89,3.88,-1.99,-3.50
-4,12,130,-95,-422,3902,-0.13,0.42,6.58,-0.95,-4.22,39.02,-5.75,2.44,-28.92,3.91,-1.97,-1.01
-2,6,151,30,-462,3955,-0.13,0.42,6.84,0.30,-4.62,39.55,-5.75,2.42,-28.94,3.87,-1.84,-2.60
-7,-1,145,-43,-462,3920,-0.16,0.37,7.04,-0.43,-4.62,39.20,-5.76,2.41,-28.97,3.99,-1.67,-1.94
-5,9,205,78,-627,3864,-0.18,0.39,7.59,0.78,-6.27,38.64,-5.77,2.40,-29.00,3.96,-1.87,-6.62
-1,9,235,81,-630,3889,-0.17,0.40,8.26,0.81,-6.30,38.89,-5.78,2.39,-29.03,3.88,-1.87,-8.66
-7,15,348,-76,-567,3861,-0.19,0.46,9.56,-0.76,-5.67,38.61,-5.80,2.39,-29.07,4.02,-2.01,-17.28
-3,-4,360,1,-450,4028,-0.19,0.39,10.80,0.01,-4.50,40.28,-5.80,2.38,-29.11,3.94,-1.59,-17.39
-14,-1,384,-16,-460,3889,-0.26,0.34,12.06,-0.16,-4.60,38.89,-5.81,2.37,-29.16,4.19,-1.64,-18.49
2,21,386,-94,-393,3879,-0.22,0.43,13.21,-0.94,-3.93,38.79,-5.81,2.36,-29.21,3.85,-2.10,-17.82
-11,9,365,-100,-443,3843,-0.26,0.45,14.12,-1.00,-4.43,38.43,-5.82,2.35,-29.27,4.14,-1.86,-15.37
-11,-1,353,-61,-434,3930,-0.31,0.40,14.86,-0.61,-4.34,39.30,-5.82,2.34,-29.33,4.15,-1.63,-13.80
-5,-13,318,-22,-285,3884,-0.31,0.28,15.31,-0.22,-2.85,38.84,-5.81,2.34,-29.39,4.02,-1.35,-10.49
-4,0,298,-65,-320,3800,-0.30,0.25,15.60,-0.65,-3.20,38.00,-5.80,2.33,-29.45,3.99,-1.60,-8.58
-2,19,310,83,-557,3783,-0.28,0.34,15.93,0.83,-5.57,37.83,-5.81,2.32,-29.51,3.95,-2.01,-9.34
-9,9,328,178,-459,4003,-0.31,0.36,16.34,1.78,-4.59,40.03,-5.81,2.31,-29.58,4.10,-1.81,-10.56
-8,3,261,-102,-430,3896,-0.33,0.34,16.30,-1.02,-4.30,38.96,-5.82,2.30,-29.64,4.09,-1.67,-4.90
-4,3,271,-75,-563,3903,-0.32,0.33,16.32,-0.75,-5.63,39.03,-5.83,2.30,-29.71,4.02,-1.67,-5.72
-6,5,271,-27,-487,3791,-0.32,0.32,16.34,-0.27,-4.87,37.91,-5.84,2.30,-29.77,4.07,-1.71,-5.69
3,14,302,-20,-510,4000,-0.27,0.38,16.55,-0.20,-5.10,40.00,-5.85,2.29,-29.84,3.87,-1.90,-8.15
3,11,382,42,-535,3964,-0.23,0.41,17.22,0.42,-5.35,39.64,-5.86,2.28,-29.90,3.87,-1.84,-14.43
2,1,414,31,-475,3838,-0.19,0.37,18.03,0.31,-4.75,38.38,-5.86,2.27,-29.97,3.88,-1.62,-16.54
1,2,456,32,-441,3830,-0.17,0.35,19.01,0.32,-4.41,38.30,-5.87,2.27,-30.05,3.90,-1.63,-19.37
-13,3,442,70,-470,3859,-0.23,0.33,19.80,0.70,-4.70,38.59,-5.87,2.26,-30.13,4.20,-1.64,-17.59
-17,11,472,-24,-502,3922,-0.31,0.37,20.70,-0.24,-5.02,39.22,-5.88,2.25,-30.21,4.31,-1.81,-19.46
6,17,470,20,-453,3965,-0.24,0.43,21.50,0.20,-4.53,39.65,-5.88,2.25,-30.30,3.83,-1.95,-18.70
-1,12,471,-168,-285,4008,-0.22,0.46,22.22,-1.68,-2.85,40.08,-5.86,2.26,-30.38,3.95,-1.86,-18.24
1,-3,436,-102,-233,3880,-0.20,0.40,22.66,-1.02,-2.33,38.80,-5.84,2.26,-30.48,3.89,-1.54,-14.94
-6,13,427,-161,-447,3920,-0.21,0.44,23.00,-1.61,-4.47,39.20,-5.86,2.28,-30.57,4.04,-1.89,-13.91
9,11,429,-40,-368,3938,-0.14,0.46,23.31,-0.40,-3.68,39.38,-5.85,2.27,-30.66,3.71,-1.85,-13.83
-8,7,405,-73,-414,3879,-0.17,0.46,23.45,-0.73,-4.14,38.79,-5.85,2.26,-30.75,4.07,-1.76,-11.68
-1,20,411,-29,-549,3866,-0.16,0.53,23.62,-0.29,-5.49,38.66,-5.86,2.26,-30.85,3.93,-2.05,-12.06
0,15,474,0,-464,3915,-0.14,0.57,24.15,0.00,-4.64,39.15,-5.86,2.26,-30.94,3.91,-1.95,-16.99
-2,11,474,-92,-489,3892,-0.14,0.58,24.62,-0.92,-4.89,38.92,-5.87,2.26,-31.04,3.96,-1.87,-16.62
-12,2,456,-11,-423,3963,-0.20,0.54,24.94,-0.11,-4.23,39.63,-5.87,2.26,-31.14,4.17,-1.68,-14.85
-5,16,441,-53,-384,3928,-0.21,0.58,25.14,-0.53,-3.84,39.28,-5.87,2.25,-31.24,4.03,-1.97,-13.42
3,29,442,112,-295,3961,-0.17,0.70,25.32,1.12,-2.95,39.61,-5.86,2.25,-31.34,3.85,-2.26,-13.35
1,36,440,41,-328,3893,-0.15,0.85,25.47,0.41,-3.28,38.93,-5.85,2.24,-31.44,3.88,-2.44,-13.05
1,28,426,50,-345,3859,-0.13,0.93,25.52,0.50,-3.45,38.59,-5.84,2.24,-31.54,3.87,-2.30,-11.81
16,23,418,-97,-361,3854,-0.02,0.98,25.52,-0.97,-3.61,38.54,-5.82,2.24,-31.64,3.52,-2.21,-11.12
-4,7,357,-201,-478,3870,-0.04,0.93,25.15,-2.01,-4.78,38.70,-5.84,2.26,-31.74,3.94,-1.89,-6.20
-2,5,355,-6,-476,3905,-0.05,0.86,24.80,-0.06,-4.76,39.05,-5.84,2.26,-31.84,3.91,-1.83,-6.27
-11,10,339,-77,-447,3998,-0.11,0.84,24.39,-0.77,-4.47,39.98,-5.85,2.25,-31.94,4.11,-1.92,-5.20
-12,14,330,-124,-379,3862,-0.17,0.84,23.96,-1.24,-3.79,38.62,-5.83,2.25,-32.03,4.14,-2.00,-4.73
9,28,351,94,-427,3874,-0.10,0.93,23.70,0.94,-4.27,38.74,-5.83,2.25,-32.13,3.69,-2.30,-6.68
43,65,366,2,-514,3877,0.17,1.23,23.57,0.02,-5.14,38.77,-5.84,2.25,-32.22,2.93,-3.14,-8.03
152,146,382,-68,-447,4005,1.08,2.00,23.54,-0.68,-4.47,40.05,-5.84,2.25,-32.31,0.47,-5.00,-9.39
207,189,385,-16,-418,3883,2.24,2.95,23.53,-0.16,-4.18,38.83,-5.83,2.25,-32.40,-0.97,-6.13,-9.63
49,45,417,-164,-443,3870,2.31,2.93,23.73,-1.64,-4.43,38.70,-5.83,2.28,-32.50,2.22,-3.22,-12.19
55,57,406,-102,-423,3795,2.42,2.99,23.83,-1.02,-4.23,37.95,-5.83,2.28,-32.59,2.07,-3.48,-11.16
42,53,394,-116,-476,3873,2.43,3.01,23.85,-1.16,-4.76,38.73,-5.83,2.30,-32.68,2.33,-3.41,-10.11
-17,-9,405,-28,-531,3891,2.08,2.65,23.94,-0.28,-5.31,38.91,-5.83,2.30,-32.78,3.63,-2.06,-10.97
7,7,367,-112,-393,3995,1.92,2.43,23.78,-1.12,-3.93,39.95,-5.82,2.31,-32.87,3.17,-2.33,-7.84
-2,-14,332,-69,-313,3953,1.71,2.10,23.43,-0.69,-3.13,39.53,-5.79,2.31,-32.96,3.40,-1.81,-5.12
-2,-3,332,27,-485,3974,1.53,1.87,23.11,0.27,-4.85,39.74,-5.79,2.31,-33.05,3.45,-1.97,-5.33
-6,10,330,-63,-527,3790,1.34,1.75,22.81,-0.63,-5.27,37.90,-5.80,2.32,-33.14,3.58,-2.21,-5.37
3,14,391,-33,-482,3884,1.23,1.66,22.92,-0.33,-4.82,38.84,-5.80,2.32,-33.23,3.43,-2.27,-10.44
-1,15,406,-26,-455,3869,1.10,1.58,23.10,-0.26,-4.55,38.69,-5.80,2.32,-33.32,3.55,-2.27,-11.56
-3,16,382,-210,-327,3839,0.97,1.52,23.12,-2.10,-3.27,38.39,-5.78,2.34,-33.42,3.61,-2.29,-9.50
6,7,372,-154,-317,3968,0.91,1.41,23.08,-1.54,-3.17,39.68,-5.75,2.36,-33.51,3.43,-2.08,-8.66
18,21,332,-106,-350,3901,0.93,1.40,22.80,-1.06,-3.50,39.01,-5.73,2.36,-33.60,3.17,-2.36,-5.46
-27,-27,316,-152,-409,3866,0.67,1.10,22.44,-1.52,-4.09,38.66,-5.75,2.36,-33.69,4.16,-1.31,-4.35
0,8,288,-163,-555,3900,0.60,1.03,21.96,-1.63,-5.55,39.00,-5.76,2.38,-33.77,3.64,-2.01,-2.32
-14,-7,304,-175,-507,3969,0.46,0.89,21.61,-1.75,-5.07,39.69,-5.77,2.39,-33.86,3.97,-1.68,-3.91
-14,-9,313,5,-463,3923,0.33,0.74,21.36,0.05,-4.63,39.23,-5.77,2.38,-33.94,4.01,-1.59,-4.84
-21,-13,314,-77,-496,3796,0.17,0.59,21.14,-0.77,-4.96,37.96,-5.78,2.39,-34.03,4.20,-1.47,-5.07
-15,-7,307,-69,-319,3817,0.06,0.49,20.90,-0.69,-3.19,38.17,-5.77,2.38,-34.11,4.10,-1.56,-4.64
4,17,308,-38,-371,3880,0.08,0.54,20.69,-0.38,-3.71,38.80,-5.76,2.37,-34.19,3.70,-2.06,-4.86
-36,-12,309,-71,-498,3783,-0.15,0.42,20.51,-0.71,-4.98,37.83,-5.77,2.37,-34.27,4.58,-1.44,-5.06
-50,-32,311,-30,-500,4016,-0.44,0.18,20.35,-0.30,-5.00,40.16,-5.78,2.37,-34.35,4.95,-0.96,-5.33
-12,-7,277,-61,-393,3933,-0.47,0.12,20.01,-0.61,-3.93,39.33,-5.78,2.36,-34.43,4.19,-1.45,-2.69
-8,4,287,-141,-472,3933,-0.47,0.13,19.76,-1.41,-4.72,39.33,-5.80,2.36,-34.51,4.12,-1.67,-3.70
34,38,283,-106,-434,3893,-0.22,0.35,19.51,-1.06,-4.34,38.93,-5.80,2.35,-34.59,3.20,-2.42,-3.53
28,28,297,-124,-447,3916,-0.02,0.49,19.37,-1.24,-4.47,39.16,-5.82,2.35,-34.67,3.28,-2.25,-4.81
16,25,314,-12,-510,3825,0.08,0.59,19.35,-0.12,-5.10,38.25,-5.82,2.35,-34.74,3.50,-2.22,-6.25
38,41,311,-36,-516,4003,0.30,0.78,19.31,-0.36,-5.16,40.03,-5.83,2.34,-34.82,2.99,-2.59,-6.01
43,45,306,-78,-362,4060,0.53,0.98,19.24,-0.78,-3.62,40.60,-5.82,2.34,-34.89,2.82,-2.73,-5.62
19,18,301,-47,-347,3958,0.59,0.99,19.16,-0.47,-3.47,39.58,-5.80,2.34,-34.97,3.28,-2.18,-5.24
16,13,309,-7,-397,3963,0.63,0.97,19.13,-0.07,-3.97,39.63,-5.80,2.33,-35.05,3.33,-2.07,-5.93
9,11,299,-75,-418,3785,0.62,0.94,19.04,-0.75,-4.18,37.85,-5.80,2.32,-35.12,3.47,-2.01,-5.13
-38,-28,320,36,-450,3863,0.33,0.68,19.09,0.36,-4.50,38.63,-5.80,2.32,-35.20,4.51,-1.14,-6.86
-38,-23,318,53,-477,3927,0.07,0.47,19.12,0.53,-4.77,39.27,-5.80,2.31,-35.27,4.58,-1.18,-6.66
-28,-15,344,-56,-473,3882,-0.11,0.33,19.30,-0.56,-4.73,38.82,-5.81,2.30,-35.35,4.43,-1.31,-8.71
-25,-22,349,-103,-477,3953,-0.25,0.16,19.50,-1.03,-4.77,39.53,-5.82,2.30,-35.43,4.42,-1.12,-8.98
-79,-74,291,-207,-282,3867,-0.71,-0.31,19.33,-2.07,-2.82,38.67,-5.81,2.32,-35.50,5.63,0.06,-4.18
-90,-72,271,-223,-282,3859,-1.19,-0.71,19.05,-2.23,-2.82,38.59,-5.79,2.33,-35.58,5.98,0.12,-2.67
-1,5,227,-87,-393,3875,-1.08,-0.61,18.53,-0.87,-3.93,38.75,-5.79,2.32,-35.65,4.14,-1.46,0.69
-49,-45,215,-106,-496,3910,-1.27,-0.83,17.99,-1.06,-4.96,39.10,-5.81,2.31,-35.73,5.18,-0.39,1.33
-120,-110,179,-40,-380,3914,-1.87,-1.41,17.28,-0.40,-3.80,39.14,-5.81,2.30,-35.80,6.79,1.11,3.87
-135,-116,163,-7,-371,3884,-2.51,-1.98,16.55,-0.07,-3.71,38.84,-5.82,2.28,-35.86,7.27,1.40,4.71
-32,-28,170,105,-553,3915,-2.45,-1.95,15.93,1.05,-5.53,39.15,-5.83,2.26,-35.93,5.17,-0.39,3.67
-13,-14,202,81,-604,3922,-2.29,-1.84,15.57,0.81,-6.04,39.22,-5.85,2.24,-35.99,4.75,-0.69,0.71
-2,6,292,148,-657,3905,-2.07,-1.62,15.79,1.48,-6.57,39.05,-5.87,2.23,-36.05,4.48,-1.15,-6.74
-8,-4,319,128,-612,4045,-1.91,-1.48,16.16,1.28,-6.12,40.45,-5.89,2.22,-36.12,4.57,-0.98,-8.75
-6,4,403,41,-578,3954,-1.76,-1.31,17.00,0.41,-5.78,39.54,-5.90,2.20,-36.18,4.50,-1.18,-15.24
-16,-6,422,-9,-486,3931,-1.68,-1.22,17.88,-0.09,-4.86,39.31,-5.92,2.19,-36.26,4.69,-0.99,-16.20
-7,12,408,-109,-397,3893,-1.55,-1.02,18.58,-1.09,-3.97,38.93,-5.92,2.18,-36.33,4.47,-1.40,-14.49
-9,2,410,-75,-436,3921,-1.45,-0.91,19.22,-0.75,-4.36,39.21,-5.93,2.16,-36.41,4.49,-1.22,-14.17
-5,6,386,-93,-317,3878,-1.34,-0.78,19.65,-0.93,-3.17,38.78,-5.91,2.16,-36.49,4.37,-1.33,-11.81
-5,10,374,-133,-364,3937,-1.24,-0.64,19.97,-1.33,-3.64,39.37,-5.90,2.16,-36.57,4.33,-1.45,-10.55
-9,0,327,-159,-333,3900,-1.17,-0.58,19.97,-1.59,-3.33,39.00,-5.88,2.17,-36.65,4.38,-1.27,-6.55
-2,10,301,-198,-369,3896,-1.06,-0.46,19.81,-1.98,-3.69,38.96,-5.87,2.19,-36.73,4.21,-1.52,-4.45
3,12,301,-216,-356,3942,-0.94,-0.34,19.66,-2.16,-3.56,39.42,-5.86,2.21,-36.80,4.06,-1.61,-4.55
-5,1,291,-184,-368,3901,-0.87,-0.30,19.47,-1.84,-3.68,39.01,-5.85,2.23,-36.88,4.20,-1.41,-3.82
-12,1,271,-66,-377,3911,-0.86,-0.26,19.18,-0.66,-3.77,39.11,-5.85,2.22,-36.96,4.34,-1.41,-2.33
5,11,255,-38,-381,3893,-0.74,-0.17,18.81,-0.38,-3.81,38.93,-5.84,2.21,-37.03,3.96,-1.63,-1.22
6,9,237,60,-417,3936,-0.63,-0.10,18.38,0.60,-4.17,39.36,-5.84,2.20,-37.11,3.91,-1.61,-0.00
-5,0,245,81,-461,3911,-0.60,-0.09,18.04,0.81,-4.61,39.11,-5.85,2.18,-37.18,4.12,-1.42,-0.92
0,9,221,-54,-418,3884,-0.54,-0.02,17.58,-0.54,-4.18,38.84,-5.85,2.17,-37.25,4.01,-1.61,0.79
-13,-5,216,-49,-440,3867,-0.57,-0.05,17.14,-0.49,-4.40,38.67,-5.86,2.16,-37.32,4.28,-1.31,0.91
-6,11,265,-96,-529,3951,-0.55,0.02,17.04,-0.96,-5.29,39.51,-5.87,2.16,-37.38,4.15,-1.66,-3.30
-1,16,279,-58,-516,3858,-0.50,0.12,17.04,-0.58,-5.16,38.58,-5.89,2.16,-37.45,4.04,-1.78,-4.48
3,11,252,-78,-406,3835,-0.43,0.17,16.87,-0.78,-4.06,38.35,-5.89,2.15,-37.52,3.94,-1.69,-2.30
-2,6,227,-116,-404,3959,-0.40,0.19,16.57,-1.16,-4.04,39.59,-5.89,2.14,-37.58,4.03,-1.59,-0.39
4,13,233,-150,-399,3891,-0.33,0.25,16.33,-1.50,-3.99,38.91,-5.88,2.16,-37.65,3.89,-1.76,-1.06
-9,3,244,-149,-528,3921,-0.36,0.24,16.19,-1.49,-5.28,39.21,-5.89,2.17,-37.71,4.17,-1.56,-2.08
3,13,282,-36,-437,3910,-0.30,0.30,16.29,-0.36,-4.37,39.10,-5.90,2.16,-37.78,3.91,-1.77,-5.22
-13,-3,303,29,-537,3892,-0.35,0.25,16.51,0.29,-5.37,38.92,-5.91,2.15,-37.84,4.26,-1.43,-6.83
-2,-4,280,184,-334,3926,-0.33,0.20,16.57,1.84,-3.34,39.26,-5.90,2.14,-37.91,4.03,-1.39,-4.82
3,13,279,144,-317,3916,-0.28,0.26,16.61,1.44,-3.17,39.16,-5.90,2.13,-37.98,3.91,-1.74,-4.69
1,10,308,107,-506,3943,-0.24,0.30,16.83,1.07,-5.06,39.43,-5.90,2.12,-38.04,3.94,-1.69,-6.98
2,4,334,120,-500,3811,-0.21,0.29,17.18,1.20,-5.00,38.11,-5.91,2.12,-38.11,3.91,-1.56,-8.91
-10,-4,249,-63,-237,3882,-0.25,0.24,16.98,-0.63,-2.37,38.82,-5.89,2.12,-38.18,4.16,-1.38,-1.84
3,1,220,-98,-128,3871,-0.20,0.22,16.63,-0.98,-1.28,38.71,-5.87,2.12,-38.25,3.87,-1.48,0.37
1,2,192,-11,-616,4021,-0.18,0.21,16.14,-0.11,-6.16,40.21,-5.88,2.12,-38.31,3.91,-1.50,2.39
-14,-10,189,-37,-514,3944,-0.25,0.13,15.68,-0.37,-5.14,39.44,-5.89,2.11,-38.37,4.24,-1.22,2.32
1,2,199,-45,-473,3902,-0.21,0.13,15.32,-0.45,-4.73,39.02,-5.90,2.10,-38.43,3.93,-1.46,1.23
3,5,185,-47,-483,3908,-0.17,0.14,14.92,-0.47,-4.83,39.08,-5.91,2.10,-38.49,3.89,-1.52,2.13
-5,-4,165,42,-443,3932,-0.19,0.11,14.43,0.42,-4.43,39.32,-5.92,2.08,-38.55,4.06,-1.32,3.48
-1,-1,167,39,-467,3847,-0.18,0.09,14.01,0.39,-4.67,38.47,-5.92,2.07,-38.60,3.98,-1.37,3.01
4,8,161,93,-611,3869,-0.13,0.13,13.59,0.93,-6.11,38.69,-5.93,2.07,-38.66,3.87,-1.56,3.22
0,5,171,49,-597,3886,-0.12,0.15,13.27,0.49,-5.97,38.86,-5.94,2.06,-38.71,3.96,-1.50,2.16
1,5,197,-64,-536,3885,-0.10,0.16,13.15,-0.64,-5.36,38.85,-5.96,2.06,-38.76,3.94,-1.50,-0.13
-1,1,202,-65,-553,3896,-0.10,0.15,13.07,-0.65,-5.53,38.96,-5.97,2.05,-38.81,3.99,-1.42,-0.60
-1,4,191,-94,-453,3925,-0.09,0.16,12.92,-0.94,-4.53,39.25,-5.98,2.05,-38.86,3.99,-1.48,0.23
-8,-10,183,-83,-452,3887,-0.13,0.08,12.75,-0.83,-4.52,38.87,-5.99,2.04,-38.91,4.15,-1.16,0.79
-3,5,143,-118,-510,3916,-0.14,0.11,12.35,-1.18,-5.10,39.16,-6.01,2.04,-38.96,4.06,-1.48,3.90
1,7,136,-95,-456,3926,-0.12,0.14,11.94,-0.95,-4.56,39.26,-6.02,2.03,-39.01,3.99,-1.52,4.20
8,10,93,-112,-376,3921,-0.06,0.19,11.31,-1.12,-3.76,39.21,-6.00,2.02,-39.05,3.82,-1.59,7.40
-3,7,86,-53,-388,3953,-0.07,0.21,10.71,-0.53,-3.88,39.53,-6.00,2.01,-39.10,4.04,-1.53,7.56
0,7,53,-72,-448,3920,-0.06,0.23,9.96,-0.72,-4.48,39.20,-6.01,2.00,-39.14,3.98,-1.53,9.81
-1,3,27,-161,-482,3890,-0.06,0.23,9.13,-1.61,-4.82,38.90,-6.02,2.01,-39.17,4.01,-1.45,11.42
1,4,7,-69,-446,3881,-0.05,0.23,8.26,-0.69,-4.46,38.81,-6.03,2.00,-39.20,3.97,-1.46,12.48
-1,0,4,-30,-465,3894,-0.05,0.21,7.46,-0.30,-4.65,38.94,-6.04,1.99,-39.23,4.02,-1.37,12.16
1,3,-7,-31,-440,3902,-0.04,0.20,6.67,-0.31,-4.40,39.02,-6.04,1.97,-39.26,3.98,-1.42,12.52
-5,3,-9,7,-425,3941,-0.07,0.20,5.95,0.07,-4.25,39.41,-6.04,1.96,-39.28,4.11,-1.41,12.17
-1,6,-11,16,-356,3937,-0.07,0.22,5.28,0.16,-3.56,39.37,-6.03,1.94,-39.30,4.02,-1.46,11.86
0,7,-16,27,-338,3839,-0.06,0.24,4.66,0.27,-3.38,38.39,-6.03,1.93,-39.32,3.99,-1.48,11.83
4,6,-66,-55,-419,3885,-0.03,0.25,3.79,-0.55,-4.19,38.85,-6.03,1.92,-39.34,3.91,-1.45,15.44
-1,5,-68,-68,-424,3916,-0.03,0.26,3.00,-0.68,-4.24,39.16,-6.03,1.90,-39.35,4.01,-1.43,15.03
1,5,-59,-85,-501,3920,-0.02,0.26,2.34,-0.85,-5.01,39.20,-6.05,1.89,-39.36,3.98,-1.42,13.79
0,3,-42,-30,-510,3893,-0.02,0.25,1.85,-0.30,-5.10,38.93,-6.06,1.88,-39.37,4.00,-1.37,11.99
-1,3,-21,-25,-490,3875,-0.02,0.25,1.53,-0.25,-4.90,38.75,-6.07,1.87,-39.37,4.03,-1.36,9.98
0,3,-14,-50,-506,3898,-0.02,0.24,1.30,-0.50,-5.06,38.98,-6.08,1.86,-39.38,4.02,-1.35,9.22
-2,0,7,-41,-487,3902,-0.03,0.22,1.21,-0.41,-4.87,39.02,-6.10,1.85,-39.38,4.07,-1.28,7.38
1,4,12,-65,-445,3906,-0.02,0.22,1.16,-0.65,-4.45,39.06,-6.10,1.83,-39.38,4.01,-1.35,6.92
-2,-5,57,-44,-472,3907,-0.03,0.17,1.39,-0.44,-4.72,39.07,-6.11,1.82,-39.39,4.08,-1.14,3.28
-1,5,63,-15,-475,3881,-0.04,0.18,1.64,-0.15,-4.75,38.81,-6.12,1.80,-39.40,4.07,-1.34,2.95
0,3,102,30,-549,3900,-0.03,0.18,2.10,0.30,-5.49,39.00,-6.13,1.79,-39.40,4.06,-1.29,-0.02
3,2,126,33,-596,3907,-0.01,0.17,2.66,0.33,-5.96,39.07,-6.15,1.78,-39.41,4.00,-1.26,-1.65
2,9,216,58,-536,3893,0.00,0.21,3.71,0.58,-5.36,38.93,-6.16,1.77,-39.43,4.02,-1.41,-8.50
1,15,240,92,-534,3862,0.01,0.28,4.80,0.92,-5.34,38.62,-6.16,1.75,-39.45,4.05,-1.54,-9.73
-7,4,261,20,-508,3919,-0.04,0.28,5.91,0.20,-5.08,39.19,-6.17,1.74,-39.47,4.23,-1.31,-10.70
7,20,275,11,-538,3884,0.01,0.37,7.00,0.11,-5.38,38.84,-6.18,1.73,-39.50,3.94,-1.65,-11.09
3,18,317,-24,-467,3894,0.03,0.45,8.23,-0.24,-4.67,38.94,-6.19,1.72,-39.53,4.02,-1.62,-13.74
-6,7,319,-28,-474,4001,-0.01,0.44,9.36,-0.28,-4.74,40.01,-6.20,1.71,-39.57,4.22,-1.39,-13.09
1,18,337,0,-499,3999,-0.00,0.51,10.48,0.00,-4.99,39.99,-6.21,1.70,-39.61,4.08,-1.63,-13.79
6,13,346,-5,-502,3854,0.03,0.54,11.54,-0.05,-5.02,38.54,-6.21,1.69,-39.65,3.97,-1.53,-13.77
6,15,364,-31,-458,3868,0.07,0.58,12.60,-0.31,-4.58,38.68,-6.22,1.68,-39.70,3.97,-1.57,-14.50
-4,15,362,-35,-499,3909,0.04,0.61,13.55,-0.35,-4.99,39.09,-6.23,1.68,-39.76,4.18,-1.58,-13.63
1,12,317,-34,-388,3834,0.04,0.62,14.13,-0.34,-3.88,38.34,-6.22,1.67,-39.81,4.08,-1.52,-9.39
0,4,300,39,-476,3949,0.03,0.58,14.55,0.39,-4.76,39.49,-6.23,1.66,-39.87,4.10,-1.34,-7.64
-8,-2,293,51,-472,3906,-0.02,0.51,14.88,0.51,-4.72,39.06,-6.23,1.65,-39.93,4.28,-1.19,-6.79
5,20,291,90,-485,3801,0.01,0.58,15.17,0.90,-4.85,38.01,-6.23,1.64,-39.99,4.01,-1.65,-6.40
-1,17,230,-208,-318,3826,0.01,0.63,15.05,-2.08,-3.18,38.26,-6.22,1.66,-40.05,4.12,-1.62,-1.30
-9,-10,200,-171,-339,4000,-0.05,0.51,14.77,-1.71,-3.39,40.00,-6.20,1.68,-40.11,4.29,-1.04,1.04
-3,1,157,-54,-452,3910,-0.06,0.46,14.25,-0.54,-4.52,39.10,-6.21,1.67,-40.16,4.17,-1.25,4.31
-2,9,163,-12,-543,3885,-0.07,0.47,13.82,-0.12,-5.43,38.85,-6.22,1.67,-40.22,4.16,-1.41,3.50
-13,0,222,-5,-528,3942,-0.14,0.42,13.79,-0.05,-5.28,39.42,-6.23,1.66,-40.27,4.41,-1.21,-1.51
-7,0,214,5,-458,3905,-0.17,0.38,13.72,0.05,-4.58,39.05,-6.23,1.65,-40.33,4.30,-1.19,-0.87
2,6,192,-38,-443,3863,-0.14,0.38,13.52,-0.38,-4.43,38.63,-6.24,1.64,-40.38,4.11,-1.31,0.85
-1,-1,169,-4,-423,3965,-0.13,0.33,13.20,-0.04,-4.23,39.65,-6.24,1.63,-40.43,4.17,-1.15,2.58
-5,2,149,-15,-442,3849,-0.15,0.31,12.79,-0.15,-4.42,38.49,-6.24,1.62,-40.48,4.26,-1.20,3.98
3,10,153,-23,-413,3943,-0.12,0.34,12.44,-0.23,-4.13,39.43,-6.23,1.61,-40.53,4.09,-1.36,3.40
1,5,143,-29,-440,3922,-0.10,0.34,12.07,-0.29,-4.40,39.22,-6.24,1.60,-40.58,4.12,-1.25,3.99
-2,1,145,-52,-447,3801,-0.10,0.31,11.75,-0.52,-4.47,38.01,-6.24,1.59,-40.63,4.19,-1.15,3.59
-2,0,137,-66,-404,3940,-0.10,0.28,11.41,-0.66,-4.04,39.40,-6.23,1.58,-40.67,4.18,-1.12,4.03
5,6,131,-68,-443,3880,-0.06,0.29,11.07,-0.68,-4.43,38.80,-6.24,1.57,-40.72,4.03,-1.24,4.30
1,6,129,-20,-514,3861,-0.05,0.30,10.75,-0.20,-5.14,38.61,-6.25,1.56,-40.76,4.12,-1.23,4.24
0,5,140,-30,-516,3925,-0.04,0.30,10.53,-0.30,-5.16,39.25,-6.27,1.55,-40.80,4.15,-1.21,3.15
1,6,162,42,-483,3905,-0.03,0.30,10.46,0.42,-4.83,39.05,-6.27,1.54,-40.84,4.13,-1.22,1.25
-8,1,178,-12,-485,3860,-0.08,0.28,10.50,-0.12,-4.85,38.60,-6.28,1.53,-40.88,4.33,-1.11,-0.07
2,7,183,36,-455,3866,-0.06,0.29,10.57,0.36,-4.55,38.66,-6.28,1.52,-40.92,4.12,-1.23,-0.44
-1,6,182,54,-435,3945,-0.06,0.30,10.62,0.54,-4.35,39.45,-6.28,1.51,-40.97,4.18,-1.20,-0.30
-2,11,213,-97,-484,3917,-0.07,0.34,10.86,-0.97,-4.84,39.17,-6.30,1.51,-41.01,4.22,-1.31,-2.75
-1,1,223,-102,-507,3962,-0.07,0.31,11.13,-1.02,-5.07,39.62,-6.32,1.52,-41.05,4.21,-1.11,-3.39
-6,0,263,-10,-601,3929,-0.10,0.28,11.62,-0.10,-6.01,39.29,-6.33,1.51,-41.10,4.33,-1.08,-6.41
3,6,295,44,-642,3882,-0.07,0.29,12.26,0.44,-6.42,38.82,-6.35,1.51,-41.15,4.15,-1.20,-8.65
-11,-4,403,122,-656,3957,-0.13,0.24,13.49,1.22,-6.56,39.57,-6.36,1.50,-41.20,4.45,-0.98,-16.89
-11,6,426,110,-669,3724,-0.18,0.25,14.74,1.10,-6.69,37.24,-6.37,1.50,-41.26,4.48,-1.18,-17.92
-15,6,523,157,-697,3765,-0.26,0.26,16.46,1.57,-6.97,37.65,-6.38,1.50,-41.32,4.59,-1.18,-20.00
-19,15,616,95,-841,3938,-0.35,0.33,18.57,0.95,-8.41,39.38,-6.40,1.50,-41.40,4.70,-1.38,-20.00
-4,12,797,112,-682,3888,-0.34,0.37,21.57,1.12,-6.82,38.88,-6.41,1.50,-41.48,4.40,-1.33,-20.00
-3,18,813,-1,-528,3890,-0.32,0.44,24.38,-0.01,-5.28,38.90,-6.42,1.50,-41.58,4.39,-1.47,-20.00
2,36,693,-21,-80,3868,-0.28,0.62,26.17,-0.21,-0.80,38.68,-6.40,1.51,-41.68,4.26,-1.89,-20.00
-12,6,631,-178,-10,4064,-0.32,0.59,27.40,-1.78,-0.10,40.64,-6.38,1.52,-41.79,4.55,-1.29,-20.00
4,-1,418,-286,-129,4130,-0.27,0.53,27.21,-2.86,-1.29,41.30,-6.37,1.55,-41.90,4.19,-1.14,-8.04
-9,1,372,-302,-171,3766,-0.29,0.48,26.76,-3.02,-1.71,37.66,-6.35,1.57,-42.01,4.45,-1.19,-4.45
-4,-2,237,-109,-275,3800,-0.29,0.42,25.53,-1.09,-2.75,38.00,-6.33,1.58,-42.11,4.34,-1.12,6.11
2,12,197,-125,-282,3906,-0.25,0.45,24.18,-1.25,-2.82,39.06,-6.31,1.60,-42.20,4.19,-1.42,8.53
0,-3,97,-166,-340,3922,-0.22,0.39,22.35,-1.66,-3.40,39.22,-6.29,1.62,-42.29,4.21,-1.11,15.69
3,-1,46,-157,-348,3927,-0.18,0.34,20.40,-1.57,-3.48,39.27,-6.28,1.64,-42.37,4.13,-1.15,18.60
-1,-3,7,-42,-459,3910,-0.17,0.29,18.40,-0.42,-4.59,39.10,-6.28,1.63,-42.45,4.21,-1.09,20.00
-1,-2,1,-22,-464,3914,-0.16,0.25,16.56,-0.22,-4.64,39.14,-6.29,1.62,-42.51,4.21,-1.10,19.64
-3,-5,-3,-19,-463,3902,-0.16,0.19,14.89,-0.19,-4.63,39.02,-6.29,1.61,-42.57,4.26,-1.02,18.77
-1,-4,-9,-15,-454,3915,-0.15,0.15,13.35,-0.15,-4.54,39.15,-6.29,1.60,-42.62,4.22,-1.02,18.16
2,-2,-18,-25,-458,3923,-0.12,0.12,11.90,-0.25,-4.58,39.23,-6.30,1.59,-42.67,4.15,-1.04,17.88
4,-1,-19,-12,-457,3908,-0.09,0.10,10.60,-0.12,-4.57,39.08,-6.30,1.58,-42.71,4.10,-1.05,17.02
-5,-5,-54,40,-374,3989,-0.11,0.06,9.21,0.40,-3.74,39.89,-6.29,1.56,-42.75,4.29,-0.95,18.98
2,-3,-69,22,-366,3852,-0.09,0.04,7.87,0.22,-3.66,38.52,-6.29,1.55,-42.78,4.13,-0.97,19.28
-8,8,-32,-234,-639,3881,-0.13,0.08,6.88,-2.34,-6.39,38.81,-6.30,1.56,-42.81,4.36,-1.22,15.43
-3,2,39,-117,-621,3937,-0.13,0.09,6.43,-1.17,-6.21,39.37,-6.32,1.57,-42.83,4.27,-1.10,9.09
-8,1,104,32,-554,3928,-0.17,0.08,6.42,0.32,-5.54,39.28,-6.33,1.56,-42.86,4.39,-1.07,3.59
-2,10,103,-47,-439,3842,-0.16,0.14,6.41,-0.47,-4.39,38.42,-6.34,1.54,-42.88,4.27,-1.26,3.67
-3,2,135,-1,-528,3858,-0.16,0.14,6.59,-0.01,-5.28,38.58,-6.35,1.53,-42.91,4.30,-1.09,1.09
0,9,131,32,-521,3874,-0.15,0.18,6.73,0.32,-5.21,38.74,-6.36,1.52,-42.94,4.24,-1.23,1.54
2,9,113,-78,-386,3924,-0.12,0.21,6.75,-0.78,-3.86,39.24,-6.34,1.52,-42.96,4.18,-1.24,3.08
1,5,116,-126,-422,3981,-0.10,0.22,6.78,-1.26,-4.22,39.81,-6.33,1.53,-42.99,4.18,-1.17,2.85
2,-3,78,4,-430,3953,-0.08,0.18,6.58,0.04,-4.30,39.53,-6.33,1.52,-43.02,4.16,-0.99,5.93
1,-7,61,18,-353,3874,-0.07,0.12,6.29,0.18,-3.53,38.74,-6.32,1.51,-43.04,4.17,-0.88,7.17
2,-2,67,-32,-447,3902,-0.05,0.10,6.07,-0.32,-4.47,39.02,-6.32,1.49,-43.07,4.14,-0.97,6.50
5,-4,55,70,-421,3903,-0.01,0.06,5.80,0.70,-4.21,39.03,-6.32,1.48,-43.09,4.07,-0.91,7.32
-2,-4,55,90,-510,3904,-0.02,0.03,5.56,0.90,-5.10,39.04,-6.32,1.46,-43.11,4.22,-0.89,7.15
-6,-4,63,61,-531,3847,-0.06,0.00,5.38,0.61,-5.31,38.47,-6.33,1.45,-43.13,4.32,-0.88,6.35
-7,1,125,107,-617,3870,-0.09,0.01,5.61,1.07,-6.17,38.70,-6.35,1.44,-43.15,4.36,-0.97,1.27
-3,7,143,101,-597,3894,-0.10,0.05,5.92,1.01,-5.97,38.94,-6.36,1.43,-43.18,4.29,-1.10,-0.03
2,-2,94,-132,-237,3901,-0.08,0.03,5.90,-1.32,-2.37,39.01,-6.34,1.43,-43.20,4.17,-0.91,4.11
-4,-4,78,-220,-251,3949,-0.10,0.01,5.79,-2.20,-2.51,39.49,-6.32,1.44,-43.23,4.28,-0.87,5.39
-3,-3,19,-49,-439,3894,-0.11,-0.01,5.32,-0.49,-4.39,38.94,-6.33,1.43,-43.25,4.27,-0.88,10.06
2,-5,10,-58,-458,3899,-0.08,-0.04,4.85,-0.58,-4.58,38.99,-6.34,1.42,-43.27,4.16,-0.82,10.48
-1,-1,41,-34,-542,3909,-0.08,-0.04,4.62,-0.34,-5.42,39.09,-6.35,1.41,-43.28,4.23,-0.90,7.68
-10,7,100,-65,-615,3878,-0.13,0.00,4.77,-0.65,-6.15,38.78,-6.37,1.41,-43.30,4.44,-1.07,2.80
-2,0,102,-48,-351,3876,-0.13,0.00,4.91,-0.48,-3.51,38.76,-6.35,1.40,-43.32,4.27,-0.92,2.74
-1,-2,83,-86,-365,3968,-0.13,-0.01,4.93,-0.86,-3.65,39.68,-6.34,1.40,-43.34,4.24,-0.88,4.36
-2,-2,52,-15,-444,3937,-0.13,-0.02,4.75,-0.15,-4.44,39.37,-6.34,1.38,-43.36,4.26,-0.87,6.86
-1,-2,64,13,-481,3915,-0.12,-0.03,4.67,0.13,-4.81,39.15,-6.35,1.37,-43.38,4.24,-0.85,5.79
-4,10,198,396,-804,3824,-0.13,0.03,5.41,3.96,-8.04,38.24,-6.36,1.36,-43.40,4.31,-1.11,-5.02
2,16,219,377,-709,3896,-0.11,0.13,6.20,3.77,-7.09,38.96,-6.37,1.34,-43.42,4.19,-1.25,-6.22
-8,16,330,104,-619,3901,-0.14,0.21,7.60,1.04,-6.19,39.01,-6.38,1.33,-43.45,4.41,-1.26,-14.60
-5,42,340,-3,-495,3858,-0.16,0.45,8.91,-0.03,-4.95,38.58,-6.39,1.33,-43.49,4.36,-1.85,-14.48
5,38,260,-292,-162,3951,-0.11,0.63,9.60,-2.92,-1.62,39.51,-6.37,1.34,-43.53,4.14,-1.83,-7.19
8,22,197,-323,-206,3800,-0.05,0.71,9.85,-3.23,-2.06,38.00,-6.36,1.36,-43.57,4.05,-1.54,-1.67
4,15,112,-188,-348,3847,-0.02,0.73,9.54,-1.88,-3.48,38.47,-6.35,1.38,-43.61,4.11,-1.42,5.32
3,9,106,-74,-424,3941,-0.00,0.71,9.24,-0.74,-4.24,39.41,-6.34,1.38,-43.64,4.12,-1.28,5.61
4,3,84,33,-474,3888,0.02,0.66,8.83,0.33,-4.74,38.88,-6.34,1.37,-43.68,4.10,-1.14,7.18
4,4,69,104,-463,3907,0.04,0.61,8.36,1.04,-4.63,39.07,-6.34,1.35,-43.71,4.09,-1.14,8.12
1,0,64,7,-514,3880,0.05,0.55,7.92,0.07,-5.14,38.80,-6.35,1.34,-43.74,4.16,-1.04,8.22
1,4,60,-14,-540,3892,0.05,0.52,7.49,-0.14,-5.40,38.92,-6.37,1.34,-43.77,4.17,-1.11,8.26
1,3,28,-46,-465,3877,0.05,0.49,6.91,-0.46,-4.65,38.77,-6.38,1.33,-43.80,4.18,-1.07,10.55
0,2,13,-7,-462,3889,0.04,0.45,6.30,-0.07,-4.62,38.89,-6.38,1.32,-43.82,4.20,-1.03,11.38
1,3,-34,72,-489,3886,0.05,0.42,5.46,0.72,-4.89,38.86,-6.39,1.30,-43.84,4.18,-1.04,14.75
0,0,-39,-77,-489,3957,0.04,0.38,4.68,-0.77,-4.89,39.57,-6.40,1.30,-43.86,4.22,-0.96,14.61
-2,-2,-28,-61,-474,3924,0.02,0.33,4.04,-0.61,-4.74,39.24,-6.42,1.29,-43.88,4.27,-0.90,13.22
-2,-1,-31,-32,-474,3902,0.01,0.29,3.45,-0.32,-4.74,39.02,-6.43,1.28,-43.89,4.28,-0.90,13.04
-2,-2,-48,-25,-454,3913,-0.00,0.25,2.81,-0.25,-4.54,39.13,-6.43,1.26,-43.90,4.29,-0.86,14.02
-1,-3,-49,-26,-472,3904,-0.01,0.21,2.23,-0.26,-4.72,39.04,-6.44,1.25,-43.91,4.27,-0.82,13.68
1,-1,-43,-25,-460,3915,-0.00,0.18,1.74,-0.25,-4.60,39.15,-6.44,1.23,-43.92,4.23,-0.84,12.82
-1,-2,-38,-39,-428,3894,-0.01,0.15,1.34,-0.39,-4.28,38.94,-6.44,1.22,-43.92,4.27,-0.80,12.10
-2,-2,-17,-25,-450,3909,-0.02,0.12,1.10,-0.25,-4.50,39.09,-6.44,1.20,-43.93,4.30,-0.78,10.15
0,-1,-14,-15,-447,3897,-0.02,0.10,0.91,-0.15,-4.47,38.97,-6.44,1.18,-43.93,4.26,-0.79,9.75
-3,-3,-4,-9,-448,3915,-0.03,0.08,0.79,-0.09,-4.48,39.15,-6.45,1.16,-43.93,4.32,-0.73,8.82
0,1,-6,-19,-464,3906,-0.03,0.07,0.67,-0.19,-4.64,39.06,-6.45,1.15,-43.93,4.27,-0.80,8.91
-1,-1,-8,-33,-442,3880,-0.03,0.06,0.56,-0.33,-4.42,38.80,-6.45,1.13,-43.94,4.29,-0.74,8.99
1,-3,-8,-41,-466,3853,-0.02,0.04,0.45,-0.41,-4.66,38.53,-6.46,1.12,-43.94,4.25,-0.69,8.92
0,-6,-4,-16,-479,3913,-0.02,-0.00,0.38,-0.16,-4.79,39.13,-6.47,1.10,-43.94,4.28,-0.60,8.53
1,-6,-3,-17,-482,3889,-0.01,-0.04,0.33,-0.17,-4.82,38.89,-6.48,1.09,-43.94,4.26,-0.58,8.40
-1,-9,1,-6,-468,3885,-0.02,-0.09,0.30,-0.06,-4.68,38.85,-6.49,1.07,-43.94,4.31,-0.50,8.04
-1,-10,1,-24,-478,3911,-0.02,-0.14,0.28,-0.24,-4.78,39.11,-6.50,1.05,-43.94,4.32,-0.45,8.03
-2,0,49,17,-629,3909,-0.03,-0.13,0.55,0.17,-6.29,39.09,-6.52,1.04,-43.94,4.35,-0.65,4.16
-1,3,61,70,-582,3953,-0.04,-0.10,0.87,0.70,-5.82,39.53,-6.53,1.03,-43.95,4.34,-0.72,3.37
-7,0,68,-60,-427,3857,-0.07,-0.09,1.19,-0.60,-4.27,38.57,-6.52,1.02,-43.95,4.46,-0.65,3.02
-5,-5,62,-92,-389,3972,-0.10,-0.11,1.45,-0.92,-3.89,39.72,-6.50,1.03,-43.96,4.42,-0.55,3.72
4,-6,12,-1,-384,3929,-0.06,-0.13,1.38,-0.01,-3.84,39.29,-6.49,1.01,-43.97,4.22,-0.51,7.90
4,-7,7,-26,-438,3879,-0.03,-0.16,1.29,-0.26,-4.38,38.79,-6.49,1.00,-43.97,4.21,-0.47,8.26
1,-2,13,-15,-487,3910,-0.02,-0.16,1.24,-0.15,-4.87,39.10,-6.50,0.98,-43.98,4.27,-0.56,7.71
1,0,24,-55,-522,3890,-0.01,-0.14,1.26,-0.55,-5.22,38.90,-6.51,0.98,-43.98,4.28,-0.61,6.80
-5,10,94,-31,-517,3944,-0.04,-0.07,1.71,-0.31,-5.17,39.44,-6.53,0.97,-43.99,4.42,-0.82,1.20
1,6,90,11,-398,3937,-0.03,-0.03,2.08,0.11,-3.98,39.37,-6.52,0.96,-43.99,4.29,-0.75,1.81
7,-1,23,-50,-420,3915,0.01,-0.03,2.02,-0.50,-4.20,39.15,-6.50,0.95,-44.00,4.15,-0.60,7.44
2,1,25,-121,-480,3932,0.02,-0.02,1.97,-1.21,-4.80,39.32,-6.51,0.96,-44.01,4.25,-0.65,7.24
-2,5,68,57,-427,3937,0.01,0.01,2.19,0.57,-4.27,39.37,-6.51,0.95,-44.02,4.33,-0.73,3.76
0,8,53,-14,-460,3829,0.01,0.06,2.29,-0.14,-4.60,38.29,-6.52,0.93,-44.03,4.30,-0.79,5.10
-6,2,140,66,-602,3828,-0.03,0.07,2.92,0.66,-6.02,38.28,-6.53,0.92,-44.04,4.44,-0.67,-1.81
-5,-7,134,145,-508,3908,-0.06,0.02,3.44,1.45,-5.08,39.08,-6.54,0.91,-44.05,4.43,-0.46,-0.92
1,2,133,-8,-583,3908,-0.05,0.03,3.91,-0.08,-5.83,39.08,-6.55,0.90,-44.07,4.32,-0.64,-0.49
-9,4,158,-109,-550,3956,-0.10,0.05,4.48,-1.09,-5.50,39.56,-6.57,0.91,-44.09,4.55,-0.70,-2.18
0,-6,169,-22,-466,3944,-0.09,0.01,5.06,-0.22,-4.66,39.44,-6.57,0.90,-44.11,4.36,-0.47,-2.69
0,9,159,-56,-544,3874,-0.08,0.06,5.53,-0.56,-5.44,38.74,-6.59,0.90,-44.13,4.37,-0.79,-1.50
-4,21,198,63,-557,3896,-0.09,0.18,6.18,0.63,-5.57,38.96,-6.60,0.89,-44.15,4.47,-1.06,-4.32
-8,2,206,30,-356,4022,-0.13,0.18,6.82,0.30,-3.56,40.22,-6.59,0.88,-44.18,4.55,-0.67,-4.53
-6,3,187,104,-357,3978,-0.16,0.18,7.28,1.04,-3.57,39.78,-6.58,0.87,-44.21,4.51,-0.68,-2.58
-9,0,189,4,-361,3854,-0.20,0.16,7.70,0.04,-3.61,38.54,-6.57,0.86,-44.24,4.57,-0.61,-2.43
-2,0,183,35,-536,3943,-0.19,0.14,8.05,0.35,-5.36,39.43,-6.58,0.85,-44.27,4.43,-0.60,-1.67
0,0,185,245,-523,3865,-0.17,0.13,8.37,2.45,-5.23,38.65,-6.58,0.84,-44.30,4.39,-0.59,-1.60
3,2,169,59,-466,3767,-0.13,0.13,8.57,0.59,-4.66,37.67,-6.59,0.82,-44.34,4.32,-0.62,-0.09
1,0,172,-17,-425,3982,-0.11,0.12,8.76,-0.17,-4.25,39.82,-6.58,0.82,-44.37,4.35,-0.57,-0.20
-4,-2,125,-74,-413,3879,-0.13,0.09,8.65,-0.74,-4.13,38.79,-6.56,0.83,-44.41,4.45,-0.53,3.71
-1,-1,101,28,-436,3916,-0.12,0.08,8.40,0.28,-4.36,39.16,-6.56,0.81,-44.44,4.38,-0.54,5.56
-2,9,144,191,-661,3924,-0.12,0.12,8.44,1.91,-6.61,39.24,-6.57,0.80,-44.47,4.41,-0.75,1.95
0,4,178,177,-661,3920,-0.11,0.14,8.68,1.77,-6.61,39.20,-6.58,0.80,-44.51,4.37,-0.64,-0.74
-8,2,238,-8,-509,3915,-0.15,0.13,9.26,-0.08,-5.09,39.15,-6.60,0.79,-44.55,4.56,-0.60,-5.39
5,10,218,-46,-357,3952,-0.10,0.18,9.67,-0.46,-3.57,39.52,-6.58,0.79,-44.58,4.27,-0.78,-3.40
-6,-3,166,-5,-363,3928,-0.13,0.15,9.71,-0.05,-3.63,39.28,-6.56,0.79,-44.62,4.49,-0.50,1.05
0,-7,154,17,-371,3915,-0.12,0.09,9.68,0.17,-3.71,39.15,-6.55,0.78,-44.66,4.35,-0.40,2.05
-8,4,149,132,-604,3841,-0.15,0.10,9.62,1.32,-6.04,38.41,-6.56,0.77,-44.70,4.53,-0.62,2.43
-5,-5,157,277,-592,3983,-0.17,0.06,9.62,2.77,-5.92,39.83,-6.57,0.76,-44.74,4.48,-0.42,1.76
-5,-15,212,260,-690,3991,-0.18,-0.03,9.95,2.60,-6.90,39.91,-6.58,0.75,-44.78,4.49,-0.18,-2.65
-8,-15,236,269,-694,3827,-0.21,-0.12,10.39,2.69,-6.94,38.27,-6.59,0.74,-44.82,4.57,-0.15,-4.35
6,-20,283,48,-595,3851,-0.15,-0.23,11.08,0.48,-5.95,38.51,-6.61,0.73,-44.86,4.28,-0.01,-7.83
-13,-6,305,-65,-547,3879,-0.22,-0.25,11.83,-0.65,-5.47,38.79,-6.62,0.74,-44.91,4.70,-0.30,-9.13
-11,-1,278,-234,-316,3859,-0.26,-0.23,12.35,-2.34,-3.16,38.59,-6.61,0.76,-44.96,4.66,-0.42,-6.46
-16,-23,226,-351,-234,3988,-0.33,-0.34,12.49,-3.51,-2.34,39.88,-6.60,0.78,-45.01,4.77,0.05,-1.94
-7,5,106,-298,-303,3899,-0.34,-0.28,11.89,-2.98,-3.03,38.99,-6.59,0.80,-45.06,4.59,-0.55,7.79
-1,8,75,-300,-266,3973,-0.32,-0.20,11.16,-3.00,-2.66,39.73,-6.58,0.82,-45.10,4.45,-0.65,9.90
2,5,6,-45,-426,3917,-0.27,-0.15,10.08,-0.45,-4.26,39.17,-6.57,0.81,-45.14,4.37,-0.60,14.96
0,4,-1,-9,-446,3900,-0.24,-0.11,9.06,-0.09,-4.46,39.00,-6.57,0.80,-45.18,4.40,-0.58,14.82
-1,0,-5,2,-468,3912,-0.23,-0.10,8.13,0.02,-4.68,39.12,-6.57,0.79,-45.21,4.42,-0.49,14.48
-1,-1,-5,-9,-475,3917,-0.21,-0.10,7.28,-0.09,-4.75,39.17,-6.58,0.77,-45.24,4.42,-0.46,13.87
1,-4,-7,1,-430,3893,-0.18,-0.11,6.51,0.01,-4.30,38.93,-6.58,0.76,-45.26,4.37,-0.39,13.49
3,1,-5,-3,-465,3909,-0.15,-0.09,5.83,-0.03,-4.65,39.09,-6.58,0.74,-45.29,4.32,-0.48,12.82
-1,-5,-6,-5,-481,3924,-0.14,-0.12,5.21,-0.05,-4.81,39.24,-6.59,0.73,-45.31,4.41,-0.35,12.46
-1,-5,-2,-28,-488,3912,-0.13,-0.13,4.68,-0.28,-4.88,39.12,-6.61,0.72,-45.33,4.42,-0.34,11.74
-3,5,23,24,-442,3888,-0.14,-0.09,4.35,0.24,-4.42,38.88,-6.61,0.70,-45.34,4.46,-0.54,9.38
-1,6,33,83,-420,3889,-0.13,-0.05,4.12,0.83,-4.20,38.89,-6.60,0.69,-45.36,4.41,-0.56,8.37
1,4,7,34,-456,3874,-0.11,-0.02,3.75,0.34,-4.56,38.74,-6.60,0.67,-45.37,4.37,-0.52,10.31
0,3,3,14,-461,3882,-0.10,0.00,3.39,0.14,-4.61,38.82,-6.61,0.66,-45.39,4.39,-0.49,10.39
2,0,1,10,-486,3913,-0.08,0.00,3.06,0.10,-4.86,39.13,-6.62,0.64,-45.40,4.35,-0.42,10.32
1,2,2,1,-495,3902,-0.06,0.02,2.76,0.01,-4.95,39.02,-6.63,0.63,-45.41,4.37,-0.46,10.02
7,7,41,56,-527,3924,-0.01,0.06,2.74,0.56,-5.27,39.24,-6.64,0.62,-45.42,4.24,-0.56,6.70
5,2,43,30,-448,3938,0.02,0.06,2.73,0.30,-4.48,39.38,-6.64,0.60,-45.43,4.27,-0.45,6.52
5,4,4,-8,-438,3894,0.05,0.08,2.48,-0.08,-4.38,38.94,-6.63,0.58,-45.44,4.26,-0.49,9.65
2,2,0,5,-452,3889,0.05,0.09,2.23,0.05,-4.52,38.89,-6.63,0.57,-45.45,4.32,-0.44,9.81
2,4,-5,-7,-466,3898,0.06,0.10,1.98,-0.07,-4.66,38.98,-6.64,0.55,-45.46,4.32,-0.47,10.05
1,4,-6,3,-476,3895,0.06,0.12,1.74,0.03,-4.76,38.95,-6.64,0.54,-45.47,4.35,-0.47,9.96
1,-1,-2,-31,-483,3856,0.06,0.10,1.56,-0.31,-4.83,38.56,-6.66,0.53,-45.47,4.36,-0.36,9.49
7,5,2,-57,-522,3886,0.10,0.12,1.41,-0.57,-5.22,38.86,-6.68,0.54,-45.48,4.24,-0.49,9.05
0,-4,14,-56,-496,3945,0.09,0.08,1.36,-0.56,-4.96,39.45,-6.69,0.55,-45.48,4.39,-0.30,7.99
-3,-4,23,-73,-480,3918,0.06,0.05,1.36,-0.73,-4.80,39.18,-6.70,0.57,-45.49,4.47,-0.31,7.23
0,4,65,17,-424,3912,0.05,0.07,1.62,0.17,-4.24,39.12,-6.69,0.55,-45.49,4.40,-0.46,3.86
3,5,55,25,-401,3898,0.07,0.09,1.80,0.25,-4.01,38.98,-6.68,0.54,-45.50,4.33,-0.48,4.84
5,8,17,11,-441,3862,0.09,0.13,1.72,0.11,-4.41,38.62,-6.68,0.52,-45.51,4.28,-0.54,8.00
5,7,10,-1,-455,3951,0.11,0.16,1.61,-0.01,-4.55,39.51,-6.67,0.51,-45.51,4.27,-0.52,8.52
6,16,-6,-222,-366,3964,0.14,0.24,1.41,-2.22,-3.66,39.64,-6.66,0.53,-45.52,4.24,-0.74,9.73
6,22,-6,-141,-461,3864,0.16,0.35,1.23,-1.41,-4.61,38.64,-6.66,0.55,-45.52,4.23,-0.90,9.60
3,15,-6,131,-531,3965,0.16,0.41,1.07,1.31,-5.31,39.65,-6.67,0.53,-45.53,4.30,-0.77,9.49
3,11,2,59,-511,3974,0.17,0.44,0.98,0.59,-5.11,39.74,-6.68,0.52,-45.53,4.30,-0.68,8.74
0,6,0,70,-445,3895,0.15,0.43,0.88,0.70,-4.45,38.95,-6.67,0.50,-45.54,4.36,-0.57,8.84
1,4,1,78,-479,3890,0.14,0.41,0.80,0.78,-4.79,38.90,-6.68,0.48,-45.54,4.35,-0.51,8.69
1,-7,22,65,-474,3876,0.13,0.33,0.85,0.65,-4.74,38.76,-6.68,0.47,-45.54,4.35,-0.26,6.96
1,-6,23,37,-479,3904,0.12,0.26,0.91,0.37,-4.79,39.04,-6.69,0.45,-45.55,4.36,-0.25,6.91
-4,-8,31,54,-453,3923,0.09,0.18,1.01,0.54,-4.53,39.23,-6.68,0.43,-45.55,4.47,-0.17,6.31
-4,-8,25,57,-429,3887,0.05,0.12,1.06,0.57,-4.29,38.87,-6.68,0.42,-45.55,4.47,-0.14,6.85
-1,-5,19,26,-435,3905,0.04,0.07,1.07,0.26,-4.35,39.05,-6.67,0.40,-45.56,4.41,-0.18,7.37
0,-5,10,2,-422,3904,0.04,0.04,1.02,0.02,-4.22,39.04,-6.66,0.39,-45.56,4.38,-0.17,8.10
-1,0,-9,-10,-449,3877,0.03,0.03,0.87,-0.10,-4.49,38.77,-6.65,0.37,-45.57,4.40,-0.26,9.59
0,1,-11,-2,-450,3887,0.03,0.03,0.71,-0.02,-4.50,38.87,-6.65,0.36,-45.57,4.38,-0.26,9.65
2,-1,-13,-3,-452,3900,0.04,0.03,0.56,-0.03,-4.52,39.00,-6.65,0.34,-45.57,4.34,-0.21,9.71
4,1,-14,2,-448,3891,0.06,0.03,0.42,0.02,-4.48,38.91,-6.64,0.32,-45.57,4.29,-0.24,9.69
7,9,-20,9,-444,3919,0.09,0.08,0.26,0.09,-4.44,39.19,-6.64,0.30,-45.57,4.21,-0.41,10.08
2,6,-24,39,-425,3914,0.10,0.11,0.08,0.39,-4.25,39.14,-6.63,0.29,-45.57,4.31,-0.34,10.30
0,6,-25,8,-480,3897,0.09,0.14,-0.08,0.08,-4.80,38.97,-6.64,0.28,-45.57,4.36,-0.34,10.26
0,7,-23,4,-456,3914,0.08,0.16,-0.21,0.04,-4.56,39.14,-6.64,0.26,-45.57,4.36,-0.36,10.00
-3,6,-25,-7,-477,3900,0.05,0.18,-0.34,-0.07,-4.77,39.00,-6.66,0.25,-45.57,4.44,-0.34,10.07
-4,7,-23,1,-476,3890,0.02,0.21,-0.45,0.01,-4.76,38.90,-6.67,0.24,-45.57,4.48,-0.36,9.82
-1,7,-22,0,-474,3906,0.01,0.23,-0.54,0.00,-4.74,39.06,-6.68,0.23,-45.57,4.43,-0.36,9.67
0,6,-22,4,-477,3900,0.01,0.24,-0.62,0.04,-4.77,39.00,-6.70,0.21,-45.56,4.42,-0.33,9.62
-1,6,-23,25,-476,3890,0.01,0.26,-0.70,0.25,-4.76,38.90,-6.70,0.20,-45.56,4.44,-0.32,9.64
2,9,-26,111,-483,3846,0.02,0.29,-0.78,1.11,-4.83,38.46,-6.71,0.18,-45.56,4.38,-0.38,9.83
3,6,-27,-63,-459,3909,0.03,0.29,-0.87,-0.63,-4.59,39.09,-6.71,0.20,-45.55,4.36,-0.33,9.85
3,6,-24,-52,-463,3910,0.05,0.30,-0.93,-0.52,-4.63,39.10,-6.71,0.22,-45.55,4.35,-0.35,9.55
5,-2,-31,-25,-648,3885,0.07,0.26,-1.03,-0.25,-6.48,38.85,-6.73,0.22,-45.55,4.32,-0.18,10.08
3,-5,-52,-20,-397,3886,0.09,0.20,-1.24,-0.20,-3.97,38.86,-6.71,0.22,-45.54,4.34,-0.10,11.70
0,-9,-38,-11,-446,3891,0.08,0.13,-1.35,-0.11,-4.46,38.91,-6.69,0.22,-45.54,4.40,0.01,10.43
0,-8,-34,-16,-436,3893,0.07,0.07,-1.42,-0.16,-4.36,38.93,-6.67,0.22,-45.53,4.39,0.00,10.04
1,-7,-36,31,-457,3907,0.07,0.02,-1.50,0.31,-4.57,39.07,-6.67,0.20,-45.52,4.37,0.01,10.15
1,-6,-34,38,-483,3927,0.07,-0.02,-1.56,0.38,-4.83,39.27,-6.68,0.18,-45.52,4.37,0.01,9.94
-1,-10,-23,72,-483,3912,0.05,-0.08,-1.54,0.72,-4.83,39.12,-6.69,0.16,-45.51,4.42,0.12,9.02
-3,-13,-19,46,-466,3897,0.03,-0.15,-1.50,0.46,-4.66,38.97,-6.69,0.14,-45.51,4.47,0.21,8.71
-4,-18,14,46,-512,3902,0.00,-0.25,-1.27,0.46,-5.12,39.02,-6.70,0.13,-45.50,4.50,0.35,6.08
-6,-15,24,35,-532,3861,-0.03,-0.31,-0.99,0.35,-5.32,38.61,-6.72,0.12,-45.50,4.56,0.31,5.43
9,14,99,229,-726,3909,0.02,-0.20,-0.29,2.29,-7.26,39.09,-6.73,0.10,-45.50,4.25,-0.30,-0.41
10,15,174,123,-686,3900,0.08,-0.09,0.80,1.23,-6.86,39.00,-6.75,0.10,-45.50,4.23,-0.34,-5.97
-4,4,243,-63,-456,3878,0.05,-0.05,2.20,-0.63,-4.56,38.78,-6.74,0.11,-45.51,4.52,-0.14,-10.79
-3,6,241,-144,-470,3886,0.03,-0.01,3.45,-1.44,-4.70,38.86,-6.75,0.13,-45.52,4.51,-0.21,-9.71
0,-5,188,-45,-352,3832,0.02,-0.04,4.25,-0.45,-3.52,38.32,-6.73,0.14,-45.54,4.43,0.02,-4.63
-1,-3,171,-91,-386,3905,0.02,-0.05,4.87,-0.91,-3.86,39.05,-6.72,0.16,-45.56,4.45,-0.03,-2.74
-11,5,165,-75,-497,3940,-0.05,-0.02,5.39,-0.75,-4.97,39.40,-6.72,0.18,-45.58,4.68,-0.21,-1.85
-5,2,156,-31,-410,3920,-0.08,-0.00,5.80,-0.31,-4.10,39.20,-6.71,0.19,-45.60,4.55,-0.16,-0.78
-5,-13,75,-131,-323,3881,-0.10,-0.08,5.68,-1.31,-3.23,38.81,-6.69,0.20,-45.62,4.55,0.15,6.00
-3,0,57,-37,-380,3884,-0.11,-0.07,5.46,-0.37,-3.80,38.84,-6.68,0.21,-45.65,4.50,-0.12,7.37
2,3,49,7,-463,3894,-0.09,-0.05,5.21,0.07,-4.63,38.94,-6.68,0.19,-45.67,4.39,-0.17,7.87
5,2,33,-52,-392,3934,-0.05,-0.03,4.89,-0.52,-3.92,39.34,-6.67,0.20,-45.69,4.31,-0.17,8.99
3,3,-1,-28,-433,3893,-0.02,-0.01,4.40,-0.28,-4.33,38.93,-6.65,0.22,-45.70,4.34,-0.20,11.52
4,3,-6,-5,-451,3899,0.00,0.01,3.92,-0.05,-4.51,38.99,-6.65,0.20,-45.72,4.30,-0.20,11.60
4,3,-15,12,-456,3919,0.03,0.03,3.44,0.12,-4.56,39.19,-6.65,0.18,-45.73,4.30,-0.19,12.01
5,7,-11,31,-429,3874,0.05,0.07,3.03,0.31,-4.29,38.74,-6.64,0.17,-45.75,4.26,-0.27,11.37
-2,6,0,-7,-402,3877,0.04,0.10,2.72,-0.07,-4.02,38.77,-6.62,0.17,-45.76,4.40,-0.26,10.22
0,8,-1,29,-446,3925,0.03,0.14,2.45,0.29,-4.46,39.25,-6.61,0.15,-45.77,4.36,-0.30,10.11
-4,7,-19,21,-463,3888,0.01,0.16,2.09,0.21,-4.63,38.88,-6.62,0.14,-45.77,4.45,-0.28,11.37
-1,11,-23,25,-467,3900,-0.00,0.22,1.74,0.25,-4.67,39.00,-6.63,0.12,-45.78,4.39,-0.36,11.45
-1,9,-30,2,-470,3932,-0.01,0.25,1.38,0.02,-4.70,39.32,-6.64,0.11,-45.79,4.41,-0.32,11.79
1,12,-47,105,-426,3888,-0.00,0.30,0.95,1.05,-4.26,38.88,-6.64,0.10,-45.79,4.36,-0.39,12.92
5,13,-81,41,-392,3915,0.03,0.35,0.37,0.41,-3.92,39.15,-6.62,0.09,-45.79,4.26,-0.42,15.37
3,12,-80,-89,-455,3911,0.05,0.39,-0.16,-0.89,-4.55,39.11,-6.62,0.11,-45.79,4.30,-0.42,14.90
6,-4,-114,46,-384,3935,0.08,0.32,-0.84,0.46,-3.84,39.35,-6.61,0.10,-45.79,4.22,-0.07,17.29
12,0,-119,-50,-477,3890,0.14,0.29,-1.48,-0.50,-4.77,38.90,-6.62,0.11,-45.78,4.08,-0.15,17.24
0,3,-85,28,-431,3903,0.13,0.28,-1.85,0.28,-4.31,39.03,-6.61,0.10,-45.77,4.33,-0.20,14.09
0,-10,-115,10,-488,3870,0.12,0.19,-2.37,0.10,-4.88,38.70,-6.62,0.09,-45.76,4.34,0.09,16.25
3,3,-148,-52,-457,3935,0.12,0.19,-3.03,-0.52,-4.57,39.35,-6.62,0.11,-45.75,4.28,-0.18,18.56
6,4,-154,-18,-430,3896,0.15,0.20,-3.67,-0.18,-4.30,38.96,-6.61,0.11,-45.74,4.20,-0.21,18.61
6,3,-194,-4,-347,3915,0.17,0.19,-4.49,-0.04,-3.47,39.15,-6.59,0.11,-45.72,4.18,-0.19,20.00
12,9,-283,-40,-355,3837,0.23,0.23,-5.76,-0.40,-3.55,38.37,-6.57,0.12,-45.70,4.03,-0.32,20.00
5,13,-322,51,-331,3825,0.23,0.29,-7.15,0.51,-3.31,38.25,-6.55,0.11,-45.67,4.16,-0.41,20.00
6,-4,-344,19,-243,3998,0.25,0.23,-8.53,0.19,-2.43,39.98,-6.53,0.10,-45.63,4.12,-0.05,20.00
2,-4,-397,-166,-549,4003,0.23,0.19,-10.10,-1.66,-5.49,40.03,-6.54,0.11,-45.59,4.21,-0.04,20.00
10,-15,-391,86,-422,3865,0.27,0.08,-11.48,0.86,-4.22,38.65,-6.54,0.09,-45.55,4.04,0.22,20.00
4,-12,-443,24,-397,3990,0.27,-0.01,-13.03,0.24,-3.97,39.90,-6.52,0.08,-45.50,4.15,0.20,20.00
11,-3,-463,-79,-308,3944,0.31,-0.02,-14.55,-0.79,-3.08,39.44,-6.50,0.08,-45.44,3.98,0.02,20.00
6,-14,-536,-25,-436,3888,0.31,-0.11,-16.37,-0.25,-4.36,38.88,-6.49,0.09,-45.37,4.08,0.26,20.00
15,-11,-541,19,-417,3902,0.37,-0.16,-18.03,0.19,-4.17,39.02,-6.48,0.07,-45.30,3.87,0.22,20.00
21,-10,-585,-35,-389,3873,0.47,-0.21,-19.80,-0.35,-3.89,38.73,-6.46,0.07,-45.22,3.71,0.22,20.00
3,-13,-563,-68,-291,4088,0.44,-0.27,-21.25,-0.68,-2.91,40.88,-6.44,0.06,-45.14,4.07,0.30,20.00
2,-16,-631,27,-442,4016,0.41,-0.34,-22.98,0.27,-4.42,40.16,-6.44,0.03,-45.05,4.10,0.40,20.00
25,17,-636,-114,-482,3798,0.52,-0.20,-24.56,-1.14,-4.82,37.98,-6.44,0.04,-44.95,3.60,-0.32,20.00
34,17,-657,43,-438,4036,0.67,-0.08,-26.11,0.43,-4.38,40.36,-6.43,0.01,-44.85,3.37,-0.33,20.00
10,-14,-665,-8,-398,3867,0.67,-0.15,-27.55,-0.08,-3.98,38.67,-6.41,-0.00,-44.74,3.85,0.33,20.00
8,-8,-715,-98,-507,3943,0.65,-0.19,-29.16,-0.98,-5.07,39.43,-6.42,0.00,-44.62,3.90,0.21,20.00
9,-13,-724,-22,-417,3912,0.64,-0.25,-30.66,-0.22,-4.17,39.12,-6.40,-0.00,-44.50,3.87,0.33,20.00
24,-15,-756,5,-431,3894,0.72,-0.31,-32.21,0.05,-4.31,38.94,-6.39,-0.03,-44.37,3.53,0.41,20.00
11,-7,-753,-39,-414,3900,0.72,-0.33,-33.58,-0.39,-4.14,39.00,-6.37,-0.03,-44.24,3.79,0.25,20.00
6,-12,-755,-94,-442,3874,0.68,-0.37,-34.83,-0.94,-4.42,38.74,-6.37,-0.03,-44.10,3.90,0.36,20.00
9,-22,-756,-70,-496,3915,0.67,-0.46,-35.96,-0.70,-4.96,39.15,-6.38,-0.03,-43.96,3.85,0.59,20.00
15,-24,-724,142,-530,3938,0.69,-0.56,-36.78,1.42,-5.30,39.38,-6.39,-0.07,-43.81,3.72,0.68,20.00
15,4,-723,106,-511,3853,0.72,-0.48,-37.51,1.06,-5.11,38.53,-6.40,-0.10,-43.66,3.72,0.12,20.00
9,-13,-689,219,-422,3870,0.70,-0.51,-37.96,2.19,-4.22,38.70,-6.39,-0.14,-43.51,3.85,0.49,20.00
8,-10,-690,158,-416,3934,0.68,-0.52,-38.37,1.58,-4.16,39.34,-6.39,-0.17,-43.36,3.87,0.46,20.00
6,-7,-692,105,-469,3898,0.65,-0.51,-38.76,1.05,-4.69,38.98,-6.39,-0.21,-43.21,3.92,0.42,20.00
-7,-15,-683,-43,-400,3963,0.54,-0.55,-39.05,-0.43,-4.00,39.63,-6.38,-0.21,-43.05,4.20,0.60,20.00
22,-3,-615,6,-453,3897,0.62,-0.52,-38.90,0.06,-4.53,38.97,-6.39,-0.23,-42.90,3.60,0.35,20.00
11,-9,-608,-103,-451,3980,0.62,-0.52,-38.71,-1.03,-4.51,39.80,-6.39,-0.23,-42.74,3.82,0.47,20.00
6,-7,-543,-57,-397,3909,0.60,-0.51,-38.16,-0.57,-3.97,39.09,-6.38,-0.23,-42.59,3.92,0.43,20.00
3,-22,-521,13,-321,3876,0.56,-0.59,-37.52,0.13,-3.21,38.76,-6.35,-0.25,-42.44,3.98,0.77,20.00
4,-10,-519,-89,-348,3904,0.53,-0.60,-36.93,-0.89,-3.48,39.04,-6.34,-0.25,-42.30,3.96,0.53,20.00
10,-6,-525,-116,-311,3864,0.53,-0.57,-36.44,-1.16,-3.11,38.64,-6.33,-0.26,-42.15,3.83,0.45,20.00
6,-8,-557,-219,-485,3956,0.52,-0.56,-36.19,-2.19,-4.85,39.56,-6.33,-0.26,-42.01,3.91,0.49,20.00
6,-15,-548,-124,-421,3961,0.50,-0.60,-35.92,-1.24,-4.21,39.61,-6.32,-0.26,-41.86,3.91,0.64,20.00
8,0,-593,14,-445,3942,0.50,-0.54,-35.94,0.14,-4.45,39.42,-6.33,-0.27,-41.72,3.88,0.32,20.00
11,8,-585,117,-500,3822,0.52,-0.44,-35.92,1.17,-5.00,38.22,-6.34,-0.30,-41.58,3.82,0.15,20.00
7,-15,-629,-13,-494,3827,0.51,-0.48,-36.16,-0.13,-4.94,38.27,-6.36,-0.31,-41.44,3.91,0.64,20.00
2,-6,-624,-127,-444,3829,0.47,-0.47,-36.35,-1.27,-4.44,38.29,-6.36,-0.31,-41.29,4.03,0.46,20.00
6,3,-645,-231,-511,3882,0.46,-0.41,-36.65,-2.31,-5.11,38.82,-6.36,-0.31,-41.15,3.95,0.25,20.00
11,-5,-678,-101,-344,3922,0.48,-0.40,-37.12,-1.01,-3.44,39.22,-6.35,-0.31,-41.00,3.83,0.42,20.00
6,-1,-668,-221,-613,3932,0.47,-0.36,-37.49,-2.21,-6.13,39.32,-6.35,-0.32,-40.85,3.94,0.33,20.00
9,-25,-667,-59,-497,3941,0.48,-0.48,-37.81,-0.59,-4.97,39.41,-6.36,-0.32,-40.70,3.89,0.85,20.00
13,-17,-703,-95,-555,3842,0.51,-0.54,-38.31,-0.95,-5.55,38.42,-6.37,-0.33,-40.55,3.80,0.71,20.00
10,-17,-713,-27,-583,3794,0.52,-0.59,-38.83,-0.27,-5.83,37.94,-6.39,-0.34,-40.39,3.87,0.73,20.00
19,-17,-709,-132,-567,3869,0.58,-0.63,-39.27,-1.32,-5.67,38.69,-6.39,-0.35,-40.24,3.68,0.75,20.00
-2,-16,-714,-13,-378,4035,0.51,-0.67,-39.70,-0.13,-3.78,40.35,-6.38,-0.36,-40.08,4.11,0.74,20.00
10,-17,-731,-61,-486,3926,0.52,-0.70,-40.19,-0.61,-4.86,39.26,-6.38,-0.36,-39.92,3.87,0.78,20.00
13,-13,-760,-55,-468,3836,0.55,-0.71,-40.81,-0.55,-4.68,38.36,-6.39,-0.37,-39.76,3.80,0.70,20.00
0,-19,-811,-43,-397,3770,0.49,-0.76,-41.67,-0.43,-3.97,37.70,-6.38,-0.37,-39.59,4.07,0.84,20.00
8,-24,-861,-81,-454,3983,0.49,-0.83,-42.76,-0.81,-4.54,39.83,-6.37,-0.38,-39.42,3.91,0.96,20.00
15,-8,-919,-82,-378,3862,0.54,-0.79,-44.09,-0.82,-3.78,38.62,-6.36,-0.38,-39.25,3.75,0.63,20.00
13,-27,-938,-38,-490,3910,0.56,-0.88,-45.40,-0.38,-4.90,39.10,-6.37,-0.39,-39.07,3.79,1.05,20.00
22,-21,-935,-328,-460,3924,0.64,-0.92,-46.56,-3.28,-4.60,39.24,-6.37,-0.40,-38.88,3.58,0.94,20.00
18,-15,-912,-237,-468,3969,0.69,-0.92,-47.47,-2.37,-4.68,39.69,-6.37,-0.41,-38.70,3.65,0.82,20.00
15,-37,-995,181,-425,3928,0.71,-1.05,-48.79,1.81,-4.25,39.28,-6.36,-0.45,-38.50,3.70,1.34,20.00
9,-13,-983,27,-475,3677,0.69,-1.03,-49.91,0.27,-4.75,36.77,-6.37,-0.47,-38.31,3.84,0.86,20.00
17,16,-879,-30,-781,3724,0.73,-0.83,-50.28,-0.30,-7.81,37.24,-6.39,-0.50,-38.11,3.67,0.23,20.00
3,-22,-852,83,-659,4089,0.67,-0.88,-50.45,0.83,-6.59,40.89,-6.40,-0.53,-37.91,3.98,1.03,20.00
10,-17,-835,70,-494,4049,0.67,-0.89,-50.50,0.70,-4.94,40.49,-6.41,-0.57,-37.71,3.85,0.96,20.00
15,-10,-829,-120,-462,3780,0.69,-0.87,-50.51,-1.20,-4.62,37.80,-6.41,-0.57,-37.51,3.74,0.82,20.00
9,-16,-840,-83,-396,3902,0.68,-0.88,-50.58,-0.83,-3.96,39.02,-6.40,-0.58,-37.30,3.86,0.95,20.00
17,-10,-849,-120,-390,3894,0.71,-0.85,-50.70,-1.20,-3.90,38.94,-6.39,-0.59,-37.10,3.68,0.82,20.00
6,-11,-811,-18,-582,3899,0.68,-0.83,-50.58,-0.18,-5.82,38.99,-6.40,-0.61,-36.90,3.92,0.85,20.00
7,-13,-799,47,-628,3920,0.65,-0.83,-50.39,0.47,-6.28,39.20,-6.42,-0.64,-36.70,3.91,0.91,20.00
1,-19,-743,-26,-484,3950,0.59,-0.86,-49.89,-0.26,-4.84,39.50,-6.42,-0.65,-36.51,4.05,1.05,20.00
