gyroADC_X,gyroADC_Y,gyroADC_Z,accADC_X,accADC_Y,accADC_Z,GyroX,GyroY,GyroZ,AccX,AccY,AccZ,roll_IMU,pitch_IMU,yaw_IMU,roll_PID,pitch_PID,yaw_PID
-1,2,-1,-70,-396,3930,-0.03,0.07,-0.03,-0.70,-3.96,39.30,-5.51,0.81,13.06,1.53,-0.51,-1.19
-1,0,-1,-49,-377,3965,-0.03,0.06,-0.03,-0.49,-3.77,39.65,-5.49,0.79,13.06,1.52,-0.03,-1.19
0,-1,0,-49,-357,3939,-0.03,0.05,-0.03,-0.49,-3.57,39.39,-5.48,0.79,13.06,1.27,0.18,-1.27
2,0,0,-67,-382,3914,-0.01,0.04,-0.03,-0.67,-3.82,39.14,-5.49,0.81,13.06,0.82,-0.09,-1.27
0,2,1,-68,-406,3932,-0.01,0.05,-0.02,-0.68,-4.06,39.32,-5.50,0.81,13.06,1.34,-0.57,-1.35
-1,1,0,-45,-382,3948,-0.02,0.05,-0.02,-0.45,-3.82,39.48,-5.51,0.80,13.06,1.58,-0.31,-1.26
2,1,0,-71,-414,3949,-0.00,0.05,-0.01,-0.71,-4.14,39.49,-5.52,0.80,13.06,0.87,-0.31,-1.26
-1,0,0,-54,-400,3932,-0.01,0.05,-0.01,-0.54,-4.00,39.32,-5.54,0.80,13.06,1.62,-0.08,-1.26
0,-1,1,-49,-380,3928,-0.01,0.04,-0.01,-0.49,-3.80,39.28,-5.54,0.78,13.06,1.37,0.14,-1.34
3,-1,0,-43,-381,3924,0.01,0.03,-0.00,-0.43,-3.81,39.24,-5.54,0.77,13.06,0.68,0.11,-1.25
3,-1,-1,-57,-389,3926,0.03,0.02,-0.01,-0.57,-3.89,39.26,-5.55,0.77,13.06,0.74,0.07,-1.17
-5,-9,-15,-84,-331,3975,-0.01,-0.04,-0.10,-0.84,-3.31,39.75,-5.54,0.78,13.06,2.65,1.89,-0.07
1,-2,-8,-45,-366,3954,0.00,-0.05,-0.14,-0.45,-3.66,39.54,-5.52,0.77,13.07,1.14,0.08,-0.70
5,3,-3,-31,-405,3934,0.03,-0.02,-0.14,-0.31,-4.05,39.34,-5.54,0.76,13.07,0.25,-1.10,-1.12
-1,-3,5,-18,-415,3900,0.02,-0.04,-0.10,-0.18,-4.15,39.00,-5.55,0.75,13.07,1.74,0.37,-1.76
0,-1,-10,-55,-390,3943,0.02,-0.04,-0.15,-0.55,-3.90,39.43,-5.57,0.76,13.07,1.48,-0.15,-0.54
-2,3,-1,-47,-432,3938,0.01,-0.02,-0.14,-0.47,-4.32,39.38,-5.58,0.75,13.07,1.94,-1.08,-1.29
9,8,-5,-10,-395,3898,0.06,0.03,-0.16,-0.10,-3.95,38.98,-5.59,0.74,13.07,-0.65,-2.16,-0.97
3,2,3,-92,-353,3981,0.07,0.04,-0.12,-0.92,-3.53,39.81,-5.58,0.75,13.07,0.92,-0.60,-1.62
1,1,0,-71,-355,3943,0.07,0.04,-0.11,-0.71,-3.55,39.43,-5.56,0.76,13.07,1.42,-0.34,-1.35
1,2,4,-60,-347,3929,0.07,0.05,-0.08,-0.60,-3.47,39.29,-5.54,0.76,13.07,1.41,-0.57,-1.66
3,1,4,-45,-378,3932,0.08,0.05,-0.04,-0.45,-3.78,39.32,-5.53,0.75,13.07,0.94,-0.30,-1.63
-1,0,1,-45,-399,3928,0.07,0.05,-0.03,-0.45,-3.99,39.28,-5.55,0.74,13.07,1.91,-0.07,-1.36
-1,0,3,-54,-391,3934,0.05,0.04,-0.01,-0.54,-3.91,39.34,-5.57,0.75,13.07,1.87,-0.09,-1.51
1,1,-1,-70,-364,3926,0.06,0.04,-0.02,-0.70,-3.64,39.26,-5.56,0.76,13.07,1.36,-0.34,-1.18
1,1,2,-78,-360,3934,0.06,0.05,-0.00,-0.78,-3.60,39.34,-5.54,0.77,13.07,1.36,-0.33,-1.42
2,1,-4,-62,-382,3932,0.06,0.05,-0.03,-0.62,-3.82,39.32,-5.54,0.79,13.07,1.13,-0.33,-0.93
2,1,-2,-56,-379,3935,0.07,0.05,-0.04,-0.56,-3.79,39.35,-5.53,0.80,13.07,1.14,-0.33,-1.11
0,0,-1,-66,-373,3932,0.06,0.04,-0.04,-0.66,-3.73,39.32,-5.52,0.82,13.07,1.63,-0.10,-1.20
-1,-5,-16,-28,-413,3921,0.05,0.01,-0.13,-0.28,-4.13,39.21,-5.53,0.80,13.07,1.84,1.05,-0.01
11,1,-28,60,-500,3904,0.11,0.01,-0.29,0.60,-5.00,39.04,-5.54,0.79,13.07,-0.98,-0.46,0.86
4,1,-64,44,-538,3952,0.12,0.02,-0.65,0.44,-5.38,39.52,-5.56,0.78,13.07,0.86,-0.44,3.58
-1,2,-81,48,-561,3910,0.11,0.03,-1.08,0.48,-5.61,39.10,-5.57,0.77,13.08,2.06,-0.65,4.63
0,-4,-128,9,-375,3927,0.10,0.00,-1.75,0.09,-3.75,39.27,-5.57,0.75,13.09,1.77,0.78,8.00
3,2,-130,-31,-305,3919,0.10,0.01,-2.37,-0.31,-3.05,39.19,-5.55,0.75,13.10,1.03,-0.70,7.61
9,5,-3,-361,-206,3756,0.15,0.04,-2.15,-3.61,-2.06,37.56,-5.54,0.76,13.10,-0.33,-1.36,-2.95
7,3,-13,-97,-265,3991,0.18,0.06,-2.02,-0.97,-2.65,39.91,-5.53,0.77,13.11,0.28,-0.80,-1.98
1,2,-1,-71,-346,3932,0.16,0.06,-1.82,-0.71,-3.46,39.32,-5.51,0.78,13.12,1.76,-0.52,-2.82
0,2,1,-24,-359,3948,0.15,0.07,-1.63,-0.24,-3.59,39.48,-5.50,0.76,13.13,1.95,-0.50,-2.82
-1,0,1,-25,-374,3933,0.13,0.06,-1.46,-0.25,-3.74,39.33,-5.49,0.74,13.13,2.12,-0.01,-2.67
0,1,0,-53,-372,3932,0.11,0.06,-1.32,-0.53,-3.72,39.32,-5.48,0.75,13.14,1.82,-0.26,-2.45
1,1,2,-70,-378,3956,0.11,0.06,-1.17,-0.70,-3.78,39.56,-5.48,0.77,13.14,1.54,-0.27,-2.49
0,3,-1,-69,-375,3940,0.10,0.07,-1.06,-0.69,-3.75,39.40,-5.47,0.78,13.15,1.75,-0.74,-2.13
0,3,1,-56,-378,3930,0.09,0.09,-0.95,-0.56,-3.78,39.30,-5.48,0.80,13.15,1.72,-0.70,-2.20
0,2,-1,-41,-377,3938,0.08,0.09,-0.86,-0.41,-3.77,39.38,-5.48,0.78,13.15,1.69,-0.43,-1.95
0,-1,-1,-55,-375,3944,0.07,0.07,-0.78,-0.55,-3.75,39.44,-5.46,0.79,13.16,1.65,0.28,-1.88
-1,1,1,-56,-375,3944,0.06,0.07,-0.70,-0.56,-3.75,39.44,-5.45,0.80,13.16,1.85,-0.24,-1.97
1,-1,-1,-58,-375,3943,0.06,0.06,-0.63,-0.58,-3.75,39.43,-5.44,0.81,13.16,1.34,0.22,-1.75
-1,0,1,-59,-380,3931,0.05,0.05,-0.56,-0.59,-3.80,39.31,-5.46,0.82,13.16,1.81,-0.06,-1.85
0,1,0,-58,-384,3933,0.04,0.05,-0.51,-0.58,-3.84,39.33,-5.48,0.83,13.17,1.54,-0.31,-1.72
-1,1,1,-67,-376,3933,0.03,0.05,-0.45,-0.67,-3.76,39.33,-5.47,0.84,13.17,1.76,-0.32,-1.75
0,1,1,-64,-373,3936,0.03,0.06,-0.40,-0.64,-3.73,39.36,-5.46,0.86,13.17,1.49,-0.32,-1.70
0,1,1,-58,-383,3944,0.03,0.06,-0.35,-0.58,-3.83,39.44,-5.48,0.85,13.17,1.48,-0.31,-1.66
0,2,1,-50,-377,3933,0.02,0.06,-0.31,-0.50,-3.77,39.33,-5.48,0.84,13.17,1.47,-0.54,-1.63
-1,1,0,-56,-379,3929,0.01,0.06,-0.28,-0.56,-3.79,39.29,-5.49,0.83,13.17,1.70,-0.28,-1.51
0,2,1,-59,-379,3941,0.01,0.07,-0.25,-0.59,-3.79,39.41,-5.49,0.84,13.17,1.44,-0.52,-1.57
-1,2,0,-54,-372,3937,0.01,0.07,-0.22,-0.54,-3.72,39.37,-5.48,0.83,13.17,1.66,-0.50,-1.46
-1,0,0,-55,-374,3931,-0.00,0.07,-0.20,-0.55,-3.74,39.31,-5.46,0.82,13.18,1.63,-0.01,-1.44
0,0,1,-57,-368,3924,-0.00,0.06,-0.17,-0.57,-3.68,39.24,-5.45,0.82,13.18,1.37,-0.04,-1.50
0,0,0,-58,-376,3931,-0.00,0.05,-0.16,-0.58,-3.76,39.31,-5.46,0.84,13.18,1.38,-0.06,-1.40
0,0,0,-53,-375,3941,-0.00,0.05,-0.14,-0.53,-3.75,39.41,-5.45,0.82,13.18,1.38,-0.08,-1.39
-1,1,0,-57,-370,3942,-0.01,0.05,-0.13,-0.57,-3.70,39.42,-5.43,0.82,13.18,1.60,-0.33,-1.37
0,2,0,-57,-375,3935,-0.01,0.06,-0.11,-0.57,-3.75,39.35,-5.45,0.83,13.18,1.36,-0.56,-1.36
0,1,0,-62,-373,3941,-0.01,0.06,-0.10,-0.62,-3.73,39.41,-5.44,0.85,13.18,1.36,-0.31,-1.35
-1,1,0,-61,-374,3945,-0.01,0.06,-0.09,-0.61,-3.74,39.45,-5.43,0.86,13.18,1.59,-0.31,-1.34
0,1,0,-59,-376,3947,-0.01,0.06,-0.08,-0.59,-3.76,39.47,-5.44,0.85,13.18,1.34,-0.31,-1.33
0,1,1,-50,-373,3946,-0.01,0.06,-0.07,-0.50,-3.73,39.46,-5.44,0.83,13.18,1.34,-0.30,-1.41
0,1,-1,-55,-384,3939,-0.01,0.06,-0.07,-0.55,-3.84,39.39,-5.46,0.83,13.18,1.35,-0.30,-1.24
-1,1,-1,-50,-376,3943,-0.01,0.06,-0.07,-0.50,-3.76,39.43,-5.45,0.81,13.18,1.58,-0.29,-1.23
0,0,1,-46,-376,3932,-0.01,0.05,-0.05,-0.46,-3.76,39.32,-5.46,0.79,13.18,1.33,-0.06,-1.39
0,0,1,-53,-382,3927,-0.01,0.05,-0.04,-0.53,-3.82,39.27,-5.47,0.79,13.18,1.34,-0.08,-1.38
-1,1,1,-55,-383,3931,-0.02,0.05,-0.03,-0.55,-3.83,39.31,-5.49,0.79,13.18,1.58,-0.33,-1.37
-1,2,0,-50,-382,3939,-0.02,0.06,-0.03,-0.50,-3.82,39.39,-5.50,0.78,13.18,1.57,-0.55,-1.29
-1,2,0,-50,-380,3933,-0.02,0.06,-0.03,-0.50,-3.80,39.33,-5.51,0.76,13.18,1.55,-0.52,-1.28
0,2,0,-55,-379,3935,-0.02,0.07,-0.02,-0.55,-3.79,39.35,-5.51,0.78,13.18,1.31,-0.50,-1.28
-1,1,0,-55,-377,3936,-0.03,0.07,-0.02,-0.55,-3.77,39.36,-5.49,0.79,13.18,1.54,-0.25,-1.28
0,1,0,-64,-373,3939,-0.02,0.07,-0.02,-0.64,-3.73,39.39,-5.48,0.80,13.18,1.30,-0.26,-1.28
0,1,0,-60,-375,3943,-0.02,0.07,-0.02,-0.60,-3.75,39.43,-5.47,0.82,13.18,1.30,-0.27,-1.27
0,1,0,-54,-380,3937,-0.02,0.07,-0.02,-0.54,-3.80,39.37,-5.48,0.81,13.18,1.32,-0.26,-1.27
0,0,0,-50,-378,3941,-0.02,0.06,-0.01,-0.50,-3.78,39.41,-5.48,0.79,13.18,1.32,-0.03,-1.27
-1,1,0,-56,-378,3943,-0.02,0.06,-0.01,-0.56,-3.78,39.43,-5.48,0.81,13.18,1.56,-0.29,-1.27
-1,1,0,-47,-376,3933,-0.03,0.06,-0.01,-0.47,-3.76,39.33,-5.48,0.79,13.18,1.54,-0.28,-1.27
-1,1,0,-52,-373,3944,-0.03,0.06,-0.01,-0.52,-3.73,39.44,-5.46,0.78,13.18,1.53,-0.28,-1.27
0,1,0,-63,-385,3939,-0.03,0.06,-0.01,-0.63,-3.85,39.39,-5.47,0.79,13.18,1.29,-0.28,-1.27
1,1,0,-63,-380,3940,-0.02,0.06,-0.01,-0.63,-3.80,39.40,-5.48,0.81,13.18,1.07,-0.29,-1.27
1,1,0,-46,-370,3949,-0.01,0.06,-0.01,-0.46,-3.70,39.49,-5.47,0.80,13.18,1.09,-0.29,-1.27
0,1,0,-46,-375,3941,-0.01,0.06,-0.01,-0.46,-3.75,39.41,-5.46,0.78,13.18,1.35,-0.28,-1.26
-1,2,0,-45,-374,3930,-0.01,0.07,-0.01,-0.45,-3.74,39.30,-5.46,0.76,13.18,1.58,-0.51,-1.26
0,1,0,-51,-373,3948,-0.01,0.07,-0.01,-0.51,-3.73,39.48,-5.44,0.76,13.18,1.33,-0.25,-1.26
1,1,0,-47,-383,3940,-0.01,0.07,-0.00,-0.47,-3.83,39.40,-5.46,0.75,13.18,1.11,-0.25,-1.26
1,1,0,-49,-385,3926,0.00,0.06,-0.00,-0.49,-3.85,39.26,-5.47,0.74,13.18,1.14,-0.25,-1.26
-3,-9,-7,-32,-393,3933,-0.02,0.00,-0.05,-0.32,-3.93,39.33,-5.49,0.73,13.18,2.09,2.06,-0.71
-1,-9,-7,-69,-359,3939,-0.02,-0.05,-0.08,-0.69,-3.59,39.39,-5.47,0.74,13.18,1.56,1.85,-0.74
0,-1,-3,-56,-384,3912,-0.02,-0.05,-0.09,-0.56,-3.84,39.12,-5.49,0.75,13.18,1.32,-0.19,-1.09
-1,-5,-3,-54,-404,3921,-0.02,-0.08,-0.10,-0.54,-4.04,39.21,-5.51,0.75,13.18,1.56,0.73,-1.10
2,7,-5,-29,-425,3933,-0.01,-0.03,-0.12,-0.29,-4.25,39.33,-5.52,0.74,13.18,0.85,-2.13,-0.95
-3,8,-4,-66,-360,3921,-0.03,0.02,-0.14,-0.66,-3.60,39.21,-5.51,0.75,13.18,2.06,-2.19,-1.04
1,4,8,-43,-373,3941,-0.02,0.05,-0.07,-0.43,-3.73,39.41,-5.50,0.74,13.19,1.07,-1.09,-2.00
-1,5,10,-70,-376,3921,-0.02,0.07,-0.00,-0.70,-3.76,39.21,-5.50,0.76,13.19,1.56,-1.25,-2.11
0,5,42,-20,-407,3930,-0.02,0.10,0.25,-0.20,-4.07,39.30,-5.51,0.74,13.18,1.32,-1.16,-4.59
1,3,53,-55,-372,3936,-0.01,0.10,0.55,-0.55,-3.72,39.36,-5.49,0.75,13.18,1.09,-0.62,-5.25
0,3,14,-57,-355,3920,-0.01,0.11,0.58,-0.57,-3.55,39.20,-5.47,0.76,13.18,1.34,-0.59,-1.92
0,2,10,-77,-375,3926,-0.01,0.11,0.58,-0.77,-3.75,39.26,-5.47,0.78,13.18,1.35,-0.34,-1.58
0,2,-3,-60,-378,3939,-0.01,0.11,0.51,-0.60,-3.78,39.39,-5.48,0.80,13.18,1.35,-0.34,-0.54
0,3,-5,-44,-383,3936,-0.01,0.12,0.43,-0.44,-3.83,39.36,-5.48,0.78,13.17,1.36,-0.56,-0.45
0,0,-1,-41,-380,3918,-0.01,0.11,0.38,-0.41,-3.80,39.18,-5.49,0.76,13.17,1.36,0.16,-0.83
-1,0,0,-52,-380,3928,-0.01,0.10,0.34,-0.52,-3.80,39.28,-5.51,0.76,13.17,1.60,0.12,-0.95
0,1,0,-55,-376,3936,-0.01,0.09,0.31,-0.55,-3.76,39.36,-5.49,0.77,13.17,1.35,-0.15,-0.98
1,1,0,-53,-384,3929,-0.00,0.09,0.27,-0.53,-3.84,39.29,-5.51,0.77,13.17,1.12,-0.16,-1.01
0,1,1,-56,-378,3930,-0.00,0.09,0.25,-0.56,-3.78,39.30,-5.50,0.79,13.17,1.38,-0.18,-1.11
0,1,1,-54,-378,3937,-0.00,0.09,0.23,-0.54,-3.78,39.37,-5.49,0.78,13.17,1.38,-0.19,-1.13
0,1,1,-48,-369,3941,-0.00,0.08,0.22,-0.48,-3.69,39.41,-5.47,0.77,13.17,1.37,-0.20,-1.15
1,0,0,-63,-367,3937,0.00,0.07,0.20,-0.63,-3.67,39.37,-5.46,0.79,13.16,1.14,0.02,-1.08
0,2,0,-62,-373,3932,0.00,0.08,0.18,-0.62,-3.73,39.32,-5.45,0.80,13.16,1.39,-0.47,-1.10
0,1,0,-55,-377,3934,0.00,0.08,0.16,-0.55,-3.77,39.34,-5.47,0.80,13.16,1.39,-0.22,-1.11
0,1,0,-60,-371,3945,0.00,0.08,0.14,-0.60,-3.71,39.45,-5.45,0.81,13.16,1.39,-0.23,-1.13
0,2,1,-49,-373,3937,0.00,0.08,0.13,-0.49,-3.73,39.37,-5.45,0.79,13.16,1.39,-0.46,-1.22
-2,24,47,220,-387,3912,-0.01,0.22,0.41,2.20,-3.87,39.12,-5.45,0.78,13.16,1.85,-5.53,-4.87
-5,55,84,349,-231,3854,-0.04,0.53,0.88,3.49,-2.31,38.54,-5.44,0.76,13.16,2.50,-12.23,-7.58
-1,53,103,-190,-408,4051,-0.04,0.80,1.42,-1.90,-4.08,40.51,-5.45,0.78,13.15,1.47,-10.71,-8.69
-14,33,112,-118,-309,3854,-0.12,0.92,1.96,-1.18,-3.09,38.54,-5.43,0.80,13.14,4.47,-5.17,-8.97
-7,3,246,87,-141,3942,-0.15,0.85,3.27,0.87,-1.41,39.42,-5.42,0.80,13.13,2.57,2.18,-19.13
-2,2,263,-27,-212,3956,-0.15,0.78,4.54,-0.27,-2.12,39.56,-5.40,0.80,13.11,1.31,2.16,-19.41
6,-77,143,-274,-541,4009,-0.10,0.23,4.96,-2.74,-5.41,40.09,-5.41,0.82,13.09,-0.53,20.17,-8.86
5,-125,132,-288,-643,4025,-0.06,-0.56,5.27,-2.88,-6.43,40.25,-5.43,0.83,13.07,-0.12,29.41,-7.65
-2,-33,270,-414,-902,3946,-0.06,-0.70,6.39,-4.14,-9.02,39.46,-5.44,0.84,13.05,1.64,5.48,-18.32
-11,-3,289,-94,-180,3958,-0.13,-0.65,7.51,-0.94,-1.80,39.58,-5.42,0.84,13.02,3.70,-1.95,-18.91
-1,16,188,-334,-571,3808,-0.12,-0.49,7.91,-3.34,-5.71,38.08,-5.43,0.86,12.99,1.18,-6.17,-9.99
-2,8,183,-495,-684,3899,-0.12,-0.39,8.23,-4.95,-6.84,38.99,-5.44,0.87,12.95,1.44,-3.78,-9.27
-16,7,283,-255,-609,3978,-0.20,-0.31,9.14,-2.55,-6.09,39.78,-5.46,0.89,12.92,4.68,-3.22,-16.92
6,12,333,-188,-508,3895,-0.15,-0.20,10.26,-1.88,-5.08,38.95,-5.47,0.90,12.88,-0.70,-4.10,-20.14
-15,16,669,-135,-474,3892,-0.22,-0.09,13.31,-1.35,-4.74,38.92,-5.49,0.92,12.82,4.35,-4.68,-45.83
-19,18,742,-161,-508,3917,-0.32,0.03,16.51,-1.61,-5.08,39.17,-5.50,0.94,12.76,5.02,-4.75,-49.11
-8,50,956,-126,-497,3928,-0.33,0.33,20.69,-1.26,-4.97,39.28,-5.52,0.95,12.68,2.17,-11.75,-63.44
32,74,998,-104,-466,3920,-0.11,0.75,24.71,-1.04,-4.66,39.20,-5.53,0.97,12.58,-7.14,-16.28,-63.34
39,100,1144,-95,-446,3937,0.14,1.29,29.21,-0.95,-4.46,39.37,-5.55,1.00,12.46,-7.98,-20.88,-71.61
-4,103,1209,-140,-463,3839,0.10,1.79,33.67,-1.40,-4.63,38.39,-5.56,1.03,12.33,2.81,-19.77,-73.06
-22,49,1269,-104,-492,4010,-0.04,1.91,38.04,-1.04,-4.92,40.10,-5.57,1.06,12.18,6.85,-5.60,-74.16
-5,47,1272,-95,-552,3867,-0.07,2.00,42.00,-0.95,-5.52,38.67,-5.59,1.08,12.01,2.43,-4.74,-70.81
42,72,1266,-71,-480,3946,0.20,2.24,45.52,-0.71,-4.80,39.46,-5.60,1.11,11.83,-8.52,-10.20,-67.09
50,73,1263,-66,-478,3923,0.48,2.46,48.67,-0.66,-4.78,39.23,-5.62,1.14,11.64,-9.48,-9.63,-63.96
6,35,1235,-63,-515,3882,0.47,2.43,51.34,-0.63,-5.15,38.82,-5.63,1.16,11.44,1.66,-0.10,-59.15
-16,11,1221,-69,-484,3962,0.32,2.25,53.65,-0.69,-4.84,39.62,-5.64,1.19,11.22,6.71,5.33,-55.84
-86,-67,1157,-32,-507,3936,-0.23,1.62,55.34,-0.32,-5.07,39.36,-5.65,1.21,11.01,22.41,22.77,-48.87
-102,-77,1134,5,-524,3956,-0.83,0.99,56.73,0.05,-5.24,39.56,-5.67,1.23,10.78,24.23,22.93,-45.64
-88,-64,1069,31,-543,3960,-1.28,0.50,57.58,0.31,-5.43,39.60,-5.68,1.24,10.55,18.97,17.78,-39.35
-60,-11,1041,16,-513,3921,-1.52,0.38,58.17,0.16,-5.13,39.21,-5.70,1.25,10.32,10.96,3.86,-36.42
-17,22,1003,-67,-393,3948,-1.47,0.48,58.47,-0.67,-3.93,39.48,-5.70,1.26,10.09,0.21,-4.16,-32.90
-20,18,993,-64,-407,3921,-1.45,0.54,58.68,-0.64,-4.07,39.21,-5.71,1.27,9.85,1.07,-2.92,-31.84
-23,6,972,-40,-361,3950,-1.44,0.52,58.74,-0.40,-3.61,39.50,-5.70,1.28,9.62,1.85,0.07,-29.99
-17,7,964,11,-347,3948,-1.40,0.51,58.75,0.11,-3.47,39.48,-5.69,1.29,9.39,0.48,-0.23,-29.28
-19,10,923,-35,-391,3942,-1.38,0.52,58.50,-0.35,-3.91,39.42,-5.69,1.30,9.15,1.08,-0.95,-26.01
-16,17,914,-34,-396,3947,-1.34,0.57,58.23,-0.34,-3.96,39.47,-5.69,1.31,8.92,0.47,-2.54,-25.48
-10,24,903,-13,-373,3960,-1.27,0.66,57.91,-0.13,-3.73,39.60,-5.69,1.31,8.69,-0.79,-3.99,-24.81
-18,27,907,-18,-375,3953,-1.25,0.76,57.66,-0.18,-3.75,39.53,-5.68,1.32,8.46,1.31,-4.38,-25.36
-3,45,945,4,-332,3940,-1.14,0.96,57.65,0.04,-3.32,39.40,-5.67,1.33,8.23,-2.10,-8.21,-28.56
24,72,981,23,-328,3952,-0.88,1.30,57.87,0.23,-3.28,39.52,-5.66,1.34,8.00,-7.99,-13.79,-31.39
110,125,1045,71,-279,4003,-0.12,1.94,58.46,0.71,-2.79,40.03,-5.64,1.36,7.77,-26.99,-24.88,-36.26
119,134,1071,29,-333,3888,0.62,2.56,59.15,0.29,-3.33,38.88,-5.63,1.38,7.54,-26.51,-24.83,-37.82
30,55,1125,14,-365,3892,0.74,2.64,60.09,0.14,-3.65,38.92,-5.62,1.39,7.30,-3.43,-4.45,-41.51
4,45,1143,48,-411,3866,0.69,2.65,61.06,0.48,-4.11,38.66,-5.61,1.41,7.06,2.99,-1.88,-42.14
-5,27,1195,38,-375,3947,0.59,2.55,62.24,0.38,-3.75,39.47,-5.60,1.43,6.81,4.90,2.32,-45.45
-36,19,1200,45,-406,3946,0.31,2.41,63.34,0.45,-4.06,39.46,-5.60,1.44,6.56,11.73,3.82,-44.86
-13,48,1197,-20,-400,3965,0.20,2.46,64.31,-0.20,-4.00,39.65,-5.59,1.46,6.30,5.47,-3.36,-43.70
-9,52,1197,-17,-452,3957,0.12,2.53,65.18,-0.17,-4.52,39.57,-5.60,1.48,6.04,4.17,-4.11,-42.89
-3,64,1151,-49,-471,3891,0.09,2.67,65.68,-0.49,-4.71,38.91,-5.60,1.51,5.78,2.53,-6.65,-38.51
-5,51,1125,-100,-421,3894,0.05,2.71,65.97,-1.00,-4.21,38.94,-5.62,1.54,5.52,2.89,-3.19,-36.02
-24,10,1048,-150,-387,3890,-0.10,2.50,65.77,-1.50,-3.87,38.90,-5.61,1.60,5.26,7.15,6.43,-29.66
-17,7,1028,-139,-379,3849,-0.19,2.30,65.46,-1.39,-3.79,38.49,-5.60,1.65,5.00,5.02,6.39,-28.22
-18,-40,950,-176,-419,3881,-0.28,1.82,64.71,-1.76,-4.19,38.81,-5.61,1.70,4.75,4.93,16.55,-22.27
-7,-45,929,-173,-432,3918,-0.30,1.37,63.91,-1.73,-4.32,39.18,-5.61,1.74,4.49,2.08,16.09,-21.19
-44,-52,851,-95,-383,4130,-0.54,0.91,62.71,-0.95,-3.83,41.30,-5.60,1.75,4.24,10.58,16.16,-15.65
-26,-31,839,-70,-375,3993,-0.64,0.63,61.56,-0.70,-3.75,39.93,-5.59,1.76,4.00,5.61,9.76,-15.66
-7,16,819,-97,-382,3987,-0.62,0.67,60.40,-0.97,-3.82,39.87,-5.58,1.77,3.76,0.86,-2.06,-15.00
-3,33,826,-111,-368,3957,-0.58,0.80,59.39,-1.11,-3.68,39.57,-5.56,1.79,3.52,0.00,-5.87,-16.48
-23,69,865,-22,-437,3940,-0.66,1.14,58.73,-0.22,-4.37,39.40,-5.56,1.80,3.29,4.77,-13.74,-20.36
-11,71,881,-81,-414,3889,-0.66,1.46,58.23,-0.81,-4.14,38.89,-5.57,1.81,3.06,1.72,-13.06,-22.15
-18,57,913,-151,-392,3804,-0.70,1.66,57.98,-1.51,-3.92,38.04,-5.57,1.86,2.83,3.34,-8.75,-25.07
-5,50,926,-178,-399,3905,-0.66,1.80,57.83,-1.78,-3.99,39.05,-5.57,1.90,2.60,0.18,-6.46,-26.29
-10,15,924,-154,-320,3929,-0.66,1.71,57.68,-1.54,-3.20,39.29,-5.55,1.94,2.37,1.47,2.09,-26.23
-4,15,914,-123,-282,3978,-0.62,1.63,57.49,-1.23,-2.82,39.78,-5.53,1.97,2.14,0.09,1.79,-25.54
-19,9,856,-143,-270,3998,-0.67,1.52,56.96,-1.43,-2.70,39.98,-5.51,2.00,1.91,3.70,2.90,-21.08
1,17,842,-151,-265,3872,-0.60,1.48,56.40,-1.51,-2.65,38.72,-5.48,2.03,1.69,-1.12,0.67,-20.38
-4,18,798,-165,-345,3906,-0.56,1.44,55.63,-1.65,-3.45,39.06,-5.46,2.06,1.46,0.28,0.27,-17.33
-16,10,788,-176,-352,3940,-0.60,1.36,54.87,-1.76,-3.52,39.40,-5.45,2.11,1.25,3.17,1.98,-17.15
0,-4,745,-179,-392,3927,-0.54,1.20,53.93,-1.79,-3.92,39.27,-5.45,2.15,1.03,-0.67,4.93,-14.35
1,-17,727,-169,-431,4017,-0.48,0.97,52.97,-1.69,-4.31,40.17,-5.46,2.18,0.82,-0.69,7.39,-13.67
9,-30,699,-96,-479,3978,-0.38,0.69,51.94,-0.96,-4.79,39.78,-5.47,2.19,0.62,-2.33,9.63,-12.22
11,-16,698,-128,-494,3849,-0.27,0.52,51.00,-1.28,-4.94,38.49,-5.48,2.21,0.41,-2.44,5.44,-12.97
21,-9,716,-123,-513,3931,-0.12,0.42,50.27,-1.23,-5.13,39.31,-5.49,2.23,0.21,-4.40,3.25,-15.14
16,-4,729,-107,-536,4030,-0.01,0.35,49.69,-1.07,-5.36,40.30,-5.50,2.24,0.02,-2.71,1.73,-16.75
30,32,753,-51,-552,4082,0.17,0.51,49.31,-0.51,-5.52,40.82,-5.51,2.25,-0.18,-5.58,-6.82,-19.10
70,40,759,-64,-515,4051,0.58,0.70,49.01,-0.64,-5.15,40.51,-5.51,2.26,-0.37,-14.20,-8.13,-19.87
1,94,866,-92,-586,4004,0.53,1.21,49.39,-0.92,-5.86,40.04,-5.52,2.28,-0.57,3.14,-19.97,-28.57
-6,111,890,-77,-573,3842,0.44,1.76,49.88,-0.77,-5.73,38.42,-5.53,2.30,-0.77,4.58,-22.20,-30.14
-10,74,952,-124,-507,3818,0.34,2.04,50.70,-1.24,-5.07,38.18,-5.53,2.32,-0.97,5.21,-11.77,-34.63
2,57,978,-140,-473,3846,0.32,2.18,51.60,-1.40,-4.73,38.46,-5.54,2.35,-1.17,2.08,-6.91,-36.01
-20,6,1011,-128,-423,3887,0.16,2.00,52.61,-1.28,-4.23,38.87,-5.55,2.37,-1.38,7.09,5.37,-37.87
-12,8,1015,-118,-398,3874,0.07,1.85,53.54,-1.18,-3.98,38.74,-5.55,2.38,-1.59,4.72,4.29,-37.34
-15,-11,1013,-103,-296,3956,-0.03,1.60,54.36,-1.03,-2.96,39.56,-5.52,2.40,-1.81,5.11,8.16,-36.41
5,-12,1011,-149,-298,3896,0.01,1.36,55.09,-1.49,-2.98,38.96,-5.50,2.42,-2.03,0.14,7.53,-35.55
-12,-55,1005,-189,-313,3782,-0.07,0.89,55.71,-1.89,-3.13,37.82,-5.47,2.45,-2.25,4.18,16.68,-34.46
-3,-67,997,-203,-284,3836,-0.08,0.39,56.22,-2.03,-2.84,38.36,-5.45,2.48,-2.48,1.84,17.85,-33.30
-11,-104,966,-154,-276,3900,-0.14,-0.28,56.49,-1.54,-2.76,39.00,-5.42,2.50,-2.70,3.65,24.71,-30.41
35,-116,957,-201,-292,3942,0.09,-0.96,56.68,-2.01,-2.92,39.42,-5.39,2.52,-2.93,-7.20,25.20,-29.45
9,-75,960,-91,-261,4013,0.14,-1.32,56.87,-0.91,-2.61,40.13,-5.37,2.53,-3.16,-0.42,13.42,-29.52
-15,-29,958,-120,-245,4042,0.03,-1.37,57.03,-1.20,-2.45,40.42,-5.34,2.54,-3.38,5.28,1.55,-29.19
-9,29,920,-106,-181,3959,-0.03,-1.05,56.94,-1.06,-1.81,39.59,-5.31,2.55,-3.61,3.53,-12.01,-26.03
-44,37,906,-133,-141,4083,-0.29,-0.72,56.77,-1.33,-1.41,40.83,-5.29,2.56,-3.84,11.42,-12.80,-24.97
-13,54,826,-131,-302,3896,-0.34,-0.32,56.13,-1.31,-3.02,38.96,-5.26,2.57,-4.06,3.35,-15.61,-18.75
2,63,816,-100,-266,3773,-0.30,0.10,55.50,-1.00,-2.66,37.73,-5.24,2.58,-4.29,-0.30,-16.34,-18.46
-2,23,778,-38,-354,3844,-0.28,0.23,54.69,-0.38,-3.54,38.44,-5.23,2.58,-4.50,0.78,-5.68,-15.95
-10,14,771,-39,-466,3870,-0.31,0.29,53.93,-0.39,-4.66,38.70,-5.23,2.59,-4.72,2.69,-3.16,-16.04
-1,-43,758,75,-566,3937,-0.29,-0.00,53.16,0.75,-5.66,39.37,-5.24,2.59,-4.93,0.50,10.23,-15.61
1,-49,763,57,-592,3877,-0.25,-0.30,52.50,0.57,-5.92,38.77,-5.24,2.60,-5.14,0.12,10.63,-16.62
75,-115,833,39,-686,3972,0.23,-0.97,52.33,0.39,-6.86,39.72,-5.25,2.60,-5.35,-16.87,24.88,-22.68
125,-150,892,37,-672,3975,0.97,-1.79,52.54,0.37,-6.72,39.75,-5.25,2.61,-5.56,-26.79,30.70,-27.47
94,-129,1057,-5,-531,3907,1.45,-2.40,53.73,-0.05,-5.31,39.07,-5.25,2.60,-5.77,-17.12,23.07,-40.35
73,-97,1107,-23,-447,3892,1.75,-2.75,55.11,-0.23,-4.47,38.92,-5.24,2.60,-5.99,-10.65,13.62,-43.31
-54,-4,1231,-192,-22,3954,1.24,-2.50,57.11,-1.92,-0.22,39.54,-5.20,2.61,-6.22,19.72,-9.08,-51.99
-78,20,1251,-245,86,4019,0.64,-2.13,59.03,-2.45,0.86,40.19,-5.17,2.62,-6.46,23.55,-13.79,-51.92
-60,82,1179,-297,399,3994,0.21,-1.41,60.32,-2.97,3.99,39.94,-5.14,2.64,-6.70,17.35,-26.87,-44.62
-60,81,1113,-337,471,4096,-0.17,-0.78,61.07,-3.37,4.71,40.96,-5.11,2.66,-6.94,15.89,-24.23,-38.32
-63,119,795,-335,460,3913,-0.54,0.03,59.82,-3.35,4.60,39.13,-5.09,2.69,-7.18,15.27,-30.87,-12.50
-78,129,649,-339,416,3899,-0.96,0.81,57.79,-3.39,4.16,38.99,-5.06,2.72,-7.42,17.49,-30.46,-1.95
-119,137,293,-243,120,3834,-1.59,1.56,53.80,-2.43,1.20,38.34,-5.04,2.74,-7.63,25.53,-29.66,24.61
-73,98,168,-169,-67,4112,-1.88,2.01,49.45,-1.69,-0.67,41.12,-5.02,2.77,-7.83,12.76,-18.10,31.27
-18,28,58,-83,-334,3832,-1.80,1.98,44.86,-0.83,-3.34,38.32,-5.02,2.77,-8.01,-0.93,-0.42,36.44
-41,27,47,-33,-368,3891,-1.87,1.94,40.66,-0.33,-3.68,38.91,-5.02,2.78,-8.17,4.66,-0.29,33.58
-5,-3,82,49,-512,3918,-1.71,1.73,37.09,0.49,-5.12,39.18,-5.03,2.78,-8.31,-3.90,6.54,27.39
0,-12,106,55,-546,3904,-1.54,1.48,34.03,0.55,-5.46,39.04,-5.04,2.78,-8.45,-4.52,7.90,22.59
10,-51,197,14,-541,3842,-1.33,1.02,31.83,0.14,-5.41,38.42,-5.05,2.79,-8.57,-6.25,16.08,12.89
8,-70,218,15,-532,3878,-1.15,0.50,29.97,0.15,-5.32,38.78,-5.07,2.79,-8.69,-5.06,18.92,9.44
11,-92,224,47,-592,3941,-0.96,-0.12,28.34,0.47,-5.92,39.41,-5.08,2.78,-8.81,-5.14,22.21,7.46
2,-95,218,70,-587,3950,-0.86,-0.68,26.84,0.70,-5.87,39.50,-5.09,2.78,-8.91,-2.44,20.84,6.62
11,-61,200,62,-626,3961,-0.70,-0.99,25.38,0.62,-6.26,39.61,-5.10,2.77,-9.01,-4.15,11.06,6.82
8,-40,198,56,-614,3944,-0.58,-1.13,24.05,0.56,-6.14,39.44,-5.11,2.76,-9.11,-2.93,5.17,5.79
22,-47,197,32,-609,3985,-0.39,-1.31,22.84,0.32,-6.09,39.85,-5.12,2.75,-9.20,-5.77,6.30,4.80
47,-63,201,-17,-585,3951,-0.07,-1.56,21.78,-0.17,-5.85,39.51,-5.13,2.74,-9.29,-10.89,9.42,3.51
134,-125,245,-38,-497,3860,0.76,-2.17,21.10,-0.38,-4.97,38.60,-5.14,2.73,-9.37,-29.90,22.90,-0.84
138,-130,264,-17,-495,3900,1.52,-2.74,20.60,-0.17,-4.95,39.00,-5.14,2.71,-9.45,-28.04,22.00,-2.89
111,-124,334,29,-363,3912,2.05,-3.22,20.58,0.29,-3.63,39.12,-5.13,2.69,-9.54,-19.20,18.67,-8.83
103,-109,352,43,-346,3931,2.47,-3.57,20.67,0.43,-3.46,39.31,-5.11,2.66,-9.62,-15.58,13.57,-10.27
34,-50,361,31,-225,3966,2.43,-3.52,20.80,0.31,-2.25,39.66,-5.09,2.64,-9.71,1.80,-1.22,-10.90
8,-28,370,4,-222,3879,2.24,-3.33,20.98,0.04,-2.22,38.79,-5.07,2.62,-9.79,7.67,-6.13,-11.50
-67,22,403,-22,-286,3901,1.61,-2.87,21.34,-0.22,-2.86,39.01,-5.05,2.60,-9.88,24.35,-17.07,-13.96
-91,25,419,-66,-315,3873,0.89,-2.43,21.76,-0.66,-3.15,38.73,-5.04,2.58,-9.97,27.76,-16.18,-14.92
-52,-22,447,-94,-404,3931,0.48,-2.32,22.31,-0.94,-4.04,39.31,-5.04,2.56,-10.05,16.32,-3.82,-16.79
-14,-47,443,-61,-434,3929,0.35,-2.37,22.78,-0.61,-4.34,39.29,-5.05,2.54,-10.15,6.16,2.33,-16.01
107,-144,365,1,-540,3968,0.97,-3.02,22.73,0.01,-5.40,39.68,-5.05,2.53,-10.24,-22.27,24.58,-9.44
125,-148,361,24,-606,3908,1.63,-3.62,22.66,0.24,-6.06,39.08,-5.06,2.51,-10.33,-24.34,23.34,-9.16
65,-88,309,73,-402,4017,1.87,-3.79,22.28,0.73,-4.02,40.17,-5.05,2.48,-10.42,-8.22,7.44,-5.09
31,-53,340,108,-297,3983,1.87,-3.74,22.13,1.08,-2.97,39.83,-5.03,2.46,-10.51,0.43,-1.24,-7.85
-98,79,445,7,-339,3965,1.08,-2.88,22.63,0.07,-3.39,39.65,-5.03,2.44,-10.60,30.26,-31.57,-16.28
-119,114,462,5,-333,3926,0.25,-1.90,23.18,0.05,-3.33,39.26,-5.02,2.42,-10.69,32.46,-36.76,-17.21
-200,221,525,-9,-427,3914,-1.00,-0.36,24.07,-0.09,-4.27,39.14,-5.03,2.41,-10.79,48.37,-58.17,-21.74
-229,250,527,17,-461,3978,-2.29,1.20,24.88,0.17,-4.61,39.78,-5.04,2.41,-10.89,50.86,-59.67,-21.16
-155,251,469,-12,-490,4193,-3.01,2.61,25.25,-0.12,-4.90,41.93,-5.06,2.41,-10.99,29.36,-54.61,-15.90
-113,205,441,13,-450,4050,-3.40,3.60,25.41,0.13,-4.50,40.50,-5.08,2.42,-11.09,17.23,-39.20,-13.37
25,208,343,7,-508,3737,-2.90,4.51,24.96,0.07,-5.08,37.37,-5.10,2.43,-11.18,-15.99,-36.55,-5.46
31,149,320,-100,-477,3916,-2.43,4.97,24.42,-1.00,-4.77,39.16,-5.12,2.45,-11.28,-15.71,-19.84,-4.00
-21,104,297,-88,-474,3652,-2.31,5.11,23.79,-0.88,-4.74,36.52,-5.14,2.47,-11.37,-2.05,-7.89,-2.62
-64,99,289,-111,-474,3853,-2.47,5.20,23.17,-1.11,-4.74,38.53,-5.17,2.50,-11.46,8.28,-6.27,-2.49
-16,30,285,-101,-432,3856,-2.32,4.86,22.59,-1.01,-4.32,38.56,-5.18,2.51,-11.55,-3.35,10.00,-2.67
-19,16,282,-115,-439,3929,-2.20,4.47,22.06,-1.15,-4.39,39.29,-5.20,2.53,-11.63,-2.15,12.09,-2.89
-3,-14,257,-102,-404,3872,-2.00,3.94,21.42,-1.02,-4.04,38.72,-5.22,2.54,-11.72,-5.45,17.71,-1.35
4,-18,249,-75,-421,3935,-1.78,3.44,20.79,-0.75,-4.21,39.35,-5.23,2.54,-11.80,-6.38,16.83,-1.23
-2,-25,208,-78,-411,3962,-1.61,2.94,19.98,-0.78,-4.11,39.62,-5.24,2.54,-11.88,-4.23,16.74,1.52
2,-20,196,-55,-432,3900,-1.44,2.52,19.18,-0.55,-4.32,39.00,-5.26,2.55,-11.95,-4.59,13.90,1.81
-5,-7,190,-99,-400,3957,-1.33,2.23,18.42,-0.99,-4.00,39.57,-5.27,2.54,-12.02,-2.38,9.49,1.64
-1,-5,197,-107,-371,3974,-1.20,1.98,17.78,-1.07,-3.71,39.74,-5.27,2.54,-12.09,-2.92,8.03,0.47
-1,-1,227,-91,-307,3969,-1.09,1.77,17.39,-0.91,-3.07,39.69,-5.26,2.54,-12.16,-2.50,6.24,-2.42
-3,9,230,-76,-297,3965,-0.99,1.65,17.05,-0.76,-2.97,39.65,-5.25,2.54,-12.23,-1.65,3.24,-2.97
-6,23,236,-81,-303,3927,-0.93,1.63,16.79,-0.81,-3.03,39.27,-5.24,2.53,-12.30,-0.65,-0.41,-3.72
-9,24,237,-108,-341,3912,-0.89,1.61,16.55,-1.08,-3.41,39.12,-5.24,2.53,-12.36,0.25,-0.72,-4.01
3,-15,201,-119,-527,3818,-0.79,1.36,16.12,-1.19,-5.27,38.18,-5.26,2.54,-12.43,-2.39,8.24,-1.34
4,-45,147,-82,-580,3866,-0.68,0.95,15.41,-0.82,-5.80,38.66,-5.27,2.54,-12.49,-2.25,14.32,2.59
-18,-66,27,16,-571,3937,-0.72,0.45,14.03,0.16,-5.71,39.37,-5.29,2.53,-12.54,3.19,17.79,11.51
-8,-39,5,43,-590,4038,-0.70,0.17,12.66,0.43,-5.90,40.38,-5.30,2.52,-12.59,0.74,9.86,12.14
-53,86,-4,119,-543,4248,-0.95,0.67,11.37,1.19,-5.43,42.48,-5.31,2.51,-12.64,11.23,-19.99,11.73
37,93,11,18,-426,4173,-0.63,1.17,10.30,0.18,-4.26,41.73,-5.31,2.51,-12.68,-10.44,-19.89,9.50
0,146,42,-58,-292,4009,-0.57,1.95,9.53,-0.58,-2.92,40.09,-5.30,2.50,-12.71,-0.80,-30.45,6.17
-2,142,46,-75,-248,3909,-0.52,2.62,8.85,-0.75,-2.48,39.09,-5.29,2.50,-12.75,-0.13,-26.91,5.22
-8,99,89,-210,-160,3804,-0.52,2.96,8.51,-2.10,-1.60,38.04,-5.27,2.52,-12.78,1.41,-14.70,1.27
-6,72,54,-210,-195,3767,-0.51,3.10,7.99,-2.10,-1.95,37.67,-5.26,2.54,-12.81,0.95,-7.30,3.77
7,-12,-34,-76,-436,3866,-0.41,2.72,6.98,-0.76,-4.36,38.66,-5.27,2.54,-12.84,-2.00,12.61,10.31
7,-44,-81,-52,-411,3850,-0.33,2.18,5.79,-0.52,-4.11,38.50,-5.28,2.54,-12.86,-1.68,18.71,13.22
-9,-64,-179,37,-374,3972,-0.35,1.57,4.12,0.37,-3.74,39.72,-5.28,2.53,-12.88,2.31,21.50,20.00
-29,-39,-210,78,-372,3984,-0.49,1.18,2.43,0.78,-3.72,39.84,-5.28,2.51,-12.89,6.86,13.67,21.10
-48,13,-284,-2,-358,4032,-0.74,1.14,0.45,-0.02,-3.58,40.32,-5.28,2.50,-12.89,10.77,0.31,25.57
-49,2,-290,-1,-359,4032,-0.96,1.04,-1.36,-0.01,-3.59,40.32,-5.28,2.48,-12.88,10.18,2.73,24.44
-17,-9,-281,-84,-318,3884,-0.97,0.88,-2.94,-0.84,-3.18,38.84,-5.28,2.47,-12.87,2.01,4.93,22.24
-22,-14,-287,-99,-274,3980,-1.01,0.70,-4.40,-0.99,-2.74,39.80,-5.27,2.46,-12.85,3.14,5.55,21.43
5,-53,-344,-116,-277,3930,-0.88,0.31,-6.06,-1.16,-2.77,39.30,-5.26,2.45,-12.83,-3.23,13.98,24.75
5,-42,-358,-125,-301,3812,-0.76,0.02,-7.63,-1.25,-3.01,38.12,-5.25,2.44,-12.80,-2.79,10.11,24.50
-5,-64,-397,-143,-297,3965,-0.71,-0.37,-9.29,-1.43,-2.97,39.65,-5.24,2.42,-12.76,-0.08,14.23,26.30
1,-72,-412,-87,-302,3942,-0.63,-0.77,-10.88,-0.87,-3.02,39.42,-5.23,2.40,-12.72,-1.32,14.75,26.13
3,-46,-457,-40,-304,3992,-0.55,-0.97,-12.58,-0.40,-3.04,39.92,-5.23,2.38,-12.67,-1.52,7.38,28.39
7,-27,-462,-81,-328,3928,-0.45,-1.04,-14.14,-0.81,-3.28,39.28,-5.22,2.35,-12.62,-2.17,2.31,27.40
11,0,-493,-6,-373,3974,-0.34,-0.94,-15.73,-0.06,-3.73,39.74,-5.23,2.32,-12.55,-2.76,-4.16,28.57
37,5,-516,-17,-363,3999,-0.08,-0.81,-17.30,-0.17,-3.63,39.99,-5.23,2.30,-12.49,-8.39,-4.95,29.09
60,17,-604,-6,-395,3958,0.29,-0.63,-19.26,-0.06,-3.95,39.58,-5.24,2.27,-12.41,-12.82,-7.30,34.77
34,36,-634,-18,-397,3834,0.47,-0.35,-21.20,-0.18,-3.97,38.34,-5.25,2.24,-12.32,-5.54,-11.06,35.54
13,28,-756,-54,-514,3983,0.50,-0.14,-23.69,-0.54,-5.14,39.83,-5.26,2.22,-12.23,-0.08,-8.25,43.61
8,9,-783,-68,-524,3921,0.50,-0.07,-26.10,-0.68,-5.24,39.21,-5.28,2.20,-12.13,1.19,-3.16,43.70
31,11,-847,-122,-546,3868,0.64,0.00,-28.66,-1.22,-5.46,38.68,-5.30,2.19,-12.01,-4.13,-3.38,46.80
15,7,-847,-189,-569,3902,0.67,0.05,-30.96,-1.89,-5.69,39.02,-5.32,2.18,-11.89,0.05,-2.20,44.70
0,-15,-792,-202,-539,3960,0.60,-0.05,-32.69,-2.02,-5.39,39.60,-5.34,2.18,-11.76,3.61,3.03,38.45
10,-9,-763,-185,-570,3921,0.60,-0.10,-34.08,-1.85,-5.70,39.21,-5.36,2.17,-11.62,1.08,1.32,34.73
-23,-10,-671,-221,-605,3986,0.40,-0.15,-34.76,-2.21,-6.05,39.86,-5.38,2.16,-11.48,8.72,1.38,26.30
-6,-2,-646,-142,-643,3956,0.32,-0.15,-35.23,-1.42,-6.43,39.56,-5.40,2.14,-11.34,4.11,-0.64,23.75
62,14,-585,-74,-704,4052,0.67,-0.05,-35.27,-0.74,-7.04,40.52,-5.42,2.12,-11.20,-11.86,-4.32,18.53
46,17,-564,-60,-701,3922,0.88,0.06,-35.19,-0.60,-7.01,39.22,-5.44,2.11,-11.06,-6.99,-4.67,16.82
14,59,-480,51,-607,3991,0.88,0.41,-34.60,0.51,-6.07,39.91,-5.46,2.08,-10.92,1.14,-14.01,10.23
9,47,-460,-51,-497,3904,0.85,0.66,-33.94,-0.51,-4.97,39.04,-5.48,2.06,-10.78,2.29,-10.03,9.12
4,15,-385,-13,-341,3836,0.79,0.68,-32.90,-0.13,-3.41,38.36,-5.47,2.03,-10.65,3.33,-1.79,3.70
1,-14,-362,-11,-234,3884,0.71,0.53,-31.81,-0.11,-2.34,38.84,-5.46,2.01,-10.52,3.82,5.00,2.72
-3,-40,-356,48,-107,4016,0.62,0.23,-30.80,0.48,-1.07,40.16,-5.45,1.99,-10.40,4.49,10.50,3.12
-3,-42,-371,104,-61,3981,0.54,-0.05,-29.99,1.04,-0.61,39.81,-5.44,1.97,-10.28,4.18,9.96,5.13
7,-132,-478,-27,-107,3779,0.53,-0.85,-29.90,-0.27,-1.07,37.79,-5.42,1.95,-10.16,1.59,29.83,14.26
16,-168,-499,-3,-117,3710,0.58,-1.79,-29.96,-0.03,-1.17,37.10,-5.41,1.92,-10.05,-0.53,35.45,15.98
-119,-193,-617,158,-376,4006,-0.21,-2.79,-30.73,1.58,-3.76,40.06,-5.41,1.88,-9.93,30.84,38.05,25.27
-300,-232,-642,181,-375,4089,-2.02,-3.92,-31.57,1.81,-3.75,40.89,-5.42,1.83,-9.80,70.04,43.70,26.61
-49,-115,-709,159,-379,4012,-2.11,-4.23,-32.74,1.59,-3.79,40.12,-5.43,1.79,-9.67,5.88,12.81,31.22
-38,-65,-729,99,-460,3893,-2.13,-4.20,-33.91,0.99,-4.60,38.93,-5.45,1.74,-9.54,3.01,0.21,31.84
4,-30,-778,73,-377,3926,-1.90,-3.97,-35.27,0.73,-3.77,39.26,-5.47,1.69,-9.40,-6.77,-7.78,34.75
15,-17,-803,12,-406,3927,-1.61,-3.67,-36.64,0.12,-4.06,39.27,-5.48,1.64,-9.25,-8.50,-9.97,35.61
16,-17,-831,-3,-347,3868,-1.36,-3.41,-38.04,-0.03,-3.47,38.68,-5.49,1.60,-9.10,-7.78,-8.96,36.70
-3,-14,-836,-9,-400,3926,-1.24,-3.15,-39.34,-0.09,-4.00,39.26,-5.50,1.55,-8.95,-2.51,-8.75,35.93
28,-13,-864,-73,-325,3911,-0.94,-2.92,-40.67,-0.73,-3.25,39.11,-5.49,1.52,-8.79,-9.28,-8.11,37.08
14,-15,-875,-68,-367,3952,-0.76,-2.72,-41.94,-0.68,-3.67,39.52,-5.49,1.47,-8.62,-5.05,-6.84,36.85
10,-25,-916,-27,-439,4020,-0.63,-2.60,-43.34,-0.27,-4.39,40.20,-5.51,1.43,-8.45,-3.51,-3.84,39.04
32,-25,-929,-45,-434,3864,-0.37,-2.49,-44.67,-0.45,-4.34,38.64,-5.53,1.39,-8.27,-8.12,-3.42,38.92
13,-21,-976,-64,-470,3847,-0.25,-2.37,-46.16,-0.64,-4.70,38.47,-5.55,1.36,-8.09,-2.85,-3.98,41.54
-1,-14,-989,-66,-475,3906,-0.23,-2.22,-47.57,-0.66,-4.75,39.06,-5.58,1.33,-7.90,0.78,-5.18,41.34
28,-11,-1025,-22,-419,3915,-0.04,-2.06,-49.07,-0.22,-4.19,39.15,-5.59,1.28,-7.71,-5.85,-5.35,43.02
13,-20,-1052,-46,-498,3954,0.04,-1.98,-50.58,-0.46,-4.98,39.54,-5.61,1.25,-7.51,-1.72,-2.73,43.92
9,-20,-1124,-145,-620,4032,0.09,-1.90,-52.38,-1.45,-6.20,40.32,-5.63,1.22,-7.30,-0.51,-2.44,48.37
16,-26,-1145,-98,-622,3882,0.18,-1.87,-54.12,-0.98,-6.22,38.82,-5.65,1.20,-7.08,-1.95,-0.79,48.55
17,-25,-1206,-66,-683,3942,0.27,-1.84,-56.07,-0.66,-6.83,39.42,-5.68,1.17,-6.86,-1.88,-0.91,51.94
5,-17,-1207,-75,-690,3846,0.27,-1.76,-57.82,-0.75,-6.90,38.46,-5.70,1.14,-6.63,1.19,-2.63,50.41
7,-10,-1173,-56,-635,3921,0.29,-1.64,-59.20,-0.56,-6.35,39.21,-5.72,1.10,-6.39,0.74,-3.97,46.27
21,-12,-1150,-68,-636,3985,0.39,-1.55,-60.29,-0.68,-6.36,39.85,-5.74,1.07,-6.15,-2.43,-3.11,43.30
1,0,-1038,47,-511,4019,0.35,-1.40,-60.60,0.47,-5.11,40.19,-5.76,1.03,-5.91,2.53,-5.57,33.52
13,-13,-998,-111,-394,3936,0.40,-1.34,-60.62,-1.11,-3.94,39.36,-5.76,1.02,-5.67,-0.36,-2.04,30.09
5,-18,-908,-253,-292,3900,0.39,-1.31,-60.10,-2.53,-2.92,39.00,-5.75,1.00,-5.43,1.64,-0.67,22.92
10,-15,-886,-198,-279,3979,0.41,-1.27,-59.49,-1.98,-2.79,39.79,-5.74,0.99,-5.20,0.45,-1.28,21.59
31,-9,-910,-189,-227,3945,0.56,-1.20,-59.10,-1.89,-2.27,39.45,-5.73,0.97,-4.96,-4.33,-2.53,23.96
18,-3,-922,-225,-239,3933,0.61,-1.10,-58.81,-2.25,-2.39,39.33,-5.72,0.96,-4.73,-0.83,-3.67,25.22
17,-4,-981,-202,-299,3930,0.66,-1.01,-58.91,-2.02,-2.99,39.30,-5.71,0.94,-4.50,-0.42,-3.09,30.11
28,-8,-1003,-217,-327,3958,0.76,-0.96,-59.14,-2.17,-3.27,39.58,-5.70,0.93,-4.26,-2.82,-1.87,31.75
9,1,-1079,-190,-387,3933,0.74,-0.86,-59.81,-1.90,-3.87,39.33,-5.70,0.92,-4.02,1.93,-3.77,37.56
12,-2,-1101,-173,-403,3954,0.74,-0.78,-60.54,-1.73,-4.03,39.54,-5.70,0.92,-3.78,1.17,-2.73,38.74
31,29,-1197,-190,-319,3954,0.85,-0.53,-61.79,-1.90,-3.19,39.54,-5.69,0.91,-3.54,-3.23,-9.65,45.72
16,1,-1227,-177,-397,3933,0.87,-0.47,-63.10,-1.77,-3.97,39.33,-5.70,0.90,-3.29,0.63,-2.31,47.05
4,-20,-1329,-122,-335,3902,0.80,-0.55,-64.89,-1.22,-3.35,39.02,-5.68,0.88,-3.03,3.44,2.75,54.04
5,-23,-1376,71,-490,3920,0.75,-0.63,-66.80,0.71,-4.90,39.20,-5.70,0.84,-2.76,3.00,3.20,56.27
-2,6,-1400,-146,-544,4039,0.67,-0.53,-68.66,-1.46,-5.44,40.39,-5.71,0.82,-2.49,4.46,-3.79,56.59
29,21,-1381,-112,-528,3935,0.78,-0.35,-70.22,-1.12,-5.28,39.35,-5.73,0.80,-2.21,-3.00,-6.91,53.54
103,71,-1294,-186,-570,3877,1.33,0.12,-71.09,-1.86,-5.70,38.77,-5.74,0.78,-1.93,-19.74,-17.86,45.35
141,119,-1264,-157,-601,3871,2.05,0.83,-71.69,-1.57,-6.01,38.71,-5.76,0.76,-1.64,-26.66,-27.37,42.24
78,55,-1159,-64,-500,3936,2.32,1.08,-71.59,-0.64,-5.00,39.36,-5.77,0.74,-1.35,-9.62,-10.14,33.41
44,46,-1140,-156,-530,3938,2.36,1.26,-71.39,-1.56,-5.30,39.38,-5.78,0.73,-1.07,-0.84,-7.21,31.96
16,40,-1096,-240,-495,3944,2.22,1.37,-70.93,-2.40,-4.95,39.44,-5.78,0.72,-0.79,5.75,-5.23,28.62
18,37,-1094,-252,-480,3968,2.11,1.46,-70.51,-2.52,-4.80,39.68,-5.78,0.71,-0.51,4.82,-4.14,28.80
5,22,-1131,-257,-454,3900,1.93,1.45,-70.36,-2.57,-4.54,39.00,-5.78,0.71,-0.23,7.45,-0.37,32.05
1,-4,-1161,-222,-442,3926,1.74,1.28,-70.41,-2.22,-4.42,39.26,-5.78,0.70,0.06,7.76,5.60,34.52
22,-36,-1248,-210,-381,3965,1.70,0.93,-70.98,-2.10,-3.81,39.65,-5.78,0.70,0.34,2.27,12.43,41.35
-13,-33,-1284,-320,-350,3845,1.45,0.64,-71.71,-3.20,-3.50,38.45,-5.77,0.69,0.62,10.23,10.56,43.71
7,-55,-1403,-251,-368,3910,1.35,0.24,-73.10,-2.51,-3.68,39.10,-5.77,0.68,0.92,4.76,14.65,52.51
15,-63,-1435,-312,-324,3905,1.31,-0.17,-74.54,-3.12,-3.24,39.05,-5.76,0.67,1.21,2.56,15.15,53.88
14,-48,-1506,-203,-345,3976,1.26,-0.44,-76.28,-2.03,-3.45,39.76,-5.75,0.65,1.52,2.64,10.30,58.30
23,-35,-1519,-77,-354,4023,1.28,-0.61,-77.91,-0.77,-3.54,40.23,-5.74,0.63,1.82,0.40,6.37,57.88
22,17,-1538,-51,-366,4060,1.28,-0.45,-79.50,-0.51,-3.66,40.60,-5.72,0.60,2.14,0.68,-6.22,58.02
16,80,-1530,-16,-316,3952,1.25,0.08,-80.89,-0.16,-3.16,39.52,-5.70,0.56,2.46,2.08,-20.22,56.06
21,164,-1455,-76,-294,3947,1.25,1.08,-81.67,-0.76,-2.94,39.47,-5.68,0.54,2.79,0.82,-37.83,48.96
10,164,-1420,-8,-371,3808,1.19,1.97,-82.17,-0.08,-3.71,38.08,-5.67,0.49,3.12,3.37,-34.46,45.52
-16,176,-1371,-131,-199,3901,0.97,2.85,-82.31,-1.31,-1.99,39.01,-5.66,0.48,3.44,9.16,-34.21,41.21
-22,157,-1351,-239,-238,3830,0.74,3.52,-82.32,-2.39,-2.38,38.30,-5.64,0.48,3.77,9.81,-26.85,39.47
-1,63,-1321,-165,-187,3844,0.66,3.55,-82.15,-1.65,-1.87,38.44,-5.63,0.47,4.10,4.17,-2.83,37.06
-2,39,-1320,-233,-191,3767,0.58,3.43,-81.99,-2.33,-1.91,37.67,-5.62,0.47,4.43,4.12,2.83,37.09
11,-82,-1329,-217,-267,3641,0.59,2.59,-81.90,-2.17,-2.67,36.41,-5.61,0.46,4.76,0.85,30.41,37.91
-8,-106,-1332,-293,-328,3779,0.48,1.68,-81.83,-2.93,-3.28,37.79,-5.61,0.45,5.08,5.27,33.10,38.19
27,-196,-1336,-137,-426,3869,0.60,0.32,-81.80,-1.37,-4.26,38.69,-5.62,0.44,5.41,-3.19,50.85,38.53
-7,-168,-1343,-158,-457,4163,0.50,-0.74,-81.81,-1.58,-4.57,41.63,-5.62,0.42,5.73,5.07,39.76,39.09
-10,-116,-1357,60,-514,3871,0.39,-1.37,-81.91,0.60,-5.14,38.71,-5.64,0.37,6.06,5.42,24.17,40.15
-1,-131,-1296,44,-572,3955,0.34,-2.03,-81.62,0.44,-5.72,39.55,-5.66,0.33,6.38,2.97,25.50,35.22
6,-120,-1214,22,-457,3849,0.34,-2.56,-80.86,0.22,-4.57,38.49,-5.67,0.28,6.70,1.20,20.73,28.93
9,-119,-1174,-55,-518,3925,0.36,-3.03,-79.94,-0.55,-5.18,39.25,-5.69,0.24,7.02,0.52,18.72,26.35
-17,-97,-1070,24,-481,4018,0.22,-3.32,-78.47,0.24,-4.81,40.18,-5.71,0.18,7.33,6.61,12.05,18.84
-74,-118,-1045,98,-571,4145,-0.25,-3.71,-77.00,0.98,-5.71,41.45,-5.72,0.13,7.64,19.31,15.94,18.03
1,-17,-927,2,-528,4033,-0.22,-3.44,-74.95,0.02,-5.28,40.33,-5.74,0.08,7.94,0.37,-8.71,9.86
-12,-42,-890,-18,-592,4036,-0.27,-3.35,-72.89,-0.18,-5.92,40.36,-5.76,0.04,8.22,3.49,-2.02,8.58
12,-12,-764,-171,-547,3966,-0.17,-3.09,-70.26,-1.71,-5.47,39.66,-5.77,0.02,8.50,-2.23,-8.65,0.26
-23,-37,-739,-46,-503,3937,-0.29,-3.01,-67.74,-0.46,-5.03,39.37,-5.79,-0.02,8.77,6.20,-1.98,0.40
-15,-25,-655,-82,-482,3945,-0.35,-2.86,-64.96,-0.82,-4.82,39.45,-5.81,-0.04,9.03,3.94,-4.46,-4.22
59,41,-626,-4,-476,3893,0.04,-2.32,-62.29,-0.04,-4.76,38.93,-5.82,-0.07,9.27,-13.38,-19.21,-4.26
-8,3,-603,-225,-444,3884,-0.01,-2.07,-59.74,-2.25,-4.44,38.84,-5.83,-0.09,9.51,3.46,-8.61,-3.92
-6,-2,-598,-222,-423,3927,-0.05,-1.88,-57.41,-2.22,-4.23,39.27,-5.83,-0.10,9.74,2.81,-6.60,-2.25
22,35,-587,24,-434,3984,0.09,-1.48,-55.25,0.24,-4.34,39.84,-5.84,-0.14,9.96,-3.78,-14.48,-1.25
-29,33,-587,-3,-369,4146,-0.09,-1.13,-53.30,-0.03,-3.69,41.46,-5.83,-0.16,10.17,8.48,-12.66,0.50
-162,-14,-575,-14,-328,3871,-1.07,-1.10,-51.48,-0.14,-3.28,38.71,-5.81,-0.18,10.37,38.60,-0.60,1.12
-15,58,-589,-57,-330,3679,-1.06,-0.64,-49.93,-0.57,-3.30,36.79,-5.81,-0.19,10.57,1.30,-17.16,3.70
76,91,-638,-23,-180,3741,-0.49,-0.02,-48.83,-0.23,-1.80,37.41,-5.79,-0.20,10.77,-19.69,-23.21,8.83
129,149,-647,-72,-162,3798,0.35,0.89,-47.89,-0.72,-1.62,37.98,-5.77,-0.21,10.96,-30.03,-34.53,10.42
102,111,-658,-165,-167,3816,0.93,1.48,-47.11,-1.65,-1.67,38.16,-5.75,-0.21,11.15,-20.96,-22.66,12.04
134,97,-667,-179,-184,3980,1.66,1.92,-46.47,-1.79,-1.84,39.80,-5.73,-0.21,11.33,-26.37,-17.43,13.37
32,22,-728,-89,-214,3951,1.69,1.87,-46.27,-0.89,-2.14,39.51,-5.71,-0.22,11.52,-0.34,1.41,18.71
27,11,-757,-101,-241,3923,1.68,1.75,-46.26,-1.01,-2.41,39.23,-5.69,-0.22,11.70,0.91,3.76,21.16
13,-10,-862,-29,-282,3942,1.59,1.51,-46.89,-0.29,-2.82,39.42,-5.66,-0.22,11.89,4.13,8.21,29.46
1,-11,-887,-8,-298,3934,1.44,1.29,-47.61,-0.08,-2.98,39.34,-5.64,-0.23,12.08,6.59,7.65,30.91
-53,-53,-971,73,-401,3874,0.97,0.84,-48.77,0.73,-4.01,38.74,-5.64,-0.26,12.27,18.56,16.63,36.95
-69,-83,-1000,41,-437,3928,0.46,0.25,-50.00,0.41,-4.37,39.28,-5.65,-0.29,12.47,20.68,22.04,38.28
-104,-155,-1085,131,-457,3819,-0.22,-0.72,-51.61,1.31,-4.57,38.19,-5.66,-0.33,12.68,27.02,36.70,44.00
-62,-156,-1114,17,-325,3883,-0.58,-1.60,-53.25,0.17,-3.25,38.83,-5.65,-0.35,12.89,15.00,33.65,44.95
23,-187,-1132,109,-377,3815,-0.38,-2.58,-54.83,1.09,-3.77,38.15,-5.65,-0.40,13.11,-5.86,37.85,45.02
20,-163,-1142,95,-324,4069,-0.22,-3.32,-56.31,0.95,-3.24,40.69,-5.63,-0.45,13.33,-4.50,28.99,44.50
32,-43,-1244,288,-347,4042,-0.00,-3.25,-58.27,2.88,-3.47,40.42,-5.63,-0.51,13.56,-6.73,-1.24,51.35
18,-36,-1288,208,-424,3985,0.11,-3.14,-60.30,2.08,-4.24,39.85,-5.63,-0.56,13.80,-2.76,-2.61,53.21
37,-21,-1448,80,-431,4023,0.32,-2.96,-63.10,0.80,-4.31,40.23,-5.63,-0.61,14.05,-6.77,-5.71,64.20
23,-4,-1492,28,-436,3998,0.43,-2.69,-65.89,0.28,-4.36,39.98,-5.65,-0.64,14.31,-2.81,-9.00,65.37
0,11,-1572,-23,-433,4082,0.39,-2.35,-68.89,-0.23,-4.33,40.82,-5.65,-0.66,14.58,2.88,-11.55,69.40
-26,25,-1560,-194,-464,4018,0.19,-1.96,-71.52,-1.94,-4.64,40.18,-5.65,-0.68,14.87,8.75,-13.64,65.98
-44,17,-1428,-322,-739,3693,-0.10,-1.66,-73.08,-3.22,-7.39,36.93,-5.66,-0.70,15.16,12.24,-10.47,53.35
23,81,-1394,-464,-683,3623,0.05,-1.00,-74.27,-4.64,-6.83,36.23,-5.67,-0.72,15.45,-4.22,-24.25,49.36
94,103,-1240,-199,-577,3825,0.62,-0.27,-74.41,-1.99,-5.77,38.25,-5.67,-0.73,15.75,-20.13,-27.10,36.16
68,68,-1161,-172,-560,3991,0.97,0.17,-74.05,-1.72,-5.60,39.91,-5.67,-0.75,16.04,-12.19,-16.54,29.77
42,27,-990,-281,-502,3950,1.13,0.32,-72.69,-2.81,-5.02,39.50,-5.67,-0.76,16.33,-4.99,-5.56,16.49
31,17,-947,-272,-562,3982,1.21,0.39,-71.19,-2.72,-5.62,39.82,-5.67,-0.77,16.62,-1.90,-2.74,14.18
49,44,-834,-312,-568,3939,1.39,0.62,-69.16,-3.12,-5.68,39.39,-5.67,-0.78,16.89,-5.81,-8.74,6.42
82,59,-803,-306,-565,3952,1.75,0.92,-67.14,-3.06,-5.65,39.52,-5.67,-0.78,17.16,-12.84,-11.43,5.60
80,90,-712,-313,-544,3908,2.06,1.37,-64.77,-3.13,-5.44,39.08,-5.66,-0.79,17.42,-11.15,-17.58,0.02
43,78,-701,-256,-493,3988,2.12,1.71,-62.57,-2.56,-4.93,39.88,-5.66,-0.79,17.67,-1.54,-13.26,1.07
-6,95,-690,-191,-482,3967,1.87,2.12,-60.52,-1.91,-4.82,39.67,-5.65,-0.79,17.91,9.98,-16.05,1.97
-16,93,-694,-250,-490,3919,1.58,2.48,-58.70,-2.50,-4.90,39.19,-5.65,-0.78,18.14,11.45,-14.20,3.94
-16,68,-674,-323,-373,3974,1.33,2.64,-56.95,-3.23,-3.73,39.74,-5.64,-0.77,18.37,10.49,-7.22,3.82
-15,74,-656,-249,-432,3910,1.10,2.83,-55.25,-2.49,-4.32,39.10,-5.63,-0.77,18.59,9.39,-8.04,3.81
-9,93,-618,-89,-337,3973,0.94,3.11,-53.50,-0.89,-3.37,39.73,-5.62,-0.76,18.81,7.24,-11.80,2.16
-16,110,-603,-104,-344,4006,0.75,3.47,-51.83,-1.04,-3.44,40.06,-5.61,-0.75,19.01,8.29,-14.78,2.39
19,142,-561,-137,-379,3997,0.79,3.99,-50.07,-1.37,-3.79,39.97,-5.60,-0.73,19.22,-0.45,-20.96,0.41
6,145,-552,-116,-299,3992,0.75,4.48,-48.43,-1.16,-2.99,39.92,-5.59,-0.72,19.41,2.69,-19.90,1.12
0,168,-521,-23,-323,3908,0.67,5.05,-46.76,-0.23,-3.23,39.08,-5.57,-0.70,19.60,3.93,-23.58,-0.01
-4,165,-510,-82,-317,3876,0.58,5.56,-45.20,-0.82,-3.17,38.76,-5.56,-0.68,19.78,4.60,-20.94,0.46
2,147,-454,-179,-260,3866,0.53,5.90,-43.45,-1.79,-2.60,38.66,-5.55,-0.66,19.96,2.90,-15.08,-2.72
5,135,-435,-184,-271,3872,0.51,6.13,-41.75,-1.84,-2.71,38.72,-5.54,-0.63,20.12,2.05,-11.16,-2.81
-6,101,-388,-280,-231,3813,0.42,6.13,-39.95,-2.80,-2.31,38.13,-5.52,-0.61,20.29,4.51,-2.51,-5.16
-5,91,-387,-276,-220,3952,0.35,6.08,-38.31,-2.76,-2.20,39.52,-5.51,-0.58,20.44,3.98,-0.20,-3.78
4,66,-443,-164,-238,3948,0.34,5.87,-37.18,-1.64,-2.38,39.48,-5.50,-0.56,20.59,1.65,5.38,1.98
-1,61,-468,-126,-233,3857,0.30,5.66,-36.32,-1.26,-2.33,38.57,-5.49,-0.53,20.74,2.77,5.83,4.86
-9,46,-538,-41,-329,3938,0.21,5.37,-35.97,-0.41,-3.29,39.38,-5.47,-0.51,20.88,4.48,8.57,11.10
-28,71,-554,-178,-279,3875,0.02,5.27,-35.75,-1.78,-2.79,38.75,-5.46,-0.49,21.03,8.58,1.82,12.64
8,74,-557,-120,-262,3985,0.07,5.19,-35.57,-1.20,-2.62,39.85,-5.45,-0.47,21.17,-0.39,0.77,13.04
-3,51,-551,-141,-210,4016,0.04,4.98,-35.38,-1.41,-2.10,40.16,-5.44,-0.45,21.31,2.30,5.83,12.70
-1,19,-547,-283,-201,3821,0.03,4.60,-35.18,-2.83,-2.01,38.21,-5.43,-0.43,21.46,1.75,12.52,12.53
-18,5,-546,-297,-224,3828,-0.08,4.17,-34.99,-2.97,-2.24,38.28,-5.42,-0.40,21.60,5.65,14.45,12.60
-10,-44,-559,-378,-166,3883,-0.13,3.49,-34.90,-3.78,-1.66,38.83,-5.41,-0.39,21.74,3.41,24.32,13.77
-22,-63,-579,-273,-184,3826,-0.25,2.75,-34.94,-2.73,-1.84,38.26,-5.40,-0.37,21.88,6.00,26.39,15.41
-31,-92,-662,-95,-260,3957,-0.42,1.92,-35.49,-0.95,-2.60,39.57,-5.39,-0.37,22.02,7.67,30.61,21.94
-28,-97,-691,-109,-208,3944,-0.55,1.13,-36.15,-1.09,-2.08,39.44,-5.38,-0.36,22.16,6.42,28.94,23.78
14,-102,-764,-73,-172,3994,-0.41,0.40,-37.20,-0.73,-1.72,39.94,-5.36,-0.37,22.31,-3.73,27.44,29.00
5,-105,-777,-84,-88,3963,-0.34,-0.28,-38.22,-0.84,-0.88,39.63,-5.35,-0.38,22.47,-1.18,25.64,29.16
-29,-116,-817,-73,-116,3782,-0.48,-0.96,-39.38,-0.73,-1.16,37.82,-5.33,-0.39,22.62,6.92,25.89,31.48
-36,-138,-839,-78,-124,3784,-0.65,-1.71,-40.56,-0.78,-1.24,37.84,-5.31,-0.40,22.78,8.05,28.68,32.26
-24,-185,-838,-115,-94,3906,-0.73,-2.67,-41.62,-1.15,-0.94,39.06,-5.30,-0.42,22.95,4.69,37.02,31.20
-26,-194,-827,-141,-123,3850,-0.82,-3.58,-42.50,-1.41,-1.23,38.50,-5.29,-0.44,23.12,4.87,35.87,29.45
-7,-243,-773,-22,-288,3999,-0.78,-4.71,-42.96,-0.22,-2.88,39.99,-5.27,-0.46,23.29,0.19,44.10,24.44
26,-235,-674,97,-508,3978,-0.54,-5.67,-42.78,0.97,-5.08,39.78,-5.29,-0.51,23.45,-7.31,38.45,16.20
12,-180,-423,-78,-655,3956,-0.41,-6.20,-41.08,-0.78,-6.55,39.56,-5.31,-0.54,23.61,-3.27,22.48,-3.54
32,-180,-364,-90,-694,3954,-0.18,-6.68,-39.19,-0.90,-6.94,39.54,-5.32,-0.58,23.77,-7.45,20.69,-6.84
-39,-158,-203,-46,-592,4187,-0.40,-6.97,-36.51,-0.46,-5.92,41.87,-5.34,-0.61,23.91,9.77,14.00,-18.06
-126,-208,-172,-5,-578,4178,-1.13,-7.55,-33.91,-0.05,-5.78,41.78,-5.36,-0.65,24.04,29.14,24.56,-18.33
-194,-200,-147,-50,-389,4042,-2.20,-8.01,-31.42,-0.50,-3.89,40.42,-5.37,-0.68,24.17,42.40,20.79,-18.20
-220,-239,-148,69,-268,3942,-3.32,-8.67,-29.18,0.69,-2.68,39.42,-5.37,-0.72,24.28,44.78,28.24,-16.09
-46,-75,-189,267,72,4044,-3.27,-8.26,-27.41,2.67,0.72,40.44,-5.36,-0.78,24.38,0.75,-11.89,-11.03
-37,-46,-243,260,148,3891,-3.17,-7.71,-26.15,2.60,1.48,38.91,-5.35,-0.82,24.49,-1.16,-17.20,-5.32
-16,-34,-520,53,159,3861,-2.95,-7.15,-26.71,0.53,1.59,38.61,-5.35,-0.86,24.59,-5.67,-18.12,17.63
-5,-42,-695,-56,99,3960,-2.68,-6.69,-28.28,-0.56,0.99,39.60,-5.34,-0.89,24.70,-7.48,-14.35,31.03
8,-20,-1045,-102,-36,3989,-2.37,-6.14,-31.83,-1.02,-0.36,39.89,-5.33,-0.92,24.83,-9.59,-17.88,57.45
15,-56,-1117,28,-143,4152,-2.04,-5.87,-35.46,0.28,-1.43,41.52,-5.32,-0.96,24.96,-10.14,-7.69,60.24
-2,-159,-1257,147,-311,4234,-1.85,-6.25,-39.58,1.47,-3.11,42.34,-5.31,-1.01,25.12,-5.10,17.06,68.35
26,-114,-1266,203,-317,3784,-1.50,-6.32,-43.34,2.03,-3.17,37.84,-5.31,-1.07,25.29,-10.92,5.37,65.68
20,-46,-1237,-190,-443,3991,-1.23,-5.97,-46.55,-1.90,-4.43,39.91,-5.31,-1.09,25.47,-8.37,-10.58,60.29
18,-32,-1227,-212,-509,3802,-1.00,-5.57,-49.38,-2.12,-5.09,38.02,-5.32,-1.11,25.67,-6.98,-12.62,56.86
7,-29,-1105,-262,-506,3956,-0.86,-5.19,-51.19,-2.62,-5.06,39.56,-5.33,-1.14,25.87,-3.65,-11.95,44.87
8,-26,-1058,-251,-529,3886,-0.72,-4.83,-52.52,-2.51,-5.29,38.86,-5.34,-1.16,26.08,-3.40,-11.35,39.66
4,-8,-898,-52,-537,3914,-0.62,-4.40,-52.75,-0.52,-5.37,39.14,-5.35,-1.19,26.29,-2.01,-14.28,25.88
-7,-8,-825,-64,-557,3958,-0.61,-4.00,-52.50,-0.64,-5.57,39.58,-5.36,-1.21,26.49,0.86,-12.81,19.90
8,-11,-637,-40,-528,3964,-0.50,-3.67,-51.14,-0.40,-5.28,39.64,-5.37,-1.23,26.69,-2.54,-10.78,5.19
8,6,-589,-82,-556,3979,-0.40,-3.27,-49.62,-0.82,-5.56,39.79,-5.38,-1.25,26.89,-2.17,-13.58,2.49
-1,2,-442,-70,-553,4039,-0.36,-2.93,-47.35,-0.70,-5.53,40.39,-5.39,-1.27,27.08,0.25,-11.29,-7.93
-21,7,-406,-77,-544,3980,-0.46,-2.59,-45.09,-0.77,-5.44,39.80,-5.40,-1.28,27.26,4.99,-11.29,-8.95
-64,26,-311,-71,-522,3900,-0.80,-2.18,-42.48,-0.71,-5.22,39.00,-5.42,-1.29,27.42,14.63,-14.54,-14.64
-68,21,-291,-78,-493,3916,-1.14,-1.83,-40.01,-0.78,-4.93,39.16,-5.43,-1.30,27.58,14.39,-11.97,-14.10
-39,13,-238,-109,-406,3922,-1.26,-1.57,-37.46,-1.09,-4.06,39.22,-5.43,-1.30,27.73,6.55,-8.95,-16.30
-41,9,-224,-122,-376,3898,-1.38,-1.36,-35.08,-1.22,-3.76,38.98,-5.44,-1.30,27.87,6.59,-7.14,-15.33
-6,-1,-204,-34,-266,3887,-1.28,-1.23,-32.82,-0.34,-2.66,38.87,-5.43,-1.31,28.00,-1.93,-4.11,-14.99
24,-7,-209,2,-237,3792,-1.01,-1.15,-30.81,0.02,-2.37,37.92,-5.41,-1.31,28.12,-8.52,-2.28,-12.75
88,-31,-246,18,-230,3894,-0.37,-1.22,-29.23,0.18,-2.30,38.94,-5.40,-1.32,28.24,-22.39,3.54,-8.20
106,-43,-260,17,-241,3954,0.31,-1.36,-27.89,0.17,-2.41,39.54,-5.38,-1.33,28.35,-24.40,6.07,-5.81
25,-35,-322,72,-251,4026,0.43,-1.44,-27.07,0.72,-2.51,40.26,-5.35,-1.34,28.46,-3.36,3.74,0.19
32,-30,-342,99,-260,3839,0.59,-1.48,-26.45,0.99,-2.60,38.39,-5.33,-1.36,28.56,-4.58,2.33,2.43
16,-20,-425,1,-375,3904,0.63,-1.45,-26.39,0.01,-3.75,39.04,-5.33,-1.36,28.67,-0.36,-0.11,9.50
2,-23,-445,-37,-415,3898,0.58,-1.45,-26.47,-0.37,-4.15,38.98,-5.33,-1.35,28.77,3.01,0.67,11.12
7,-21,-499,-30,-420,3855,0.56,-1.43,-26.87,-0.30,-4.20,38.55,-5.33,-1.35,28.88,1.68,0.22,15.33
27,-18,-505,-33,-394,3933,0.67,-1.40,-27.26,-0.33,-3.94,39.33,-5.33,-1.35,28.99,-3.00,-0.42,15.47
51,-21,-521,-94,-418,3943,0.91,-1.39,-27.71,-0.94,-4.18,39.43,-5.33,-1.35,29.10,-8.18,0.39,16.40
40,-19,-531,-102,-445,3960,1.07,-1.36,-28.18,-1.02,-4.45,39.60,-5.33,-1.35,29.21,-4.81,-0.04,16.82
91,-24,-558,-111,-503,3860,1.51,-1.37,-28.77,-1.11,-5.03,38.60,-5.33,-1.35,29.32,-16.08,1.20,18.56
103,-11,-566,-134,-535,3843,1.99,-1.30,-29.34,-1.34,-5.35,38.43,-5.33,-1.35,29.44,-17.34,-1.84,18.71
94,-27,-573,-160,-462,4045,2.37,-1.34,-29.90,-1.60,-4.62,40.45,-5.33,-1.35,29.56,-13.64,2.10,18.78
56,-30,-575,-159,-570,3983,2.47,-1.39,-30.42,-1.59,-5.70,39.83,-5.32,-1.35,29.68,-3.59,2.67,18.47
26,-16,-573,-36,-568,3966,2.38,-1.35,-30.87,-0.36,-5.68,39.66,-5.33,-1.36,29.80,3.70,-0.73,17.88
27,-13,-565,2,-539,3942,2.31,-1.29,-31.23,0.02,-5.39,39.42,-5.33,-1.37,29.92,3.17,-1.28,16.86
13,-20,-519,-28,-575,3982,2.16,-1.28,-31.28,-0.28,-5.75,39.82,-5.33,-1.37,30.05,6.16,0.53,12.92
11,-38,-500,-4,-623,3970,2.01,-1.39,-31.20,-0.04,-6.23,39.70,-5.34,-1.38,30.17,6.11,4.71,11.36
13,-44,-508,-124,-550,3884,1.89,-1.52,-31.18,-1.24,-5.50,38.84,-5.34,-1.39,30.29,5.15,5.75,12.05
6,-6,-502,-97,-505,3888,1.73,-1.40,-31.12,-0.97,-5.05,38.88,-5.34,-1.39,30.42,6.35,-3.47,11.58
6,4,-455,-134,-439,3990,1.60,-1.24,-30.78,-1.34,-4.39,39.90,-5.34,-1.39,30.54,5.84,-5.40,7.89
12,7,-437,-136,-400,3936,1.51,-1.07,-30.37,-1.36,-4.00,39.36,-5.33,-1.39,30.66,3.99,-5.53,6.73
2,6,-408,-17,-431,3952,1.37,-0.93,-29.82,-0.17,-4.31,39.52,-5.33,-1.39,30.78,6.01,-4.74,4.76
0,4,-406,-24,-404,3914,1.24,-0.81,-29.32,-0.24,-4.04,39.14,-5.33,-1.38,30.89,6.00,-3.79,5.04
11,7,-403,-44,-383,4001,1.18,-0.69,-28.84,-0.44,-3.83,40.01,-5.32,-1.38,31.01,2.99,-4.09,5.21
4,6,-406,-28,-384,3933,1.09,-0.58,-28.44,-0.28,-3.84,39.33,-5.32,-1.37,31.12,4.41,-3.44,5.82
-46,20,-407,-34,-453,3958,0.70,-0.40,-28.08,-0.34,-4.53,39.58,-5.32,-1.37,31.23,15.66,-6.32,6.22
-45,20,-410,-1,-430,3914,0.35,-0.24,-27.77,-0.01,-4.30,39.14,-5.33,-1.37,31.34,14.11,-5.71,6.75
-31,-8,-401,-28,-415,3904,0.13,-0.26,-27.44,-0.28,-4.15,39.04,-5.33,-1.36,31.45,9.71,1.31,6.27
-24,-6,-400,-40,-383,3925,-0.03,-0.27,-27.13,-0.40,-3.83,39.25,-5.33,-1.35,31.56,7.33,0.76,6.45
-43,-6,-334,-98,-329,3889,-0.29,-0.28,-26.46,-0.98,-3.29,38.89,-5.33,-1.35,31.67,11.18,0.72,1.47
-17,-4,-319,-112,-331,3911,-0.37,-0.28,-25.76,-1.12,-3.31,39.11,-5.33,-1.34,31.77,4.29,0.23,0.82
8,-13,-275,-87,-333,3908,-0.28,-0.33,-24.86,-0.87,-3.33,39.08,-5.32,-1.33,31.87,-1.74,2.32,-2.10
6,-15,-271,-72,-354,3974,-0.22,-0.39,-24.03,-0.72,-3.54,39.74,-5.32,-1.32,31.96,-0.99,2.61,-1.69
5,-10,-269,-51,-322,3921,-0.16,-0.41,-23.27,-0.51,-3.22,39.21,-5.31,-1.32,32.06,-0.54,1.25,-1.18
5,0,-269,-24,-346,3894,-0.12,-0.37,-22.58,-0.24,-3.46,38.94,-5.31,-1.31,32.15,-0.37,-1.14,-0.56
-5,22,-278,17,-323,3978,-0.14,-0.20,-22.02,0.17,-3.23,39.78,-5.30,-1.30,32.23,2.10,-6.09,0.70
-1,22,-275,76,-296,3976,-0.13,-0.04,-21.49,0.76,-2.96,39.76,-5.28,-1.30,32.32,1.11,-5.50,0.91
-10,2,-267,-51,-294,3971,-0.18,-0.03,-20.97,-0.51,-2.94,39.71,-5.27,-1.30,32.40,3.21,-0.36,0.70
-46,3,-261,-86,-275,4011,-0.44,-0.01,-20.47,-0.86,-2.75,40.11,-5.26,-1.29,32.49,11.37,-0.54,0.64
-66,7,-276,-89,-211,3828,-0.80,0.04,-20.10,-0.89,-2.11,38.28,-5.25,-1.28,32.57,15.10,-1.39,2.24
-34,-2,-274,-138,-170,3938,-0.93,0.02,-19.77,-1.38,-1.70,39.38,-5.24,-1.27,32.65,6.49,0.83,2.37
-5,-14,-279,-178,-103,3871,-0.86,-0.07,-19.49,-1.78,-1.03,38.71,-5.23,-1.27,32.72,-0.65,3.55,3.03
13,-24,-289,-154,-146,3937,-0.70,-0.21,-19.30,-1.54,-1.46,39.37,-5.22,-1.26,32.80,-4.61,5.57,4.04
347,-95,-363,-285,-173,3780,1.49,-0.77,-19.59,-2.85,-1.73,37.80,-5.20,-1.26,32.88,-81.28,21.51,10.05
208,-109,-386,-237,-247,4168,2.61,-1.35,-19.98,-2.37,-2.47,41.68,-5.18,-1.25,32.96,-41.74,22.85,11.63
30,-47,-485,-29,-349,4053,2.53,-1.51,-20.94,-0.29,-3.49,40.53,-5.17,-1.25,33.04,3.21,6.52,19.14
52,-48,-510,22,-362,4060,2.59,-1.65,-21.96,0.22,-3.62,40.60,-5.15,-1.24,33.13,-2.15,6.24,20.33
45,-77,-528,235,-314,3912,2.61,-1.95,-22.99,2.35,-3.14,39.12,-5.14,-1.28,33.22,-0.31,12.47,20.91
11,-37,-509,148,-307,3765,2.42,-1.98,-23.79,1.48,-3.07,37.65,-5.12,-1.31,33.31,7.59,2.20,18.56
-11,77,-485,22,-286,3939,2.11,-1.31,-24.37,0.22,-2.86,39.39,-5.09,-1.31,33.41,12.02,-24.26,16.00
-18,55,-469,-35,-304,4061,1.79,-0.85,-24.79,-0.35,-3.04,40.61,-5.08,-1.31,33.51,12.59,-16.91,14.25
34,-85,-430,-68,-331,4050,1.82,-1.28,-24.94,-0.68,-3.31,40.50,-5.06,-1.30,33.61,-0.53,17.04,10.80
35,-96,-423,-49,-326,3947,1.85,-1.74,-25.02,-0.49,-3.26,39.47,-5.05,-1.30,33.71,-0.66,18.11,10.12
-1,-7,-447,-35,-388,3797,1.66,-1.61,-25.25,-0.35,-3.88,37.97,-5.05,-1.30,33.81,7.77,-4.02,11.95
0,24,-465,-11,-349,3885,1.49,-1.30,-25.56,-0.11,-3.49,38.85,-5.04,-1.29,33.91,6.89,-10.74,13.18
2,62,-492,173,-427,3936,1.35,-0.79,-26.01,1.73,-4.27,39.36,-5.05,-1.32,34.01,5.87,-18.48,15.05
-13,59,-493,146,-397,3934,1.14,-0.35,-26.41,1.46,-3.97,39.34,-5.05,-1.34,34.12,8.87,-16.06,14.76
3,46,-482,65,-364,3871,1.04,-0.04,-26.71,0.65,-3.64,38.71,-5.06,-1.34,34.22,4.45,-11.57,13.55
-22,42,-476,63,-455,4039,0.81,0.22,-26.94,0.63,-4.55,40.39,-5.07,-1.34,34.33,9.91,-9.57,12.82
-99,17,-457,90,-419,3999,0.12,0.30,-27.04,0.90,-4.19,39.99,-5.08,-1.35,34.44,26.91,-2.91,11.11
-122,13,-451,105,-434,3954,-0.64,0.35,-27.08,1.05,-4.34,39.54,-5.10,-1.36,34.54,29.91,-1.71,10.55
-95,18,-424,47,-314,3784,-1.15,0.43,-26.96,0.47,-3.14,37.84,-5.10,-1.35,34.65,21.11,-2.70,8.37
-54,16,-409,-16,-292,3823,-1.37,0.48,-26.76,-0.16,-2.92,38.23,-5.09,-1.34,34.76,9.88,-1.99,7.27
-11,30,-367,-71,-308,3882,-1.30,0.62,-26.32,-0.71,-3.08,38.82,-5.09,-1.33,34.86,-0.79,-5.04,4.10
-8,27,-376,-70,-307,3901,-1.22,0.72,-25.99,-0.70,-3.07,39.01,-5.09,-1.32,34.97,-1.25,-3.89,5.16
6,8,-448,-73,-353,3979,-1.06,0.70,-26.12,-0.73,-3.53,39.79,-5.09,-1.31,35.07,-4.21,0.85,11.13
10,3,-476,-83,-320,3961,-0.89,0.65,-26.41,-0.83,-3.20,39.61,-5.09,-1.30,35.18,-4.60,1.92,13.22
-18,27,-576,-86,-388,3962,-0.91,0.75,-27.28,-0.86,-3.88,39.62,-5.09,-1.29,35.29,2.44,-3.80,20.89
-39,35,-611,-68,-393,4114,-1.06,0.88,-28.28,-0.68,-3.93,41.14,-5.10,-1.27,35.40,7.22,-5.32,22.94
-39,22,-677,-64,-461,3897,-1.19,0.93,-29.58,-0.64,-4.61,38.97,-5.11,-1.27,35.52,6.73,-1.84,27.34
-34,10,-692,-25,-447,3904,-1.28,0.90,-30.85,-0.25,-4.47,39.04,-5.12,-1.26,35.64,5.13,1.09,27.46
-18,-2,-718,-9,-447,3915,-1.26,0.80,-32.14,-0.09,-4.47,39.15,-5.14,-1.26,35.77,1.14,3.75,28.47
-21,-7,-717,-50,-468,3967,-1.26,0.67,-33.30,-0.50,-4.68,39.67,-5.15,-1.25,35.90,1.89,4.56,27.33
-15,2,-622,-183,-308,3903,-1.23,0.62,-33.77,-1.83,-3.08,39.03,-5.15,-1.24,36.04,0.50,2.06,18.84
-12,-3,-585,-181,-342,3899,-1.18,0.54,-33.96,-1.81,-3.42,38.99,-5.15,-1.23,36.17,-0.08,3.03,15.52
27,-12,-522,-94,-404,3909,-0.90,0.41,-33.75,-0.94,-4.04,39.09,-5.16,-1.23,36.31,-8.92,4.84,10.36
28,-21,-513,-70,-454,3952,-0.64,0.24,-33.50,-0.70,-4.54,39.52,-5.17,-1.22,36.44,-8.20,6.49,9.81
-1,-8,-506,-30,-520,3962,-0.58,0.17,-33.24,-0.30,-5.20,39.62,-5.18,-1.22,36.57,-0.61,2.91,9.45
-4,5,-494,-36,-553,3928,-0.54,0.18,-32.93,-0.36,-5.53,39.28,-5.20,-1.22,36.70,0.29,-0.34,8.70
-10,4,-440,-95,-464,3896,-0.55,0.19,-32.32,-0.95,-4.64,38.96,-5.21,-1.22,36.83,1.79,-0.07,4.67
-4,-4,-424,-68,-476,3935,-0.52,0.15,-31.67,-0.68,-4.76,39.35,-5.22,-1.22,36.96,0.38,1.80,3.88
18,-9,-362,-35,-442,3974,-0.36,0.08,-30.71,-0.35,-4.42,39.74,-5.23,-1.21,37.08,-4.60,2.81,-0.51
22,-11,-348,-10,-454,3858,-0.19,0.00,-29.77,-0.10,-4.54,38.58,-5.24,-1.21,37.20,-4.97,3.04,-0.85
11,-15,-313,140,-355,3967,-0.10,-0.09,-28.70,1.40,-3.55,39.67,-5.23,-1.24,37.31,-1.86,3.72,-2.85
11,-8,-299,93,-319,4005,-0.03,-0.13,-27.65,0.93,-3.19,40.05,-5.21,-1.25,37.42,-1.57,1.79,-3.10
-9,-3,-220,-9,-273,3870,-0.08,-0.14,-26.23,-0.09,-2.73,38.70,-5.20,-1.25,37.53,3.31,0.50,-8.51
-1,5,-205,7,-269,3856,-0.08,-0.09,-24.86,0.07,-2.69,38.56,-5.18,-1.25,37.63,1.28,-1.37,-8.55
20,-14,-199,56,-334,3947,0.05,-0.17,-23.58,0.56,-3.34,39.47,-5.17,-1.24,37.72,-3.57,3.17,-7.91
24,-24,-195,42,-357,3950,0.19,-0.30,-22.42,0.42,-3.57,39.50,-5.17,-1.23,37.81,-4.06,5.22,-7.19
13,-13,-208,-11,-348,3901,0.25,-0.35,-21.44,-0.11,-3.48,39.01,-5.16,-1.22,37.90,-1.04,2.24,-5.22
13,-6,-207,0,-343,3923,0.31,-0.35,-20.56,0.00,-3.43,39.23,-5.16,-1.21,37.98,-0.84,0.45,-4.51
15,-5,-200,24,-352,3921,0.37,-0.34,-19.73,0.24,-3.52,39.21,-5.15,-1.20,38.06,-1.12,0.21,-4.35
14,-8,-194,-21,-390,3931,0.42,-0.36,-18.94,-0.21,-3.90,39.31,-5.16,-1.19,38.13,-0.68,0.92,-4.15
2,4,-161,-61,-340,3961,0.39,-0.30,-18.02,-0.61,-3.40,39.61,-5.15,-1.18,38.20,2.26,-1.91,-6.13
-3,5,-147,-64,-342,3976,0.33,-0.24,-17.12,-0.64,-3.42,39.76,-5.15,-1.17,38.27,3.31,-1.94,-6.50
-12,8,-95,-87,-319,3923,0.22,-0.17,-15.99,-0.87,-3.19,39.23,-5.14,-1.16,38.33,5.20,-2.43,-9.88
-4,11,-87,-93,-343,3878,0.18,-0.08,-14.92,-0.93,-3.43,38.78,-5.14,-1.15,38.39,2.99,-2.88,-9.59
0,8,-59,-68,-382,3919,0.16,-0.02,-13.79,-0.68,-3.82,39.19,-5.14,-1.13,38.45,1.91,-1.91,-10.94
0,-1,-47,-26,-374,3899,0.14,-0.03,-12.69,-0.26,-3.74,38.99,-5.14,-1.12,38.50,1.85,0.36,-10.97
0,10,-39,0,-411,3905,0.13,0.04,-11.66,0.00,-4.11,39.05,-5.15,-1.11,38.55,1.79,-2.20,-10.72
-5,5,-46,7,-411,3989,0.09,0.06,-10.78,0.07,-4.11,39.89,-5.16,-1.10,38.59,2.90,-0.83,-9.33
-4,0,-68,37,-362,3962,0.05,0.06,-10.11,0.37,-3.62,39.62,-5.16,-1.08,38.63,2.53,0.42,-6.87
-4,1,-70,73,-333,3909,0.02,0.06,-9.53,0.73,-3.33,39.09,-5.14,-1.09,38.67,2.41,0.17,-6.17
-9,5,-83,70,-360,3899,-0.03,0.08,-9.08,0.70,-3.60,38.99,-5.16,-1.08,38.70,3.47,-0.76,-4.67
-13,7,-87,62,-368,3931,-0.11,0.12,-8.71,0.62,-3.68,39.31,-5.17,-1.07,38.74,4.20,-1.14,-3.99
-6,-1,-87,97,-205,3931,-0.14,0.10,-8.37,0.97,-2.05,39.31,-5.15,-1.08,38.77,2.32,0.83,-3.68
0,-7,-75,107,-202,3864,-0.12,0.05,-7.99,1.07,-2.02,38.64,-5.14,-1.08,38.80,0.84,2.16,-4.36
56,-29,-41,56,-260,3864,0.23,-0.14,-7.44,0.56,-2.60,38.64,-5.12,-1.08,38.83,-12.06,7.07,-6.74
72,-34,-32,16,-307,3919,0.65,-0.33,-6.89,0.16,-3.07,39.19,-5.10,-1.07,38.86,-14.57,7.61,-7.01
51,-28,-36,-42,-352,3978,0.89,-0.47,-6.42,-0.42,-3.52,39.78,-5.10,-1.06,38.89,-8.30,5.56,-6.25
45,-27,-41,-41,-362,3964,1.08,-0.59,-6.03,-0.41,-3.62,39.64,-5.10,-1.05,38.91,-6.08,4.86,-5.47
12,-15,-67,20,-361,3963,1.04,-0.62,-5.83,0.20,-3.61,39.63,-5.09,-1.03,38.93,2.17,1.68,-3.09
5,-13,-69,22,-319,3904,0.97,-0.64,-5.67,0.22,-3.19,39.04,-5.08,-1.02,38.96,3.67,1.10,-2.78
2,-8,-53,11,-329,3917,0.89,-0.62,-5.43,0.11,-3.29,39.17,-5.07,-1.01,38.98,4.11,-0.12,-3.92
1,-8,-48,7,-326,3946,0.80,-0.61,-5.18,0.07,-3.26,39.46,-5.06,-0.99,39.00,4.05,-0.07,-4.11
0,-6,-39,0,-340,3941,0.72,-0.58,-4.90,0.00,-3.40,39.41,-5.05,-0.98,39.02,4.00,-0.49,-4.62
-1,-5,-39,5,-361,3942,0.64,-0.56,-4.65,0.05,-3.61,39.42,-5.05,-0.97,39.04,3.96,-0.64,-4.40
0,1,-54,4,-372,3946,0.58,-0.49,-4.51,0.04,-3.72,39.46,-5.06,-0.95,39.05,3.47,-1.94,-3.01
1,4,-48,-7,-362,3944,0.53,-0.42,-4.35,-0.07,-3.62,39.44,-5.06,-0.94,39.07,3.02,-2.43,-3.37
2,3,-31,2,-356,3955,0.49,-0.36,-4.11,0.02,-3.56,39.55,-5.06,-0.92,39.09,2.61,-1.95,-4.59
2,1,-30,6,-365,3922,0.45,-0.32,-3.88,0.06,-3.65,39.22,-5.06,-0.91,39.10,2.47,-1.29,-4.47
4,3,-30,-2,-359,3929,0.43,-0.27,-3.67,-0.02,-3.59,39.29,-5.06,-0.89,39.12,1.89,-1.61,-4.29
4,3,-31,22,-397,3903,0.41,-0.22,-3.50,0.22,-3.97,39.03,-5.08,-0.88,39.13,1.82,-1.44,-4.04
0,4,-30,20,-400,3939,0.37,-0.18,-3.33,0.20,-4.00,39.39,-5.09,-0.87,39.14,2.69,-1.52,-3.98
3,6,-30,25,-417,3917,0.35,-0.12,-3.18,0.25,-4.17,39.17,-5.10,-0.87,39.15,1.86,-1.83,-3.84
1,3,-21,-39,-336,3898,0.32,-0.09,-2.99,-0.39,-3.36,38.98,-5.10,-0.85,39.17,2.25,-0.96,-4.43
3,4,-23,-24,-338,3968,0.31,-0.06,-2.83,-0.24,-3.38,39.68,-5.09,-0.83,39.18,1.69,-1.09,-4.12
2,5,-33,8,-424,3926,0.29,-0.02,-2.75,0.08,-4.24,39.26,-5.11,-0.82,39.19,1.88,-1.21,-3.20
0,1,-37,-47,-412,3942,0.26,-0.01,-2.70,-0.47,-4.12,39.42,-5.12,-0.81,39.20,2.28,-0.16,-2.82
3,6,-36,-94,-332,3945,0.25,0.02,-2.65,-0.94,-3.32,39.45,-5.11,-0.79,39.21,1.49,-1.30,-2.86
3,9,-31,-86,-342,3969,0.25,0.08,-2.57,-0.86,-3.42,39.69,-5.11,-0.77,39.22,1.46,-1.86,-3.21
-17,17,-21,-75,-353,3978,0.12,0.17,-2.44,-0.75,-3.53,39.78,-5.11,-0.76,39.23,6.06,-3.54,-3.95
-29,16,-19,-51,-358,3966,-0.07,0.25,-2.32,-0.51,-3.58,39.66,-5.11,-0.74,39.24,8.40,-2.99,-4.00
-50,24,-27,-59,-330,3928,-0.37,0.37,-2.25,-0.59,-3.30,39.28,-5.11,-0.72,39.25,12.62,-4.57,-3.26
-45,24,-34,-51,-326,3945,-0.61,0.48,-2.23,-0.51,-3.26,39.45,-5.11,-0.70,39.26,10.45,-4.17,-2.65
-52,38,-49,-25,-357,3990,-0.86,0.67,-2.31,-0.25,-3.57,39.90,-5.11,-0.68,39.27,11.27,-7.04,-1.45
-60,39,-49,-22,-368,3943,-1.14,0.84,-2.38,-0.22,-3.68,39.43,-5.12,-0.66,39.28,12.25,-6.65,-1.52
-34,92,-54,7,-419,3764,-1.24,1.32,-2.47,0.07,-4.19,37.64,-5.14,-0.65,39.29,5.30,-18.33,-1.18
1,70,-47,4,-418,4039,-1.11,1.61,-2.51,0.04,-4.18,40.39,-5.16,-0.63,39.30,-3.11,-11.63,-1.81
-47,29,-34,-34,-355,3980,-1.28,1.63,-2.46,-0.34,-3.55,39.80,-5.16,-0.61,39.31,8.43,-1.16,-2.87
-34,15,-32,-73,-346,3941,-1.36,1.56,-2.41,-0.73,-3.46,39.41,-5.17,-0.58,39.32,4.83,2.13,-2.99
17,-6,-29,-49,-370,3953,-1.12,1.36,-2.35,-0.49,-3.70,39.53,-5.17,-0.56,39.33,-7.23,6.74,-3.19
9,-9,-25,-69,-347,3881,-0.95,1.17,-2.27,-0.69,-3.47,38.81,-5.18,-0.54,39.34,-4.57,6.77,-3.46
27,-18,-1,-75,-331,3836,-0.69,0.95,-2.05,-0.75,-3.31,38.36,-5.18,-0.52,39.35,-8.16,8.20,-5.29
33,-24,2,-100,-311,3892,-0.42,0.70,-1.83,-1.00,-3.11,38.92,-5.17,-0.50,39.35,-8.67,8.82,-5.35
65,-29,27,-79,-367,3926,0.02,0.46,-1.48,-0.79,-3.67,39.26,-5.17,-0.48,39.36,-15.15,9.15,-7.15
70,-40,29,-35,-385,3998,0.44,0.17,-1.16,-0.35,-3.85,39.98,-5.18,-0.46,39.36,-14.82,10.85,-7.03
21,-115,4,-44,-361,4031,0.52,-0.55,-1.02,-0.44,-3.61,40.31,-5.17,-0.44,39.37,-2.05,27.21,-4.78
16,-65,10,-54,-397,3767,0.57,-0.89,-0.85,-0.54,-3.97,37.67,-5.18,-0.43,39.37,-0.61,13.21,-5.14
24,-26,19,21,-378,4091,0.66,-0.96,-0.65,0.21,-3.78,40.91,-5.19,-0.42,39.37,-2.30,3.04,-5.73
11,-30,17,13,-400,4017,0.66,-1.05,-0.48,0.13,-4.00,40.17,-5.20,-0.42,39.37,1.01,3.73,-5.40
-6,-7,39,-47,-346,3961,0.56,-0.99,-0.20,-0.47,-3.46,39.61,-5.20,-0.40,39.38,4.94,-1.89,-7.01
1,-9,56,-68,-325,3908,0.51,-0.94,0.16,-0.68,-3.25,39.08,-5.19,-0.39,39.37,2.97,-1.22,-8.12
-2,-11,83,-83,-303,3922,0.45,-0.92,0.65,-0.83,-3.03,39.22,-5.18,-0.38,39.37,3.50,-0.61,-9.96
-1,-2,86,-93,-318,3958,0.39,-0.84,1.11,-0.93,-3.18,39.58,-5.17,-0.36,39.37,3.05,-2.60,-9.80
3,-9,94,-99,-319,3897,0.37,-0.81,1.58,-0.99,-3.19,38.97,-5.17,-0.35,39.36,1.95,-0.72,-10.06
-2,-4,102,-45,-298,3937,0.32,-0.75,2.04,-0.45,-2.98,39.37,-5.15,-0.34,39.35,3.03,-1.78,-10.31
-4,-2,110,0,-327,3951,0.27,-0.69,2.51,0.00,-3.27,39.51,-5.14,-0.33,39.34,3.32,-2.06,-10.57
-5,-4,94,0,-356,3927,0.21,-0.64,2.83,0.00,-3.56,39.27,-5.14,-0.31,39.33,3.36,-1.38,-8.92
2,-1,63,13,-340,3944,0.20,-0.59,2.93,0.13,-3.40,39.44,-5.12,-0.30,39.32,1.55,-1.93,-6.20
0,2,52,4,-372,3889,0.18,-0.51,2.96,0.04,-3.72,38.89,-5.14,-0.29,39.31,1.98,-2.43,-5.25
-1,2,56,-19,-301,3923,0.16,-0.45,3.00,-0.19,-3.01,39.23,-5.12,-0.28,39.29,2.14,-2.19,-5.54
-1,2,67,-31,-356,3927,0.13,-0.39,3.11,-0.31,-3.56,39.27,-5.12,-0.26,39.28,2.06,-1.98,-6.37
-3,4,93,-10,-359,3911,0.10,-0.33,3.37,-0.10,-3.59,39.11,-5.13,-0.25,39.27,2.45,-2.25,-8.34
4,5,103,4,-334,3929,0.12,-0.27,3.66,0.04,-3.34,39.29,-5.11,-0.24,39.25,0.72,-2.27,-8.93
-3,8,105,-36,-375,3955,0.09,-0.19,3.93,-0.36,-3.75,39.55,-5.12,-0.22,39.24,2.39,-2.75,-8.85
-1,7,101,-28,-325,3981,0.07,-0.13,4.16,-0.28,-3.25,39.81,-5.11,-0.20,39.22,1.82,-2.27,-8.30
-1,9,87,20,-291,3990,0.06,-0.06,4.27,0.20,-2.91,39.90,-5.09,-0.20,39.20,1.77,-2.52,-7.01
2,9,70,54,-310,3940,0.07,-0.00,4.27,0.54,-3.10,39.40,-5.08,-0.21,39.19,1.03,-2.29,-5.57
0,7,35,76,-277,3930,0.06,0.04,4.06,0.76,-2.77,39.30,-5.06,-0.22,39.17,1.51,-1.62,-2.80
1,5,31,77,-283,3946,0.06,0.07,3.84,0.77,-2.83,39.46,-5.05,-0.24,39.16,1.25,-1.01,-2.65
-1,5,16,94,-340,3922,0.05,0.09,3.55,0.94,-3.40,39.22,-5.05,-0.25,39.14,1.71,-0.92,-1.64
-4,3,13,92,-340,3937,0.02,0.10,3.28,0.92,-3.40,39.37,-5.05,-0.27,39.13,2.37,-0.37,-1.64
1,2,-5,68,-381,3943,0.02,0.10,2.92,0.68,-3.81,39.43,-5.06,-0.28,39.12,1.11,-0.10,-0.44
-5,-1,-9,46,-356,3919,-0.01,0.09,2.57,0.46,-3.56,39.19,-5.06,-0.30,39.11,2.52,0.60,-0.41
-1,3,4,29,-358,3907,-0.02,0.10,2.34,0.29,-3.58,39.07,-5.08,-0.31,39.10,1.48,-0.38,-1.73
-2,0,14,3,-331,3937,-0.03,0.09,2.19,0.03,-3.31,39.37,-5.06,-0.29,39.09,1.70,0.35,-2.71
-5,2,54,-21,-210,3907,-0.05,0.09,2.30,-0.21,-2.10,39.07,-5.05,-0.29,39.08,2.35,-0.15,-6.00
-4,-3,75,-4,-213,3956,-0.07,0.06,2.53,-0.04,-2.13,39.56,-5.03,-0.28,39.07,2.02,1.02,-7.57
-9,1,82,-49,-317,3906,-0.12,0.06,2.78,-0.49,-3.17,39.06,-5.02,-0.27,39.06,3.11,-0.01,-7.94
-4,4,72,-73,-302,3952,-0.13,0.08,2.94,-0.73,-3.02,39.52,-5.02,-0.25,39.05,1.79,-0.70,-6.94
-1,3,28,-15,-310,3910,-0.13,0.09,2.81,-0.15,-3.10,39.10,-5.00,-0.23,39.04,1.05,-0.42,-3.33
1,2,23,-12,-305,3957,-0.11,0.09,2.67,-0.12,-3.05,39.57,-4.99,-0.22,39.03,0.61,-0.15,-3.03
-2,-7,51,50,-366,3935,-0.11,0.04,2.72,0.50,-3.66,39.35,-5.00,-0.24,39.01,1.37,1.94,-5.36
-3,-2,55,8,-415,3943,-0.12,0.03,2.78,0.08,-4.15,39.43,-5.02,-0.23,39.00,1.60,0.61,-5.64
-3,-4,51,3,-339,3949,-0.12,-0.00,2.81,0.03,-3.39,39.49,-5.01,-0.22,38.99,1.57,1.01,-5.27
-2,-4,57,4,-351,3946,-0.12,-0.03,2.88,0.04,-3.51,39.46,-5.02,-0.20,38.98,1.32,0.92,-5.72
-10,2,82,-27,-355,3870,-0.17,-0.01,3.09,-0.27,-3.55,38.70,-5.02,-0.18,38.97,3.17,-0.56,-7.64
-4,-6,71,-72,-309,4061,-0.18,-0.05,3.22,-0.72,-3.09,40.61,-5.02,-0.16,38.96,1.62,1.34,-6.60
-1,-1,48,-115,-362,4007,-0.17,-0.05,3.19,-1.15,-3.62,40.07,-5.02,-0.14,38.94,0.90,0.06,-4.68
-4,-3,42,-120,-330,3952,-0.17,-0.06,3.12,-1.20,-3.30,39.52,-5.02,-0.13,38.93,1.63,0.51,-4.22
-2,0,25,-72,-355,3926,-0.17,-0.06,2.96,-0.72,-3.55,39.26,-5.02,-0.11,38.92,1.15,-0.23,-2.93
-2,4,16,-87,-333,3921,-0.16,-0.03,2.77,-0.87,-3.33,39.21,-5.02,-0.09,38.91,1.16,-1.14,-2.35
1,3,-15,-47,-333,3931,-0.14,-0.00,2.40,-0.47,-3.33,39.31,-5.01,-0.07,38.90,0.48,-0.81,-0.05
-1,2,-22,-57,-333,3938,-0.13,0.01,2.02,-0.57,-3.33,39.38,-5.01,-0.05,38.89,1.02,-0.52,0.20
-2,-4,-3,-86,-390,3929,-0.13,-0.02,1.80,-0.86,-3.90,39.29,-5.02,-0.03,38.88,1.28,0.91,-1.61
-2,-3,1,-59,-360,3924,-0.13,-0.03,1.63,-0.59,-3.60,39.24,-5.03,-0.01,38.88,1.29,0.59,-2.11
0,-2,4,-51,-376,3942,-0.12,-0.04,1.49,-0.51,-3.76,39.42,-5.03,0.00,38.87,0.83,0.30,-2.49
1,-1,6,-15,-355,3937,-0.10,-0.04,1.38,-0.15,-3.55,39.37,-5.04,0.02,38.86,0.65,0.03,-2.76
1,7,1,-9,-342,3931,-0.08,0.00,1.25,-0.09,-3.42,39.31,-5.03,0.03,38.86,0.71,-1.83,-2.45
0,9,1,-11,-334,3931,-0.08,0.06,1.13,-0.11,-3.34,39.31,-5.02,0.05,38.86,0.99,-2.13,-2.56
-1,8,2,-15,-341,3947,-0.07,0.10,1.03,-0.15,-3.41,39.47,-5.01,0.06,38.85,1.25,-1.72,-2.74
0,7,1,-14,-351,3941,-0.07,0.13,0.93,-0.14,-3.51,39.41,-5.02,0.08,38.85,1.02,-1.35,-2.74
3,8,-6,-21,-375,3950,-0.04,0.17,0.80,-0.21,-3.75,39.50,-5.04,0.09,38.84,0.36,-1.47,-2.26
3,6,-10,-21,-373,3943,-0.02,0.19,0.66,-0.21,-3.73,39.43,-5.05,0.10,38.84,0.45,-0.89,-2.05
3,6,-23,-22,-432,3930,0.00,0.21,0.45,-0.22,-4.32,39.30,-5.07,0.10,38.84,0.53,-0.83,-1.14
3,7,-30,-12,-453,3928,0.02,0.23,0.23,-0.12,-4.53,39.28,-5.09,0.11,38.84,0.60,-1.00,-0.75
0,3,-49,15,-385,3916,0.02,0.22,-0.10,0.15,-3.85,39.16,-5.10,0.10,38.84,1.36,0.00,0.56
2,4,-34,-3,-336,3933,0.03,0.23,-0.29,-0.03,-3.36,39.33,-5.09,0.09,38.84,0.89,-0.24,-0.89
-1,0,-15,-28,-320,3955,0.02,0.20,-0.36,-0.28,-3.20,39.55,-5.07,0.10,38.84,1.61,0.69,-2.55
0,-1,-14,-33,-317,3895,0.02,0.18,-0.41,-0.33,-3.17,38.95,-5.06,0.12,38.84,1.35,0.84,-2.68
0,-10,-11,-24,-347,3919,0.02,0.10,-0.43,-0.24,-3.47,39.19,-5.06,0.14,38.85,1.34,2.83,-2.96
-2,-10,-10,-11,-355,3921,0.00,0.03,-0.45,-0.11,-3.55,39.21,-5.08,0.14,38.85,1.80,2.56,-3.06
1,-9,-6,-8,-292,3959,0.01,-0.03,-0.44,-0.08,-2.92,39.59,-5.06,0.14,38.85,1.06,2.09,-3.39
2,-9,-7,-4,-284,3928,0.02,-0.08,-0.44,-0.04,-2.84,39.28,-5.04,0.14,38.85,0.84,1.89,-3.31
-1,-8,-9,8,-299,3933,0.01,-0.12,-0.45,0.08,-2.99,39.33,-5.02,0.13,38.85,1.57,1.49,-3.15
-2,-7,-13,6,-319,3933,-0.00,-0.15,-0.49,0.06,-3.19,39.33,-5.01,0.12,38.85,1.77,1.12,-2.84
0,-2,-12,-14,-380,3917,-0.00,-0.15,-0.51,-0.14,-3.80,39.17,-5.02,0.12,38.86,1.27,-0.14,-2.95
0,-1,-10,-24,-367,3937,-0.00,-0.14,-0.52,-0.24,-3.67,39.37,-5.04,0.13,38.86,1.27,-0.36,-3.13
0,4,-4,-51,-311,3933,-0.00,-0.10,-0.49,-0.51,-3.11,39.33,-5.03,0.15,38.86,1.27,-1.49,-3.61
0,5,-1,-52,-294,3921,-0.00,-0.06,-0.45,-0.52,-2.94,39.21,-5.01,0.16,38.86,1.27,-1.59,-3.83
2,3,2,-30,-318,3934,0.01,-0.04,-0.39,-0.30,-3.18,39.34,-5.00,0.17,38.86,0.80,-1.00,-4.03
-1,1,5,-27,-341,3920,0.00,-0.03,-0.32,-0.27,-3.41,39.20,-5.00,0.19,38.87,1.54,-0.45,-4.22
-2,-2,4,-11,-352,3945,-0.01,-0.04,-0.27,-0.11,-3.52,39.45,-5.01,0.18,38.87,1.75,0.27,-4.09
-1,-2,4,-19,-346,3940,-0.01,-0.05,-0.21,-0.19,-3.46,39.40,-5.01,0.20,38.87,1.47,0.24,-4.04
-1,-1,6,-8,-346,3928,-0.02,-0.05,-0.16,-0.08,-3.46,39.28,-5.02,0.18,38.87,1.46,-0.02,-4.16
-1,0,7,-4,-332,3953,-0.02,-0.04,-0.10,-0.04,-3.32,39.53,-5.00,0.17,38.87,1.44,-0.25,-4.19
-3,-3,21,28,-332,3936,-0.04,-0.06,0.04,0.28,-3.32,39.36,-5.00,0.15,38.87,1.89,0.46,-5.25
-4,-2,27,-3,-334,3946,-0.06,-0.06,0.20,-0.03,-3.34,39.46,-4.98,0.14,38.87,2.06,0.18,-5.61
-2,2,33,-10,-343,3950,-0.07,-0.04,0.38,-0.10,-3.43,39.50,-4.97,0.14,38.87,1.52,-0.76,-5.96
-3,2,35,-9,-333,3933,-0.08,-0.03,0.56,-0.09,-3.33,39.33,-4.95,0.14,38.86,1.73,-0.70,-5.97
0,5,42,-17,-356,3928,-0.07,0.01,0.76,-0.17,-3.56,39.28,-4.96,0.15,38.86,1.00,-1.34,-6.38
1,6,39,-30,-357,3931,-0.06,0.04,0.92,-0.30,-3.57,39.31,-4.98,0.17,38.86,0.80,-1.46,-5.98
0,3,15,-71,-398,3935,-0.05,0.06,0.92,-0.71,-3.98,39.35,-4.99,0.18,38.85,1.08,-0.65,-3.95
0,2,7,-71,-409,3932,-0.05,0.06,0.87,-0.71,-4.09,39.32,-5.00,0.19,38.85,1.10,-0.37,-3.31
2,-1,2,-57,-383,3912,-0.03,0.05,0.80,-0.57,-3.83,39.12,-5.01,0.21,38.85,0.66,0.34,-2.96
2,-4,5,-56,-373,3936,-0.01,0.02,0.75,-0.56,-3.73,39.36,-5.02,0.22,38.84,0.71,0.99,-3.26
0,-15,21,-158,-280,3940,-0.01,-0.07,0.80,-1.58,-2.80,39.40,-5.02,0.24,38.84,1.23,3.43,-4.56
0,-10,28,-135,-278,3944,-0.01,-0.13,0.89,-1.35,-2.78,39.44,-5.01,0.25,38.84,1.23,1.95,-5.07
-2,3,27,-53,-287,3928,-0.02,-0.10,0.97,-0.53,-2.87,39.28,-4.99,0.26,38.83,1.69,-1.24,-4.92
-5,8,17,-29,-277,3922,-0.05,-0.04,0.97,-0.29,-2.77,39.22,-4.97,0.27,38.83,2.34,-2.29,-4.07
-6,12,-16,31,-282,4042,-0.08,0.04,0.78,0.31,-2.82,40.42,-4.96,0.26,38.83,2.48,-3.02,-1.45
0,5,-31,54,-345,3990,-0.07,0.07,0.51,0.54,-3.45,39.90,-4.96,0.24,38.82,0.98,-1.13,-0.42
-4,0,-60,-63,-250,3829,-0.09,0.06,0.09,-0.63,-2.50,38.29,-4.94,0.25,38.82,1.93,0.11,1.66
-2,18,-72,-31,-249,3893,-0.09,0.16,-0.35,-0.31,-2.49,38.93,-4.93,0.25,38.82,1.41,-4.07,2.27
3,-14,-91,15,-267,3927,-0.07,0.06,-0.87,0.15,-2.67,39.27,-4.91,0.24,38.83,0.24,3.68,3.41
9,-16,-103,46,-282,3912,-0.00,-0.04,-1.41,0.46,-2.82,39.12,-4.90,0.23,38.83,-1.06,3.80,3.93
-5,19,-152,40,-276,3957,-0.03,0.08,-2.20,0.40,-2.76,39.57,-4.89,0.22,38.84,2.38,-4.64,7.37
0,-4,-158,13,-260,3943,-0.03,0.05,-2.94,0.13,-2.60,39.43,-4.87,0.21,38.85,1.12,1.09,7.20
-7,4,-225,14,-273,3860,-0.07,0.07,-4.02,0.14,-2.73,38.60,-4.85,0.20,38.87,2.75,-0.87,11.90
5,-10,-239,60,-249,4004,-0.03,-0.00,-5.08,0.60,-2.49,40.04,-4.84,0.19,38.89,-0.17,2.44,12.12
10,-31,-286,40,-366,3960,0.03,-0.19,-6.31,0.40,-3.66,39.60,-4.85,0.17,38.92,-1.19,7.07,14.98
7,-32,-294,20,-372,3920,0.07,-0.37,-7.48,0.20,-3.72,39.20,-4.86,0.15,38.95,-0.28,6.66,14.60
11,-33,-264,-18,-419,3964,0.13,-0.53,-8.34,-0.18,-4.19,39.64,-4.88,0.15,38.98,-1.06,6.30,11.27
10,-31,-253,-11,-466,3915,0.18,-0.67,-9.05,-0.11,-4.66,39.15,-4.90,0.14,39.01,-0.62,5.28,9.70
6,-12,-213,30,-481,3931,0.20,-0.67,-9.44,0.30,-4.81,39.31,-4.91,0.13,39.05,0.47,0.43,5.95
6,-13,-197,32,-498,3927,0.21,-0.69,-9.70,0.32,-4.98,39.27,-4.93,0.12,39.09,0.53,0.64,4.35
6,-13,-133,81,-527,3925,0.23,-0.70,-9.54,0.81,-5.27,39.25,-4.95,0.11,39.13,0.60,0.60,-0.93
0,-4,-110,55,-496,3903,0.21,-0.65,-9.26,0.55,-4.96,39.03,-4.96,0.10,39.16,2.04,-1.51,-2.62
-8,45,-86,10,-357,3954,0.14,-0.31,-8.86,0.10,-3.57,39.54,-4.97,0.08,39.20,3.81,-12.68,-4.30
-7,39,-87,-10,-335,3963,0.08,-0.04,-8.50,-0.10,-3.35,39.63,-4.96,0.08,39.23,3.34,-10.15,-3.89
5,3,-91,-31,-347,3963,0.10,-0.02,-8.21,-0.31,-3.47,39.63,-4.96,0.10,39.27,0.38,-0.91,-3.29
5,1,-96,-23,-354,3934,0.12,-0.01,-7.97,-0.23,-3.54,39.34,-4.97,0.11,39.30,0.46,-0.38,-2.65
0,17,-81,-76,-372,3904,0.11,0.09,-7.67,-0.76,-3.72,39.04,-4.98,0.12,39.33,1.68,-4.05,-3.65
-1,16,-76,-78,-373,3940,0.09,0.18,-7.37,-0.78,-3.73,39.40,-4.98,0.14,39.36,1.87,-3.47,-3.80
1,-2,-77,-65,-362,3946,0.09,0.15,-7.10,-0.65,-3.62,39.46,-4.99,0.15,39.39,1.35,0.99,-3.48
2,-2,-82,-70,-356,3926,0.09,0.12,-6.89,-0.70,-3.56,39.26,-4.99,0.17,39.41,1.11,0.88,-2.87
5,-13,-99,-87,-375,3970,0.11,0.03,-6.80,-0.87,-3.75,39.70,-5.00,0.18,39.44,0.43,3.33,-1.35
9,-28,-113,-57,-390,3966,0.16,-0.14,-6.81,-0.57,-3.90,39.66,-5.01,0.19,39.47,-0.42,6.48,-0.18
34,-31,-114,-18,-359,3891,0.35,-0.32,-6.83,-0.18,-3.59,38.91,-5.03,0.20,39.50,-6.05,6.59,-0.11
25,-21,-119,-26,-312,3919,0.47,-0.41,-6.87,-0.26,-3.12,39.19,-5.01,0.20,39.52,-3.32,3.68,0.27
0,11,-127,-79,-290,3964,0.42,-0.30,-6.96,-0.79,-2.90,39.64,-5.00,0.21,39.55,2.85,-4.05,0.87
-3,3,-148,-74,-265,3977,0.36,-0.26,-7.16,-0.74,-2.65,39.77,-4.98,0.22,39.58,3.38,-1.83,2.46
17,-10,-224,-9,-288,3959,0.43,-0.29,-7.81,-0.09,-2.88,39.59,-4.96,0.21,39.61,-1.45,1.34,8.31
13,2,-243,-3,-270,3918,0.46,-0.25,-8.52,-0.03,-2.70,39.18,-4.94,0.20,39.64,-0.30,-1.55,9.28
-8,41,-278,-73,-284,3858,0.37,0.02,-9.36,-0.73,-2.84,38.58,-4.93,0.21,39.68,4.67,-10.43,11.47
-1,40,-283,-46,-297,4027,0.33,0.27,-10.15,-0.46,-2.97,40.27,-4.91,0.22,39.72,2.73,-9.27,11.18
-30,14,-286,15,-282,3901,0.11,0.33,-10.88,0.15,-2.82,39.01,-4.89,0.21,39.76,9.29,-2.44,10.76
4,22,-297,24,-253,3975,0.12,0.43,-11.60,0.24,-2.53,39.75,-4.88,0.20,39.81,0.69,-4.09,11.03
-1,10,-320,-55,-261,3941,0.11,0.45,-12.40,-0.55,-2.61,39.41,-4.86,0.21,39.86,1.89,-0.97,12.26
7,2,-328,-68,-272,3943,0.14,0.41,-13.16,-0.68,-2.72,39.43,-4.85,0.22,39.91,-0.03,0.94,12.24
-14,4,-385,-28,-271,3932,0.04,0.40,-14.19,-0.28,-2.71,39.32,-4.83,0.22,39.97,4.93,0.37,16.13
-24,6,-397,-56,-298,3961,-0.11,0.39,-15.19,-0.56,-2.98,39.61,-4.82,0.23,40.03,6.91,-0.15,16.23
10,-4,-440,-81,-338,3890,-0.04,0.33,-16.36,-0.81,-3.38,38.90,-4.82,0.24,40.10,-1.46,2.15,18.81
14,-12,-450,-57,-378,3864,0.05,0.22,-17.47,-0.57,-3.78,38.64,-4.83,0.25,40.17,-2.14,3.78,18.65
38,-27,-481,-96,-432,3992,0.28,0.04,-18.65,-0.96,-4.32,39.92,-4.85,0.25,40.24,-7.38,6.89,20.19
14,-26,-486,-79,-486,3977,0.33,-0.13,-19.75,-0.79,-4.86,39.77,-4.86,0.25,40.32,-1.06,6.02,19.61
4,-18,-448,-48,-506,3944,0.33,-0.22,-20.51,-0.48,-5.06,39.44,-4.88,0.25,40.40,1.45,3.62,15.70
0,-20,-402,-18,-586,3894,0.29,-0.32,-20.91,-0.18,-5.86,38.94,-4.90,0.24,40.48,2.35,3.76,11.43
6,-4,-318,66,-539,3902,0.30,-0.32,-20.76,0.66,-5.39,39.02,-4.91,0.22,40.57,0.85,-0.28,4.44
5,9,-295,62,-547,3938,0.30,-0.23,-20.48,0.62,-5.47,39.38,-4.93,0.21,40.65,1.11,-3.25,2.74
-2,13,-206,97,-486,3965,0.26,-0.13,-19.69,0.97,-4.86,39.65,-4.94,0.19,40.73,2.74,-3.88,-4.09
-12,7,-185,55,-443,3999,0.16,-0.07,-18.85,0.55,-4.43,39.99,-4.96,0.17,40.80,4.91,-2.14,-5.11
-1,1,-136,-18,-308,3805,0.14,-0.06,-17.80,-0.18,-3.08,38.05,-4.94,0.17,40.87,2.03,-0.57,-8.31
12,-2,-138,-39,-298,3837,0.20,-0.06,-16.86,-0.39,-2.98,38.37,-4.93,0.18,40.94,-1.06,0.17,-7.30
12,-21,-116,14,-338,3963,0.25,-0.19,-15.88,0.14,-3.38,39.63,-4.92,0.15,41.00,-0.86,4.55,-8.28
5,-20,-114,16,-329,3925,0.26,-0.29,-14.99,0.16,-3.29,39.25,-4.92,0.13,41.06,0.94,3.91,-7.64
-1,-18,-105,-17,-248,3913,0.22,-0.37,-14.13,-0.17,-2.48,39.13,-4.90,0.13,41.12,2.34,3.10,-7.63
3,-16,-106,7,-258,3967,0.22,-0.43,-13.36,0.07,-2.58,39.67,-4.88,0.12,41.17,1.31,2.36,-6.86
7,-21,-131,-8,-250,3994,0.24,-0.52,-12.83,-0.08,-2.50,39.94,-4.86,0.11,41.22,0.36,3.32,-4.26
6,-16,-132,-18,-274,3934,0.25,-0.56,-12.35,-0.18,-2.74,39.34,-4.84,0.11,41.27,0.66,1.87,-3.74
0,22,-150,8,-213,3901,0.23,-0.37,-12.03,0.08,-2.13,39.01,-4.82,0.10,41.32,2.08,-7.07,-1.93
-1,31,-156,14,-228,3891,0.20,-0.15,-11.78,0.14,-2.28,38.91,-4.80,0.09,41.37,2.23,-8.50,-1.20
6,11,-187,29,-204,3944,0.22,-0.06,-11.74,0.29,-2.04,39.44,-4.78,0.08,41.41,0.50,-3.11,1.46
4,7,-195,14,-207,3935,0.22,-0.01,-11.76,0.14,-2.07,39.35,-4.77,0.07,41.46,1.02,-1.90,2.12
-4,7,-257,-4,-165,3958,0.17,0.03,-12.15,-0.04,-1.65,39.58,-4.75,0.07,41.51,2.87,-1.74,7.01
-2,11,-277,-19,-208,3972,0.14,0.09,-12.62,-0.19,-2.08,39.72,-4.73,0.07,41.56,2.25,-2.51,8.27
-22,8,-337,-40,-248,3945,-0.01,0.13,-13.42,-0.40,-2.48,39.45,-4.71,0.07,41.61,6.77,-1.60,12.63
-37,12,-365,16,-263,3946,-0.23,0.19,-14.30,0.16,-2.63,39.46,-4.69,0.06,41.67,9.73,-2.39,14.19
-32,5,-420,11,-253,3901,-0.40,0.20,-15.43,0.11,-2.53,39.01,-4.68,0.05,41.73,7.81,-0.57,17.82
-11,-1,-432,0,-265,3869,-0.43,0.18,-16.52,0.00,-2.65,38.69,-4.66,0.05,41.80,2.37,0.86,17.84
30,-17,-443,-2,-354,3875,-0.20,0.06,-17.57,-0.02,-3.54,38.75,-4.68,0.04,41.87,-7.20,4.47,17.81
29,-12,-443,41,-345,3863,-0.01,-0.02,-18.52,0.41,-3.45,38.63,-4.69,0.02,41.94,-6.20,2.91,16.95
37,-14,-434,101,-397,3931,0.22,-0.11,-19.31,1.01,-3.97,39.31,-4.70,-0.00,42.02,-7.38,3.11,15.46
32,-20,-424,97,-372,4056,0.39,-0.22,-19.97,0.97,-3.72,40.56,-4.71,-0.03,42.10,-5.45,4.22,14.01
14,5,-370,26,-432,3875,0.44,-0.16,-20.23,0.26,-4.32,38.75,-4.72,-0.04,42.18,-0.70,-1.94,9.19
0,1,-352,2,-424,4102,0.40,-0.14,-20.35,0.02,-4.24,41.02,-4.74,-0.04,42.26,2.69,-0.83,7.55
-42,25,-330,3,-449,4103,0.10,0.02,-20.33,0.03,-4.49,41.03,-4.76,-0.05,42.34,12.26,-6.30,5.70
-61,27,-314,-12,-395,3866,-0.28,0.19,-20.21,-0.12,-3.95,38.66,-4.78,-0.05,42.42,15.66,-6.20,4.44
-85,45,-288,-4,-463,3888,-0.77,0.44,-19.95,-0.04,-4.63,38.88,-4.80,-0.06,42.50,19.92,-9.81,2.47
-96,40,-276,-47,-499,4033,-1.28,0.64,-19.64,-0.47,-4.99,40.33,-4.82,-0.06,42.58,20.81,-7.79,1.73
-59,17,-236,-61,-512,3876,-1.51,0.68,-19.11,-0.61,-5.12,38.76,-4.84,-0.05,42.65,10.54,-1.80,-1.19
-45,15,-229,-76,-472,3796,-1.64,0.71,-18.60,-0.76,-4.72,37.96,-4.87,-0.05,42.73,6.52,-1.20,-1.32
-5,6,-227,-17,-424,3903,-1.50,0.67,-18.12,-0.17,-4.24,39.03,-4.89,-0.05,42.80,-3.14,0.96,-1.06
-14,1,-227,1,-403,3967,-1.44,0.61,-17.70,0.01,-4.03,39.67,-4.91,-0.05,42.87,-0.60,2.00,-0.68
-7,-3,-232,17,-434,3898,-1.34,0.53,-17.34,0.17,-4.34,38.98,-4.94,-0.06,42.94,-2.00,2.72,0.06
1,-4,-230,-14,-429,3860,-1.20,0.45,-17.01,-0.14,-4.29,38.60,-4.96,-0.06,43.01,-3.50,2.68,0.18
41,-16,-158,-46,-397,3885,-0.83,0.31,-16.27,-0.46,-3.97,38.85,-4.98,-0.05,43.07,-12.27,5.19,-5.25
51,-24,-116,-17,-408,3901,-0.43,0.13,-15.35,-0.17,-4.08,39.01,-5.00,-0.05,43.14,-13.32,6.56,-7.98
47,-25,-46,-27,-381,3968,-0.10,-0.03,-14.10,-0.27,-3.81,39.68,-5.01,-0.04,43.19,-11.06,6.19,-12.78
40,-21,-35,-28,-380,3979,0.15,-0.16,-12.90,-0.28,-3.80,39.79,-5.02,-0.03,43.24,-8.32,4.70,-12.63
14,-8,-30,-49,-370,3992,0.22,-0.19,-11.80,-0.49,-3.70,39.92,-5.03,-0.02,43.29,-1.45,1.27,-12.05
5,-5,-32,-48,-376,3990,0.23,-0.20,-10.81,-0.48,-3.76,39.90,-5.03,-0.01,43.33,0.87,0.46,-10.99
-14,9,-42,-24,-366,3983,0.12,-0.13,-9.99,-0.24,-3.66,39.83,-5.04,0.00,43.37,5.29,-2.82,-9.40
-21,17,-53,-35,-414,3991,-0.02,-0.01,-9.31,-0.35,-4.14,39.91,-5.06,0.01,43.41,6.55,-4.42,-7.86
-59,30,-100,-18,-357,3951,-0.38,0.17,-8.99,-0.18,-3.57,39.51,-5.07,0.02,43.45,14.86,-7.03,-3.59
-64,32,-102,-14,-339,3931,-0.73,0.35,-8.71,-0.14,-3.39,39.31,-5.06,0.03,43.48,14.81,-6.87,-3.17
-58,17,-95,-13,-329,3921,-1.01,0.42,-8.42,-0.13,-3.29,39.21,-5.05,0.04,43.51,12.22,-2.80,-3.50
-60,1,-92,-17,-299,3981,-1.28,0.38,-8.14,-0.17,-2.99,39.81,-5.04,0.05,43.55,11.73,1.13,-3.51
-92,-3,-89,-66,-347,3957,-1.71,0.33,-7.87,-0.66,-3.47,39.57,-5.04,0.06,43.58,18.23,1.93,-3.52
-90,-2,-90,-62,-349,3964,-2.09,0.28,-7.63,-0.62,-3.49,39.64,-5.05,0.08,43.61,16.30,1.50,-3.22
-109,3,-92,-30,-429,3945,-2.54,0.27,-7.43,-0.30,-4.29,39.45,-5.08,0.08,43.64,19.42,0.19,-2.87
-109,6,-92,-24,-444,3971,-2.95,0.28,-7.25,-0.24,-4.44,39.71,-5.11,0.08,43.67,17.89,-0.54,-2.71
-136,2,-93,-12,-404,4003,-3.49,0.27,-7.09,-0.12,-4.04,40.03,-5.14,0.09,43.70,22.75,0.42,-2.48
-140,-3,-93,-20,-404,3933,-3.99,0.22,-6.95,-0.20,-4.04,39.33,-5.17,0.09,43.72,21.87,1.52,-2.36
-173,4,-122,16,-445,3972,-4.65,0.22,-7.00,0.16,-4.45,39.72,-5.21,0.08,43.75,27.80,-0.25,0.05
-181,6,-130,3,-466,4029,-5.29,0.24,-7.09,0.03,-4.66,40.29,-5.25,0.08,43.78,27.44,-0.70,0.64
-211,3,-163,-7,-502,4055,-6.05,0.23,-7.38,-0.07,-5.02,40.55,-5.29,0.08,43.81,32.22,0.04,3.18
-242,5,-173,-59,-486,4003,-6.92,0.24,-7.69,-0.59,-4.86,40.03,-5.34,0.08,43.84,36.83,-0.44,3.73
-263,0,-128,-64,-398,3913,-7.83,0.22,-7.71,-0.64,-3.98,39.13,-5.38,0.10,43.87,38.74,0.73,-0.09
-250,-5,-103,-16,-384,3903,-8.57,0.16,-7.56,-0.16,-3.84,39.03,-5.43,0.10,43.90,32.66,1.81,-2.08
-182,11,-40,70,-357,3785,-8.83,0.21,-7.05,0.70,-3.57,37.85,-5.46,0.08,43.93,14.43,-2.06,-6.96
-155,11,-33,49,-377,3783,-8.89,0.26,-6.55,0.49,-3.77,37.83,-5.50,0.07,43.96,7.34,-1.89,-7.10
-90,9,-34,14,-458,3862,-8.55,0.29,-6.10,0.14,-4.58,38.62,-5.55,0.06,43.98,-7.89,-1.27,-6.61
-81,6,-39,15,-504,3884,-8.19,0.30,-5.73,0.15,-5.04,38.84,-5.60,0.06,44.00,-8.81,-0.48,-5.85
-58,2,-78,-39,-562,3911,-7.72,0.28,-5.63,-0.39,-5.62,39.11,-5.65,0.06,44.03,-12.89,0.47,-2.46
-56,3,-91,-42,-547,3907,-7.29,0.27,-5.62,-0.42,-5.47,39.07,-5.70,0.06,44.05,-11.77,0.18,-1.35
-36,5,-142,-73,-543,3859,-6.78,0.27,-5.93,-0.73,-5.43,38.59,-5.74,0.07,44.07,-14.92,-0.31,2.69
-15,1,-159,-20,-525,3857,-6.20,0.25,-6.30,-0.20,-5.25,38.57,-5.79,0.07,44.10,-18.04,0.62,3.79
29,-11,-152,3,-506,3818,-5.40,0.16,-6.60,0.03,-5.06,38.18,-5.83,0.07,44.12,-26.22,3.33,2.92
45,-14,-144,1,-482,3872,-4.58,0.06,-6.82,0.01,-4.82,38.72,-5.86,0.06,44.15,-27.21,3.71,2.04
118,-6,-88,-82,-522,3831,-3.41,0.02,-6.67,-0.82,-5.22,38.31,-5.89,0.07,44.18,-41.33,1.51,-2.57
133,2,-78,-94,-528,3820,-2.25,0.03,-6.48,-0.94,-5.28,38.20,-5.92,0.08,44.20,-40.80,-0.48,-3.25
175,5,-64,-140,-524,3941,-0.96,0.05,-6.22,-1.40,-5.24,39.41,-5.93,0.09,44.23,-46.60,-1.14,-4.20
173,4,-59,-153,-519,3963,0.19,0.07,-5.96,-1.53,-5.19,39.63,-5.94,0.10,44.25,-41.76,-0.82,-4.39
121,4,-13,-97,-463,4004,0.91,0.09,-5.45,-0.97,-4.63,40.04,-5.95,0.11,44.27,-25.84,-0.76,-7.82
105,4,1,-93,-432,4001,1.46,0.11,-4.89,-0.93,-4.32,40.01,-5.95,0.13,44.29,-19.70,-0.70,-8.51
85,3,17,-6,-387,3961,1.83,0.11,-4.30,-0.06,-3.87,39.61,-5.92,0.13,44.31,-13.22,-0.42,-9.33
89,-1,19,9,-363,3893,2.19,0.10,-3.76,0.09,-3.63,38.93,-5.89,0.12,44.32,-12.89,0.53,-9.00
117,-1,5,49,-328,3866,2.69,0.08,-3.35,0.49,-3.28,38.66,-5.87,0.11,44.34,-18.15,0.48,-7.45
129,0,2,57,-355,3892,3.20,0.07,-3.00,0.57,-3.55,38.92,-5.85,0.09,44.35,-19.26,0.20,-6.88
141,7,9,53,-411,3948,3.74,0.11,-2.65,0.53,-4.11,39.48,-5.83,0.07,44.36,-20.28,-1.44,-7.16
139,11,12,42,-413,3954,4.22,0.16,-2.31,0.42,-4.13,39.54,-5.82,0.05,44.37,-17.99,-2.25,-7.10
121,39,17,-16,-409,3931,4.53,0.39,-1.97,-0.16,-4.09,39.31,-5.81,0.07,44.38,-12.23,-8.53,-7.23
115,52,17,-18,-391,3921,4.78,0.66,-1.67,-0.18,-3.91,39.21,-5.78,0.09,44.38,-9.78,-10.79,-6.95
112,30,22,-31,-353,3988,4.99,0.78,-1.37,-0.31,-3.53,39.88,-5.75,0.10,44.39,-8.25,-4.76,-7.10
102,20,28,-42,-369,3971,5.11,0.82,-1.06,-0.42,-3.69,39.71,-5.71,0.11,44.39,-5.26,-2.06,-7.33
88,-4,55,-50,-398,3938,5.14,0.72,-0.62,-0.50,-3.98,39.38,-5.70,0.14,44.40,-1.60,3.63,-9.22
94,-7,77,-61,-403,3904,5.20,0.60,-0.09,-0.61,-4.03,39.04,-5.68,0.16,44.40,-2.91,3.96,-10.60
120,10,120,-94,-365,3913,5.41,0.60,0.65,-0.94,-3.65,39.13,-5.65,0.18,44.40,-8.72,-0.36,-13.57
128,9,123,-94,-343,3946,5.65,0.60,1.34,-0.94,-3.43,39.46,-5.62,0.19,44.39,-9.86,-0.14,-13.21
115,-4,129,-112,-327,3992,5.78,0.51,1.99,-1.12,-3.27,39.92,-5.59,0.21,44.38,-6.05,2.85,-13.12
105,-9,131,-98,-351,3980,5.85,0.41,2.59,-0.98,-3.51,39.80,-5.56,0.23,44.37,-3.28,3.71,-12.75
43,-11,118,-10,-424,4042,5.52,0.30,3.05,-0.10,-4.24,40.42,-5.55,0.23,44.36,11.26,3.82,-11.22
23,-12,115,-1,-434,4051,5.11,0.20,3.45,-0.01,-4.34,40.51,-5.55,0.23,44.35,14.79,3.68,-10.61
-6,0,144,-25,-410,3951,4.56,0.18,3.98,-0.25,-4.10,39.51,-5.55,0.23,44.33,20.10,0.56,-12.58
-10,3,159,-32,-427,3930,4.05,0.18,4.55,-0.32,-4.27,39.30,-5.55,0.24,44.31,19.17,-0.21,-13.33
-21,-14,218,-39,-364,3978,3.51,0.07,5.43,-0.39,-3.64,39.78,-5.52,0.26,44.29,19.95,3.72,-17.54
-33,-34,257,-72,-304,3973,2.96,-0.14,6.45,-0.72,-3.04,39.73,-5.49,0.27,44.27,20.92,7.99,-19.91
-52,-17,328,-63,-300,3890,2.35,-0.23,7.81,-0.63,-3.00,38.90,-5.47,0.28,44.23,23.43,3.33,-24.69
-48,-13,339,-59,-330,3955,1.82,-0.29,9.09,-0.59,-3.30,39.55,-5.45,0.30,44.20,20.43,2.10,-24.45
-69,3,371,-54,-369,4064,1.22,-0.24,10.45,-0.54,-3.69,40.64,-5.43,0.31,44.16,23.49,-1.79,-25.93
-66,12,378,0,-388,3779,0.69,-0.14,11.71,0.00,-3.88,37.79,-5.45,0.31,44.11,20.76,-3.71,-25.38
-57,5,413,62,-368,3815,0.28,-0.10,13.06,0.62,-3.68,38.15,-5.44,0.29,44.06,16.90,-1.76,-27.12
-88,13,430,87,-406,3978,-0.29,-0.01,14.37,0.87,-4.06,39.78,-5.45,0.28,44.00,22.66,-3.46,-27.36
-40,-1,476,-47,-249,3822,-0.50,-0.01,15.84,-0.47,-2.49,38.22,-5.43,0.29,43.94,9.65,0.08,-29.92
-13,-19,483,-22,-228,3851,-0.53,-0.13,17.20,-0.22,-2.28,38.51,-5.42,0.30,43.87,2.67,4.22,-29.27
74,10,515,-38,-359,3798,-0.03,-0.05,18.62,-0.38,-3.59,37.98,-5.42,0.32,43.79,-17.54,-2.88,-30.69
101,24,531,-96,-372,3858,0.59,0.10,20.00,-0.96,-3.72,38.58,-5.41,0.35,43.72,-22.08,-5.87,-30.79
123,-10,595,-106,-316,4119,1.28,0.03,21.63,-1.06,-3.16,41.19,-5.40,0.37,43.63,-25.07,2.50,-34.73
94,-15,624,-46,-272,3869,1.73,-0.07,23.27,-0.46,-2.72,38.69,-5.37,0.38,43.54,-16.03,3.41,-35.68
57,0,718,59,-223,3957,1.90,-0.06,25.33,0.59,-2.23,39.57,-5.35,0.38,43.44,-5.98,-0.37,-41.78
47,-15,753,56,-236,4062,2.00,-0.15,27.39,0.56,-2.36,40.62,-5.32,0.38,43.33,-3.08,3.12,-42.87
22,-7,810,70,-311,4018,1.93,-0.17,29.59,0.70,-3.11,40.18,-5.30,0.38,43.21,3.03,0.98,-45.69
15,-6,823,60,-282,3912,1.83,-0.19,31.65,0.60,-2.82,39.12,-5.28,0.38,43.08,4.42,0.65,-44.91
9,0,847,-37,-291,3963,1.70,-0.17,33.65,-0.37,-2.91,39.63,-5.26,0.39,42.95,5.45,-0.80,-45.12
1,-10,841,21,-349,3932,1.54,-0.22,35.42,0.21,-3.49,39.32,-5.25,0.39,42.81,6.87,1.58,-42.99
25,0,831,78,-394,3949,1.54,-0.20,36.94,0.78,-3.94,39.49,-5.24,0.38,42.66,0.76,-0.88,-40.75
39,1,815,134,-493,3861,1.62,-0.17,38.22,1.34,-4.93,38.61,-5.25,0.38,42.51,-2.48,-1.04,-38.22
29,2,832,120,-496,3924,1.64,-0.14,39.47,1.20,-4.96,39.24,-5.25,0.38,42.35,0.12,-1.18,-38.52
10,6,840,103,-526,3995,1.53,-0.09,40.65,1.03,-5.26,39.95,-5.26,0.38,42.19,4.56,-2.01,-38.11
-9,12,875,196,-611,3947,1.33,-0.01,41.92,1.96,-6.11,39.47,-5.27,0.39,42.02,8.61,-3.23,-39.91
-11,7,895,170,-642,3948,1.13,0.04,43.19,1.70,-6.42,39.48,-5.28,0.39,41.85,8.37,-1.79,-40.44
12,13,903,-37,-307,3806,1.09,0.11,44.38,-0.37,-3.07,38.06,-5.25,0.41,41.67,2.37,-3.04,-40.03
18,9,920,-25,-302,3859,1.09,0.15,45.55,-0.25,-3.02,38.59,-5.23,0.43,41.49,0.84,-1.86,-40.39
9,22,1027,71,-350,3841,1.03,0.27,47.26,0.71,-3.50,38.41,-5.22,0.43,41.30,2.93,-4.72,-47.89
-8,27,1072,168,-351,3866,0.88,0.41,49.08,1.68,-3.51,38.66,-5.22,0.43,41.11,6.67,-5.47,-50.04
2,28,1237,217,-347,4005,0.81,0.54,51.71,2.17,-3.47,40.05,-5.21,0.43,40.90,3.84,-5.24,-61.61
-18,15,1258,217,-450,3978,0.62,0.58,54.22,2.17,-4.50,39.78,-5.21,0.44,40.69,8.21,-1.80,-61.10
-9,31,1263,154,-488,3870,0.50,0.71,56.50,1.54,-4.88,38.70,-5.22,0.45,40.46,5.49,-5.37,-59.44
-28,37,1262,138,-524,3804,0.28,0.86,58.55,1.38,-5.24,38.04,-5.23,0.46,40.23,9.49,-6.32,-57.47
0,49,1246,-128,-512,3979,0.25,1.08,60.29,-1.28,-5.12,39.79,-5.24,0.49,39.99,2.27,-8.58,-54.52
-11,75,1241,-259,-533,3923,0.16,1.43,61.83,-2.59,-5.33,39.23,-5.25,0.54,39.74,4.72,-13.88,-52.68
-29,169,1285,-194,-401,4098,-0.03,2.31,63.49,-1.94,-4.01,40.98,-5.25,0.59,39.49,8.57,-34.44,-54.88
-21,93,1308,-82,-383,4116,-0.16,2.65,65.12,-0.82,-3.83,41.16,-5.25,0.64,39.23,6.07,-13.87,-55.33
-83,72,1419,36,-352,4109,-0.65,2.82,67.26,0.36,-3.52,41.09,-5.25,0.66,38.97,19.98,-7.88,-62.77
-93,85,1458,0,-382,3769,-1.15,3.06,69.43,0.00,-3.82,37.69,-5.26,0.68,38.69,20.64,-10.31,-64.08
-15,61,1507,-89,-456,3756,-1.13,3.13,71.68,-0.89,-4.56,37.56,-5.28,0.73,38.41,0.90,-3.97,-66.16
39,54,1502,-144,-454,3997,-0.78,3.14,73.67,-1.44,-4.54,39.97,-5.29,0.78,38.11,-11.50,-2.14,-63.90
29,28,1445,-155,-541,3877,-0.52,3.00,75.12,-1.55,-5.41,38.77,-5.30,0.83,37.82,-8.00,3.92,-57.74
11,40,1421,-149,-567,3853,-0.40,2.94,76.28,-1.49,-5.67,38.53,-5.32,0.88,37.51,-2.97,0.64,-54.63
37,56,1315,-140,-566,3882,-0.14,2.99,76.67,-1.40,-5.66,38.82,-5.33,0.92,37.21,-8.57,-3.26,-45.26
58,49,1287,-85,-551,4073,0.23,2.99,76.85,-0.85,-5.51,40.73,-5.34,0.97,36.90,-12.52,-1.49,-42.69
94,73,1222,-42,-511,4080,0.78,3.14,76.62,-0.42,-5.11,40.80,-5.35,1.00,36.60,-19.60,-7.05,-37.37
84,87,1213,-7,-519,4023,1.21,3.35,76.36,-0.07,-5.19,40.23,-5.36,1.04,36.30,-15.42,-9.80,-36.82
89,148,1283,-93,-304,3987,1.64,3.92,76.55,-0.93,-3.04,39.87,-5.33,1.09,35.99,-15.12,-23.18,-42.55
104,154,1316,-166,-297,3925,2.11,4.47,76.92,-1.66,-2.97,39.25,-5.30,1.15,35.69,-17.16,-22.66,-44.98
102,101,1402,-146,-287,3795,2.52,4.64,77.78,-1.46,-2.87,37.95,-5.27,1.21,35.38,-15.11,-8.57,-51.46
38,40,1400,-143,-298,3988,2.50,4.42,78.54,-1.43,-2.98,39.88,-5.24,1.27,35.07,1.07,6.10,-50.57
10,-24,1372,-120,-357,3999,2.31,3.83,79.06,-1.20,-3.57,39.99,-5.22,1.33,34.76,7.47,20.13,-47.70
-7,-48,1355,-77,-404,3976,2.04,3.15,79.42,-0.77,-4.04,39.76,-5.22,1.36,34.44,10.76,23.68,-45.91
-39,-48,1311,-105,-390,3892,1.59,2.55,79.47,-1.05,-3.90,38.92,-5.23,1.41,34.13,17.24,21.38,-42.10
-32,-30,1307,-108,-397,3888,1.24,2.11,79.50,-1.08,-3.97,38.88,-5.23,1.45,33.81,14.12,15.15,-41.71
3,26,1300,-98,-369,4007,1.13,2.06,79.48,-0.98,-3.69,40.07,-5.23,1.47,33.49,4.83,0.72,-41.11
14,34,1305,-149,-298,4006,1.11,2.06,79.49,-1.49,-2.98,40.06,-5.20,1.52,33.18,1.92,-1.32,-41.49
29,59,1340,-148,-291,3925,1.17,2.21,79.72,-1.48,-2.91,39.25,-5.17,1.57,32.86,-1.65,-7.11,-44.22
15,61,1342,-105,-249,3984,1.15,2.36,79.93,-1.05,-2.49,39.84,-5.14,1.60,32.54,1.81,-7.06,-44.17
-6,59,1358,-124,-188,3850,1.00,2.49,80.22,-1.24,-1.88,38.50,-5.11,1.65,32.22,6.57,-6.09,-45.23
-13,22,1355,-120,-168,3869,0.82,2.37,80.47,-1.20,-1.68,38.69,-5.08,1.68,31.90,7.67,2.87,-44.73
-2,8,1290,-102,-236,3950,0.72,2.18,80.29,-1.02,-2.36,39.50,-5.05,1.72,31.58,4.51,5.71,-39.35
-13,4,1261,-135,-278,3914,0.57,1.99,79.95,-1.35,-2.78,39.14,-5.02,1.76,31.26,6.73,5.99,-37.17
-15,-14,1109,-261,-313,3909,0.42,1.71,78.72,-2.61,-3.13,39.09,-5.00,1.81,30.95,6.67,9.48,-25.38
-16,-14,1071,-280,-296,3978,0.28,1.45,77.38,-2.80,-2.96,39.78,-4.98,1.86,30.64,6.40,8.51,-23.35
-23,-2,947,-299,-352,3898,0.11,1.29,75.42,-2.99,-3.52,38.98,-4.98,1.91,30.34,7.54,4.85,-14.60
-47,-20,908,-265,-352,4032,-0.18,1.04,73.42,-2.65,-3.52,40.32,-4.97,1.96,30.05,12.52,8.47,-13.09
-64,-46,798,-310,-369,3938,-0.56,0.66,70.94,-3.10,-3.69,39.38,-4.96,2.00,29.77,15.44,13.62,-5.99
-78,-55,772,-353,-315,3776,-0.98,0.26,68.56,-3.53,-3.15,37.76,-4.95,2.05,29.49,17.41,14.39,-5.92
-190,-163,749,-357,-208,3823,-2.04,-0.76,66.27,-3.57,-2.08,38.23,-4.94,2.08,29.23,41.88,37.99,-6.03
-175,-185,749,-337,-135,3980,-2.90,-1.82,64.21,-3.37,-1.35,39.80,-4.93,2.11,28.97,34.82,39.62,-7.87
12,-71,773,-147,-95,3974,-2.54,-2.07,62.51,-1.47,-0.95,39.74,-4.92,2.12,28.72,-11.35,9.69,-11.43
46,-60,775,-126,-111,3944,-2.00,-2.23,60.98,-1.26,-1.11,39.44,-4.90,2.13,28.48,-17.99,6.30,-12.96
8,-49,751,-106,-134,3983,-1.75,-2.30,59.47,-1.06,-1.34,39.83,-4.88,2.14,28.24,-7.39,3.21,-12.28
1,-59,736,-124,-167,3885,-1.57,-2.43,58.01,-1.24,-1.67,38.85,-4.86,2.15,28.01,-4.94,5.27,-12.31
79,-9,712,-182,-231,3760,-0.93,-2.24,56.55,-1.82,-2.31,37.60,-4.83,2.17,27.78,-22.36,-6.74,-11.58
141,5,718,-166,-251,3772,0.02,-1.99,55.28,-1.66,-2.51,37.72,-4.81,2.18,27.56,-34.54,-9.34,-13.23
17,11,673,63,-186,3872,0.12,-1.72,53.85,0.63,-1.86,38.72,-4.79,2.18,27.34,-2.64,-9.86,-10.68
-2,11,666,96,-194,3779,0.10,-1.48,52.53,0.96,-1.94,37.79,-4.77,2.18,27.13,2.09,-8.96,-11.27
-7,14,664,-13,-65,3897,0.04,-1.25,51.33,-0.13,-0.65,38.97,-4.75,2.18,26.92,3.16,-8.85,-12.18
-7,11,679,7,-49,3915,-0.00,-1.06,50.34,0.07,-0.49,39.15,-4.73,2.18,26.72,2.97,-7.36,-14.33
-14,12,687,-1,-100,3884,-0.09,-0.88,49.49,-0.01,-1.00,38.84,-4.70,2.18,26.52,4.43,-6.94,-15.75
-9,4,681,13,-111,4007,-0.13,-0.77,48.70,0.13,-1.11,40.07,-4.68,2.19,26.33,2.98,-4.49,-15.95
-15,14,627,-38,-242,3858,-0.21,-0.60,47.65,-0.38,-2.42,38.58,-4.67,2.18,26.14,4.21,-6.42,-12.31
-8,10,606,-64,-273,3929,-0.24,-0.48,46.59,-0.64,-2.73,39.29,-4.65,2.18,25.95,2.32,-4.94,-11.48
-1,18,544,-40,-323,3937,-0.22,-0.33,45.25,-0.40,-3.23,39.37,-4.64,2.18,25.77,0.61,-6.38,-7.43
-15,17,519,11,-423,3939,-0.29,-0.19,43.89,0.11,-4.23,39.39,-4.65,2.17,25.60,3.90,-5.61,-6.53
-23,15,436,-91,-479,3895,-0.40,-0.08,42.16,-0.91,-4.79,38.95,-4.66,2.18,25.43,5.52,-4.69,-1.05
-20,13,424,-92,-469,3970,-0.48,0.01,40.53,-0.92,-4.69,39.70,-4.67,2.19,25.27,4.45,-3.86,-1.49
-116,26,436,-49,-441,4159,-1.14,0.17,39.13,-0.49,-4.41,41.59,-4.69,2.19,25.11,26.38,-6.57,-3.76
-219,16,455,22,-476,4071,-2.36,0.25,38.00,0.22,-4.76,40.71,-4.70,2.19,24.96,47.96,-3.72,-6.39
-45,21,524,-108,-448,3975,-2.40,0.35,37.39,-1.08,-4.48,39.75,-4.72,2.19,24.81,3.60,-4.61,-12.77
-23,8,542,-118,-447,3909,-2.30,0.36,36.96,-1.18,-4.47,39.09,-4.74,2.20,24.67,-1.61,-1.25,-14.67
-1,4,626,-57,-467,3953,-2.08,0.35,37.08,-0.57,-4.67,39.53,-4.76,2.21,24.52,-6.35,-0.28,-21.67
-14,9,651,-15,-453,3921,-1.96,0.37,37.35,-0.15,-4.53,39.21,-4.77,2.21,24.37,-2.59,-1.48,-23.53
-18,22,760,-83,-381,3925,-1.87,0.47,38.25,-0.83,-3.81,39.25,-4.79,2.21,24.22,-1.24,-4.42,-31.94
-11,26,795,-101,-354,4044,-1.75,0.58,39.27,-1.01,-3.54,40.44,-4.79,2.21,24.06,-2.57,-5.01,-33.96
-52,29,889,-102,-512,4004,-1.89,0.70,40.77,-1.02,-5.12,40.04,-4.81,2.22,23.90,7.32,-5.33,-40.55
-2,51,919,-79,-561,3957,-1.72,0.94,42.30,-0.79,-5.61,39.57,-4.83,2.23,23.73,-4.72,-10.02,-41.69
98,123,993,-104,-571,4018,-0.95,1.60,44.12,-1.04,-5.71,40.18,-4.84,2.25,23.56,-27.24,-25.85,-46.28
112,168,1035,-94,-535,3909,-0.17,2.46,46.03,-0.94,-5.35,39.09,-4.86,2.27,23.38,-27.86,-34.04,-48.10
146,201,1192,-133,-412,3953,0.74,3.44,48.69,-1.33,-4.12,39.53,-4.86,2.29,23.18,-33.09,-38.75,-58.96
122,198,1239,-59,-319,3835,1.41,4.31,51.38,-0.59,-3.19,38.35,-4.85,2.31,22.98,-24.47,-34.74,-60.49
37,111,1418,-47,-175,3988,1.49,4.55,54.89,-0.47,-1.75,39.88,-4.82,2.33,22.76,-2.56,-11.71,-72.45
39,116,1458,-87,-165,3963,1.58,4.80,58.30,-0.87,-1.65,39.63,-4.79,2.36,22.53,-2.74,-12.04,-72.73
101,74,1535,-56,-233,4030,2.04,4.78,61.83,-0.56,-2.33,40.30,-4.75,2.39,22.29,-16.78,-1.48,-76.02
61,68,1561,-56,-325,3921,2.21,4.71,65.17,-0.56,-3.25,39.21,-4.73,2.41,22.03,-5.99,-0.19,-75.17
3,78,1577,-96,-331,3886,2.01,4.72,68.27,-0.96,-3.31,38.86,-4.72,2.44,21.76,7.99,-2.72,-73.69
-10,71,1572,-82,-316,3906,1.74,4.68,71.04,-0.82,-3.16,39.06,-4.70,2.46,21.47,10.30,-1.10,-70.73
5,57,1535,-142,-309,3821,1.60,4.56,73.30,-1.42,-3.09,38.21,-4.67,2.48,21.18,5.94,2.00,-65.52
4,13,1502,-117,-319,3880,1.46,4.18,75.13,-1.17,-3.19,38.80,-4.66,2.51,20.88,5.68,11.76,-61.03
16,-24,1411,-177,-420,3780,1.42,3.62,76.22,-1.77,-4.20,37.80,-4.66,2.55,20.58,2.45,19.03,-52.30
3,-32,1387,-166,-438,3806,1.29,3.06,77.06,-1.66,-4.38,38.06,-4.65,2.58,20.28,5.29,18.96,-49.48
11,-69,1331,-158,-246,3995,1.23,2.33,77.47,-1.58,-2.46,39.95,-4.62,2.61,19.97,3.01,25.62,-44.34
12,-76,1320,-162,-248,3915,1.18,1.64,77.78,-1.62,-2.48,39.15,-4.58,2.64,19.66,2.56,24.77,-43.10
-13,-41,1295,-76,-158,4001,0.98,1.22,77.90,-0.76,-1.58,40.01,-4.55,2.66,19.35,8.17,14.32,-40.84
1,-28,1283,-69,-116,3920,0.89,0.93,77.94,-0.69,-1.16,39.20,-4.51,2.68,19.03,4.25,9.91,-39.77
-5,-17,1177,-67,-188,4004,0.77,0.73,77.32,-0.67,-1.88,40.04,-4.48,2.69,18.72,5.32,6.37,-31.31
-3,-2,1145,-50,-217,3981,0.68,0.65,76.57,-0.50,-2.17,39.81,-4.46,2.70,18.42,4.45,2.23,-29.25
4,33,1026,-30,-229,3956,0.63,0.78,75.18,-0.30,-2.29,39.56,-4.43,2.72,18.12,2.50,-6.16,-20.41
-12,34,961,-20,-253,3918,0.50,0.91,73.52,-0.20,-2.53,39.18,-4.41,2.72,17.83,6.05,-5.93,-16.38
1,34,863,-49,-311,3860,0.45,1.03,71.43,-0.49,-3.11,38.60,-4.40,2.73,17.54,2.57,-5.49,-9.95
-6,18,833,2,-341,3900,0.37,1.04,69.37,0.02,-3.41,39.00,-4.39,2.74,17.26,4.04,-1.40,-9.25
-15,-1,706,1,-339,3908,0.24,0.93,66.74,0.01,-3.39,39.08,-4.38,2.75,17.00,5.84,3.01,-0.86
-14,2,671,-12,-395,3915,0.13,0.85,64.16,-0.12,-3.95,39.15,-4.37,2.75,16.74,5.18,1.95,-0.21
-12,-1,553,-32,-419,3856,0.05,0.76,61.12,-0.32,-4.19,38.56,-4.37,2.76,16.50,4.34,2.37,7.05
-11,-8,518,-20,-393,3926,-0.03,0.63,58.16,-0.20,-3.93,39.26,-4.37,2.76,16.27,3.82,3.68,7.36
-20,-21,427,-87,-391,4046,-0.14,0.44,54.95,-0.87,-3.91,40.46,-4.37,2.77,16.05,5.66,6.26,12.17
-7,-6,407,-112,-435,3926,-0.17,0.36,51.94,-1.12,-4.35,39.26,-4.38,2.78,15.84,2.25,2.14,11.15
-18,-1,400,-78,-482,3958,-0.27,0.32,49.19,-0.78,-4.82,39.58,-4.38,2.78,15.65,4.70,0.71,9.26
-3,7,392,-101,-464,3906,-0.26,0.33,46.66,-1.01,-4.64,39.06,-4.39,2.79,15.46,0.92,-1.28,7.66
-3,-9,381,-41,-437,3893,-0.25,0.24,44.32,-0.41,-4.37,38.93,-4.40,2.79,15.28,0.95,2.45,6.49
-9,-15,377,-96,-422,3835,-0.28,0.12,42.19,-0.96,-4.22,38.35,-4.40,2.79,15.12,2.36,3.54,4.91
-8,-80,391,-112,-505,3831,-0.30,-0.38,40.35,-1.12,-5.05,38.31,-4.41,2.80,14.96,2.03,18.18,2.07
-1,-100,393,-102,-470,3850,-0.28,-0.95,38.71,-1.02,-4.70,38.50,-4.42,2.80,14.80,0.34,21.11,0.43
-77,-135,495,-31,-483,3875,-0.72,-1.68,37.86,-0.31,-4.83,38.75,-4.43,2.79,14.65,18.00,27.27,-8.97
-103,-112,515,-34,-450,3966,-1.28,-2.19,37.22,-0.34,-4.50,39.66,-4.44,2.78,14.50,22.52,19.48,-11.24
-179,-147,539,53,-491,3931,-2.24,-2.87,36.78,0.53,-4.91,39.31,-4.46,2.76,14.36,38.21,25.83,-13.65
-134,-117,555,-3,-503,3866,-2.83,-3.30,36.49,-0.03,-5.03,38.66,-4.47,2.75,14.21,24.54,16.61,-15.26
-34,-30,602,-1,-490,3940,-2.76,-3.15,36.51,-0.01,-4.90,39.40,-4.49,2.74,14.06,-0.58,-4.95,-19.21
-27,-17,640,-99,-486,3955,-2.65,-2.94,36.77,-0.99,-4.86,39.55,-4.51,2.73,13.92,-1.94,-7.46,-22.19
-14,-13,722,-169,-406,3893,-2.47,-2.72,37.49,-1.69,-4.06,38.93,-4.53,2.72,13.77,-4.57,-7.67,-28.46
-24,-14,757,-133,-388,3967,-2.37,-2.54,38.36,-1.33,-3.88,39.67,-4.55,2.72,13.61,-1.64,-6.71,-30.62
-14,14,864,-116,-404,3933,-2.22,-2.20,39.80,-1.16,-4.04,39.33,-4.56,2.71,13.45,-3.61,-12.55,-38.37
-16,13,896,-98,-350,3952,-2.09,-1.90,41.28,-0.98,-3.50,39.52,-4.57,2.70,13.29,-2.64,-11.16,-39.72
-14,31,1015,-105,-411,3923,-1.97,-1.52,43.35,-1.05,-4.11,39.23,-4.58,2.69,13.12,-2.67,-14.31,-47.91
-19,29,1045,-122,-428,3929,-1.89,-1.19,45.39,-1.22,-4.28,39.29,-4.60,2.69,12.94,-1.10,-12.57,-48.59
-4,60,1126,-187,-321,4031,-1.72,-0.71,47.72,-1.87,-3.21,40.31,-4.58,2.69,12.74,-4.29,-18.62,-53.32
22,84,1142,-105,-442,3941,-1.42,-0.12,49.91,-1.05,-4.42,39.41,-4.60,2.70,12.55,-9.75,-22.53,-52.67
116,150,1186,-79,-333,4046,-0.57,0.80,52.15,-0.79,-3.33,40.46,-4.59,2.70,12.34,-30.44,-35.82,-54.34
45,143,1183,-14,-395,3970,-0.24,1.60,54.15,-0.14,-3.95,39.70,-4.59,2.71,12.12,-11.15,-31.06,-52.25
-4,242,1205,-24,-301,3919,-0.24,2.91,56.09,-0.24,-3.01,39.19,-4.58,2.72,11.90,1.30,-51.27,-52.34
31,208,1205,-142,-219,3940,-0.02,3.89,57.83,-1.42,-2.19,39.40,-4.55,2.74,11.67,-6.81,-38.96,-50.74
73,93,1255,-166,-250,3697,0.42,4.07,59.70,-1.66,-2.50,36.97,-4.52,2.78,11.43,-15.80,-9.06,-53.25
30,90,1271,-156,-299,3746,0.56,4.21,61.49,-1.56,-2.99,37.46,-4.51,2.79,11.19,-4.35,-7.77,-52.97
-13,28,1283,-102,-236,3824,0.43,3.96,63.16,-1.02,-2.36,38.24,-4.48,2.81,10.94,6.06,7.04,-52.44
-1,30,1291,-170,-261,3951,0.38,3.75,64.72,-1.70,-2.61,39.51,-4.45,2.84,10.68,2.82,5.72,-51.68
6,-55,1316,-170,-364,3885,0.38,3.04,66.28,-1.70,-3.64,38.85,-4.45,2.87,10.42,1.04,24.65,-52.36
0,-70,1311,-87,-325,3823,0.34,2.31,67.65,-0.87,-3.25,38.23,-4.44,2.88,10.15,2.42,25.71,-50.67
-47,-52,1276,-14,-450,3888,0.02,1.76,68.67,-0.14,-4.50,38.88,-4.44,2.89,9.87,13.16,19.07,-46.76
-51,-46,1232,-92,-430,3937,-0.29,1.30,69.31,-0.92,-4.30,39.37,-4.44,2.91,9.60,13.00,15.82,-42.42
-14,-34,1170,-84,-508,3889,-0.35,0.96,69.52,-0.84,-5.08,38.89,-4.45,2.92,9.32,3.38,11.50,-36.95
-46,-31,1165,-65,-529,3996,-0.60,0.68,69.67,-0.65,-5.29,39.96,-4.45,2.94,9.04,10.59,9.66,-36.37
-24,15,1177,-34,-547,3985,-0.68,0.70,69.89,-0.34,-5.47,39.85,-4.45,2.95,8.77,4.67,-1.95,-37.16
-21,38,1200,-15,-489,3995,-0.74,0.86,70.22,-0.15,-4.89,39.95,-4.45,2.96,8.49,3.69,-7.19,-38.79
-1,50,1275,-102,-394,3909,-0.67,1.08,70.97,-1.02,-3.94,39.09,-4.45,2.98,8.20,-1.14,-9.42,-44.43
0,66,1302,-210,-319,3825,-0.61,1.38,71.82,-2.10,-3.19,38.25,-4.46,3.01,7.92,-1.14,-12.39,-45.93
32,-18,1400,-113,-349,3980,-0.35,1.13,73.18,-1.13,-3.49,39.80,-4.45,3.02,7.63,-8.31,8.03,-52.97
29,-25,1419,-94,-333,3863,-0.14,0.86,74.52,-0.94,-3.33,38.63,-4.44,3.03,7.33,-6.76,8.81,-53.34
30,-50,1427,-76,-436,3897,0.06,0.47,75.77,-0.76,-4.36,38.97,-4.44,3.04,7.03,-6.27,13.69,-52.85
12,-43,1419,-45,-397,3935,0.13,0.16,76.85,-0.45,-3.97,39.35,-4.43,3.05,6.72,-1.44,10.74,-51.17
5,-40,1371,-20,-385,3929,0.14,-0.10,77.53,-0.20,-3.85,39.29,-4.42,3.06,6.41,0.40,9.00,-46.46
-18,-27,1360,-5,-301,3993,0.02,-0.25,78.07,-0.05,-3.01,39.93,-4.40,3.06,6.10,5.77,5.11,-45.00
-13,37,1337,-38,-279,4018,-0.06,-0.00,78.42,-0.38,-2.79,40.18,-4.38,3.07,5.79,4.19,-10.22,-42.71
-16,40,1325,7,-202,4005,-0.15,0.24,78.66,0.07,-2.02,40.05,-4.36,3.08,5.47,4.61,-10.06,-41.45
-15,70,1279,-62,-90,3957,-0.23,0.65,78.59,-0.62,-0.90,39.57,-4.33,3.09,5.16,4.06,-16.18,-37.58
-25,74,1255,-76,-132,3847,-0.36,1.03,78.39,-0.76,-1.32,38.47,-4.30,3.11,4.84,6.10,-15.74,-35.70
-3,27,1155,-153,-185,3796,-0.34,1.09,77.60,-1.53,-1.85,37.96,-4.27,3.13,4.53,0.57,-3.57,-27.92
-8,-2,1118,-170,-233,3788,-0.36,0.97,76.66,-1.70,-2.33,37.88,-4.24,3.15,4.23,1.78,3.34,-25.61
-3,-69,929,-83,-436,3886,-0.34,0.45,74.66,-0.83,-4.36,38.86,-4.23,3.16,3.93,0.57,18.42,-11.39
19,-86,835,-56,-429,3931,-0.19,-0.12,72.29,-0.56,-4.29,39.31,-4.23,3.16,3.64,-4.45,20.59,-5.55
18,-67,658,-12,-413,4005,-0.06,-0.51,69.07,-0.12,-4.13,40.05,-4.23,3.17,3.37,-3.72,14.27,6.55
9,-54,626,-4,-419,3984,0.00,-0.79,65.98,-0.04,-4.19,39.84,-4.22,3.17,3.10,-1.20,9.92,6.48
-11,-13,505,-53,-331,3950,-0.07,-0.79,62.46,-0.53,-3.31,39.50,-4.21,3.16,2.85,3.63,-0.50,13.57
-28,-6,489,-40,-359,3892,-0.23,-0.75,59.20,-0.40,-3.59,38.92,-4.21,3.16,2.62,7.33,-2.12,11.98
8,-34,471,-116,-351,3845,-0.16,-0.88,56.15,-1.16,-3.51,38.45,-4.20,3.16,2.39,-1.55,4.50,10.76
9,-65,481,-99,-300,3908,-0.09,-1.19,53.47,-0.99,-3.00,39.08,-4.19,3.15,2.18,-1.54,11.22,7.50
80,-124,558,-147,-341,3942,0.41,-1.83,51.53,-1.47,-3.41,39.42,-4.19,3.14,1.97,-17.72,23.82,-0.77
103,-130,576,-69,-342,3958,1.00,-2.44,49.89,-0.69,-3.42,39.58,-4.18,3.13,1.77,-21.36,23.05,-3.76
107,-148,645,-28,-421,3939,1.55,-3.10,48.84,-0.28,-4.21,39.39,-4.18,3.12,1.58,-20.29,25.15,-10.55
135,-146,654,40,-428,4031,2.22,-3.68,47.94,0.40,-4.28,40.31,-4.17,3.10,1.39,-24.90,22.46,-12.10
176,-185,678,-42,-336,4025,3.07,-4.44,47.28,-0.42,-3.36,40.25,-4.15,3.08,1.20,-32.12,29.51,-14.72
193,-155,688,-121,-519,3946,3.94,-4.94,46.75,-1.21,-5.19,39.46,-4.14,3.07,1.01,-33.17,20.00,-16.03
193,-131,736,-19,-364,4027,4.72,-5.24,46.57,-0.19,-3.64,40.27,-4.12,3.04,0.82,-30.22,12.76,-20.25
183,-102,765,-47,-426,3957,5.37,-5.34,46.58,-0.47,-4.26,39.57,-4.10,3.02,0.63,-25.26,5.03,-22.68
47,-1,904,-48,-425,3773,5.12,-4.81,47.43,-0.48,-4.25,37.73,-4.08,3.00,0.44,8.36,-18.65,-33.66
-8,0,924,29,-395,3839,4.56,-4.33,48.33,0.29,-3.95,38.39,-4.06,2.98,0.25,20.22,-17.09,-34.53
-56,14,957,-149,-406,3939,3.76,-3.81,49.33,-1.49,-4.06,39.39,-4.05,2.97,0.05,29.42,-18.69,-36.39
-38,0,968,-83,-434,3965,3.15,-3.43,50.30,-0.83,-4.34,39.65,-4.04,2.96,-0.15,22.56,-13.70,-36.43
19,-18,1028,17,-434,3977,2.95,-3.20,51.54,0.17,-4.34,39.77,-4.03,2.95,-0.35,7.32,-8.24,-40.37
22,-65,1040,141,-281,4195,2.79,-3.28,52.73,1.41,-2.81,41.95,-4.01,2.93,-0.57,5.94,3.42,-40.28
49,-3,1056,-25,-388,3803,2.81,-2.97,53.90,-0.25,-3.88,38.03,-4.00,2.92,-0.78,-0.85,-11.17,-40.56
28,10,1040,-12,-495,3943,2.70,-2.61,54.86,-0.12,-4.95,39.43,-3.99,2.91,-1.00,4.07,-13.13,-38.32
-61,10,1027,112,-559,3779,2.06,-2.29,55.63,1.12,-5.59,37.79,-3.98,2.91,-1.22,24.28,-11.91,-36.49
-59,36,1037,52,-674,3871,1.49,-1.84,56.40,0.52,-6.74,38.71,-3.98,2.91,-1.45,21.64,-16.83,-36.63
-82,12,1092,81,-740,3917,0.84,-1.58,57.42,0.81,-7.40,39.17,-3.98,2.91,-1.68,25.04,-9.77,-40.34
-55,4,1131,74,-638,3913,0.42,-1.40,58.58,0.74,-6.38,39.13,-3.98,2.91,-1.91,16.60,-7.05,-42.57
9,-53,1281,-87,-428,4143,0.44,-1.58,60.53,-0.87,-4.28,41.43,-3.98,2.90,-2.15,0.38,6.75,-53.48
22,-62,1340,-180,-318,3934,0.53,-1.80,62.65,-1.80,-3.18,39.34,-3.98,2.91,-2.40,-2.58,8.21,-56.53
-5,-13,1560,-155,-194,3908,0.44,-1.70,65.90,-1.55,-1.94,39.08,-3.95,2.91,-2.67,3.96,-3.87,-72.20
-78,-1,1624,-174,2,3831,-0.08,-1.54,69.22,-1.74,0.02,38.31,-3.92,2.92,-2.95,20.55,-6.30,-74.59
-127,63,1645,-97,9,3847,-0.84,-1.00,72.33,-0.97,0.09,38.47,-3.89,2.93,-3.24,30.11,-20.55,-73.52
-138,60,1619,-181,43,3956,-1.60,-0.53,74.97,-1.81,0.43,39.56,-3.86,2.95,-3.54,30.05,-18.03,-68.89
-117,30,1386,-132,-128,4017,-2.15,-0.30,75.93,-1.32,-1.28,40.17,-3.84,2.96,-3.84,22.62,-9.52,-48.25
-89,36,1299,-41,-176,3794,-2.48,-0.05,76.26,-0.41,-1.76,37.94,-3.83,2.96,-4.15,14.27,-10.11,-40.55
-79,-3,1037,-6,-232,3926,-2.72,-0.06,74.96,-0.06,-2.32,39.26,-3.82,2.96,-4.45,10.85,-0.25,-19.51
-78,-8,977,18,-265,3878,-2.92,-0.10,73.43,0.18,-2.65,38.78,-3.82,2.96,-4.74,9.82,0.86,-15.79
-56,-64,852,-144,-296,3926,-2.97,-0.48,71.28,-1.44,-2.96,39.26,-3.82,2.96,-5.02,4.05,13.66,-7.12
-63,-75,820,29,-162,3873,-3.06,-0.89,69.15,0.29,-1.62,38.73,-3.81,2.96,-5.30,5.50,14.92,-6.32
-146,14,723,89,-235,3840,-3.64,-0.72,66.65,0.89,-2.35,38.40,-3.81,2.96,-5.57,24.39,-7.04,-0.35
-173,49,696,79,-370,4068,-4.33,-0.35,64.23,0.79,-3.70,40.68,-3.82,2.96,-5.82,28.65,-14.54,-0.23
-84,40,670,105,-306,4078,-4.41,-0.07,61.89,1.05,-3.06,40.78,-3.83,2.96,-6.07,5.74,-11.20,-0.13
-48,30,670,97,-376,4002,-4.26,0.12,59.79,0.97,-3.76,40.02,-3.84,2.96,-6.31,-2.85,-7.95,-2.01
25,-32,672,-53,-445,3872,-3.68,-0.09,57.91,-0.53,-4.45,38.72,-3.86,2.96,-6.54,-19.22,7.03,-3.87
15,-44,676,31,-348,3764,-3.22,-0.35,56.24,0.31,-3.48,37.64,-3.87,2.96,-6.76,-14.95,9.10,-5.70
22,-73,649,67,-241,4003,-2.77,-0.76,54.58,0.67,-2.41,40.03,-3.86,2.95,-6.98,-15.01,14.93,-4.90
59,-94,636,-22,-336,3923,-2.13,-1.25,53.00,-0.22,-3.36,39.23,-3.87,2.94,-7.20,-22.02,18.40,-5.21
170,-210,670,25,-262,4034,-0.88,-2.41,51.79,0.25,-2.62,40.34,-3.86,2.93,-7.40,-45.53,43.53,-9.18
185,-220,681,-25,-260,3960,0.34,-3.51,50.76,-0.25,-2.60,39.60,-3.85,2.91,-7.61,-44.77,41.94,-11.02
169,-232,678,92,-172,4086,1.33,-4.58,49.82,0.92,-1.72,40.86,-3.83,2.89,-7.81,-36.95,40.99,-11.60
176,-225,609,-87,-340,3959,2.27,-5.49,48.55,-0.87,-3.40,39.59,-3.82,2.86,-8.00,-35.19,35.77,-6.89
229,-260,490,150,-424,3890,3.44,-6.53,46.69,1.50,-4.24,38.90,-3.80,2.83,-8.19,-44.27,40.78,1.52
216,-250,456,68,-572,3912,4.42,-7.40,44.80,0.68,-5.72,39.12,-3.79,2.80,-8.37,-37.30,34.96,2.70
193,-232,403,202,-527,3960,5.15,-8.07,42.78,2.02,-5.27,39.60,-3.77,2.77,-8.54,-28.70,27.85,5.37
195,-228,391,131,-615,3929,5.83,-8.66,40.89,1.31,-6.15,39.29,-3.75,2.73,-8.71,-26.67,24.65,4.69
333,-377,409,111,-626,4055,7.27,-10.09,39.29,1.11,-6.26,40.55,-3.73,2.69,-8.87,-56.30,57.14,1.73
385,-420,440,148,-687,4101,8.90,-11.64,38.05,1.48,-6.87,41.01,-3.70,2.64,-9.02,-63.42,62.23,-2.01
239,-309,626,-14,-577,3954,9.46,-12.37,38.06,-0.14,-5.77,39.54,-3.67,2.59,-9.18,-24.19,31.32,-17.74
148,-232,670,113,-427,3767,9.42,-12.54,38.34,1.13,-4.27,37.67,-3.64,2.54,-9.33,-1.23,11.09,-21.20
-81,28,831,176,-217,4077,7.98,-11.12,39.58,1.76,-2.17,40.77,-3.60,2.48,-9.49,51.56,-49.61,-33.71
-139,74,879,40,-324,3883,6.34,-9.56,40.98,0.40,-3.24,38.83,-3.57,2.44,-9.66,60.10,-55.41,-36.48
-195,97,874,-19,-311,4050,4.51,-8.01,42.21,-0.19,-3.11,40.50,-3.55,2.40,-9.83,67.47,-55.43,-34.93
-162,72,834,4,-226,3917,3.08,-6.77,43.08,0.04,-2.26,39.17,-3.53,2.37,-10.00,53.66,-44.40,-30.74
-96,42,804,31,-327,3893,2.18,-5.84,43.68,0.31,-3.27,38.93,-3.52,2.34,-10.18,33.52,-33.26,-27.64
-93,36,809,14,-394,3869,1.40,-5.03,44.24,0.14,-3.94,38.69,-3.52,2.31,-10.36,29.81,-28.70,-27.53
-43,1,780,61,-245,3966,0.99,-4.52,44.58,0.61,-2.45,39.66,-3.51,2.29,-10.54,15.58,-17.89,-24.75
-32,-23,772,89,-284,4016,0.70,-4.21,44.83,0.89,-2.84,40.16,-3.50,2.26,-10.72,11.68,-10.61,-23.83
-95,51,761,-44,-188,3917,0.05,-3.48,44.99,-0.44,-1.88,39.17,-3.49,2.24,-10.90,25.24,-26.65,-22.74
-117,68,766,-32,-182,3901,-0.67,-2.72,45.16,-0.32,-1.82,39.01,-3.48,2.23,-11.08,28.13,-28.10,-22.99
-105,57,785,37,-217,3903,-1.24,-2.10,45.43,0.37,-2.17,39.03,-3.47,2.21,-11.26,22.92,-22.97,-24.33
-121,88,786,13,-367,3927,-1.86,-1.35,45.69,0.13,-3.67,39.27,-3.48,2.20,-11.44,24.68,-28.04,-24.17
-145,117,738,151,-234,3935,-2.55,-0.50,45.62,1.51,-2.34,39.35,-3.49,2.19,-11.62,28.15,-32.22,-20.15
-156,117,712,93,-259,4030,-3.25,0.26,45.40,0.93,-2.59,40.30,-3.49,2.19,-11.81,28.33,-29.34,-18.13
-191,181,645,166,-381,3905,-4.09,1.34,44.79,1.66,-3.81,39.05,-3.51,2.19,-11.98,34.06,-41.55,-12.99
-222,210,649,167,-305,3967,-5.04,2.49,44.27,1.67,-3.05,39.67,-3.53,2.19,-12.16,38.39,-44.61,-13.78
-251,226,665,95,-384,3867,-6.06,3.62,43.90,0.95,-3.84,38.67,-3.56,2.20,-12.33,41.90,-44.43,-15.46
-248,237,675,-6,-404,3868,-6.97,4.70,43.63,-0.06,-4.04,38.68,-3.59,2.22,-12.51,37.74,-43.15,-16.54
-199,172,659,26,-440,3796,-7.49,5.28,43.29,0.26,-4.40,37.96,-3.63,2.24,-12.68,23.35,-24.45,-15.48
-174,141,661,32,-430,3917,-7.80,5.61,42.99,0.32,-4.30,39.17,-3.66,2.26,-12.85,15.83,-15.33,-15.90
-71,54,693,19,-430,3973,-7.45,5.38,42.92,0.19,-4.30,39.73,-3.70,2.28,-13.02,-9.04,5.91,-18.66
-42,15,733,9,-390,3951,-6.96,4.93,43.10,0.09,-3.90,39.51,-3.73,2.29,-13.19,-14.56,14.13,-21.87
-19,-21,773,-10,-258,3909,-6.38,4.31,43.50,-0.10,-2.58,39.09,-3.75,2.30,-13.36,-18.22,20.94,-24.88
-9,-31,764,-34,-233,4019,-5.80,3.69,43.81,-0.34,-2.33,40.19,-3.76,2.31,-13.54,-18.56,21.15,-23.82
22,-64,741,29,-349,3792,-5.09,2.93,43.95,0.29,-3.49,37.92,-3.79,2.32,-13.71,-23.75,26.68,-21.73
-15,-35,734,27,-427,3859,-4.67,2.43,44.03,0.27,-4.27,38.59,-3.81,2.33,-13.88,-12.77,17.40,-21.04
-78,32,734,118,-369,4017,-4.68,2.38,44.11,1.18,-3.69,40.17,-3.83,2.33,-14.06,3.21,0.19,-20.96
-91,48,743,67,-312,4025,-4.76,2.43,44.23,0.67,-3.12,40.25,-3.84,2.34,-14.24,6.19,-3.67,-21.60
-121,105,746,-6,-353,3984,-5.03,2.83,44.36,-0.06,-3.53,39.84,-3.86,2.34,-14.41,12.84,-16.67,-21.72
-141,91,718,48,-158,4043,-5.38,3.10,44.30,0.48,-1.58,40.43,-3.87,2.35,-14.59,16.58,-12.09,-19.38
-168,146,631,-37,-248,3932,-5.87,3.68,43.72,-0.37,-2.48,39.32,-3.88,2.36,-14.76,21.61,-23.89,-12.52
-222,188,629,51,-169,3970,-6.64,4.46,43.19,0.51,-1.69,39.70,-3.90,2.37,-14.93,32.46,-31.63,-12.82
-250,236,610,66,-538,3835,-7.50,5.45,42.59,0.66,-5.38,38.35,-3.93,2.39,-15.10,36.34,-40.10,-11.74
-209,191,569,34,-619,3943,-8.02,6.07,41.80,0.34,-6.19,39.43,-3.97,2.42,-15.27,23.95,-26.34,-8.97
-255,246,506,48,-294,4077,-8.78,6.97,40.71,0.48,-2.94,40.77,-4.00,2.44,-15.43,32.82,-36.96,-4.61
-284,246,502,7,-120,4606,-9.63,7.77,39.70,0.07,-1.20,46.06,-4.02,2.47,-15.58,36.98,-33.95,-5.17
-163,116,500,-118,-258,3785,-9.66,7.70,38.78,-1.18,-2.58,37.85,-4.05,2.49,-15.74,6.11,-1.17,-5.82
-135,72,465,-223,-359,3769,-9.52,7.37,37.74,-2.23,-3.59,37.69,-4.10,2.54,-15.88,-0.45,8.75,-3.78
-36,25,388,-207,-322,3825,-8.79,6.79,36.33,-2.07,-3.22,38.25,-4.14,2.59,-16.03,-22.85,18.49,1.48
-39,3,371,-191,-490,3870,-8.15,6.13,34.96,-1.91,-4.90,38.70,-4.19,2.63,-16.16,-19.67,21.59,1.69
-19,14,381,-158,-406,3861,-7.45,5.60,33.79,-1.58,-4.06,38.61,-4.23,2.66,-16.30,-22.11,16.80,-0.21
-29,-4,385,-103,-487,3918,-6.88,5.01,32.76,-1.03,-4.87,39.18,-4.27,2.68,-16.42,-17.42,19.17,-1.47
-17,12,325,40,-537,3979,-6.30,4.59,31.46,0.40,-5.37,39.79,-4.30,2.70,-16.55,-18.27,13.49,2.45
8,20,320,8,-493,3886,-5.62,4.25,30.27,0.08,-4.93,38.86,-4.33,2.71,-16.67,-22.06,10.19,1.80
-12,4,343,34,-610,3943,-5.13,3.85,29.34,0.34,-6.10,39.43,-4.36,2.72,-16.78,-15.13,12.74,-0.99
-11,9,353,47,-558,3952,-4.68,3.52,28.56,0.47,-5.58,39.52,-4.39,2.73,-16.89,-13.70,10.23,-2.53
-2,17,355,-26,-531,3921,-4.23,3.27,27.87,-0.26,-5.31,39.21,-4.41,2.74,-17.00,-14.27,7.26,-3.32
-12,13,358,-48,-540,3961,-3.88,3.02,27.26,-0.48,-5.40,39.61,-4.44,2.75,-17.11,-10.40,7.34,-4.11
-1,6,330,-10,-539,4014,-3.50,2.76,26.55,-0.10,-5.39,40.14,-4.46,2.76,-17.22,-11.76,8.12,-2.38
1,4,325,19,-501,3904,-3.14,2.51,25.88,0.19,-5.01,39.04,-4.48,2.77,-17.32,-10.92,7.68,-2.55
-11,7,320,57,-556,3894,-2.89,2.30,25.24,0.57,-5.56,38.94,-4.50,2.77,-17.42,-6.94,6.13,-2.70
-1,1,311,48,-453,4002,-2.61,2.07,24.61,0.48,-4.53,40.02,-4.52,2.77,-17.51,-8.41,6.82,-2.49
-8,4,279,46,-456,3937,-2.40,1.89,23.85,0.46,-4.56,39.37,-4.53,2.77,-17.61,-5.83,5.36,-0.46
-5,12,264,65,-440,3919,-2.19,1.78,23.08,0.65,-4.40,39.19,-4.54,2.77,-17.70,-5.80,2.90,0.11
-8,9,184,15,-482,3902,-2.02,1.65,21.89,0.15,-4.82,39.02,-4.56,2.77,-17.79,-4.40,3.20,5.82
7,2,168,-41,-512,3916,-1.77,1.50,20.73,-0.41,-5.12,39.16,-4.58,2.77,-17.87,-7.29,4.40,6.13
-6,-1,174,-34,-434,3902,-1.63,1.34,19.72,-0.34,-4.34,39.02,-4.59,2.77,-17.95,-3.45,4.58,4.71
1,-2,164,-13,-387,3991,-1.46,1.20,18.75,-0.13,-3.87,39.91,-4.60,2.76,-18.02,-4.59,4.28,4.68
-3,-9,122,4,-467,3899,-1.34,1.02,17.62,0.04,-4.67,38.99,-4.61,2.76,-18.09,-3.09,5.40,7.22
4,-1,121,-14,-455,3919,-1.18,0.91,16.59,-0.14,-4.55,39.19,-4.63,2.75,-18.15,-4.27,2.96,6.39
2,-7,146,-18,-486,3961,-1.05,0.78,15.82,-0.18,-4.86,39.61,-4.64,2.75,-18.22,-3.27,3.99,3.58
-4,3,161,-10,-445,3935,-0.97,0.72,15.22,-0.10,-4.45,39.35,-4.65,2.74,-18.28,-1.44,1.22,1.77
0,17,153,-13,-443,3983,-0.87,0.75,14.63,-0.13,-4.43,39.83,-4.66,2.73,-18.33,-2.09,-2.22,1.91
-8,1,136,-7,-467,3954,-0.83,0.68,14.00,-0.07,-4.67,39.54,-4.67,2.72,-18.39,0.09,1.59,2.78
-5,2,89,18,-621,3935,-0.78,0.63,13.14,0.18,-6.21,39.35,-4.69,2.72,-18.44,-0.47,1.13,5.99
6,14,85,26,-644,3825,-0.67,0.65,12.35,0.26,-6.44,38.25,-4.71,2.72,-18.49,-2.83,-1.84,5.62
-4,14,75,-2,-578,3839,-0.62,0.67,11.57,-0.02,-5.78,38.39,-4.72,2.71,-18.53,-0.12,-1.76,5.76
3,5,69,-54,-522,4055,-0.54,0.63,10.83,-0.54,-5.22,40.55,-4.74,2.71,-18.58,-1.60,0.39,5.61
-7,4,78,-13,-606,3942,-0.53,0.59,10.23,-0.13,-6.06,39.42,-4.75,2.70,-18.62,0.99,0.50,4.30
-2,2,83,-3,-622,3895,-0.49,0.55,9.71,-0.03,-6.22,38.95,-4.77,2.70,-18.65,-0.12,0.83,3.41
7,17,129,17,-589,3976,-0.40,0.60,9.53,0.17,-5.89,39.76,-4.78,2.69,-18.69,-2.06,-2.79,-0.65
20,11,154,9,-583,3956,-0.24,0.60,9.51,0.09,-5.83,39.56,-4.79,2.69,-18.73,-4.75,-1.24,-2.78
17,5,238,-43,-533,3981,-0.11,0.57,10.01,-0.43,-5.33,39.81,-4.81,2.68,-18.77,-3.51,0.17,-9.44
-4,9,255,-69,-450,3806,-0.12,0.57,10.57,-0.69,-4.50,38.06,-4.82,2.68,-18.81,1.78,-0.85,-10.37
60,5,290,-144,-384,3938,0.26,0.54,11.28,-1.44,-3.84,39.38,-4.83,2.67,-18.85,-13.06,0.07,-12.69
35,9,296,-101,-450,3908,0.44,0.55,11.96,-1.01,-4.50,39.08,-4.84,2.67,-18.90,-5.99,-0.95,-12.57
32,39,365,-125,-312,3852,0.59,0.73,12.99,-1.25,-3.12,38.52,-4.83,2.66,-18.95,-4.67,-7.88,-17.48
46,77,386,-85,-447,3862,0.82,1.13,14.04,-0.85,-4.47,38.62,-4.84,2.65,-19.01,-7.39,-16.04,-18.30
126,173,362,-56,-286,3531,1.50,2.07,14.85,-0.56,-2.86,35.31,-4.83,2.65,-19.07,-25.14,-36.90,-15.53
133,185,293,-66,-311,4055,2.16,2.99,15.15,-0.66,-3.11,40.55,-4.82,2.65,-19.13,-24.44,-36.48,-9.40
-4,-77,139,113,-171,4408,1.92,2.22,14.48,1.13,-1.71,44.08,-4.80,2.65,-19.18,9.47,27.22,3.05
-25,-108,85,77,-319,3929,1.58,1.34,13.55,0.77,-3.19,39.29,-4.79,2.64,-19.24,13.51,31.79,6.78
58,29,4,-31,-554,3792,1.77,1.38,12.22,-0.31,-5.54,37.92,-4.79,2.64,-19.28,-6.85,-2.87,12.44
76,43,9,-63,-526,3762,2.06,1.51,11.06,-0.63,-5.26,37.62,-4.80,2.64,-19.33,-10.34,-5.96,10.96
103,-27,-6,-2,-466,3686,2.48,1.19,9.91,-0.02,-4.66,36.86,-4.80,2.63,-19.37,-15.62,10.64,11.20
270,-73,-39,-35,-716,3108,3.88,0.63,8.68,-0.35,-7.16,31.08,-4.80,2.64,-19.40,-52.80,20.21,12.89
956,120,-124,-321,-237,3485,9.32,1.30,7.06,-3.21,-2.37,34.85,-4.75,2.66,-19.43,-206.69,-26.33,18.62
948,223,-81,-83,-196,3609,14.18,2.53,5.86,-0.83,-1.96,36.09,-4.68,2.66,-19.45,-186.42,-47.88,13.89
1238,182,38,128,-470,4195,20.31,3.38,5.50,1.28,-4.70,41.95,-4.61,2.66,-19.47,-237.07,-34.23,3.48
1156,34,42,236,-224,4592,25.33,3.25,5.21,2.36,-2.24,45.92,-4.50,2.66,-19.49,-197.36,2.89,2.88
703,-74,80,299,67,3953,27.09,2.48,5.18,2.99,0.67,39.53,-4.38,2.65,-19.51,-75.65,27.42,-0.37
715,-1,27,224,-179,3909,28.74,2.22,4.82,2.24,-1.79,39.09,-4.26,2.65,-19.53,-72.51,7.91,3.81
758,3,-48,-59,-61,4063,30.49,2.02,4.05,-0.59,-0.61,40.63,-4.12,2.65,-19.55,-76.89,6.13,9.46
712,-3,-49,-80,29,4096,31.78,1.80,3.35,-0.80,0.29,40.96,-3.97,2.65,-19.56,-60.36,6.83,8.91
614,-2,-31,-109,6,3958,32.35,1.61,2.82,-1.09,0.06,39.58,-3.83,2.65,-19.57,-33.36,5.85,6.91
593,9,-22,-111,-40,4106,32.73,1.50,2.41,-1.11,-0.40,41.06,-3.68,2.65,-19.58,-26.62,2.65,5.77
368,-10,21,-46,225,4364,31.70,1.29,2.29,-0.46,2.25,43.64,-3.53,2.65,-19.59,26.66,6.69,2.02
333,9,30,-45,169,4058,30.56,1.22,2.25,-0.45,1.69,40.58,-3.39,2.65,-19.60,31.24,1.58,1.22
60,-11,16,-71,211,4215,27.87,1.03,2.12,-0.71,2.11,42.15,-3.26,2.65,-19.61,90.47,5.95,2.29
12,-13,13,-118,144,4162,25.16,0.85,1.99,-1.18,1.44,41.62,-3.14,2.65,-19.62,92.43,5.78,2.43
-118,2,2,68,83,4195,21.92,0.77,1.80,0.68,0.83,41.95,-3.04,2.64,-19.63,113.27,1.69,3.19
-288,0,-3,108,228,4297,17.97,0.70,1.60,1.08,2.28,42.97,-2.96,2.64,-19.63,141.60,1.91,3.44
-108,106,-22,112,-80,4278,15.52,1.27,1.31,1.12,-0.80,42.78,-2.89,2.63,-19.64,86.59,-22.85,4.78
-328,46,-35,136,109,4415,11.97,1.43,0.96,1.36,1.09,44.15,-2.82,2.62,-19.64,129.12,-7.03,5.57
-417,34,-79,-26,-78,3833,8.23,1.49,0.39,-0.26,-0.78,38.33,-2.78,2.61,-19.64,137.66,-3.73,8.77
-357,61,-117,34,-129,3954,5.23,1.71,-0.37,0.34,-1.29,39.54,-2.75,2.60,-19.64,111.11,-9.75,11.31
-553,5,-182,34,-7,3843,1.33,1.57,-1.44,0.34,-0.07,38.43,-2.74,2.59,-19.64,146.27,3.96,15.84
-483,53,-199,6,-42,3757,-1.75,1.74,-2.51,0.06,-0.42,37.57,-2.73,2.58,-19.63,116.89,-7.62,16.31
-366,94,-263,11,-40,3869,-3.81,2.14,-3.86,0.11,-0.40,38.69,-2.74,2.58,-19.61,79.41,-16.53,20.51
-407,63,-281,-34,-68,3997,-5.91,2.31,-5.19,-0.34,-0.68,39.97,-2.75,2.57,-19.59,81.93,-8.01,20.83
-510,29,-283,8,-539,4064,-8.43,2.25,-6.40,0.08,-5.39,40.64,-2.80,2.57,-19.56,98.64,0.43,19.90
-510,-97,-84,208,-631,3933,-10.70,1.44,-6.27,2.08,-6.31,39.33,-2.86,2.56,-19.54,90.12,29.38,3.15
-596,-52,1,55,-208,3783,-13.26,0.98,-5.64,0.55,-2.08,37.83,-2.92,2.55,-19.52,102.33,16.21,-3.48
-553,-36,-12,71,-324,3927,-15.31,0.66,-5.15,0.71,-3.24,39.27,-2.99,2.53,-19.49,83.72,10.95,-1.93
-472,-132,-99,75,-516,3445,-16.66,-0.21,-5.24,0.75,-5.16,34.45,-3.07,2.52,-19.47,58.08,32.08,5.36
-549,-101,-88,52,-381,3702,-18.34,-0.81,-5.25,0.52,-3.81,37.02,-3.15,2.50,-19.45,71.34,21.97,4.41
-324,-16,-139,-185,-446,3821,-18.48,-0.82,-5.57,-1.85,-4.46,38.21,-3.25,2.50,-19.43,13.64,0.30,8.44
-261,-12,-199,-161,-528,3463,-18.23,-0.81,-6.23,-1.61,-5.28,34.63,-3.34,2.49,-19.40,-1.38,-0.68,12.93
-81,17,-117,-227,-598,3723,-16.90,-0.63,-6.32,-2.27,-5.98,37.23,-3.43,2.49,-19.38,-42.11,-7.36,5.89
-33,4,-91,-228,-509,3725,-15.41,-0.54,-6.24,-2.28,-5.09,37.25,-3.51,2.49,-19.35,-48.69,-3.72,3.76
122,-5,-47,-258,-343,3750,-13.13,-0.52,-5.91,-2.58,-3.43,37.50,-3.57,2.50,-19.33,-79.47,-1.35,0.34
150,2,-24,-207,-297,3926,-10.90,-0.45,-5.46,-2.07,-2.97,39.26,-3.63,2.51,-19.31,-78.19,-2.89,-1.21
172,63,8,-113,-274,3908,-8.76,-0.02,-4.87,-1.13,-2.74,39.08,-3.68,2.49,-19.29,-75.73,-16.77,-3.38
178,82,6,-99,-287,3892,-6.80,0.48,-4.34,-0.99,-2.87,38.92,-3.71,2.48,-19.27,-69.86,-19.71,-2.74
132,38,2,-61,-316,4064,-5.31,0.66,-3.90,-0.61,-3.16,40.64,-3.74,2.46,-19.25,-52.58,-7.83,-2.00
106,23,3,-45,-276,4043,-4.13,0.74,-3.49,-0.45,-2.76,40.43,-3.76,2.44,-19.24,-41.53,-3.73,-1.71
52,-1,-5,-38,-249,4053,-3.40,0.66,-3.17,-0.38,-2.49,40.53,-3.77,2.43,-19.23,-25.05,2.07,-0.74
29,-2,-7,-34,-268,4013,-2.89,0.58,-2.90,-0.34,-2.68,40.13,-3.79,2.41,-19.21,-17.26,2.04,-0.33
3,5,2,-37,-292,3964,-2.58,0.55,-2.59,-0.37,-2.92,39.64,-3.80,2.39,-19.20,-9.49,0.16,-0.82
-2,3,-2,-40,-314,3934,-2.33,0.51,-2.35,-0.40,-3.14,39.34,-3.82,2.38,-19.19,-7.29,0.53,-0.25
9,-1,-7,-44,-334,3914,-2.05,0.46,-2.15,-0.44,-3.34,39.14,-3.84,2.36,-19.18,-9.00,1.34,0.35
8,1,-10,-34,-307,3941,-1.79,0.42,-2.00,-0.34,-3.07,39.41,-3.85,2.35,-19.18,-7.79,0.68,0.74
-2,5,-5,-30,-296,3970,-1.63,0.41,-1.83,-0.30,-2.96,39.70,-3.86,2.33,-19.17,-4.61,-0.37,0.47
-6,7,-7,12,-305,3970,-1.50,0.41,-1.69,0.12,-3.05,39.70,-3.87,2.31,-19.16,-3.12,-0.87,0.77
-33,8,-23,37,-352,3964,-1.55,0.42,-1.66,0.37,-3.52,39.64,-3.88,2.30,-19.15,3.55,-1.09,2.15
-36,8,-31,34,-347,3940,-1.62,0.42,-1.68,0.34,-3.47,39.40,-3.90,2.28,-19.15,4.07,-1.06,2.80
-48,10,-58,26,-338,3938,-1.75,0.44,-1.87,0.26,-3.38,39.38,-3.91,2.27,-19.14,6.63,-1.49,4.92
-52,10,-58,19,-343,3958,-1.89,0.46,-2.04,0.19,-3.43,39.58,-3.93,2.25,-19.13,7.12,-1.43,4.77
-65,-9,-81,-30,-318,3974,-2.10,0.36,-2.33,-0.30,-3.18,39.74,-3.94,2.24,-19.12,9.64,3.03,6.46
-66,-9,-82,-52,-318,3908,-2.29,0.27,-2.59,-0.52,-3.18,39.08,-3.96,2.22,-19.11,9.18,2.69,6.30
-52,9,-56,-105,-285,3948,-2.38,0.30,-2.68,-1.05,-2.85,39.48,-3.97,2.20,-19.10,5.29,-1.77,4.02
-53,9,-50,-98,-265,3928,-2.46,0.32,-2.71,-0.98,-2.65,39.28,-3.98,2.18,-19.09,5.22,-1.67,3.48
-75,0,-39,-73,-277,3972,-2.67,0.29,-2.68,-0.73,-2.77,39.72,-3.99,2.17,-19.08,10.02,0.50,2.57
-81,2,-38,-61,-307,3973,-2.90,0.27,-2.64,-0.61,-3.07,39.73,-4.01,2.15,-19.07,10.70,-0.07,2.52
-104,1,-35,-17,-293,4011,-3.25,0.25,-2.59,-0.17,-2.93,40.11,-4.02,2.13,-19.06,15.26,0.11,2.31
-115,2,-44,9,-331,3958,-3.62,0.24,-2.60,0.09,-3.31,39.58,-4.05,2.11,-19.05,16.64,-0.19,3.07
-143,-1,-54,21,-344,3958,-4.13,0.21,-2.67,0.21,-3.44,39.58,-4.07,2.10,-19.03,21.84,0.46,3.85
