gyroADC_X,gyroADC_Y,gyroADC_Z,accADC_X,accADC_Y,accADC_Z,GyroX,GyroY,GyroZ,AccX,AccY,AccZ,roll_IMU,pitch_IMU,yaw_IMU,roll_PID,pitch_PID,yaw_PID
-3,-7,-63,-50,-455,3901,-0.03,-0.15,-3.38,-0.50,-4.55,39.01,-4.64,-0.24,115.15,3.13,0.34,-8.61
-4,-7,-22,-42,-401,3884,-0.06,-0.18,-3.18,-0.42,-4.01,38.84,-4.65,-0.23,115.16,3.17,0.35,-11.87
-6,-8,-2,-38,-367,3904,-0.09,-0.21,-2.87,-0.38,-3.67,39.04,-4.66,-0.22,115.18,3.22,0.37,-13.24
-6,-10,-4,-33,-350,3892,-0.11,-0.25,-2.61,-0.33,-3.50,38.92,-4.68,-0.21,115.19,3.24,0.41,-12.79
-8,-13,-10,3,-323,3902,-0.15,-0.30,-2.41,0.03,-3.23,39.02,-4.68,-0.19,115.20,3.29,0.48,-12.07
-5,-10,-1,-13,-342,3927,-0.17,-0.33,-2.18,-0.13,-3.42,39.27,-4.69,-0.18,115.20,3.24,0.41,-12.59
-4,-10,1,-12,-330,3935,-0.17,-0.36,-1.95,-0.12,-3.30,39.35,-4.70,-0.17,115.21,3.23,0.41,-12.52
-3,-9,10,-25,-323,3921,-0.18,-0.38,-1.70,-0.25,-3.23,39.21,-4.70,-0.15,115.22,3.21,0.39,-13.01
-5,-8,13,-28,-333,3935,-0.19,-0.39,-1.45,-0.28,-3.33,39.35,-4.71,-0.13,115.22,3.26,0.36,-13.00
-12,-11,14,-43,-345,3904,-0.24,-0.42,-1.22,-0.43,-3.45,39.04,-4.71,-0.12,115.23,3.42,0.42,-12.84
-10,-12,11,-75,-361,3924,-0.28,-0.45,-1.03,-0.75,-3.61,39.24,-4.72,-0.11,115.23,3.40,0.44,-12.39
-4,-5,2,-103,-387,3923,-0.28,-0.44,-0.91,-1.03,-3.87,39.23,-4.73,-0.09,115.24,3.28,0.28,-11.51
-5,-4,3,-94,-382,3901,-0.28,-0.42,-0.80,-0.94,-3.82,39.01,-4.74,-0.08,115.24,3.31,0.25,-11.48
-3,4,6,-52,-353,3893,-0.27,-0.35,-0.69,-0.52,-3.53,38.93,-4.75,-0.06,115.24,3.27,0.06,-11.61
-2,5,13,-34,-342,3877,-0.25,-0.28,-0.54,-0.34,-3.42,38.77,-4.76,-0.05,115.24,3.25,0.01,-12.04
-1,6,12,5,-347,3934,-0.24,-0.22,-0.41,0.05,-3.47,39.34,-4.78,-0.05,115.25,3.24,-0.03,-11.82
-1,4,11,2,-336,3897,-0.22,-0.17,-0.30,0.02,-3.36,38.97,-4.80,-0.05,115.25,3.25,-0.00,-11.63
-4,-13,243,-177,86,3866,-0.22,-0.24,1.21,-1.77,0.86,38.66,-4.78,-0.04,115.24,3.30,0.36,-20.00
-5,-18,312,-29,-472,3867,-0.23,-0.32,2.99,-0.29,-4.72,38.67,-4.80,-0.04,115.23,3.33,0.48,-20.00
9,13,175,-71,-381,3947,-0.15,-0.21,3.76,-0.71,-3.81,39.47,-4.81,-0.02,115.21,3.04,-0.19,-20.00
-5,9,157,-40,-325,3924,-0.17,-0.13,4.34,-0.40,-3.25,39.24,-4.81,-0.00,115.20,3.32,-0.14,-19.07
13,1,117,-10,-320,3862,-0.07,-0.11,4.62,-0.10,-3.20,38.62,-4.80,0.01,115.18,2.93,0.00,-15.39
-6,-6,102,-26,-363,3966,-0.10,-0.14,4.78,-0.26,-3.63,39.66,-4.82,0.03,115.16,3.33,0.14,-13.94
0,8,60,28,-149,3898,-0.09,-0.08,4.67,0.28,-1.49,38.98,-4.80,0.03,115.14,3.19,-0.16,-10.50
-2,8,78,-49,-175,3853,-0.09,-0.02,4.68,-0.49,-1.75,38.53,-4.78,0.03,115.12,3.22,-0.18,-12.02
1,3,131,-54,-349,3821,-0.08,-0.00,5.01,-0.54,-3.49,38.21,-4.79,0.05,115.10,3.16,-0.09,-16.15
1,11,126,12,-408,3975,-0.06,0.07,5.28,0.12,-4.08,39.75,-4.81,0.05,115.08,3.17,-0.27,-15.44
3,17,19,94,-628,3927,-0.04,0.16,4.87,0.94,-6.28,39.27,-4.83,0.04,115.06,3.14,-0.42,-6.81
1,13,10,59,-489,3933,-0.03,0.23,4.44,0.59,-4.89,39.33,-4.85,0.04,115.04,3.19,-0.35,-6.50
0,4,4,23,-377,3908,-0.03,0.23,4.02,0.23,-3.77,39.08,-4.86,0.03,115.03,3.22,-0.17,-6.43
-1,7,9,18,-374,3894,-0.03,0.25,3.67,0.18,-3.74,38.94,-4.88,0.03,115.01,3.25,-0.23,-7.22
-1,8,16,-14,-356,3916,-0.03,0.27,3.40,-0.14,-3.56,39.16,-4.89,0.04,115.00,3.26,-0.26,-8.10
-3,8,18,-9,-351,3914,-0.05,0.29,3.17,-0.09,-3.51,39.14,-4.91,0.05,114.99,3.32,-0.27,-8.51
-7,1,91,10,-396,3926,-0.09,0.27,3.41,0.10,-3.96,39.26,-4.93,0.05,114.97,3.42,-0.12,-14.45
-7,3,110,-14,-401,3923,-0.12,0.26,3.74,-0.14,-4.01,39.23,-4.95,0.05,114.96,3.44,-0.17,-15.70
-1,6,117,-61,-363,3921,-0.11,0.27,4.08,-0.61,-3.63,39.21,-4.96,0.07,114.94,3.32,-0.24,-15.94
0,6,113,-67,-345,3905,-0.10,0.28,4.36,-0.67,-3.45,39.05,-4.96,0.09,114.93,3.30,-0.26,-15.30
2,0,40,-69,-363,3878,-0.08,0.25,4.17,-0.69,-3.63,38.78,-4.97,0.11,114.91,3.26,-0.14,-9.32
-3,1,37,-31,-341,3930,-0.09,0.23,3.98,-0.31,-3.41,39.30,-4.97,0.13,114.89,3.36,-0.17,-9.26
-4,-7,36,-35,-342,3927,-0.11,0.17,3.80,-0.35,-3.42,39.27,-4.97,0.15,114.88,3.39,-0.00,-9.37
-5,-5,37,-52,-346,3907,-0.13,0.12,3.65,-0.52,-3.46,39.07,-4.97,0.17,114.86,3.42,-0.05,-9.61
-2,-4,25,-34,-341,3926,-0.13,0.08,3.43,-0.34,-3.41,39.26,-4.97,0.19,114.85,3.35,-0.07,-8.82
-2,-4,24,-32,-363,3911,-0.13,0.05,3.24,-0.32,-3.63,39.11,-4.98,0.21,114.84,3.36,-0.07,-8.94
0,-6,32,-77,-388,3925,-0.11,0.01,3.11,-0.77,-3.88,39.25,-5.00,0.22,114.83,3.33,-0.03,-9.75
-2,-5,32,-67,-360,3924,-0.11,-0.02,2.99,-0.67,-3.60,39.24,-5.00,0.24,114.81,3.37,-0.05,-9.88
2,-2,31,-38,-312,3905,-0.09,-0.03,2.88,-0.38,-3.12,39.05,-4.99,0.25,114.80,3.28,-0.12,-9.91
-1,3,35,-20,-337,3905,-0.09,-0.01,2.81,-0.20,-3.37,39.05,-4.97,0.26,114.79,3.33,-0.23,-10.32
-2,6,43,-22,-358,3906,-0.09,0.03,2.79,-0.22,-3.58,39.06,-4.99,0.27,114.78,3.36,-0.31,-11.02
-5,6,54,16,-361,3895,-0.11,0.06,2.84,0.16,-3.61,38.95,-5.00,0.25,114.77,3.43,-0.31,-11.90
0,5,-1,77,-148,3873,-0.10,0.09,2.55,0.77,-1.48,38.73,-4.98,0.25,114.76,3.32,-0.29,-7.54
2,4,-12,82,-226,3908,-0.08,0.10,2.22,0.82,-2.26,39.08,-4.97,0.24,114.75,3.26,-0.26,-6.96
3,0,-10,-23,-326,3930,-0.05,0.09,1.94,-0.23,-3.26,39.30,-4.95,0.24,114.74,3.22,-0.19,-7.43
3,2,-10,-12,-329,3923,-0.03,0.09,1.68,-0.12,-3.29,39.23,-4.94,0.24,114.73,3.21,-0.22,-7.70
3,2,-8,-12,-333,3924,-0.01,0.10,1.47,-0.12,-3.33,39.24,-4.92,0.23,114.73,3.19,-0.22,-8.10
3,4,-8,-8,-342,3900,0.01,0.11,1.27,-0.08,-3.42,39.00,-4.93,0.21,114.72,3.19,-0.25,-8.30
5,8,-6,-21,-338,3910,0.04,0.15,1.11,-0.21,-3.38,39.10,-4.94,0.23,114.72,3.14,-0.36,-8.64
5,9,-5,-19,-337,3917,0.07,0.19,0.97,-0.19,-3.37,39.17,-4.93,0.25,114.72,3.13,-0.40,-8.88
3,7,-5,-21,-350,3924,0.08,0.21,0.84,-0.21,-3.50,39.24,-4.95,0.26,114.71,3.18,-0.37,-9.01
1,4,-5,-20,-355,3913,0.08,0.22,0.72,-0.20,-3.55,39.13,-4.96,0.26,114.71,3.23,-0.31,-9.13
-1,1,-5,-31,-337,3913,0.06,0.20,0.62,-0.31,-3.37,39.13,-4.96,0.28,114.71,3.28,-0.26,-9.24
0,1,-6,-25,-341,3911,0.06,0.19,0.52,-0.25,-3.41,39.11,-4.96,0.30,114.71,3.26,-0.27,-9.26
-4,-2,-4,-35,-349,3914,0.03,0.16,0.45,-0.35,-3.49,39.14,-4.97,0.32,114.70,3.36,-0.21,-9.51
-4,-2,-3,-32,-344,3909,-0.00,0.13,0.38,-0.32,-3.44,39.09,-4.98,0.33,114.70,3.37,-0.21,-9.66
-6,-4,-3,-24,-349,3921,-0.04,0.09,0.33,-0.24,-3.49,39.21,-5.00,0.34,114.70,3.43,-0.17,-9.72
-6,-3,-2,-18,-354,3911,-0.07,0.06,0.28,-0.18,-3.54,39.11,-5.01,0.33,114.70,3.45,-0.17,-9.86
-7,-1,-1,-20,-343,3910,-0.11,0.05,0.25,-0.20,-3.43,39.10,-5.01,0.31,114.70,3.48,-0.20,-9.98
-7,0,-1,-15,-350,3914,-0.14,0.05,0.22,-0.15,-3.50,39.14,-5.03,0.30,114.70,3.50,-0.21,-10.01
-2,4,-3,-28,-391,3899,-0.14,0.07,0.18,-0.28,-3.91,38.99,-5.05,0.30,114.70,3.41,-0.30,-9.88
-3,5,2,19,-300,3918,-0.14,0.09,0.17,0.19,-3.00,39.18,-5.03,0.29,114.70,3.42,-0.32,-10.31
-1,4,0,-12,-332,3920,-0.13,0.11,0.15,-0.12,-3.32,39.20,-5.02,0.28,114.70,3.37,-0.30,-10.16
-1,3,0,-6,-339,3920,-0.13,0.11,0.14,-0.06,-3.39,39.20,-5.01,0.27,114.70,3.36,-0.27,-10.18
-3,1,0,-20,-343,3909,-0.13,0.11,0.12,-0.20,-3.43,39.09,-5.01,0.28,114.70,3.41,-0.24,-10.19
-4,2,1,-24,-355,3906,-0.14,0.11,0.12,-0.24,-3.55,39.06,-5.03,0.29,114.70,3.44,-0.26,-10.28
-3,4,5,-37,-372,3914,-0.15,0.12,0.14,-0.37,-3.72,39.14,-5.05,0.30,114.69,3.43,-0.31,-10.60
-3,5,8,-35,-373,3908,-0.15,0.14,0.17,-0.35,-3.73,39.08,-5.07,0.31,114.69,3.44,-0.34,-10.82
2,11,22,-37,-352,3926,-0.12,0.19,0.29,-0.37,-3.52,39.26,-5.07,0.33,114.69,3.34,-0.49,-11.88
2,9,15,-13,-319,3930,-0.10,0.23,0.35,-0.13,-3.19,39.30,-5.05,0.32,114.69,3.32,-0.46,-11.22
1,6,9,-14,-354,3908,-0.08,0.24,0.37,-0.14,-3.54,39.08,-5.07,0.31,114.69,3.35,-0.39,-10.69
2,4,11,-37,-371,3937,-0.06,0.24,0.40,-0.37,-3.71,39.37,-5.08,0.32,114.69,3.33,-0.36,-10.83
-9,5,137,33,-395,3980,-0.11,0.25,1.20,0.33,-3.95,39.80,-5.09,0.31,114.68,3.57,-0.37,-20.00
-9,-14,115,-115,-300,3944,-0.15,0.14,1.78,-1.15,-3.00,39.44,-5.08,0.33,114.68,3.58,0.03,-18.18
-7,0,60,-16,-174,3912,-0.18,0.13,1.97,-0.16,-1.74,39.12,-5.07,0.33,114.67,3.54,-0.25,-13.32
-5,1,38,-24,-174,3909,-0.19,0.12,2.00,-0.24,-1.74,39.09,-5.05,0.33,114.66,3.49,-0.27,-11.42
2,13,5,-10,-315,3911,-0.16,0.19,1.83,-0.10,-3.15,39.11,-5.03,0.32,114.65,3.33,-0.53,-8.80
-1,6,2,-19,-325,3922,-0.15,0.20,1.66,-0.19,-3.25,39.22,-5.02,0.32,114.65,3.37,-0.39,-8.73
-4,-1,-4,-26,-333,3915,-0.16,0.18,1.47,-0.26,-3.33,39.15,-5.00,0.33,114.64,3.42,-0.25,-8.42
-4,-2,-5,-26,-336,3914,-0.17,0.15,1.29,-0.26,-3.36,39.14,-4.98,0.34,114.64,3.42,-0.22,-8.52
-1,-2,-8,-25,-343,3904,-0.16,0.12,1.12,-0.25,-3.43,39.04,-5.00,0.35,114.63,3.36,-0.22,-8.46
1,-2,-9,-26,-342,3906,-0.14,0.10,0.95,-0.26,-3.42,39.06,-5.00,0.37,114.63,3.32,-0.23,-8.55
2,0,-9,-23,-346,3901,-0.11,0.09,0.80,-0.23,-3.46,39.01,-5.02,0.36,114.63,3.30,-0.26,-8.71
0,-1,-7,-17,-345,3908,-0.10,0.07,0.68,-0.17,-3.45,39.08,-5.02,0.34,114.62,3.34,-0.23,-9.01
-2,-1,-6,-24,-345,3909,-0.10,0.06,0.57,-0.24,-3.45,39.09,-5.04,0.35,114.62,3.40,-0.23,-9.20
-1,-1,-5,-18,-340,3922,-0.10,0.05,0.48,-0.18,-3.40,39.22,-5.03,0.34,114.62,3.37,-0.22,-9.38
-2,-3,-5,-21,-340,3907,-0.10,0.02,0.41,-0.21,-3.40,39.07,-5.01,0.33,114.62,3.38,-0.16,-9.46
-3,-5,-6,-26,-346,3908,-0.11,-0.01,0.33,-0.26,-3.46,39.08,-5.03,0.34,114.62,3.41,-0.12,-9.46
-3,-2,-6,-23,-353,3919,-0.12,-0.02,0.26,-0.23,-3.53,39.19,-5.05,0.34,114.61,3.42,-0.18,-9.53
-2,-1,-6,-23,-354,3926,-0.12,-0.02,0.20,-0.23,-3.54,39.26,-5.06,0.34,114.61,3.41,-0.20,-9.60
-2,0,-6,-18,-350,3914,-0.12,-0.02,0.14,-0.18,-3.50,39.14,-5.07,0.32,114.61,3.42,-0.21,-9.66
-2,0,-6,-16,-346,3917,-0.12,-0.02,0.09,-0.16,-3.46,39.17,-5.07,0.31,114.61,3.42,-0.20,-9.71
-4,0,-4,-16,-353,3915,-0.13,-0.02,0.06,-0.16,-3.53,39.15,-5.08,0.29,114.61,3.47,-0.19,-9.92
-6,0,-3,-12,-363,3909,-0.15,-0.02,0.03,-0.12,-3.63,39.09,-5.10,0.29,114.61,3.53,-0.18,-10.03
-10,-2,3,-27,-336,3919,-0.20,-0.03,0.05,-0.27,-3.36,39.19,-5.08,0.29,114.61,3.61,-0.15,-10.52
-10,-1,3,-29,-349,3919,-0.24,-0.03,0.06,-0.29,-3.49,39.19,-5.09,0.31,114.61,3.63,-0.18,-10.50
-5,10,25,-43,-356,3919,-0.25,0.03,0.21,-0.43,-3.56,39.19,-5.09,0.33,114.61,3.53,-0.43,-12.21
0,9,18,-16,-319,3935,-0.22,0.09,0.30,-0.16,-3.19,39.35,-5.08,0.33,114.61,3.41,-0.42,-11.53
2,1,16,-54,-413,3943,-0.19,0.08,0.36,-0.54,-4.13,39.43,-5.09,0.34,114.61,3.37,-0.26,-11.28
18,-14,26,-140,-603,4027,-0.06,-0.01,0.49,-1.40,-6.03,40.27,-5.11,0.34,114.61,3.02,0.06,-12.00
-12,-3,187,-72,-406,3961,-0.13,-0.03,1.58,-0.72,-4.06,39.61,-5.12,0.36,114.60,3.66,-0.17,-20.00
5,-28,182,-73,-391,3981,-0.08,-0.20,2.53,-0.73,-3.91,39.81,-5.13,0.37,114.59,3.31,0.38,-20.00
0,-14,132,-42,-32,3895,-0.08,-0.26,3.08,-0.42,-0.32,38.95,-5.12,0.37,114.58,3.40,0.11,-18.23
4,-12,92,39,-65,3839,-0.04,-0.31,3.34,0.39,-0.65,38.39,-5.10,0.37,114.56,3.30,0.09,-14.57
-1,15,43,17,-343,3912,-0.04,-0.19,3.26,0.17,-3.43,39.12,-5.10,0.35,114.55,3.40,-0.49,-10.50
-1,15,47,14,-387,3931,-0.05,-0.08,3.22,0.14,-3.87,39.31,-5.11,0.34,114.54,3.41,-0.51,-10.88
-1,2,70,-39,-411,3930,-0.05,-0.06,3.33,-0.39,-4.11,39.30,-5.13,0.34,114.53,3.42,-0.25,-12.71
0,-2,103,-51,-483,3958,-0.04,-0.06,3.62,-0.51,-4.83,39.58,-5.14,0.35,114.51,3.41,-0.17,-15.19
-16,-6,112,-51,-361,3900,-0.14,-0.09,3.95,-0.51,-3.61,39.00,-5.15,0.37,114.50,3.76,-0.09,-15.62
-7,-4,109,-6,-285,3904,-0.17,-0.11,4.22,-0.06,-2.85,39.04,-5.13,0.36,114.48,3.58,-0.13,-15.07
-4,3,76,-34,-368,3899,-0.17,-0.08,4.26,-0.34,-3.68,38.99,-5.15,0.37,114.46,3.53,-0.29,-12.23
0,0,78,-64,-410,3918,-0.16,-0.07,4.31,-0.64,-4.10,39.18,-5.17,0.38,114.44,3.45,-0.23,-12.35
0,5,49,-61,-283,3900,-0.14,-0.03,4.18,-0.61,-2.83,39.00,-5.15,0.39,114.43,3.44,-0.35,-10.03
6,6,38,-33,-288,3917,-0.09,0.01,3.99,-0.33,-2.88,39.17,-5.13,0.40,114.41,3.29,-0.39,-9.29
7,6,-14,-16,-280,3897,-0.04,0.04,3.51,-0.16,-2.80,38.97,-5.12,0.40,114.40,3.24,-0.39,-5.40
8,6,-26,-28,-299,3902,0.01,0.07,3.00,-0.28,-2.99,39.02,-5.10,0.40,114.39,3.20,-0.40,-4.92
-1,-2,-29,15,-355,3936,0.01,0.05,2.52,0.15,-3.55,39.36,-5.10,0.38,114.38,3.38,-0.23,-5.17
-7,-6,-16,1,-371,3932,-0.04,0.01,2.17,0.01,-3.71,39.32,-5.11,0.37,114.37,3.52,-0.12,-6.64
-7,-12,-16,-108,-405,3900,-0.08,-0.06,1.86,-1.08,-4.05,39.00,-5.12,0.38,114.36,3.54,0.01,-6.97
-5,-11,-20,-107,-400,3908,-0.10,-0.12,1.55,-1.07,-4.00,39.08,-5.13,0.40,114.35,3.51,-0.01,-6.96
-8,0,4,-23,-405,3906,-0.14,-0.11,1.42,-0.23,-4.05,39.06,-5.15,0.40,114.35,3.60,-0.23,-9.13
-8,-2,8,-8,-366,3888,-0.17,-0.11,1.32,-0.08,-3.66,38.88,-5.16,0.38,114.34,3.62,-0.18,-9.57
-6,7,20,2,-319,3933,-0.19,-0.06,1.31,0.02,-3.19,39.33,-5.15,0.37,114.34,3.57,-0.37,-10.59
-5,5,21,5,-310,3936,-0.20,-0.02,1.31,0.05,-3.10,39.36,-5.13,0.36,114.33,3.54,-0.33,-10.68
-7,-5,17,-42,-387,3958,-0.23,-0.05,1.28,-0.42,-3.87,39.58,-5.15,0.37,114.33,3.60,-0.13,-10.37
-8,-6,23,-32,-384,3940,-0.25,-0.08,1.30,-0.32,-3.84,39.40,-5.17,0.37,114.32,3.64,-0.10,-10.87
-3,-4,33,-20,-356,3928,-0.24,-0.10,1.37,-0.20,-3.56,39.28,-5.17,0.36,114.32,3.54,-0.13,-11.64
-13,1,44,-33,-434,3901,-0.30,-0.08,1.50,-0.33,-4.34,39.01,-5.19,0.36,114.31,3.77,-0.23,-12.43
5,6,69,-135,-429,3938,-0.24,-0.04,1.77,-1.35,-4.29,39.38,-5.20,0.37,114.30,3.40,-0.36,-14.26
4,6,77,-50,-413,3940,-0.19,0.00,2.06,-0.50,-4.13,39.40,-5.22,0.38,114.30,3.42,-0.38,-14.63
-3,8,105,33,-328,3918,-0.19,0.05,2.50,0.33,-3.28,39.18,-5.21,0.37,114.29,3.55,-0.42,-16.54
-2,9,113,29,-289,3908,-0.18,0.10,2.94,0.29,-2.89,39.08,-5.20,0.36,114.27,3.52,-0.45,-16.75
-8,1,79,70,-251,3882,-0.21,0.10,3.12,0.70,-2.51,38.82,-5.19,0.35,114.26,3.64,-0.28,-13.67
-8,2,72,44,-250,3925,-0.24,0.10,3.25,0.44,-2.50,39.25,-5.17,0.34,114.25,3.64,-0.29,-12.94
-3,6,47,3,-345,3940,-0.24,0.13,3.21,0.03,-3.45,39.40,-5.16,0.32,114.24,3.53,-0.37,-10.86
-2,9,54,5,-376,3951,-0.22,0.17,3.22,0.05,-3.76,39.51,-5.18,0.31,114.22,3.52,-0.43,-11.44
-4,-6,72,7,-387,3928,-0.23,0.12,3.34,0.07,-3.87,39.28,-5.19,0.30,114.21,3.57,-0.11,-12.84
-26,5,147,88,-504,3879,-0.36,0.13,3.90,0.88,-5.04,38.79,-5.21,0.29,114.19,4.06,-0.33,-18.60
-10,9,186,-60,-234,3906,-0.39,0.18,4.65,-0.60,-2.34,39.06,-5.19,0.30,114.18,3.73,-0.43,-20.00
6,1,143,-89,-174,3940,-0.31,0.16,5.05,-0.89,-1.74,39.40,-5.17,0.31,114.16,3.38,-0.27,-17.04
-1,12,143,74,-659,3958,-0.29,0.22,5.42,0.74,-6.59,39.58,-5.19,0.30,114.13,3.53,-0.51,-16.65
6,26,215,152,-581,3930,-0.22,0.36,6.19,1.52,-5.81,39.30,-5.21,0.30,114.11,3.38,-0.82,-20.00
-1,-4,306,76,-431,3920,-0.21,0.30,7.44,0.76,-4.31,39.20,-5.22,0.29,114.08,3.52,-0.19,-20.00
-8,-11,295,54,-203,3906,-0.23,0.20,8.49,0.54,-2.03,39.06,-5.20,0.28,114.05,3.66,-0.02,-20.00
-11,-15,289,-32,-297,3872,-0.28,0.09,9.41,-0.32,-2.97,38.72,-5.19,0.29,114.01,3.72,0.09,-20.00
-24,-6,281,0,-233,3865,-0.40,0.04,10.18,0.00,-2.33,38.65,-5.17,0.29,113.97,4.01,-0.08,-20.00
-5,-3,188,-125,-266,3895,-0.39,0.02,10.31,-1.25,-2.66,38.95,-5.16,0.31,113.93,3.61,-0.15,-15.27
-3,-1,174,-89,-393,3943,-0.37,0.01,10.34,-0.89,-3.93,39.43,-5.17,0.33,113.89,3.57,-0.20,-14.04
-6,-7,192,-24,-425,3941,-0.37,-0.03,10.48,-0.24,-4.25,39.41,-5.19,0.33,113.84,3.65,-0.07,-15.42
-8,-9,199,-60,-444,3914,-0.38,-0.08,10.64,-0.60,-4.44,39.14,-5.21,0.34,113.80,3.70,-0.02,-15.83
-4,-10,191,-92,-343,3932,-0.37,-0.14,10.74,-0.92,-3.43,39.32,-5.21,0.36,113.76,3.62,-0.00,-15.04
-7,-7,170,-111,-287,3925,-0.37,-0.16,10.71,-1.11,-2.87,39.25,-5.19,0.38,113.72,3.67,-0.06,-13.30
-3,-8,193,-84,-480,3883,-0.35,-0.20,10.81,-0.84,-4.80,38.83,-5.21,0.39,113.67,3.60,-0.04,-15.13
-8,-12,203,-25,-393,4017,-0.37,-0.25,10.97,-0.25,-3.93,40.17,-5.23,0.39,113.63,3.72,0.05,-15.81
-5,0,220,6,-433,3909,-0.36,-0.23,11.22,0.06,-4.33,39.09,-5.25,0.39,113.58,3.66,-0.20,-16.99
8,-8,216,-52,-381,3919,-0.28,-0.25,11.41,-0.52,-3.81,39.19,-5.26,0.41,113.54,3.39,-0.04,-16.44
-29,-14,261,-56,-354,3876,-0.42,-0.31,11.86,-0.56,-3.54,38.76,-5.26,0.43,113.49,4.18,0.09,-19.77
2,-8,253,-88,-296,3928,-0.37,-0.33,12.22,-0.88,-2.96,39.28,-5.25,0.44,113.44,3.52,-0.04,-18.71
-21,-15,297,-98,-249,3891,-0.46,-0.39,12.81,-0.98,-2.49,38.91,-5.23,0.46,113.39,4.01,0.11,-20.00
-18,8,331,-51,-304,3961,-0.52,-0.30,13.55,-0.51,-3.04,39.61,-5.22,0.47,113.34,3.95,-0.39,-20.00
-10,13,277,-11,-262,3971,-0.53,-0.19,13.88,-0.11,-2.62,39.71,-5.20,0.47,113.28,3.78,-0.52,-18.96
-8,0,261,43,-356,3922,-0.53,-0.17,14.09,0.43,-3.56,39.22,-5.20,0.45,113.23,3.74,-0.25,-17.39
5,-8,303,-10,-262,3914,-0.45,-0.20,14.53,-0.10,-2.62,39.14,-5.19,0.45,113.17,3.44,-0.08,-20.00
-20,-3,307,93,-379,3864,-0.52,-0.20,14.95,0.93,-3.79,38.64,-5.19,0.44,113.11,3.98,-0.17,-20.00
7,7,376,78,-304,3970,-0.43,-0.14,15.74,0.78,-3.04,39.70,-5.19,0.43,113.05,3.40,-0.39,-20.00
7,14,385,72,-372,3875,-0.34,-0.04,16.52,0.72,-3.72,38.75,-5.19,0.42,112.98,3.38,-0.55,-20.00
5,-3,350,88,-390,3943,-0.28,-0.05,17.00,0.88,-3.90,39.43,-5.20,0.40,112.91,3.40,-0.19,-20.00
1,-5,350,69,-299,3874,-0.24,-0.08,17.44,0.69,-2.99,38.74,-5.19,0.39,112.84,3.47,-0.14,-20.00
-4,-5,409,38,-283,3908,-0.24,-0.10,18.19,0.38,-2.83,39.08,-5.17,0.39,112.77,3.56,-0.13,-20.00
-4,9,422,-20,-367,3876,-0.24,-0.04,18.94,-0.20,-3.67,38.76,-5.19,0.39,112.69,3.57,-0.43,-20.00
9,22,367,-22,-464,3925,-0.16,0.10,19.29,-0.22,-4.64,39.25,-5.21,0.40,112.62,3.30,-0.74,-20.00
3,12,357,7,-308,3939,-0.13,0.16,19.54,0.07,-3.08,39.39,-5.20,0.39,112.54,3.40,-0.55,-19.69
-14,8,409,37,-319,3882,-0.20,0.20,20.08,0.37,-3.19,38.82,-5.19,0.38,112.46,3.76,-0.47,-20.00
11,14,425,-10,-340,3951,-0.11,0.26,20.66,-0.10,-3.40,39.51,-5.17,0.38,112.38,3.22,-0.61,-20.00
-6,-2,577,-23,-390,3955,-0.14,0.22,22.12,-0.23,-3.90,39.55,-5.19,0.39,112.29,3.59,-0.28,-20.00
-25,0,600,28,-523,3866,-0.28,0.20,23.56,0.28,-5.23,38.66,-5.21,0.39,112.20,4.02,-0.31,-20.00
5,14,613,-140,-396,3808,-0.22,0.27,24.95,-1.40,-3.96,38.08,-5.22,0.42,112.10,3.40,-0.63,-20.00
6,3,594,-170,-349,3874,-0.16,0.26,26.08,-1.70,-3.49,38.74,-5.22,0.45,111.99,3.36,-0.43,-20.00
-1,24,689,-141,-509,3849,-0.15,0.38,27.67,-1.41,-5.09,38.49,-5.23,0.47,111.88,3.51,-0.90,-20.00
-20,25,752,-141,-521,3928,-0.26,0.49,29.49,-1.41,-5.21,39.28,-5.25,0.49,111.77,3.94,-0.97,-20.00
-18,25,935,-235,-394,3960,-0.34,0.60,32.25,-2.35,-3.94,39.60,-5.25,0.52,111.64,3.92,-1.02,-20.00
12,33,947,-265,-409,3760,-0.23,0.74,34.80,-2.65,-4.09,37.60,-5.25,0.56,111.50,3.29,-1.24,-20.00
3,25,959,-136,-437,3937,-0.19,0.82,37.17,-1.36,-4.37,39.37,-5.26,0.59,111.35,3.47,-1.12,-20.00
-12,16,910,49,-475,4008,-0.25,0.83,39.00,0.49,-4.75,40.08,-5.28,0.60,111.20,3.79,-0.95,-20.00
-24,4,739,50,159,3888,-0.37,0.77,39.61,0.50,1.59,38.88,-5.26,0.61,111.04,4.06,-0.69,-20.00
-16,1,728,80,118,3944,-0.43,0.70,40.09,0.80,1.18,39.44,-5.24,0.62,110.88,3.90,-0.62,-20.00
0,16,560,269,-151,3937,-0.39,0.73,39.50,2.69,-1.51,39.37,-5.23,0.62,110.72,3.56,-0.94,-15.59
-3,-11,444,86,2,3897,-0.37,0.59,38.26,0.86,0.02,38.97,-5.21,0.63,110.57,3.60,-0.36,-7.06
15,4,408,146,-230,3942,-0.24,0.56,36.92,1.46,-2.30,39.42,-5.20,0.64,110.42,3.19,-0.65,-5.41
7,1,411,123,-293,3924,-0.17,0.51,35.73,1.23,-2.93,39.24,-5.20,0.63,110.28,3.33,-0.58,-6.91
-1,-2,470,-82,-174,3844,-0.16,0.44,35.03,-0.82,-1.74,38.44,-5.18,0.65,110.14,3.48,-0.51,-12.64
-9,-5,487,-50,-213,3875,-0.20,0.37,34.50,-0.50,-2.13,38.75,-5.16,0.67,110.00,3.64,-0.44,-14.63
5,13,529,-126,-324,3901,-0.15,0.41,34.27,-1.26,-3.24,39.01,-5.15,0.70,109.87,3.34,-0.84,-18.41
-11,24,539,41,-613,3994,-0.20,0.52,34.13,0.41,-6.13,39.94,-5.17,0.71,109.73,3.69,-1.09,-19.40
-12,19,512,-14,-511,3890,-0.25,0.58,33.84,-0.14,-5.11,38.90,-5.18,0.72,109.60,3.73,-1.02,-17.41
0,28,494,-52,-438,3916,-0.23,0.69,33.47,-0.52,-4.38,39.16,-5.20,0.73,109.46,3.50,-1.24,-16.26
7,-2,420,-4,-262,3903,-0.16,0.61,32.69,-0.04,-2.62,39.03,-5.18,0.74,109.33,3.32,-0.61,-10.81
-15,0,425,7,-283,3862,-0.24,0.55,32.01,0.07,-2.83,38.62,-5.17,0.74,109.21,3.78,-0.64,-11.94
-7,9,425,-7,-365,3878,-0.26,0.55,31.40,-0.07,-3.65,38.78,-5.17,0.74,109.08,3.63,-0.82,-12.57
-7,6,417,23,-322,3882,-0.27,0.53,30.81,0.23,-3.22,38.82,-5.17,0.73,108.96,3.63,-0.75,-12.52
-7,-8,392,-30,-452,3924,-0.29,0.43,30.12,-0.30,-4.52,39.24,-5.18,0.74,108.84,3.64,-0.44,-11.12
-5,9,382,15,-402,3959,-0.29,0.44,29.43,0.15,-4.02,39.59,-5.19,0.74,108.72,3.61,-0.79,-10.98
-15,1,416,-6,-509,3890,-0.35,0.40,29.03,-0.06,-5.09,38.90,-5.21,0.75,108.61,3.84,-0.62,-14.28
-8,4,415,-23,-447,3941,-0.37,0.39,28.66,-0.23,-4.47,39.41,-5.23,0.75,108.49,3.71,-0.68,-14.58
-2,3,409,65,-334,3881,-0.34,0.37,28.29,0.65,-3.34,38.81,-5.23,0.75,108.38,3.58,-0.65,-14.45
-1,-9,421,52,-270,3911,-0.31,0.28,28.03,0.52,-2.70,39.11,-5.21,0.74,108.27,3.55,-0.38,-15.74
8,-4,432,-108,-308,3844,-0.23,0.22,27.86,-1.08,-3.08,38.44,-5.20,0.77,108.16,3.33,-0.49,-16.83
-12,3,430,-18,-561,3916,-0.28,0.22,27.70,-0.18,-5.61,39.16,-5.22,0.78,108.05,3.77,-0.63,-16.83
-13,-3,395,-217,-375,3922,-0.33,0.18,27.34,-2.17,-3.75,39.22,-5.22,0.81,107.94,3.80,-0.52,-14.23
0,1,379,-130,-416,3903,-0.30,0.17,26.91,-1.30,-4.16,39.03,-5.23,0.83,107.83,3.54,-0.61,-13.32
-2,26,377,-99,-476,3953,-0.28,0.31,26.52,-0.99,-4.76,39.53,-5.25,0.85,107.73,3.58,-1.17,-13.55
-10,-2,370,-92,-463,3922,-0.32,0.27,26.13,-0.92,-4.63,39.22,-5.27,0.86,107.62,3.77,-0.60,-13.37
-16,-7,482,-124,-212,3888,-0.38,0.20,26.45,-1.24,-2.12,38.88,-5.25,0.88,107.52,3.89,-0.49,-20.00
-16,1,533,-174,-270,3883,-0.44,0.18,27.06,-1.74,-2.70,38.83,-5.24,0.91,107.41,3.90,-0.67,-20.00
23,28,667,-81,-422,3933,-0.26,0.34,28.42,-0.81,-4.22,39.33,-5.26,0.92,107.30,3.07,-1.27,-20.00
-11,16,690,21,-355,3942,-0.30,0.40,29.79,0.21,-3.55,39.42,-5.25,0.92,107.18,3.77,-1.04,-20.00
1,3,717,29,-337,3917,-0.26,0.38,31.18,0.29,-3.37,39.17,-5.25,0.91,107.05,3.51,-0.77,-20.00
21,8,722,76,-303,3932,-0.11,0.39,32.47,0.76,-3.03,39.32,-5.24,0.91,106.93,3.06,-0.87,-20.00
8,-43,753,92,-160,4013,-0.05,0.09,33.82,0.92,-1.60,40.13,-5.22,0.91,106.79,3.30,0.25,-20.00
-10,-52,766,110,-199,3869,-0.10,-0.24,35.11,1.10,-1.99,38.69,-5.21,0.91,106.65,3.67,0.52,-20.00
-11,-32,760,129,-406,3940,-0.16,-0.41,36.23,1.29,-4.06,39.40,-5.21,0.90,106.51,3.71,0.17,-20.00
-7,-15,746,63,-508,3892,-0.19,-0.46,37.16,0.63,-5.08,38.92,-5.22,0.90,106.36,3.64,-0.17,-20.00
-19,-2,647,-105,-302,3930,-0.28,-0.43,37.39,-1.05,-3.02,39.30,-5.21,0.93,106.21,3.90,-0.45,-20.00
-2,-8,597,53,-209,3894,-0.27,-0.43,37.29,0.53,-2.09,38.94,-5.19,0.93,106.06,3.54,-0.33,-20.00
-8,2,469,9,-361,3883,-0.29,-0.38,36.42,0.09,-3.61,38.83,-5.19,0.92,105.91,3.67,-0.55,-10.70
-9,0,436,-94,-288,3898,-0.32,-0.34,35.44,-0.94,-2.88,38.98,-5.18,0.94,105.77,3.69,-0.53,-8.93
1,5,372,-49,-407,3884,-0.28,-0.27,34.17,-0.49,-4.07,38.84,-5.19,0.95,105.64,3.48,-0.65,-4.84
17,2,367,-135,-394,3906,-0.15,-0.24,32.99,-1.35,-3.94,39.06,-5.20,0.97,105.51,3.13,-0.62,-5.66
-17,-5,348,-42,-372,3888,-0.24,-0.24,31.81,-0.42,-3.72,38.88,-5.21,0.97,105.38,3.85,-0.47,-5.28
-9,3,341,-67,-325,3893,-0.27,-0.20,30.71,-0.67,-3.25,38.93,-5.19,0.98,105.26,3.68,-0.65,-5.84
-16,-6,305,17,-460,3898,-0.34,-0.22,29.50,0.17,-4.60,38.98,-5.20,0.98,105.14,3.85,-0.46,-4.06
9,4,281,13,-434,3921,-0.25,-0.17,28.27,0.13,-4.34,39.21,-5.22,0.97,105.03,3.33,-0.68,-3.33
-5,13,205,-74,-428,3860,-0.26,-0.07,26.69,-0.74,-4.28,38.60,-5.23,0.99,104.92,3.62,-0.89,1.45
-5,11,187,-97,-406,3888,-0.26,0.00,25.16,-0.97,-4.06,38.88,-5.25,1.00,104.82,3.64,-0.89,1.37
-4,9,176,-49,-386,3894,-0.26,0.06,23.72,-0.49,-3.86,38.94,-5.26,1.00,104.73,3.62,-0.86,0.78
2,14,190,-31,-344,3883,-0.22,0.14,22.51,-0.31,-3.44,38.83,-5.25,0.99,104.64,3.49,-0.98,-1.68
-5,9,286,-29,-387,3915,-0.23,0.18,22.00,-0.29,-3.87,39.15,-5.26,0.99,104.55,3.64,-0.88,-10.34
-1,8,310,0,-411,3923,-0.21,0.21,21.69,0.00,-4.11,39.23,-5.27,0.98,104.46,3.56,-0.87,-12.70
-10,4,284,-41,-441,3913,-0.25,0.21,21.25,-0.41,-4.41,39.13,-5.29,0.98,104.38,3.76,-0.79,-10.95
-2,8,271,-36,-393,3918,-0.24,0.24,20.78,-0.36,-3.93,39.18,-5.30,0.98,104.30,3.61,-0.87,-10.34
-4,6,233,5,-424,3884,-0.24,0.25,20.12,0.05,-4.24,38.84,-5.32,0.97,104.22,3.65,-0.83,-7.81
-2,6,228,18,-417,3901,-0.23,0.26,19.50,0.18,-4.17,39.01,-5.32,0.97,104.14,3.62,-0.83,-8.04
-8,15,256,39,-492,3874,-0.25,0.33,19.11,0.39,-4.92,38.74,-5.34,0.96,104.06,3.76,-1.03,-10.81
-15,4,249,-30,-494,3879,-0.32,0.32,18.72,-0.30,-4.94,38.79,-5.36,0.97,103.99,3.93,-0.81,-10.63
-6,10,253,-6,-483,3929,-0.32,0.35,18.39,-0.06,-4.83,39.29,-5.37,0.97,103.92,3.76,-0.94,-11.31
1,12,268,-5,-527,3917,-0.29,0.39,18.19,-0.05,-5.27,39.17,-5.39,0.97,103.84,3.61,-0.99,-12.79
-9,13,363,-6,-556,3968,-0.31,0.43,18.58,-0.06,-5.56,39.68,-5.41,0.97,103.77,3.84,-1.02,-20.00
-10,9,385,-83,-567,3901,-0.34,0.44,19.07,-0.83,-5.67,39.01,-5.43,0.98,103.69,3.88,-0.95,-20.00
-14,4,428,33,-285,3948,-0.39,0.42,19.78,0.33,-2.85,39.48,-5.41,0.98,103.62,3.96,-0.84,-20.00
-6,9,445,10,-267,3880,-0.39,0.43,20.51,0.10,-2.67,38.80,-5.40,0.98,103.53,3.79,-0.95,-20.00
-3,15,436,-48,-165,3951,-0.37,0.48,21.12,-0.48,-1.65,39.51,-5.38,0.98,103.45,3.71,-1.09,-20.00
-15,16,419,-4,-71,3857,-0.42,0.53,21.57,-0.04,-0.71,38.57,-5.36,0.99,103.36,3.96,-1.12,-20.00
13,20,331,-191,-153,3871,-0.30,0.60,21.43,-1.91,-1.53,38.71,-5.35,1.01,103.28,3.35,-1.24,-14.65
-9,23,317,-119,-97,3895,-0.33,0.68,21.22,-1.19,-0.97,38.95,-5.33,1.02,103.19,3.79,-1.33,-13.68
-2,27,299,29,-261,3945,-0.31,0.78,20.92,0.29,-2.61,39.45,-5.32,1.02,103.11,3.63,-1.44,-12.46
-2,24,306,18,-309,3924,-0.29,0.85,20.70,0.18,-3.09,39.24,-5.31,1.02,103.03,3.62,-1.39,-13.28
-10,9,343,51,-412,3890,-0.32,0.82,20.72,0.51,-4.12,38.90,-5.31,1.01,102.95,3.80,-1.07,-16.39
-15,6,369,47,-422,3940,-0.38,0.77,20.90,0.47,-4.22,39.40,-5.32,1.01,102.86,3.92,-1.00,-18.39
-32,-14,441,-57,-275,3829,-0.54,0.61,21.50,-0.57,-2.75,38.29,-5.30,1.02,102.78,4.30,-0.55,-20.00
-19,-18,457,-225,-201,3860,-0.60,0.44,22.14,-2.25,-2.01,38.60,-5.29,1.04,102.69,4.04,-0.44,-20.00
-2,31,448,-69,-545,3943,-0.55,0.58,22.66,-0.69,-5.45,39.43,-5.31,1.05,102.60,3.70,-1.48,-20.00
-10,32,439,9,-545,3922,-0.56,0.72,23.07,0.09,-5.45,39.22,-5.33,1.05,102.51,3.87,-1.54,-20.00
5,54,453,-55,-443,3876,-0.47,0.98,23.52,-0.55,-4.43,38.76,-5.34,1.06,102.42,3.55,-2.06,-20.00
-7,62,485,-79,-430,3870,-0.47,1.26,24.13,-0.79,-4.30,38.70,-5.36,1.08,102.32,3.81,-2.31,-20.00
-21,55,624,-75,-307,3909,-0.55,1.47,25.52,-0.75,-3.07,39.09,-5.34,1.09,102.22,4.10,-2.24,-20.00
-3,58,630,-34,-295,3958,-0.51,1.67,26.81,-0.34,-2.95,39.58,-5.33,1.10,102.11,3.72,-2.36,-20.00
-21,19,547,36,-307,3889,-0.59,1.62,27.47,0.36,-3.07,38.89,-5.32,1.10,102.00,4.10,-1.56,-20.00
-17,17,502,19,-363,3863,-0.63,1.56,27.78,0.19,-3.63,38.63,-5.32,1.10,101.89,4.03,-1.50,-20.00
-10,18,497,-10,-323,3837,-0.63,1.52,28.04,-0.10,-3.23,38.37,-5.31,1.10,101.78,3.88,-1.51,-20.00
11,2,515,-83,-116,3883,-0.50,1.38,28.38,-0.83,-1.16,38.83,-5.30,1.12,101.67,3.41,-1.15,-20.00
-4,8,564,-110,-292,3906,-0.48,1.29,28.98,-1.10,-2.92,39.06,-5.28,1.14,101.55,3.69,-1.27,-20.00
-8,10,569,-59,-419,3968,-0.48,1.22,29.55,-0.59,-4.19,39.68,-5.30,1.15,101.44,3.79,-1.29,-20.00
-18,11,624,-12,-509,3939,-0.54,1.17,30.40,-0.12,-5.09,39.39,-5.31,1.16,101.32,4.02,-1.31,-20.00
18,44,664,-102,-499,3967,-0.37,1.32,31.41,-1.02,-4.99,39.67,-5.33,1.18,101.19,3.25,-2.03,-20.00
0,8,767,-122,-415,3925,-0.34,1.24,32.95,-1.22,-4.15,39.25,-5.34,1.21,101.06,3.62,-1.30,-20.00
-14,19,806,-90,-489,3882,-0.39,1.23,34.57,-0.90,-4.89,38.82,-5.36,1.22,100.92,3.93,-1.53,-20.00
-32,16,888,-103,-313,3940,-0.55,1.20,36.53,-1.03,-3.13,39.40,-5.34,1.25,100.78,4.32,-1.48,-20.00
-10,18,905,-47,-285,3925,-0.55,1.19,38.40,-0.47,-2.85,39.25,-5.32,1.26,100.63,3.87,-1.52,-20.00
-4,18,889,63,-337,3947,-0.52,1.18,39.98,0.63,-3.37,39.47,-5.32,1.26,100.47,3.73,-1.52,-20.00
-5,27,863,-37,-409,3819,-0.50,1.23,41.25,-0.37,-4.09,38.19,-5.33,1.27,100.30,3.75,-1.72,-20.00
0,15,770,78,-360,3823,-0.45,1.20,41.82,0.78,-3.60,38.23,-5.33,1.27,100.14,3.64,-1.47,-20.00
-5,7,750,90,-387,3989,-0.44,1.12,42.21,0.90,-3.87,39.89,-5.33,1.27,99.97,3.74,-1.29,-20.00
-4,2,705,-38,-304,3949,-0.42,1.02,42.29,-0.38,-3.04,39.49,-5.31,1.28,99.80,3.70,-1.16,-20.00
-7,-3,718,-49,-318,3889,-0.42,0.90,42.44,-0.49,-3.18,38.89,-5.29,1.29,99.63,3.75,-1.04,-20.00
-16,4,749,-27,-388,3855,-0.47,0.83,42.77,-0.27,-3.88,38.55,-5.30,1.29,99.46,3.95,-1.16,-20.00
-14,7,755,-104,-419,3980,-0.51,0.79,43.10,-1.04,-4.19,39.80,-5.32,1.32,99.29,3.93,-1.23,-20.00
-12,5,706,-73,-449,3906,-0.53,0.74,43.09,-0.73,-4.49,39.06,-5.33,1.33,99.12,3.91,-1.18,-20.00
-10,-2,676,-142,-363,3867,-0.54,0.66,42.91,-1.42,-3.63,38.67,-5.33,1.37,98.95,3.87,-1.04,-20.00
1,16,580,-58,-351,3906,-0.48,0.69,42.15,-0.58,-3.51,39.06,-5.32,1.37,98.78,3.62,-1.42,-13.39
-9,7,560,-56,-355,3916,-0.49,0.66,41.36,-0.56,-3.55,39.16,-5.32,1.37,98.62,3.82,-1.23,-12.53
-13,13,510,-116,-354,3919,-0.52,0.68,40.33,-1.16,-3.54,39.19,-5.31,1.40,98.46,3.91,-1.38,-9.36
0,5,509,-89,-358,3920,-0.47,0.64,39.40,-0.89,-3.58,39.20,-5.29,1.41,98.30,3.62,-1.20,-10.25
-2,4,460,-171,-303,3932,-0.43,0.60,38.27,-1.71,-3.03,39.32,-5.28,1.44,98.15,3.64,-1.19,-7.28
-15,2,444,-116,-331,3925,-0.48,0.55,37.15,-1.16,-3.31,39.25,-5.26,1.46,98.00,3.91,-1.16,-7.10
-12,12,357,-50,-392,3896,-0.51,0.57,35.61,-0.50,-3.92,38.96,-5.27,1.46,97.86,3.86,-1.36,-1.34
-4,13,349,-14,-316,3933,-0.48,0.59,34.18,-0.14,-3.16,39.33,-5.26,1.46,97.72,3.68,-1.39,-2.17
-4,14,354,-8,-271,3848,-0.46,0.62,32.92,-0.08,-2.71,38.48,-5.25,1.46,97.59,3.67,-1.42,-3.91
0,13,364,-25,-269,3889,-0.41,0.64,31.85,-0.25,-2.69,38.89,-5.23,1.46,97.46,3.56,-1.40,-5.89
-10,21,344,32,-338,3885,-0.43,0.70,30.76,0.32,-3.38,38.85,-5.23,1.46,97.34,3.77,-1.58,-5.33
-6,22,335,34,-377,3893,-0.42,0.76,29.73,0.34,-3.77,38.93,-5.23,1.46,97.22,3.69,-1.62,-5.65
-3,12,251,54,-415,3962,-0.40,0.76,28.29,0.54,-4.15,39.62,-5.23,1.45,97.11,3.62,-1.41,-0.05
3,10,250,94,-415,3910,-0.34,0.75,26.98,0.94,-4.15,39.10,-5.24,1.45,97.00,3.49,-1.36,-1.34
-12,2,319,108,-490,3875,-0.38,0.68,26.23,1.08,-4.90,38.75,-5.25,1.44,96.90,3.81,-1.18,-7.97
1,16,349,45,-442,3876,-0.34,0.71,25.74,0.45,-4.42,38.76,-5.25,1.44,96.80,3.54,-1.47,-11.03
-8,2,459,47,-508,3895,-0.35,0.65,25.96,0.47,-5.08,38.95,-5.27,1.44,96.69,3.73,-1.17,-20.00
-14,6,479,16,-626,3952,-0.40,0.63,26.29,0.16,-6.26,39.52,-5.28,1.44,96.59,3.88,-1.25,-20.00
-20,9,593,33,-475,3936,-0.48,0.62,27.28,0.33,-4.75,39.36,-5.29,1.44,96.48,4.03,-1.30,-20.00
-11,11,656,-3,-516,3954,-0.50,0.62,28.55,-0.03,-5.16,39.54,-5.31,1.45,96.37,3.86,-1.35,-20.00
-14,18,812,-97,-447,3966,-0.54,0.67,30.65,-0.97,-4.47,39.66,-5.32,1.46,96.25,3.95,-1.51,-20.00
-5,14,836,-74,-444,3909,-0.51,0.69,32.68,-0.74,-4.44,39.09,-5.34,1.47,96.12,3.77,-1.44,-20.00
-3,2,808,-147,-387,3914,-0.48,0.63,34.34,-1.47,-3.87,39.14,-5.35,1.50,95.98,3.72,-1.20,-20.00
-43,4,832,-256,-366,3859,-0.70,0.59,35.99,-2.56,-3.66,38.59,-5.35,1.53,95.84,4.59,-1.26,-20.00
-5,21,768,-203,-378,3938,-0.66,0.66,37.07,-2.03,-3.78,39.38,-5.35,1.57,95.69,3.81,-1.64,-20.00
-12,13,738,-91,-233,3869,-0.66,0.68,37.87,-0.91,-2.33,38.69,-5.33,1.58,95.54,3.94,-1.49,-20.00
-6,3,715,-113,-288,3835,-0.63,0.63,38.44,-1.13,-2.88,38.35,-5.31,1.60,95.39,3.80,-1.29,-20.00
-16,15,714,-22,-263,3977,-0.67,0.65,38.95,-0.22,-2.63,39.77,-5.29,1.61,95.23,4.00,-1.54,-20.00
-7,24,669,-160,-167,3916,-0.64,0.74,39.14,-1.60,-1.67,39.16,-5.27,1.63,95.07,3.80,-1.76,-20.00
-9,18,667,-9,-160,3854,-0.63,0.77,39.29,-0.09,-1.60,38.54,-5.25,1.64,94.92,3.82,-1.66,-20.00
-3,23,615,2,-273,3966,-0.59,0.84,39.12,0.02,-2.73,39.66,-5.24,1.64,94.76,3.68,-1.78,-19.21
-6,20,590,24,-297,3908,-0.57,0.87,38.80,0.24,-2.97,39.08,-5.23,1.64,94.61,3.73,-1.73,-17.41
-16,3,512,-9,-209,3896,-0.61,0.80,38.05,-0.09,-2.09,38.96,-5.21,1.65,94.46,3.93,-1.37,-11.59
0,17,513,-67,-238,3922,-0.55,0.83,37.37,-0.67,-2.38,39.22,-5.19,1.66,94.31,3.58,-1.67,-12.38
-8,12,438,-20,-380,3901,-0.54,0.82,36.31,-0.20,-3.80,39.01,-5.20,1.66,94.16,3.74,-1.56,-7.14
3,13,414,-45,-299,3928,-0.47,0.82,35.20,-0.45,-2.99,39.28,-5.18,1.66,94.02,3.49,-1.58,-6.26
4,17,315,-83,-378,3858,-0.40,0.84,33.60,-0.83,-3.78,38.58,-5.19,1.66,93.89,3.45,-1.67,0.44
-8,13,294,-193,-321,3892,-0.41,0.83,32.03,-1.93,-3.21,38.92,-5.18,1.69,93.76,3.70,-1.61,0.57
-3,11,273,-77,-433,3922,-0.38,0.82,30.50,-0.77,-4.33,39.22,-5.20,1.70,93.64,3.60,-1.57,0.74
-5,13,293,-36,-478,3930,-0.38,0.81,29.23,-0.36,-4.78,39.30,-5.21,1.70,93.52,3.64,-1.61,-2.29
-11,-4,368,-82,-474,3913,-0.41,0.71,28.56,-0.82,-4.74,39.13,-5.23,1.71,93.41,3.78,-1.24,-9.35
-18,22,413,-85,-504,3877,-0.48,0.77,28.22,-0.85,-5.04,38.77,-5.24,1.72,93.30,3.96,-1.79,-13.51
-9,9,457,-162,-552,3942,-0.48,0.75,28.19,-1.62,-5.52,39.42,-5.26,1.74,93.19,3.79,-1.53,-17.26
-3,22,457,-161,-501,3874,-0.45,0.81,28.15,-1.61,-5.01,38.74,-5.28,1.76,93.08,3.67,-1.83,-17.28
-3,14,456,-56,-307,3979,-0.43,0.81,28.12,-0.56,-3.07,39.79,-5.26,1.76,92.97,3.65,-1.67,-17.22
14,30,480,-23,-272,3879,-0.30,0.92,28.24,-0.23,-2.72,38.79,-5.25,1.76,92.85,3.26,-2.02,-19.12
1,13,461,42,-183,3927,-0.26,0.90,28.22,0.42,-1.83,39.27,-5.23,1.76,92.74,3.50,-1.67,-17.52
-8,17,451,31,-263,3898,-0.28,0.92,28.15,0.31,-2.63,38.98,-5.22,1.76,92.63,3.69,-1.76,-16.73
0,21,323,-71,-253,3903,-0.26,0.95,27.31,-0.71,-2.53,39.03,-5.20,1.76,92.52,3.50,-1.85,-6.78
0,14,262,-39,-284,3886,-0.23,0.94,26.18,-0.39,-2.84,38.86,-5.19,1.76,92.41,3.49,-1.71,-2.80
16,11,303,-12,-442,3888,-0.11,0.92,25.41,-0.12,-4.42,38.88,-5.20,1.76,92.31,3.13,-1.64,-7.08
-7,6,365,61,-408,3914,-0.14,0.86,25.09,0.61,-4.08,39.14,-5.20,1.76,92.21,3.61,-1.52,-12.65
3,16,438,-19,-514,3911,-0.11,0.87,25.25,-0.19,-5.14,39.11,-5.21,1.76,92.11,3.41,-1.72,-18.66
-8,1,445,8,-549,3890,-0.15,0.79,25.44,0.08,-5.49,38.90,-5.22,1.76,92.01,3.65,-1.40,-19.04
-10,15,529,-97,-453,3841,-0.19,0.80,26.13,-0.97,-4.53,38.41,-5.24,1.77,91.91,3.71,-1.69,-20.00
3,6,559,-101,-372,3894,-0.16,0.76,26.92,-1.01,-3.72,38.94,-5.25,1.77,91.80,3.44,-1.50,-20.00
-8,18,676,-54,-359,3879,-0.19,0.79,28.35,-0.54,-3.59,38.79,-5.25,1.76,91.69,3.68,-1.75,-20.00
0,20,697,-141,-419,3961,-0.17,0.84,29.77,-1.41,-4.19,39.61,-5.26,1.78,91.57,3.52,-1.81,-20.00
-7,6,643,-67,-337,3909,-0.20,0.79,30.72,-0.67,-3.37,39.09,-5.25,1.78,91.45,3.66,-1.51,-20.00
-7,10,590,-52,-423,4001,-0.22,0.77,31.24,-0.52,-4.23,40.01,-5.26,1.78,91.33,3.67,-1.59,-20.00
-5,-3,510,-32,-380,3888,-0.23,0.68,31.23,-0.32,-3.80,38.88,-5.26,1.78,91.20,3.63,-1.30,-18.35
-14,-1,503,-88,-408,3899,-0.29,0.60,31.18,-0.88,-4.08,38.99,-5.27,1.78,91.08,3.84,-1.32,-17.80
-10,1,447,-38,-392,3900,-0.32,0.55,30.78,-0.38,-3.92,39.00,-5.28,1.78,90.96,3.77,-1.34,-13.46
-14,-1,441,-44,-385,3904,-0.38,0.49,30.40,-0.44,-3.85,39.04,-5.28,1.77,90.84,3.87,-1.28,-13.35
-15,-6,360,-79,-323,3893,-0.43,0.40,29.55,-0.79,-3.23,38.93,-5.27,1.77,90.72,3.90,-1.16,-7.37
2,0,354,-68,-345,3905,-0.37,0.36,28.76,-0.68,-3.45,39.05,-5.26,1.77,90.60,3.53,-1.26,-7.70
-17,2,418,-205,-290,3780,-0.44,0.34,28.43,-2.05,-2.90,37.80,-5.25,1.79,90.49,3.93,-1.32,-13.45
-6,-15,430,-227,-319,3915,-0.43,0.21,28.21,-2.27,-3.19,39.15,-5.24,1.82,90.38,3.70,-0.95,-14.69
-34,2,420,24,-455,3917,-0.60,0.20,27.95,0.24,-4.55,39.17,-5.25,1.82,90.27,4.32,-1.30,-14.11
-20,1,409,-28,-403,3907,-0.66,0.19,27.65,-0.28,-4.03,39.07,-5.25,1.81,90.16,4.05,-1.27,-13.49
-2,9,365,1,-368,3936,-0.61,0.23,27.11,0.01,-3.68,39.36,-5.25,1.80,90.05,3.67,-1.43,-10.32
-11,1,354,44,-324,3965,-0.61,0.21,26.56,0.44,-3.24,39.65,-5.25,1.80,89.94,3.85,-1.26,-9.96
-9,-5,296,-95,-338,3902,-0.61,0.16,25.71,-0.95,-3.38,39.02,-5.24,1.79,89.84,3.80,-1.12,-5.94
-4,1,274,-110,-315,3893,-0.57,0.15,24.81,-1.10,-3.15,38.93,-5.22,1.80,89.74,3.68,-1.25,-5.02
-9,9,281,-88,-385,3887,-0.57,0.19,24.04,-0.88,-3.85,38.87,-5.23,1.79,89.65,3.79,-1.42,-6.42
-6,11,311,-112,-438,3884,-0.55,0.24,23.54,-1.12,-4.38,38.84,-5.25,1.80,89.55,3.73,-1.48,-9.49
-10,9,379,-124,-388,3947,-0.55,0.27,23.49,-1.24,-3.88,39.47,-5.26,1.81,89.46,3.83,-1.45,-15.28
7,8,401,-28,-427,3957,-0.46,0.29,23.59,-0.28,-4.27,39.57,-5.27,1.80,89.37,3.46,-1.43,-17.04
-16,-1,486,-100,-419,3810,-0.51,0.25,24.20,-1.00,-4.19,38.10,-5.29,1.81,89.27,3.96,-1.24,-20.00
-13,2,529,-107,-369,3989,-0.54,0.24,25.00,-1.07,-3.69,39.89,-5.29,1.80,89.17,3.90,-1.29,-20.00
-7,10,545,-61,-337,3873,-0.53,0.28,25.83,-0.61,-3.37,38.73,-5.28,1.79,89.07,3.77,-1.46,-20.00
-11,5,532,-66,-362,3924,-0.54,0.28,26.49,-0.66,-3.62,39.24,-5.28,1.78,88.96,3.86,-1.36,-20.00
-10,12,462,2,-383,3900,-0.55,0.33,26.66,0.02,-3.83,39.00,-5.28,1.78,88.86,3.84,-1.51,-18.91
1,15,440,10,-355,3899,-0.49,0.38,26.68,0.10,-3.55,38.99,-5.28,1.77,88.75,3.60,-1.58,-17.02
-3,10,342,-207,-291,3896,-0.46,0.41,26.10,-2.07,-2.91,38.96,-5.27,1.80,88.65,3.66,-1.50,-9.32
0,12,326,-118,-242,3861,-0.41,0.44,25.48,-1.18,-2.42,38.61,-5.25,1.81,88.54,3.58,-1.56,-8.61
-21,19,415,4,-459,3951,-0.50,0.51,25.46,0.04,-4.59,39.51,-5.26,1.80,88.44,4.03,-1.72,-16.16
11,19,423,-83,-404,4023,-0.38,0.58,25.49,-0.83,-4.04,40.23,-5.27,1.80,88.34,3.36,-1.73,-16.79
-3,14,238,-61,-491,3855,-0.36,0.60,24.40,-0.61,-4.91,38.55,-5.28,1.80,88.25,3.65,-1.64,-2.27
-7,5,145,59,-374,3899,-0.37,0.57,22.84,0.59,-3.74,38.99,-5.28,1.80,88.15,3.73,-1.44,3.97
-6,0,65,-27,-390,3890,-0.37,0.52,20.95,-0.27,-3.90,38.90,-5.29,1.79,88.07,3.71,-1.32,8.75
-5,-2,60,-47,-383,3864,-0.36,0.45,19.22,-0.47,-3.83,38.64,-5.29,1.78,88.00,3.69,-1.26,7.35
-5,-6,89,-73,-427,3896,-0.36,0.37,17.84,-0.73,-4.27,38.96,-5.30,1.78,87.92,3.70,-1.15,3.44
5,-9,118,-98,-442,3885,-0.29,0.28,16.78,-0.98,-4.42,38.85,-5.32,1.78,87.86,3.49,-1.07,-0.14
-6,-10,257,-75,-445,3896,-0.30,0.19,16.67,-0.75,-4.45,38.96,-5.34,1.78,87.79,3.73,-1.02,-12.02
-7,-15,333,71,-405,3989,-0.31,0.08,17.03,0.71,-4.05,39.89,-5.34,1.77,87.72,3.75,-0.88,-18.07
-9,-8,453,-141,-326,3838,-0.33,0.02,18.09,-1.41,-3.26,38.38,-5.32,1.78,87.65,3.79,-1.02,-20.00
-23,-5,430,-230,-386,3948,-0.44,-0.01,18.91,-2.30,-3.86,39.48,-5.33,1.81,87.58,4.10,-1.09,-20.00
-9,-10,202,-71,-430,3937,-0.45,-0.07,18.25,-0.71,-4.30,39.37,-5.34,1.80,87.50,3.83,-0.97,-5.67
-3,-4,179,-64,-447,3936,-0.42,-0.09,17.52,-0.64,-4.47,39.36,-5.35,1.80,87.44,3.71,-1.08,-4.49
4,7,352,-67,-318,3964,-0.36,-0.04,17.91,-0.67,-3.18,39.64,-5.34,1.79,87.36,3.54,-1.31,-18.72
10,13,411,-113,-303,3902,-0.26,0.05,18.63,-1.13,-3.03,39.02,-5.32,1.80,87.29,3.38,-1.46,-20.00
-3,22,519,-182,-379,3866,-0.25,0.18,19.93,-1.82,-3.79,38.66,-5.32,1.82,87.21,3.64,-1.70,-20.00
11,19,530,-128,-280,3982,-0.16,0.27,21.17,-1.28,-2.80,39.82,-5.30,1.83,87.12,3.32,-1.67,-20.00
1,23,379,-41,-515,3887,-0.14,0.39,21.37,-0.41,-5.15,38.87,-5.32,1.83,87.04,3.53,-1.78,-17.32
-14,6,332,-53,-496,3928,-0.21,0.39,21.25,-0.53,-4.96,39.28,-5.33,1.83,86.96,3.86,-1.44,-13.45
-6,5,267,53,-311,3898,-0.23,0.38,20.76,0.53,-3.11,38.98,-5.32,1.82,86.87,3.70,-1.41,-8.46
-7,15,275,-36,-402,3888,-0.25,0.43,20.36,-0.36,-4.02,38.88,-5.33,1.82,86.79,3.73,-1.62,-9.55
-2,13,336,-82,-505,3904,-0.23,0.47,20.37,-0.82,-5.05,39.04,-5.35,1.82,86.71,3.63,-1.59,-14.70
7,10,374,-43,-511,3913,-0.17,0.48,20.62,-0.43,-5.11,39.13,-5.36,1.82,86.63,3.44,-1.54,-17.65
-5,12,421,90,-530,3923,-0.18,0.51,21.12,0.90,-5.30,39.23,-5.37,1.82,86.55,3.69,-1.58,-20.00
-12,-2,427,142,-515,3896,-0.24,0.44,21.62,1.42,-5.15,38.96,-5.38,1.81,86.46,3.86,-1.27,-20.00
-4,6,455,-7,-399,3908,-0.24,0.44,22.23,-0.07,-3.99,39.08,-5.38,1.80,86.37,3.70,-1.43,-20.00
-6,9,466,-15,-425,3884,-0.25,0.45,22.85,-0.15,-4.25,38.84,-5.39,1.80,86.28,3.75,-1.49,-20.00
-7,12,522,-92,-436,3923,-0.27,0.48,23.75,-0.92,-4.36,39.23,-5.40,1.80,86.19,3.78,-1.56,-20.00
-16,13,532,-110,-481,3904,-0.34,0.51,24.62,-1.10,-4.81,39.04,-5.42,1.81,86.09,3.99,-1.60,-20.00
5,8,579,-60,-336,3929,-0.27,0.51,25.69,-0.60,-3.36,39.29,-5.41,1.80,85.99,3.54,-1.49,-20.00
-12,12,602,-130,-454,3883,-0.32,0.53,26.79,-1.30,-4.54,38.83,-5.42,1.82,85.88,3.91,-1.59,-20.00
-4,10,646,-152,-469,3901,-0.31,0.54,28.05,-1.52,-4.69,39.01,-5.44,1.84,85.77,3.76,-1.56,-20.00
-11,-4,658,-154,-445,3858,-0.35,0.46,29.26,-1.54,-4.45,38.58,-5.45,1.85,85.66,3.92,-1.27,-20.00
-10,-5,663,34,-471,3937,-0.37,0.38,30.38,0.34,-4.71,39.37,-5.46,1.85,85.54,3.91,-1.22,-20.00
-11,-8,657,86,-445,3931,-0.40,0.29,31.35,0.86,-4.45,39.31,-5.46,1.85,85.41,3.94,-1.14,-20.00
-22,-14,572,-97,-386,3869,-0.50,0.18,31.70,-0.97,-3.86,38.69,-5.47,1.84,85.29,4.19,-0.98,-20.00
-5,9,543,-249,-395,3877,-0.48,0.22,31.85,-2.49,-3.95,38.77,-5.47,1.88,85.16,3.84,-1.48,-19.95
18,13,521,-229,-319,3821,-0.32,0.27,31.84,-2.29,-3.19,38.21,-5.46,1.91,85.03,3.33,-1.60,-18.08
-27,13,563,-113,-260,3889,-0.45,0.33,32.09,-1.13,-2.60,38.89,-5.44,1.92,84.90,4.26,-1.62,-20.00
-3,21,617,-47,-343,3947,-0.43,0.42,32.64,-0.47,-3.43,39.47,-5.43,1.91,84.77,3.76,-1.80,-20.00
-15,16,632,-133,-347,3943,-0.48,0.48,33.24,-1.33,-3.47,39.43,-5.41,1.93,84.64,4.01,-1.73,-20.00
-10,13,643,-48,-371,3975,-0.49,0.51,33.83,-0.48,-3.71,39.75,-5.41,1.92,84.51,3.90,-1.67,-20.00
2,9,588,-13,-217,3961,-0.43,0.51,34.04,-0.13,-2.17,39.61,-5.39,1.93,84.37,3.63,-1.60,-20.00
-13,-3,489,-175,-315,3920,-0.46,0.44,33.62,-1.75,-3.15,39.20,-5.37,1.95,84.24,3.94,-1.35,-13.41
2,4,450,-79,-141,3878,-0.41,0.42,33.00,-0.79,-1.41,38.78,-5.35,1.96,84.10,3.60,-1.49,-10.75
9,-3,274,15,-163,3919,-0.31,0.36,31.37,0.15,-1.63,39.19,-5.33,1.97,83.98,3.42,-1.34,2.45
-5,-1,224,69,-151,3883,-0.31,0.32,29.60,0.69,-1.51,38.83,-5.32,1.97,83.86,3.70,-1.36,4.82
-9,-4,89,-23,-355,3877,-0.33,0.26,27.18,-0.23,-3.55,38.77,-5.31,1.96,83.75,3.78,-1.28,13.71
-10,-5,66,-27,-332,3866,-0.36,0.21,24.87,-0.27,-3.32,38.66,-5.31,1.95,83.65,3.80,-1.24,13.21
-5,-2,36,-29,-402,3909,-0.36,0.17,22.60,-0.29,-4.02,39.09,-5.31,1.94,83.56,3.70,-1.29,13.36
-5,-2,37,-30,-410,3908,-0.35,0.14,20.57,-0.30,-4.10,39.08,-5.32,1.93,83.48,3.71,-1.28,11.13
1,0,96,18,-434,3908,-0.31,0.13,19.10,0.18,-4.34,39.08,-5.32,1.93,83.40,3.58,-1.31,4.58
2,-3,126,-27,-429,3908,-0.27,0.10,17.95,-0.27,-4.29,39.08,-5.33,1.92,83.33,3.55,-1.23,0.84
-9,12,209,-78,-371,3887,-0.29,0.16,17.43,-0.78,-3.71,38.87,-5.33,1.91,83.26,3.78,-1.55,-6.74
-6,14,223,-101,-348,3862,-0.30,0.23,17.05,-1.01,-3.48,38.62,-5.33,1.90,83.20,3.72,-1.60,-8.33
-8,20,309,-26,-283,3910,-0.32,0.33,17.23,-0.26,-2.83,39.10,-5.31,1.89,83.13,3.76,-1.74,-15.42
-5,27,335,-13,-342,3910,-0.32,0.46,17.55,-0.13,-3.42,39.10,-5.31,1.88,83.06,3.69,-1.92,-17.27
3,12,286,-35,-329,3927,-0.27,0.49,17.54,-0.35,-3.29,39.27,-5.30,1.87,82.99,3.51,-1.61,-13.13
5,2,249,-16,-305,3966,-0.21,0.45,17.31,-0.16,-3.05,39.66,-5.29,1.86,82.92,3.45,-1.39,-10.23
-2,10,207,-89,-294,3881,-0.20,0.47,16.84,-0.89,-2.94,38.81,-5.27,1.86,82.85,3.58,-1.56,-7.17
8,6,224,-102,-289,3926,-0.13,0.46,16.52,-1.02,-2.89,39.26,-5.26,1.86,82.78,3.34,-1.48,-8.94
8,12,260,-29,-317,3905,-0.07,0.49,16.45,-0.29,-3.17,39.05,-5.25,1.86,82.72,3.32,-1.60,-12.05
8,4,279,33,-352,4018,-0.02,0.46,16.51,0.33,-3.52,40.18,-5.24,1.84,82.65,3.30,-1.42,-13.59
-4,8,265,-30,-458,3880,-0.04,0.46,16.48,-0.30,-4.58,38.80,-5.25,1.84,82.59,3.56,-1.50,-12.44
7,6,269,-48,-338,3944,0.01,0.45,16.47,-0.48,-3.38,39.44,-5.25,1.83,82.52,3.32,-1.45,-12.78
3,13,268,-130,-435,3861,0.03,0.49,16.46,-1.30,-4.35,38.61,-5.26,1.84,82.46,3.41,-1.61,-12.70
-5,7,262,-135,-475,3904,-0.01,0.48,16.41,-1.35,-4.75,39.04,-5.28,1.85,82.39,3.59,-1.49,-12.24
-10,11,236,-110,-504,3875,-0.07,0.50,16.21,-1.10,-5.04,38.75,-5.29,1.86,82.33,3.72,-1.58,-10.24
-6,8,223,-61,-435,3953,-0.10,0.50,15.95,-0.61,-4.35,39.53,-5.31,1.85,82.27,3.65,-1.52,-9.41
-2,20,259,-156,-479,3893,-0.10,0.57,15.93,-1.56,-4.79,38.93,-5.32,1.86,82.20,3.58,-1.79,-12.47
0,23,274,-83,-441,3875,-0.09,0.65,16.01,-0.83,-4.41,38.75,-5.34,1.86,82.14,3.55,-1.88,-13.65
-4,12,314,-16,-493,3897,-0.11,0.66,16.33,-0.16,-4.93,38.97,-5.35,1.86,82.08,3.64,-1.65,-16.70
-9,14,363,-36,-534,3911,-0.15,0.68,16.91,-0.36,-5.34,39.11,-5.36,1.86,82.01,3.76,-1.70,-20.00
-10,25,479,-96,-594,3907,-0.20,0.77,18.14,-0.96,-5.94,39.07,-5.38,1.87,81.94,3.81,-1.95,-20.00
-11,1,440,0,-569,3930,-0.24,0.70,19.01,0.00,-5.69,39.30,-5.39,1.87,81.86,3.85,-1.44,-20.00
-20,0,348,91,-528,3906,-0.34,0.63,19.23,0.91,-5.28,39.06,-5.40,1.86,81.79,4.07,-1.40,-16.48
5,12,339,37,-531,3921,-0.28,0.64,19.38,0.37,-5.31,39.21,-5.41,1.86,81.71,3.55,-1.64,-15.56
-9,-3,336,15,-449,3908,-0.30,0.55,19.49,0.15,-4.49,39.08,-5.42,1.85,81.63,3.84,-1.31,-15.18
0,5,324,-21,-381,3871,-0.27,0.53,19.51,-0.21,-3.81,38.71,-5.42,1.84,81.56,3.65,-1.46,-14.13
1,4,270,-69,-350,3918,-0.24,0.50,19.21,-0.69,-3.50,39.18,-5.42,1.84,81.48,3.62,-1.43,-9.87
3,2,261,-106,-390,3937,-0.20,0.46,18.88,-1.06,-3.90,39.37,-5.42,1.83,81.41,3.57,-1.37,-9.45
0,6,253,-53,-399,3966,-0.18,0.45,18.54,-0.53,-3.99,39.66,-5.43,1.82,81.33,3.63,-1.45,-9.13
5,14,293,-78,-415,3961,-0.13,0.49,18.47,-0.78,-4.15,39.61,-5.44,1.82,81.26,3.52,-1.62,-12.58
-6,5,296,-28,-173,3930,-0.15,0.47,18.43,-0.28,-1.73,39.30,-5.42,1.82,81.18,3.74,-1.43,-12.87
-9,2,241,-106,-592,3826,-0.19,0.44,18.06,-1.06,-5.92,38.26,-5.44,1.82,81.11,3.82,-1.36,-8.60
4,11,391,-84,-436,3957,-0.15,0.46,18.64,-0.84,-4.36,39.57,-5.45,1.82,81.04,3.56,-1.55,-20.00
-3,10,375,73,-538,3937,-0.15,0.48,19.06,0.73,-5.38,39.37,-5.46,1.82,80.96,3.71,-1.53,-18.88
17,28,443,-244,-414,3871,-0.03,0.60,19.86,-2.44,-4.14,38.71,-5.46,1.84,80.89,3.27,-1.95,-20.00
-4,19,426,-282,-443,3723,-0.05,0.66,20.47,-2.82,-4.43,37.23,-5.47,1.87,80.80,3.71,-1.80,-20.00
-1,10,352,-81,-383,3950,-0.06,0.65,20.57,-0.81,-3.83,39.50,-5.47,1.86,80.72,3.64,-1.61,-15.31
7,28,349,-93,-432,3923,-0.01,0.76,20.64,-0.93,-4.32,39.23,-5.48,1.86,80.64,3.48,-2.01,-14.97
6,30,288,-86,-456,3921,0.03,0.86,20.33,-0.86,-4.56,39.21,-5.50,1.87,80.56,3.50,-2.08,-10.12
9,24,232,-189,-525,3860,0.08,0.92,19.72,-1.89,-5.25,38.60,-5.51,1.88,80.48,3.43,-1.98,-6.02
13,17,173,-183,-413,3832,0.15,0.94,18.80,-1.83,-4.13,38.32,-5.52,1.91,80.41,3.34,-1.86,-1.99
0,4,215,18,-484,3998,0.14,0.87,18.23,0.18,-4.84,39.98,-5.52,1.91,80.34,3.61,-1.57,-6.14
-2,-4,126,-29,-42,3957,0.11,0.76,17.18,-0.29,-0.42,39.57,-5.50,1.91,80.27,3.64,-1.38,0.29
3,-1,70,-38,-90,3972,0.12,0.67,15.89,-0.38,-0.90,39.72,-5.48,1.91,80.21,3.53,-1.43,3.67
-1,-4,9,-51,-177,3901,0.10,0.58,14.35,-0.51,-1.77,39.01,-5.46,1.91,80.15,3.60,-1.34,7.22
8,9,-15,35,-65,3973,0.14,0.58,12.83,0.35,-0.65,39.73,-5.45,1.91,80.10,3.39,-1.60,7.64
-3,-15,13,-122,-450,3877,0.11,0.43,11.62,-1.22,-4.50,38.77,-5.46,1.92,80.05,3.64,-1.08,4.00
-3,-10,22,-82,-401,3876,0.08,0.33,10.59,-0.82,-4.01,38.76,-5.47,1.91,80.01,3.65,-1.14,2.15
0,-4,36,-71,-359,3916,0.07,0.27,9.75,-0.71,-3.59,39.16,-5.46,1.89,79.97,3.59,-1.24,0.08
-1,-8,41,-68,-454,3951,0.06,0.19,9.03,-0.68,-4.54,39.51,-5.48,1.89,79.94,3.62,-1.13,-1.11
-5,-84,84,-32,-517,3955,0.02,-0.34,8.64,-0.32,-5.17,39.55,-5.49,1.88,79.90,3.72,0.56,-5.16
-4,-96,102,-47,-479,3951,-0.01,-0.89,8.40,-0.47,-4.79,39.51,-5.50,1.86,79.87,3.72,0.96,-6.94
-19,-37,191,-30,-406,3875,-0.12,-1.03,8.72,-0.30,-4.06,38.75,-5.51,1.85,79.83,4.05,-0.19,-14.13
-15,-26,220,-25,-365,3847,-0.20,-1.08,9.19,-0.25,-3.65,38.47,-5.51,1.83,79.80,3.99,-0.38,-16.09
-8,-22,288,-90,-385,3990,-0.23,-1.11,10.03,-0.90,-3.85,39.90,-5.51,1.81,79.76,3.86,-0.44,-20.00
-13,-36,271,110,-257,3773,-0.29,-1.22,10.68,1.10,-2.57,37.73,-5.50,1.79,79.71,3.97,-0.12,-18.83
0,22,174,14,-540,4057,-0.26,-0.96,10.67,0.14,-5.40,40.57,-5.51,1.78,79.67,3.71,-1.36,-10.61
13,12,147,104,-512,4095,-0.15,-0.79,10.50,1.04,-5.12,40.95,-5.52,1.76,79.63,3.42,-1.19,-8.50
8,10,173,58,-407,3923,-0.09,-0.65,10.51,0.58,-4.07,39.23,-5.52,1.75,79.59,3.51,-1.18,-10.69
-8,3,191,-19,-382,4000,-0.13,-0.57,10.62,-0.19,-3.82,40.00,-5.52,1.73,79.54,3.84,-1.05,-12.09
-4,10,247,-92,-464,3928,-0.14,-0.45,11.07,-0.92,-4.64,39.28,-5.54,1.73,79.50,3.77,-1.22,-16.36
-5,8,253,-122,-467,4011,-0.16,-0.36,11.50,-1.22,-4.67,40.11,-5.55,1.73,79.45,3.81,-1.21,-16.41
-1,15,287,36,-446,3867,-0.15,-0.23,12.10,0.36,-4.46,38.67,-5.56,1.72,79.41,3.73,-1.38,-18.65
6,22,297,12,-446,3969,-0.10,-0.07,12.70,0.12,-4.46,39.69,-5.57,1.71,79.36,3.58,-1.55,-18.85
1,28,355,-64,-441,3947,-0.08,0.11,13.60,-0.64,-4.41,39.47,-5.58,1.70,79.30,3.68,-1.72,-20.00
-5,6,369,-47,-460,3974,-0.10,0.13,14.49,-0.47,-4.60,39.74,-5.59,1.69,79.24,3.82,-1.27,-20.00
5,-4,356,151,-631,3923,-0.06,0.09,15.21,1.51,-6.31,39.23,-5.60,1.68,79.18,3.61,-1.06,-20.00
-9,8,355,167,-653,3750,-0.11,0.13,15.86,1.67,-6.53,37.50,-5.61,1.68,79.12,3.92,-1.31,-20.00
-5,10,428,-135,-351,3872,-0.13,0.18,16.88,-1.35,-3.51,38.72,-5.60,1.70,79.05,3.83,-1.37,-20.00
-12,11,477,-108,-412,3901,-0.19,0.23,18.10,-1.08,-4.12,39.01,-5.61,1.70,78.98,4.00,-1.41,-20.00
-6,3,559,26,-455,3839,-0.21,0.23,19.70,0.26,-4.55,38.39,-5.62,1.69,78.90,3.89,-1.24,-20.00
-13,18,561,57,-465,4087,-0.27,0.31,21.16,0.57,-4.65,40.87,-5.63,1.68,78.82,4.05,-1.56,-20.00
-13,14,632,-190,-375,3921,-0.32,0.37,22.89,-1.90,-3.75,39.21,-5.62,1.71,78.73,4.06,-1.52,-20.00
-11,23,653,-188,-420,3944,-0.35,0.47,24.59,-1.88,-4.20,39.44,-5.63,1.74,78.63,4.03,-1.74,-20.00
-15,12,659,-155,-489,4071,-0.41,0.50,26.15,-1.55,-4.89,40.71,-5.64,1.76,78.53,4.14,-1.54,-20.00
3,19,650,-42,-441,3818,-0.35,0.56,27.50,-0.42,-4.41,38.18,-5.65,1.76,78.42,3.77,-1.70,-20.00
-25,1,628,10,-541,3880,-0.47,0.51,28.58,0.10,-5.41,38.80,-5.66,1.76,78.31,4.37,-1.32,-20.00
-10,20,628,21,-459,3906,-0.48,0.58,29.55,0.21,-4.59,39.06,-5.67,1.76,78.19,4.08,-1.73,-20.00
-6,18,644,-49,-477,3868,-0.47,0.63,30.53,-0.49,-4.77,38.68,-5.68,1.76,78.07,4.00,-1.70,-20.00
-2,18,656,-56,-435,3953,-0.44,0.68,31.48,-0.56,-4.35,39.53,-5.69,1.76,77.94,3.92,-1.71,-20.00
-12,6,671,-203,-431,3921,-0.47,0.65,32.42,-2.03,-4.31,39.21,-5.70,1.79,77.81,4.13,-1.48,-20.00
-6,26,664,-200,-444,3933,-0.46,0.74,33.23,-2.00,-4.44,39.33,-5.71,1.82,77.68,4.01,-1.93,-20.00
-6,16,631,-137,-433,3886,-0.45,0.77,33.76,-1.37,-4.33,38.86,-5.72,1.85,77.55,4.02,-1.75,-20.00
-5,17,618,-104,-443,3911,-0.43,0.79,34.15,-1.04,-4.43,39.11,-5.73,1.85,77.41,4.00,-1.79,-20.00
-1,18,570,-149,-355,3848,-0.40,0.82,34.21,-1.49,-3.55,38.48,-5.72,1.88,77.28,3.90,-1.83,-19.02
-4,2,563,-194,-367,3922,-0.38,0.75,34.22,-1.94,-3.67,39.22,-5.71,1.92,77.14,3.95,-1.51,-18.40
-6,14,496,-80,-421,3880,-0.38,0.76,33.83,-0.80,-4.21,38.80,-5.71,1.92,77.01,4.00,-1.76,-13.13
-17,-2,488,-34,-398,3865,-0.44,0.68,33.42,-0.34,-3.98,38.65,-5.71,1.92,76.87,4.24,-1.41,-12.87
-2,-6,446,-73,-335,3922,-0.41,0.57,32.80,-0.73,-3.35,39.22,-5.70,1.92,76.74,3.91,-1.30,-9.96
-7,8,437,-15,-346,4101,-0.41,0.56,32.19,-0.15,-3.46,41.01,-5.69,1.92,76.62,4.01,-1.58,-9.84
-5,0,449,-83,-392,3965,-0.40,0.51,31.71,-0.83,-3.92,39.65,-5.68,1.91,76.49,3.96,-1.40,-11.35
-9,5,448,-12,-368,3893,-0.42,0.49,31.27,-0.12,-3.68,38.93,-5.68,1.91,76.37,4.04,-1.49,-11.72
-17,-5,464,-101,-311,3853,-0.48,0.41,30.97,-1.01,-3.11,38.53,-5.66,1.92,76.24,4.21,-1.27,-13.38
-10,13,474,-110,-340,3888,-0.49,0.45,30.77,-1.10,-3.40,38.88,-5.64,1.92,76.12,4.06,-1.65,-14.43
-8,11,482,-91,-337,3854,-0.49,0.47,30.63,-0.91,-3.37,38.54,-5.62,1.92,76.00,4.01,-1.62,-15.24
-9,26,466,-141,-382,3995,-0.50,0.58,30.41,-1.41,-3.82,39.95,-5.61,1.95,75.87,4.02,-1.97,-14.11
-6,8,463,-177,-437,3868,-0.48,0.57,30.19,-1.77,-4.37,38.68,-5.62,1.97,75.76,3.96,-1.62,-14.07
-7,9,454,-232,-470,3897,-0.48,0.57,29.94,-2.32,-4.70,38.97,-5.63,2.00,75.64,3.99,-1.66,-13.56
-13,-6,399,-87,-455,3998,-0.51,0.48,29.38,-0.87,-4.55,39.98,-5.64,2.00,75.52,4.13,-1.33,-9.49
-22,10,373,-26,-419,4017,-0.59,0.49,28.72,-0.26,-4.19,40.17,-5.64,2.00,75.41,4.33,-1.65,-7.98
-11,9,346,67,-325,3857,-0.60,0.49,27.96,0.67,-3.25,38.57,-5.64,1.99,75.29,4.11,-1.63,-6.49
1,18,349,54,-340,3957,-0.53,0.56,27.29,0.54,-3.40,39.57,-5.63,1.99,75.19,3.84,-1.83,-7.44
-3,17,383,137,-326,3957,-0.50,0.60,26.90,1.37,-3.26,39.57,-5.62,1.98,75.08,3.91,-1.82,-10.72
-6,22,401,115,-268,3881,-0.49,0.68,26.65,1.15,-2.68,38.81,-5.61,1.98,74.97,3.96,-1.94,-12.50
-9,20,443,-138,-386,4018,-0.49,0.73,26.69,-1.38,-3.86,40.18,-5.59,1.99,74.87,4.01,-1.92,-16.01
-13,-5,442,-28,-414,3824,-0.52,0.63,26.72,-0.28,-4.14,38.24,-5.60,1.98,74.76,4.10,-1.38,-15.88
-2,3,379,-232,-380,3849,-0.48,0.58,26.36,-2.32,-3.80,38.49,-5.60,2.02,74.66,3.87,-1.55,-10.92
-10,-7,371,-140,-399,3884,-0.50,0.48,25.99,-1.40,-3.99,38.84,-5.61,2.03,74.55,4.04,-1.33,-10.63
0,9,355,-35,-443,3926,-0.45,0.49,25.55,-0.35,-4.43,39.26,-5.62,2.03,74.45,3.83,-1.65,-9.72
-15,-8,354,-67,-346,3969,-0.49,0.39,25.16,-0.67,-3.46,39.69,-5.61,2.02,74.35,4.14,-1.28,-10.04
-7,5,368,23,-449,3793,-0.49,0.38,24.89,0.23,-4.49,37.93,-5.62,2.02,74.25,3.98,-1.54,-11.51
-12,0,375,37,-448,3929,-0.51,0.34,24.68,0.37,-4.48,39.29,-5.62,2.01,74.15,4.09,-1.42,-12.31
-7,3,377,-54,-417,3895,-0.50,0.33,24.52,-0.54,-4.17,38.95,-5.63,2.00,74.06,3.99,-1.47,-12.65
-8,4,378,-66,-395,3950,-0.50,0.32,24.37,-0.66,-3.95,39.50,-5.63,2.00,73.96,4.01,-1.49,-12.88
-16,-7,336,-165,-417,3858,-0.55,0.25,23.98,-1.65,-4.17,38.58,-5.64,2.02,73.87,4.20,-1.26,-9.72
1,10,326,-139,-435,3917,-0.49,0.28,23.57,-1.39,-4.35,39.17,-5.66,2.03,73.77,3.85,-1.62,-9.30
4,14,313,-188,-388,3938,-0.41,0.34,23.13,-1.88,-3.88,39.38,-5.65,2.06,73.68,3.76,-1.74,-8.66
-12,5,309,-219,-424,3770,-0.45,0.34,22.70,-2.19,-4.24,37.70,-5.66,2.08,73.59,4.10,-1.57,-8.77
-2,18,302,-154,-482,3857,-0.41,0.41,22.27,-1.54,-4.82,38.57,-5.68,2.10,73.50,3.90,-1.86,-8.62
-3,21,305,-103,-447,3859,-0.39,0.50,21.90,-1.03,-4.47,38.59,-5.69,2.10,73.42,3.93,-1.95,-9.25
-14,6,226,-165,-383,3846,-0.44,0.49,21.09,-1.65,-3.83,38.46,-5.69,2.13,73.33,4.16,-1.66,-3.41
-6,20,245,-65,-434,3955,-0.43,0.56,20.48,-0.65,-4.34,39.55,-5.70,2.12,73.25,4.00,-1.96,-5.67
-6,-20,287,-18,-335,3964,-0.42,0.38,20.18,-0.18,-3.35,39.64,-5.69,2.11,73.17,3.99,-1.09,-9.53
-4,11,230,94,-367,3939,-0.41,0.41,19.57,0.94,-3.67,39.39,-5.69,2.10,73.09,3.94,-1.72,-5.35
-10,7,258,-39,-443,3939,-0.43,0.41,19.18,-0.39,-4.43,39.39,-5.69,2.10,73.02,4.08,-1.64,-8.12
0,14,256,-80,-376,3978,-0.38,0.46,18.83,-0.80,-3.76,39.78,-5.69,2.09,72.94,3.86,-1.79,-8.32
-1,6,199,-50,-463,3985,-0.35,0.45,18.16,-0.50,-4.63,39.85,-5.70,2.08,72.87,3.88,-1.62,-4.19
-5,-13,183,-46,-407,3929,-0.35,0.32,17.46,-0.46,-4.07,39.29,-5.70,2.07,72.80,3.96,-1.19,-3.57
2,10,183,-16,-416,3829,-0.30,0.35,16.83,-0.16,-4.16,38.29,-5.70,2.06,72.73,3.80,-1.66,-4.23
4,4,192,-67,-386,3975,-0.25,0.34,16.32,-0.67,-3.86,39.75,-5.70,2.05,72.67,3.75,-1.53,-5.53
-9,8,222,24,-373,3848,-0.28,0.36,16.04,0.24,-3.73,38.48,-5.69,2.04,72.61,4.02,-1.61,-8.36
8,19,241,61,-334,3960,-0.20,0.44,15.91,0.61,-3.34,39.60,-5.69,2.03,72.54,3.65,-1.85,-10.10
3,9,324,-118,-360,3934,-0.16,0.45,16.29,-1.18,-3.60,39.34,-5.67,2.03,72.48,3.73,-1.64,-16.72
-3,9,331,-57,-403,3919,-0.16,0.46,16.68,-0.57,-4.03,39.19,-5.67,2.02,72.41,3.85,-1.64,-16.90
-7,12,365,11,-515,3873,-0.19,0.48,17.24,0.11,-5.15,38.73,-5.68,2.02,72.34,3.94,-1.71,-19.18
9,19,367,-42,-438,3895,-0.12,0.55,17.75,-0.42,-4.38,38.95,-5.69,2.01,72.27,3.60,-1.86,-18.80
-16,0,332,-181,-497,3931,-0.20,0.50,18.00,-1.81,-4.97,39.31,-5.70,2.02,72.20,4.15,-1.47,-15.56
-12,-7,302,-140,-494,3945,-0.25,0.40,18.05,-1.40,-4.94,39.45,-5.72,2.03,72.13,4.09,-1.31,-12.97
-3,0,222,-56,-472,3931,-0.25,0.36,17.60,-0.56,-4.72,39.31,-5.73,2.03,72.06,3.91,-1.44,-6.66
-8,6,194,-85,-410,3896,-0.27,0.36,17.02,-0.85,-4.10,38.96,-5.74,2.02,71.99,4.02,-1.55,-4.89
-4,13,211,11,-371,3906,-0.27,0.41,16.60,0.11,-3.71,39.06,-5.73,2.01,71.93,3.94,-1.70,-6.77
-2,4,216,-25,-381,3959,-0.25,0.39,16.26,-0.25,-3.81,39.59,-5.73,2.00,71.86,3.89,-1.51,-7.55
-3,-1,215,-79,-513,3895,-0.25,0.35,15.95,-0.79,-5.13,38.95,-5.74,2.00,71.80,3.92,-1.39,-7.79
-6,15,211,-158,-510,3915,-0.26,0.40,15.64,-1.58,-5.10,39.15,-5.76,2.01,71.74,4.00,-1.74,-7.77
0,6,190,-34,-480,3890,-0.23,0.40,15.23,-0.34,-4.80,38.90,-5.77,2.00,71.68,3.87,-1.55,-6.42
-4,6,185,-24,-484,3860,-0.23,0.40,14.84,-0.24,-4.84,38.60,-5.78,2.00,71.62,3.96,-1.55,-6.41
-10,15,183,-148,-415,3919,-0.27,0.45,14.47,-1.48,-4.15,39.19,-5.80,2.01,71.56,4.10,-1.76,-6.62
0,-3,180,-141,-389,3965,-0.24,0.38,14.12,-1.41,-3.89,39.65,-5.78,2.02,71.51,3.88,-1.38,-6.73
0,9,145,-26,-417,3874,-0.22,0.40,13.59,-0.26,-4.17,38.74,-5.78,2.01,71.45,3.88,-1.62,-4.32
5,6,158,-30,-381,3899,-0.17,0.40,13.20,-0.30,-3.81,38.99,-5.78,2.00,71.40,3.76,-1.55,-5.84
16,17,105,-85,-431,4026,-0.05,0.46,12.52,-0.85,-4.31,40.26,-5.78,1.99,71.35,3.51,-1.79,-2.06
2,2,99,-33,-357,3846,-0.04,0.43,11.87,-0.33,-3.57,38.46,-5.78,1.98,71.30,3.78,-1.46,-2.23
-8,-6,131,-47,-337,3891,-0.08,0.35,11.48,-0.47,-3.37,38.91,-5.77,1.97,71.26,3.99,-1.27,-5.35
-1,0,137,-25,-358,3895,-0.08,0.31,11.17,-0.25,-3.58,38.95,-5.76,1.96,71.21,3.84,-1.38,-6.19
-2,-3,160,10,-428,3856,-0.08,0.26,11.03,0.10,-4.28,38.56,-5.76,1.95,71.17,3.87,-1.30,-8.28
-2,13,178,-22,-427,3914,-0.09,0.32,11.01,-0.22,-4.27,39.14,-5.77,1.93,71.13,3.87,-1.63,-9.82
8,6,230,-95,-336,3892,-0.03,0.32,11.31,-0.95,-3.36,38.92,-5.75,1.93,71.08,3.64,-1.48,-13.90
-1,3,227,-175,-445,3944,-0.03,0.31,11.57,-1.75,-4.45,39.44,-5.76,1.95,71.03,3.83,-1.43,-13.38
-1,-4,158,-196,-525,3938,-0.04,0.25,11.37,-1.96,-5.25,39.38,-5.78,1.96,70.99,3.84,-1.28,-7.73
-10,-12,133,-111,-440,3878,-0.09,0.15,11.05,-1.11,-4.40,38.78,-5.79,1.96,70.95,4.05,-1.09,-5.95
5,15,147,91,-472,3838,-0.05,0.23,10.84,0.91,-4.72,38.38,-5.80,1.95,70.90,3.74,-1.65,-7.36
0,13,162,-18,-382,3971,-0.05,0.29,10.74,-0.18,-3.82,39.71,-5.79,1.93,70.86,3.84,-1.62,-8.73
-2,14,254,187,-244,3901,-0.06,0.34,11.22,1.87,-2.44,39.01,-5.78,1.92,70.82,3.87,-1.65,-16.01
-10,9,316,229,-209,3963,-0.11,0.36,12.03,2.29,-2.09,39.63,-5.77,1.91,70.77,4.04,-1.55,-20.00
2,18,612,269,-254,3925,-0.09,0.44,14.56,2.69,-2.54,39.25,-5.77,1.90,70.71,3.79,-1.74,-20.00
-1,34,660,214,-310,3996,-0.08,0.60,17.13,2.14,-3.10,39.96,-5.76,1.90,70.64,3.84,-2.11,-20.00
2,6,720,-14,-468,3898,-0.06,0.58,19.81,-0.14,-4.68,38.98,-5.77,1.89,70.56,3.78,-1.53,-20.00
10,24,704,18,-560,3842,0.00,0.67,22.12,0.18,-5.60,38.42,-5.78,1.89,70.48,3.61,-1.92,-20.00
-3,-5,624,-342,-652,3939,-0.02,0.57,23.71,-3.42,-6.52,39.39,-5.79,1.91,70.38,3.89,-1.32,-20.00
4,3,486,-334,-751,3971,0.01,0.53,24.31,-3.34,-7.51,39.71,-5.80,1.93,70.29,3.74,-1.48,-20.00
-4,-2,268,-266,-584,3920,-0.01,0.47,23.51,-2.66,-5.84,39.20,-5.81,1.96,70.19,3.92,-1.38,-4.13
-2,17,241,-218,-547,3797,-0.03,0.52,22.63,-2.18,-5.47,37.97,-5.83,1.98,70.10,3.89,-1.79,-2.76
-9,-12,267,-228,-320,3977,-0.08,0.40,22.00,-2.28,-3.20,39.77,-5.81,2.00,70.02,4.04,-1.18,-5.63
-2,-9,238,-229,-401,3961,-0.08,0.30,21.25,-2.29,-4.01,39.61,-5.81,2.03,69.93,3.90,-1.24,-3.96
-2,-7,127,-189,-372,3953,-0.09,0.23,19.90,-1.89,-3.72,39.53,-5.80,2.05,69.85,3.89,-1.28,4.02
2,-7,102,-248,-398,3903,-0.07,0.16,18.53,-2.48,-3.98,39.03,-5.79,2.08,69.78,3.80,-1.27,4.70
6,12,72,37,-441,3860,-0.02,0.22,17.12,0.37,-4.41,38.60,-5.80,2.07,69.71,3.71,-1.67,5.75
-9,42,93,-157,-376,3840,-0.08,0.45,15.97,-1.57,-3.76,38.40,-5.78,2.09,69.65,4.02,-2.36,2.77
-15,-12,239,-93,-464,3848,-0.16,0.34,15.83,-0.93,-4.64,38.48,-5.80,2.09,69.58,4.17,-1.23,-9.75
-6,-5,172,-77,-591,3938,-0.18,0.27,15.30,-0.77,-5.91,39.38,-5.81,2.09,69.52,4.01,-1.35,-4.63
5,-3,60,-107,-352,3993,-0.13,0.23,14.13,-1.07,-3.52,39.93,-5.80,2.09,69.47,3.76,-1.38,3.63
0,-8,48,-81,-341,3905,-0.12,0.15,13.01,-0.81,-3.41,39.05,-5.78,2.08,69.42,3.85,-1.25,3.47
-7,29,38,-269,-346,4004,-0.15,0.32,11.94,-2.69,-3.46,40.04,-5.77,2.10,69.37,3.99,-2.06,3.19
-5,30,99,-162,-273,3930,-0.16,0.47,11.35,-1.62,-2.73,39.30,-5.75,2.11,69.32,3.94,-2.13,-2.60
-9,-2,323,-107,-137,3944,-0.20,0.41,12.19,-1.07,-1.37,39.44,-5.74,2.11,69.27,4.02,-1.47,-20.00
2,6,249,106,-564,3927,-0.17,0.40,12.49,1.06,-5.64,39.27,-5.74,2.11,69.22,3.80,-1.62,-14.10
-1,-11,216,-92,-436,3977,-0.16,0.30,12.56,-0.92,-4.36,39.77,-5.75,2.10,69.17,3.86,-1.24,-11.23
0,-7,206,7,-414,3938,-0.14,0.22,12.56,0.07,-4.14,39.38,-5.75,2.08,69.12,3.84,-1.29,-10.38
2,9,244,-9,-394,3990,-0.12,0.26,12.79,-0.09,-3.94,39.90,-5.75,2.07,69.07,3.79,-1.62,-13.34
-8,-2,251,53,-329,3936,-0.15,0.22,13.04,0.53,-3.29,39.36,-5.74,2.06,69.02,4.00,-1.38,-13.67
13,15,291,178,-334,3921,-0.06,0.29,13.51,1.78,-3.34,39.21,-5.74,2.05,68.97,3.54,-1.74,-16.55
4,13,291,131,-302,3896,-0.03,0.34,13.94,1.31,-3.02,38.96,-5.73,2.04,68.91,3.71,-1.70,-16.10
-7,18,355,132,-261,3944,-0.07,0.42,14.71,1.32,-2.61,39.44,-5.72,2.03,68.85,3.94,-1.82,-20.00
-19,19,381,246,-255,3842,-0.18,0.49,15.56,2.46,-2.55,38.42,-5.71,2.02,68.79,4.21,-1.85,-20.00
0,69,504,34,-356,3924,-0.16,0.86,17.08,0.34,-3.56,39.24,-5.71,2.01,68.72,3.81,-2.97,-20.00
3,143,522,-95,-329,3822,-0.13,1.65,18.56,-0.95,-3.29,38.22,-5.69,2.02,68.65,3.73,-4.69,-20.00
-11,29,546,-70,-560,3838,-0.18,1.66,20.03,-0.70,-5.60,38.38,-5.71,2.02,68.57,4.04,-2.38,-20.00
8,38,506,-192,-568,4113,-0.11,1.73,21.12,-1.92,-5.68,41.13,-5.72,2.05,68.49,3.65,-2.59,-20.00
0,16,333,-153,-663,3957,-0.10,1.65,21.03,-1.53,-6.63,39.57,-5.74,2.06,68.41,3.81,-2.14,-12.10
5,16,226,-196,-546,3831,-0.06,1.58,20.31,-1.96,-5.46,38.31,-5.75,2.08,68.33,3.71,-2.13,-3.79
4,6,129,-134,-524,3908,-0.03,1.46,19.07,-1.34,-5.24,39.08,-5.77,2.09,68.25,3.73,-1.90,3.12
6,3,113,-168,-544,3853,0.01,1.33,17.85,-1.68,-5.44,38.53,-5.78,2.11,68.18,3.69,-1.82,3.19
-8,-2,32,-157,-540,3919,-0.04,1.19,16.26,-1.57,-5.40,39.19,-5.80,2.12,68.12,4.00,-1.68,8.37
-9,-5,21,-109,-483,3929,-0.09,1.04,14.76,-1.09,-4.83,39.29,-5.81,2.12,68.06,4.05,-1.58,7.73
-3,2,24,-3,-515,3938,-0.10,0.95,13.43,-0.03,-5.15,39.38,-5.82,2.12,68.01,3.93,-1.70,6.07
-1,1,31,-26,-481,3904,-0.10,0.86,12.28,-0.26,-4.81,39.04,-5.83,2.11,67.96,3.90,-1.65,4.26
-7,10,74,-7,-568,3972,-0.13,0.83,11.50,-0.07,-5.68,39.72,-5.85,2.11,67.91,4.04,-1.82,-0.20
-7,17,98,-88,-470,3895,-0.16,0.85,10.95,-0.88,-4.70,38.95,-5.86,2.10,67.87,4.05,-1.97,-2.82
-5,-6,99,-113,-496,3882,-0.17,0.73,10.46,-1.13,-4.96,38.82,-5.88,2.11,67.83,4.03,-1.47,-3.42
-4,0,83,-110,-501,3913,-0.18,0.66,9.92,-1.10,-5.01,39.13,-5.89,2.11,67.79,4.02,-1.57,-2.63
3,10,80,15,-500,3889,-0.14,0.65,9.41,0.15,-5.00,38.89,-5.90,2.10,67.76,3.87,-1.77,-2.91
5,9,79,-3,-400,3974,-0.10,0.64,8.95,-0.03,-4.00,39.74,-5.90,2.09,67.72,3.82,-1.74,-3.31
0,7,95,-119,-370,3913,-0.09,0.62,8.64,-1.19,-3.70,39.13,-5.88,2.08,67.69,3.91,-1.69,-4.99
-3,1,103,-126,-259,4011,-0.10,0.57,8.40,-1.26,-2.59,40.11,-5.86,2.08,67.65,3.96,-1.55,-5.92
-3,-8,69,45,-568,3870,-0.11,0.46,7.98,0.45,-5.68,38.70,-5.88,2.08,67.62,3.97,-1.33,-3.48
1,9,69,156,-683,3762,-0.09,0.47,7.61,1.56,-6.83,37.62,-5.89,2.07,67.59,3.89,-1.68,-3.87
-3,6,70,-127,-325,3827,-0.10,0.46,7.27,-1.27,-3.25,38.27,-5.87,2.07,67.56,3.96,-1.61,-4.31
-10,-4,74,-95,-397,3927,-0.15,0.39,7.00,-0.95,-3.97,39.27,-5.87,2.06,67.53,4.12,-1.38,-4.94
-10,-4,65,-14,-506,3792,-0.20,0.33,6.69,-0.14,-5.06,37.92,-5.88,2.05,67.51,4.14,-1.36,-4.49
-1,-10,79,-136,-362,4023,-0.18,0.23,6.51,-1.36,-3.62,40.23,-5.86,2.05,67.48,3.94,-1.21,-5.88
-3,-9,46,-163,-434,3979,-0.18,0.15,6.14,-1.63,-4.34,39.79,-5.87,2.06,67.46,3.99,-1.22,-3.47
-2,-10,25,-178,-449,3909,-0.18,0.08,5.68,-1.78,-4.49,39.09,-5.89,2.08,67.44,3.98,-1.19,-2.18
-1,-1,-9,-157,-375,3895,-0.17,0.06,5.05,-1.57,-3.75,38.95,-5.87,2.09,67.41,3.94,-1.37,0.05
-2,-7,-15,-184,-389,3897,-0.16,0.01,4.46,-1.84,-3.89,38.97,-5.87,2.11,67.40,3.96,-1.25,-0.08
-3,-11,-27,-127,-351,3902,-0.16,-0.05,3.85,-1.27,-3.51,39.02,-5.85,2.10,67.38,3.97,-1.15,0.30
2,-8,-12,-106,-269,3956,-0.13,-0.10,3.39,-1.06,-2.69,39.56,-5.83,2.10,67.37,3.85,-1.20,-1.46
10,15,41,25,-533,3852,-0.06,0.00,3.30,0.25,-5.33,38.52,-5.84,2.09,67.35,3.67,-1.68,-6.04
9,24,57,-54,-458,3872,0.00,0.15,3.32,-0.54,-4.58,38.72,-5.85,2.07,67.34,3.68,-1.90,-7.38
7,11,156,-213,-472,3911,0.04,0.20,3.94,-2.13,-4.72,39.11,-5.87,2.09,67.33,3.72,-1.66,-15.11
-2,8,165,-120,-440,3914,0.03,0.23,4.55,-1.20,-4.40,39.14,-5.88,2.08,67.31,3.92,-1.60,-15.22
9,10,249,87,-328,4119,0.08,0.27,5.61,0.87,-3.28,41.19,-5.87,2.07,67.29,3.67,-1.64,-20.00
6,-6,221,73,-306,3966,0.11,0.21,6.40,0.73,-3.06,39.66,-5.86,2.05,67.26,3.72,-1.29,-18.00
-12,11,167,-200,-478,3750,0.02,0.25,6.78,-2.00,-4.78,37.50,-5.88,2.07,67.23,4.12,-1.66,-13.02
2,16,234,-243,-476,3839,0.03,0.32,7.53,-2.43,-4.76,38.39,-5.89,2.09,67.20,3.84,-1.79,-17.90
-4,-5,358,-41,-346,3940,0.01,0.26,8.96,-0.41,-3.46,39.40,-5.88,2.08,67.17,3.96,-1.34,-20.00
-2,-13,331,-9,-294,4034,-0.01,0.16,10.08,-0.09,-2.94,40.34,-5.86,2.07,67.13,3.91,-1.14,-20.00
2,4,304,21,-423,3933,0.01,0.16,10.93,0.21,-4.23,39.33,-5.87,2.05,67.09,3.83,-1.48,-20.00
-12,7,300,-79,-471,3888,-0.07,0.19,11.67,-0.79,-4.71,38.88,-5.88,2.05,67.04,4.14,-1.55,-19.10
3,9,310,-13,-412,3903,-0.04,0.23,12.39,-0.13,-4.12,39.03,-5.88,2.04,66.99,3.83,-1.59,-19.17
7,7,334,-4,-499,3953,0.00,0.25,13.19,-0.04,-4.99,39.53,-5.89,2.03,66.94,3.74,-1.55,-20.00
5,2,314,-153,-509,3922,0.03,0.23,13.79,-1.53,-5.09,39.22,-5.90,2.04,66.88,3.78,-1.45,-18.03
2,18,314,-217,-525,3915,0.04,0.32,14.32,-2.17,-5.25,39.15,-5.92,2.05,66.83,3.85,-1.81,-17.45
-4,28,354,184,-405,3761,0.01,0.46,15.05,1.84,-4.05,37.61,-5.91,2.04,66.77,3.98,-2.04,-20.00
-10,3,385,165,-355,3984,-0.05,0.43,15.89,1.65,-3.55,39.84,-5.91,2.03,66.70,4.12,-1.52,-20.00
-18,-27,492,-90,-388,3964,-0.15,0.22,17.30,-0.90,-3.88,39.64,-5.90,2.02,66.64,4.30,-0.85,-20.00
29,16,460,-99,-449,3928,0.04,0.30,18.38,-0.99,-4.49,39.28,-5.91,2.02,66.56,3.30,-1.74,-20.00
5,14,413,-82,-546,3939,0.07,0.35,19.06,-0.82,-5.46,39.39,-5.92,2.02,66.49,3.79,-1.72,-20.00
-12,-1,421,-80,-517,3879,-0.01,0.31,19.72,-0.80,-5.17,38.79,-5.94,2.02,66.41,4.17,-1.40,-20.00
-3,3,399,-57,-516,3860,-0.03,0.30,20.19,-0.57,-5.16,38.60,-5.95,2.02,66.33,4.00,-1.48,-18.40
-6,20,423,-24,-577,4006,-0.06,0.39,20.75,-0.24,-5.77,40.06,-5.96,2.02,66.25,4.07,-1.85,-19.83
-9,9,438,-15,-464,4062,-0.11,0.41,21.34,-0.15,-4.64,40.62,-5.96,2.01,66.16,4.15,-1.62,-20.00
-1,11,449,10,-392,3863,-0.11,0.43,21.95,0.10,-3.92,38.63,-5.96,2.01,66.08,3.98,-1.67,-20.00
-19,-10,475,60,-303,3874,-0.21,0.33,22.65,0.60,-3.03,38.74,-5.95,2.00,65.99,4.37,-1.21,-20.00
1,17,449,-76,-546,3882,-0.19,0.40,23.12,-0.76,-5.46,38.82,-5.96,2.00,65.89,3.97,-1.78,-19.48
-16,-3,460,-72,-582,3794,-0.26,0.34,23.62,-0.72,-5.82,37.94,-5.98,2.01,65.80,4.34,-1.36,-19.89
-6,39,481,-162,-661,3952,-0.27,0.55,24.19,-1.62,-6.61,39.52,-6.00,2.02,65.71,4.15,-2.28,-20.00
-17,13,537,-146,-548,3736,-0.35,0.57,25.05,-1.46,-5.48,37.36,-6.01,2.04,65.61,4.41,-1.77,-20.00
7,11,506,-102,-528,3915,-0.27,0.58,25.63,-1.02,-5.28,39.15,-6.03,2.05,65.51,3.91,-1.73,-20.00
-4,27,492,-113,-411,3838,-0.27,0.69,26.07,-1.13,-4.11,38.38,-6.03,2.04,65.40,4.13,-2.08,-19.97
3,14,521,-60,-541,3994,-0.22,0.70,26.64,-0.60,-5.41,39.94,-6.04,2.04,65.30,3.99,-1.83,-20.00
-4,0,527,-37,-414,3837,-0.23,0.63,27.19,-0.37,-4.14,38.37,-6.04,2.04,65.19,4.13,-1.52,-20.00
0,18,508,-134,-487,3729,-0.20,0.68,27.57,-1.34,-4.87,37.29,-6.05,2.05,65.08,4.05,-1.91,-19.70
-4,4,516,-120,-360,3819,-0.21,0.64,27.96,-1.20,-3.60,38.19,-6.03,2.06,64.97,4.12,-1.62,-19.96
-10,8,509,-132,-405,3817,-0.25,0.62,28.27,-1.32,-4.05,38.17,-6.03,2.06,64.86,4.25,-1.69,-19.03
-16,-13,464,-181,-535,3847,-0.32,0.48,28.27,-1.81,-5.35,38.47,-6.05,2.08,64.75,4.41,-1.24,-15.20
15,24,438,-227,-580,3926,-0.20,0.58,28.12,-2.27,-5.80,39.26,-6.06,2.10,64.63,3.75,-2.03,-13.15
-5,21,411,-142,-279,4036,-0.21,0.65,27.81,-1.42,-2.79,40.36,-6.04,2.11,64.52,4.15,-2.00,-11.18
-26,-17,411,-164,-242,3790,-0.35,0.48,27.54,-1.64,-2.42,37.90,-6.02,2.13,64.41,4.60,-1.19,-11.46
-14,-3,420,-104,-612,3913,-0.40,0.41,27.35,-1.04,-6.12,39.13,-6.04,2.14,64.31,4.38,-1.46,-12.41
0,8,438,-160,-537,3798,-0.36,0.42,27.28,-1.60,-5.37,37.98,-6.05,2.16,64.20,4.09,-1.70,-14.00
-22,10,422,-37,-364,3628,-0.46,0.44,27.13,-0.37,-3.64,36.28,-6.04,2.15,64.09,4.56,-1.74,-12.79
-6,10,431,-61,-447,4098,-0.45,0.46,27.05,-0.61,-4.47,40.98,-6.05,2.15,63.98,4.23,-1.74,-13.64
3,27,517,-70,-463,3974,-0.38,0.58,27.49,-0.70,-4.63,39.74,-6.05,2.14,63.87,4.04,-2.12,-20.00
-15,2,564,-36,-319,4061,-0.44,0.53,28.19,-0.36,-3.19,40.61,-6.04,2.14,63.76,4.41,-1.60,-20.00
-16,13,637,-120,-382,4005,-0.49,0.56,29.25,-1.20,-3.82,40.05,-6.02,2.15,63.64,4.43,-1.83,-20.00
-6,5,656,-85,-403,3928,-0.48,0.53,30.33,-0.85,-4.03,39.28,-6.01,2.14,63.52,4.22,-1.66,-20.00
-3,11,669,-124,-399,3864,-0.45,0.55,31.38,-1.24,-3.99,38.64,-6.00,2.14,63.40,4.15,-1.79,-20.00
-10,14,669,-85,-458,3872,-0.46,0.58,32.32,-0.85,-4.58,38.72,-6.01,2.14,63.27,4.30,-1.86,-20.00
-8,13,743,-84,-449,3780,-0.47,0.60,33.62,-0.84,-4.49,37.80,-6.02,2.15,63.14,4.26,-1.84,-20.00
-11,15,783,-104,-305,3895,-0.49,0.63,35.03,-1.04,-3.05,38.95,-6.00,2.16,63.00,4.32,-1.90,-20.00
-4,16,791,-108,-280,4044,-0.46,0.66,36.36,-1.08,-2.80,40.44,-5.98,2.17,62.85,4.15,-1.94,-20.00
-14,4,797,-93,-346,3999,-0.50,0.62,37.58,-0.93,-3.46,39.99,-5.96,2.18,62.70,4.36,-1.69,-20.00
-9,6,800,-79,-339,3999,-0.51,0.60,38.70,-0.79,-3.39,39.99,-5.95,2.18,62.55,4.25,-1.73,-20.00
-23,1,802,-62,-367,3783,-0.60,0.54,39.73,-0.62,-3.67,37.83,-5.94,2.18,62.39,4.55,-1.61,-20.00
-9,6,812,-86,-342,3916,-0.59,0.53,40.71,-0.86,-3.42,39.16,-5.92,2.19,62.23,4.25,-1.71,-20.00
-19,2,812,-72,-339,3901,-0.65,0.49,41.59,-0.72,-3.39,39.01,-5.90,2.19,62.06,4.46,-1.62,-20.00
-1,12,782,-79,-421,3888,-0.59,0.51,42.20,-0.79,-4.21,38.88,-5.90,2.20,61.89,4.08,-1.83,-20.00
-22,10,764,-112,-485,3926,-0.66,0.52,42.64,-1.12,-4.85,39.26,-5.92,2.21,61.73,4.53,-1.80,-20.00
-23,2,717,-110,-536,3862,-0.74,0.48,42.75,-1.10,-5.36,38.62,-5.93,2.22,61.56,4.58,-1.64,-20.00
-15,11,703,-73,-561,3885,-0.76,0.50,42.76,-0.73,-5.61,38.85,-5.94,2.23,61.39,4.43,-1.83,-19.80
19,-24,743,-52,-456,3869,-0.56,0.30,43.02,-0.52,-4.56,38.69,-5.95,2.24,61.22,3.69,-1.07,-20.00
-19,-14,822,-132,-402,3806,-0.62,0.19,43.73,-1.32,-4.02,38.06,-5.95,2.24,61.04,4.48,-1.24,-20.00
-12,32,983,-179,-435,4139,-0.64,0.36,45.35,-1.79,-4.35,41.39,-5.95,2.28,60.86,4.34,-2.25,-20.00
-24,0,930,-41,-373,3971,-0.72,0.33,46.49,-0.41,-3.73,39.71,-5.94,2.28,60.68,4.60,-1.59,-20.00
7,-2,788,-51,-368,3870,-0.60,0.28,46.65,-0.51,-3.68,38.70,-5.93,2.28,60.49,3.93,-1.54,-20.00
-9,3,696,15,-580,3898,-0.60,0.27,46.23,0.15,-5.80,38.98,-5.94,2.29,60.31,4.26,-1.65,-15.44
-25,4,851,-80,-771,3933,-0.69,0.27,46.80,-0.80,-7.71,39.33,-5.95,2.31,60.12,4.62,-1.68,-20.00
-20,14,834,-114,-734,3882,-0.74,0.33,47.21,-1.14,-7.34,38.82,-5.96,2.32,59.93,4.54,-1.91,-20.00
-19,9,739,-11,-630,3905,-0.79,0.35,46.99,-0.11,-6.30,39.05,-5.97,2.34,59.75,4.54,-1.82,-18.23
-18,8,702,-3,-601,3958,-0.82,0.36,46.58,-0.03,-6.01,39.58,-5.98,2.34,59.56,4.54,-1.81,-15.52
-15,-2,653,-51,-657,3933,-0.83,0.32,45.90,-0.51,-6.57,39.33,-5.99,2.36,59.38,4.49,-1.60,-12.06
-9,17,668,-16,-503,4044,-0.80,0.39,45.39,-0.16,-5.03,40.44,-6.00,2.36,59.20,4.36,-2.01,-13.86
-10,10,753,-95,-398,3968,-0.78,0.41,45.44,-0.95,-3.98,39.68,-5.99,2.36,59.02,4.37,-1.88,-20.00
-21,4,767,-115,-391,3937,-0.83,0.39,45.58,-1.15,-3.91,39.37,-5.98,2.37,58.84,4.60,-1.75,-20.00
-9,13,794,-69,-408,3913,-0.80,0.43,45.86,-0.69,-4.08,39.13,-5.97,2.37,58.66,4.34,-1.95,-20.00
-10,9,799,-84,-391,3935,-0.78,0.44,46.15,-0.84,-3.91,39.35,-5.96,2.37,58.47,4.35,-1.87,-20.00
1,-2,826,-57,-354,3892,-0.70,0.39,46.57,-0.57,-3.54,38.92,-5.95,2.38,58.29,4.10,-1.63,-20.00
-15,0,832,-99,-426,3927,-0.72,0.35,46.99,-0.99,-4.26,39.27,-5.95,2.38,58.10,4.43,-1.67,-20.00
-14,16,799,-82,-377,3959,-0.73,0.41,47.17,-0.82,-3.77,39.59,-5.94,2.39,57.91,4.40,-2.01,-20.00
-6,2,781,-32,-397,3920,-0.70,0.38,47.21,-0.32,-3.97,39.20,-5.93,2.39,57.72,4.23,-1.72,-20.00
6,11,751,-14,-423,4004,-0.59,0.41,47.07,-0.14,-4.23,40.04,-5.93,2.39,57.54,3.95,-1.91,-18.96
-19,-3,742,-30,-469,3887,-0.65,0.35,46.89,-0.30,-4.69,38.87,-5.93,2.40,57.35,4.48,-1.62,-18.37
-8,4,671,-18,-496,3938,-0.63,0.34,46.30,-0.18,-4.96,39.38,-5.93,2.40,57.17,4.25,-1.76,-12.97
-2,10,653,-46,-498,3816,-0.58,0.37,45.65,-0.46,-4.98,38.16,-5.94,2.41,56.99,4.12,-1.89,-12.11
-16,9,593,-24,-457,3819,-0.62,0.39,44.70,-0.24,-4.57,38.19,-5.94,2.41,56.81,4.42,-1.88,-8.02
3,11,590,-67,-430,3986,-0.54,0.41,43.83,-0.67,-4.30,39.86,-5.94,2.41,56.63,4.01,-1.93,-8.67
1,13,669,-141,-430,3955,-0.48,0.45,43.53,-1.41,-4.30,39.55,-5.95,2.42,56.46,4.03,-1.98,-15.67
-17,4,719,-173,-476,4029,-0.54,0.43,43.56,-1.73,-4.76,40.29,-5.96,2.44,56.29,4.42,-1.81,-19.85
-15,12,940,-139,-432,3884,-0.57,0.46,44.94,-1.39,-4.32,38.84,-5.97,2.44,56.11,4.40,-1.98,-20.00
-8,15,1019,-132,-398,3908,-0.56,0.51,46.66,-1.32,-3.98,39.08,-5.96,2.45,55.92,4.25,-2.06,-20.00
-12,19,985,-116,-425,3873,-0.58,0.57,48.00,-1.16,-4.25,38.73,-5.96,2.45,55.73,4.33,-2.16,-20.00
-24,23,952,-80,-341,3844,-0.67,0.66,49.01,-0.80,-3.41,38.44,-5.94,2.46,55.54,4.59,-2.27,-20.00
-28,-9,803,24,-362,3808,-0.77,0.53,49.01,0.24,-3.62,38.08,-5.93,2.47,55.34,4.70,-1.59,-20.00
-13,-3,746,124,-406,3931,-0.78,0.46,48.66,1.24,-4.06,39.31,-5.93,2.47,55.15,4.39,-1.70,-16.64
4,22,509,90,-445,3907,-0.67,0.55,46.90,0.90,-4.45,39.07,-5.92,2.47,54.96,4.01,-2.23,1.59
7,24,455,48,-562,3916,-0.56,0.64,44.98,0.48,-5.62,39.16,-5.93,2.48,54.79,3.92,-2.30,4.15
-1,11,414,-12,-577,4027,-0.51,0.65,43.01,-0.12,-5.77,40.27,-5.94,2.49,54.61,4.08,-2.04,5.55
8,15,428,-52,-584,3792,-0.41,0.67,41.32,-0.52,-5.84,37.92,-5.95,2.50,54.45,3.88,-2.14,2.59
-12,1,548,-9,-601,3842,-0.45,0.61,40.53,-0.09,-6.01,38.42,-5.96,2.50,54.29,4.30,-1.84,-8.40
-9,6,582,30,-630,3926,-0.46,0.59,40.03,0.30,-6.30,39.26,-5.96,2.51,54.13,4.24,-1.94,-11.80
-10,-1,465,29,-482,3907,-0.47,0.52,38.86,0.29,-4.82,39.07,-5.97,2.51,53.98,4.27,-1.78,-3.10
-5,4,415,83,-460,3871,-0.45,0.49,37.51,0.83,-4.60,38.71,-5.96,2.51,53.83,4.16,-1.87,-0.29
-12,3,236,-25,-317,3848,-0.48,0.46,35.20,-0.25,-3.17,38.48,-5.95,2.51,53.69,4.30,-1.85,12.44
1,5,197,-63,-273,3964,-0.43,0.45,32.88,-0.63,-2.73,39.64,-5.93,2.52,53.56,4.01,-1.88,13.30
-7,-5,136,-98,-232,3928,-0.43,0.37,30.42,-0.98,-2.32,39.28,-5.91,2.52,53.44,4.16,-1.67,15.88
-8,-11,133,-162,-245,3928,-0.43,0.27,28.19,-1.62,-2.45,39.28,-5.89,2.53,53.32,4.17,-1.52,13.78
-8,-3,158,-117,-369,3930,-0.44,0.22,26.33,-1.17,-3.69,39.30,-5.88,2.53,53.22,4.16,-1.67,9.71
0,0,173,-120,-455,3899,-0.40,0.20,24.76,-1.20,-4.55,38.99,-5.89,2.53,53.12,3.99,-1.72,6.78
-8,-2,207,-45,-547,3881,-0.40,0.17,23.54,-0.45,-5.47,38.81,-5.90,2.53,53.03,4.17,-1.67,2.62
-2,-1,207,1,-526,3888,-0.38,0.15,22.45,0.01,-5.26,38.88,-5.91,2.52,52.94,4.04,-1.68,1.47
-11,-9,168,28,-406,3862,-0.41,0.08,21.23,0.28,-4.06,38.62,-5.91,2.51,52.85,4.23,-1.50,3.49
-1,4,151,-48,-398,3861,-0.37,0.09,20.03,-0.48,-3.98,38.61,-5.90,2.50,52.77,4.02,-1.76,3.67
1,-1,63,-47,-339,3893,-0.33,0.08,18.41,-0.47,-3.39,38.93,-5.89,2.49,52.70,3.96,-1.65,9.41
-3,-1,47,-13,-348,3957,-0.31,0.06,16.86,-0.13,-3.48,39.57,-5.89,2.48,52.63,4.03,-1.64,9.13
-2,2,35,-81,-380,3935,-0.29,0.07,15.38,-0.81,-3.80,39.35,-5.88,2.47,52.57,4.00,-1.69,8.59
-1,0,33,-91,-420,3917,-0.27,0.06,14.05,-0.91,-4.20,39.17,-5.88,2.46,52.51,3.98,-1.64,7.35
-6,4,64,-9,-578,3900,-0.28,0.08,13.03,-0.09,-5.78,39.00,-5.89,2.45,52.46,4.09,-1.72,3.66
-1,12,76,-21,-563,3858,-0.26,0.15,12.19,-0.21,-5.63,38.58,-5.91,2.45,52.42,3.99,-1.90,1.75
0,4,108,-12,-584,3853,-0.23,0.16,11.63,-0.12,-5.84,38.53,-5.92,2.44,52.37,3.97,-1.74,-1.55
-1,10,146,-59,-563,3911,-0.22,0.20,11.36,-0.59,-5.63,39.11,-5.93,2.44,52.33,4.00,-1.87,-5.05
1,1,168,-11,-527,3837,-0.19,0.19,11.25,-0.11,-5.27,38.37,-5.94,2.43,52.28,3.95,-1.67,-7.03
4,4,176,-30,-518,3932,-0.14,0.19,11.20,-0.30,-5.18,39.32,-5.95,2.42,52.24,3.89,-1.73,-7.76
6,9,206,4,-541,3894,-0.09,0.23,11.33,0.04,-5.41,38.94,-5.96,2.41,52.19,3.84,-1.84,-10.15
-17,10,232,-54,-511,3844,-0.19,0.27,11.62,-0.54,-5.11,38.44,-5.98,2.40,52.15,4.34,-1.86,-12.05
-3,-8,287,-108,-418,3883,-0.19,0.19,12.21,-1.08,-4.18,38.83,-5.98,2.39,52.10,4.06,-1.47,-16.08
6,-1,313,-105,-404,3888,-0.13,0.17,12.89,-1.05,-4.04,38.88,-5.98,2.38,52.05,3.86,-1.60,-17.55
1,10,366,-55,-462,3936,-0.11,0.21,13.84,-0.55,-4.62,39.36,-5.98,2.37,51.99,3.96,-1.82,-20.00
-5,6,386,-24,-467,3859,-0.13,0.23,14.81,-0.24,-4.67,38.59,-5.99,2.36,51.93,4.09,-1.74,-20.00
-11,14,462,-34,-528,3875,-0.19,0.29,16.15,-0.34,-5.28,38.75,-6.00,2.35,51.87,4.23,-1.92,-20.00
-14,9,494,12,-503,3958,-0.25,0.31,17.54,0.12,-5.03,39.58,-6.00,2.35,51.80,4.32,-1.82,-20.00
-12,10,510,-45,-456,3880,-0.30,0.34,18.90,-0.45,-4.56,38.80,-6.01,2.34,51.73,4.29,-1.84,-20.00
-12,14,505,-57,-434,3919,-0.34,0.40,20.09,-0.57,-4.34,39.19,-6.01,2.33,51.65,4.31,-1.93,-20.00
-15,7,508,-78,-434,3905,-0.40,0.40,21.18,-0.78,-4.34,39.05,-6.01,2.32,51.56,4.38,-1.78,-20.00
-8,11,512,-65,-424,3842,-0.41,0.43,22.19,-0.65,-4.24,38.42,-6.02,2.32,51.47,4.25,-1.87,-20.00
-13,12,548,-58,-466,3883,-0.45,0.46,23.31,-0.58,-4.66,38.83,-6.02,2.31,51.38,4.36,-1.89,-20.00
-10,-5,553,-25,-500,3968,-0.46,0.38,24.35,-0.25,-5.00,39.68,-6.03,2.31,51.29,4.31,-1.53,-20.00
-14,12,585,-8,-525,3946,-0.50,0.42,25.49,-0.08,-5.25,39.46,-6.04,2.31,51.19,4.41,-1.88,-20.00
1,10,588,1,-506,3877,-0.45,0.43,26.52,0.01,-5.06,38.77,-6.05,2.30,51.08,4.09,-1.84,-20.00
-2,10,574,-1,-443,3865,-0.41,0.45,27.37,-0.01,-4.43,38.65,-6.05,2.30,50.97,4.15,-1.84,-20.00
-10,15,557,-4,-430,3920,-0.43,0.50,28.03,-0.04,-4.30,39.20,-6.05,2.29,50.86,4.31,-1.95,-20.00
2,8,504,45,-431,3941,-0.38,0.50,28.30,0.45,-4.31,39.41,-6.04,2.29,50.75,4.05,-1.81,-17.30
-3,8,488,19,-470,3897,-0.36,0.50,28.45,0.19,-4.70,38.97,-6.05,2.29,50.64,4.15,-1.81,-15.78
7,16,430,-27,-417,3911,-0.28,0.54,28.23,-0.27,-4.17,39.11,-6.04,2.28,50.52,3.92,-1.98,-11.09
-17,-3,420,-35,-452,3843,-0.36,0.47,27.97,-0.35,-4.52,38.43,-6.05,2.28,50.41,4.43,-1.57,-10.51
-5,5,418,-34,-562,3840,-0.35,0.46,27.72,-0.34,-5.62,38.40,-6.06,2.28,50.30,4.20,-1.73,-10.59
5,10,423,71,-507,3968,-0.29,0.47,27.53,0.71,-5.07,39.68,-6.06,2.28,50.19,3.98,-1.83,-11.20
-3,14,455,-76,-449,3920,-0.27,0.51,27.55,-0.76,-4.49,39.20,-6.07,2.27,50.08,4.14,-1.92,-13.88
-21,4,470,-117,-366,3884,-0.38,0.48,27.66,-1.17,-3.66,38.84,-6.05,2.28,49.97,4.52,-1.71,-15.02
-5,18,504,-195,-379,3866,-0.37,0.54,27.97,-1.95,-3.79,38.66,-6.04,2.30,49.86,4.19,-2.03,-17.57
-17,13,513,-159,-424,3962,-0.44,0.57,28.30,-1.59,-4.24,39.62,-6.05,2.31,49.75,4.46,-1.95,-17.97
11,12,539,-169,-289,3910,-0.32,0.59,28.76,-1.69,-2.89,39.10,-6.03,2.33,49.64,3.84,-1.94,-19.68
-5,12,544,-164,-436,3799,-0.32,0.60,29.20,-1.64,-4.36,37.99,-6.04,2.35,49.52,4.18,-1.96,-19.62
10,14,537,-58,-370,3883,-0.23,0.63,29.56,-0.58,-3.70,38.83,-6.03,2.35,49.40,3.84,-2.00,-18.64
-14,8,534,-78,-430,3896,-0.29,0.61,29.86,-0.78,-4.30,38.96,-6.03,2.34,49.28,4.35,-1.88,-18.06
-5,12,490,38,-373,3903,-0.29,0.62,29.86,0.38,-3.73,39.03,-6.03,2.34,49.17,4.16,-1.96,-14.32
-8,16,495,61,-392,3861,-0.31,0.66,29.90,0.61,-3.92,38.61,-6.02,2.34,49.05,4.22,-2.05,-14.69
-11,9,483,34,-448,3949,-0.35,0.65,29.85,0.34,-4.48,39.49,-6.02,2.33,48.93,4.29,-1.90,-13.71
1,6,482,36,-438,3920,-0.31,0.62,29.81,0.36,-4.38,39.20,-6.02,2.33,48.81,4.04,-1.83,-13.67
-10,4,483,40,-439,3936,-0.34,0.58,29.77,0.40,-4.39,39.36,-6.02,2.33,48.69,4.27,-1.78,-13.78
-4,15,501,-25,-417,3856,-0.33,0.62,29.85,-0.25,-4.17,38.56,-6.02,2.32,48.57,4.14,-2.01,-15.21
11,4,513,-85,-356,3883,-0.23,0.58,30.00,-0.85,-3.56,38.83,-6.00,2.32,48.45,3.80,-1.77,-16.06
-6,5,514,-46,-446,3957,-0.24,0.55,30.13,-0.46,-4.46,39.57,-6.00,2.32,48.33,4.15,-1.78,-15.99
-5,10,422,-16,-464,3851,-0.25,0.56,29.69,-0.16,-4.64,38.51,-6.00,2.32,48.22,4.13,-1.89,-8.65
-4,14,411,-31,-434,3911,-0.25,0.59,29.23,-0.31,-4.34,39.11,-6.00,2.32,48.10,4.11,-1.97,-8.20
0,8,430,-84,-352,3896,-0.22,0.58,28.93,-0.84,-3.52,38.96,-5.99,2.32,47.98,4.01,-1.85,-10.11
-22,-1,436,-125,-380,3886,-0.34,0.51,28.70,-1.25,-3.80,38.86,-5.97,2.32,47.87,4.48,-1.65,-10.86
-6,4,403,-213,-318,3910,-0.34,0.49,28.29,-2.13,-3.18,39.10,-5.96,2.34,47.76,4.14,-1.76,-8.49
-5,10,383,-171,-347,3925,-0.33,0.50,27.79,-1.71,-3.47,39.25,-5.93,2.36,47.65,4.11,-1.89,-7.31
-8,3,333,-58,-264,3891,-0.35,0.47,27.05,-0.58,-2.64,38.91,-5.92,2.36,47.54,4.16,-1.74,-3.85
-10,12,311,-24,-305,3917,-0.38,0.49,26.24,-0.24,-3.05,39.17,-5.90,2.36,47.43,4.20,-1.93,-2.83
1,12,320,52,-375,3938,-0.33,0.52,25.57,0.52,-3.75,39.38,-5.90,2.35,47.33,3.96,-1.94,-4.30
23,28,330,84,-385,3875,-0.16,0.64,25.02,0.84,-3.85,38.75,-5.89,2.34,47.23,3.46,-2.29,-5.71
160,159,367,120,-479,3952,0.83,1.54,24.76,1.20,-4.79,39.52,-5.89,2.34,47.13,0.41,-5.20,-9.12
211,211,367,73,-505,3927,2.04,2.68,24.52,0.73,-5.05,39.27,-5.88,2.35,47.04,-0.96,-6.57,-9.36
-35,-18,366,40,-532,3937,1.62,2.30,24.30,0.40,-5.32,39.37,-5.88,2.35,46.94,4.15,-1.81,-9.50
-33,-19,354,66,-578,4030,1.26,1.95,24.03,0.66,-5.78,40.30,-5.89,2.35,46.85,4.21,-1.70,-8.76
-34,-21,343,46,-561,3886,0.92,1.63,23.72,0.46,-5.61,38.86,-5.89,2.35,46.75,4.33,-1.57,-8.15
-56,-29,341,91,-595,3977,0.49,1.29,23.43,0.91,-5.95,39.77,-5.89,2.35,46.66,4.90,-1.32,-8.28
0,5,412,100,-434,3871,0.44,1.19,23.60,1.00,-4.34,38.71,-5.89,2.35,46.57,3.77,-1.98,-14.11
-33,-12,450,96,-535,3946,0.20,1.00,23.98,0.96,-5.35,39.46,-5.89,2.35,46.47,4.51,-1.58,-16.91
16,25,532,-6,-565,3856,0.27,1.05,24.83,-0.06,-5.65,38.56,-5.90,2.35,46.38,3.50,-2.35,-20.00
10,12,578,33,-577,3906,0.31,1.02,25.87,0.33,-5.77,39.06,-5.91,2.35,46.27,3.61,-2.07,-20.00
-28,11,711,83,-635,3953,0.11,0.98,27.62,0.83,-6.35,39.53,-5.92,2.35,46.16,4.45,-2.05,-20.00
31,60,750,106,-533,3888,0.28,1.25,29.44,1.06,-5.33,38.88,-5.92,2.35,46.05,3.20,-3.11,-20.00
-65,-47,813,116,-444,3976,-0.14,0.84,31.45,1.16,-4.44,39.76,-5.92,2.35,45.92,5.26,-0.83,-20.00
24,41,810,83,-526,4007,0.02,1.01,33.25,0.83,-5.26,40.07,-5.92,2.35,45.79,3.41,-2.66,-20.00
-217,-190,680,-332,-848,3897,-1.31,-0.25,34.07,-3.32,-8.48,38.97,-5.93,2.37,45.66,8.69,2.37,-20.00
-269,-240,604,-352,-829,3910,-2.82,-1.69,34.35,-3.52,-8.29,39.10,-5.96,2.39,45.52,10.17,3.77,-18.90
-44,-35,381,-239,-464,3876,-2.80,-1.74,33.24,-2.39,-4.64,38.76,-5.97,2.41,45.39,5.60,-0.40,-1.17
-4,-6,324,-135,-418,3885,-2.55,-1.60,31.89,-1.35,-4.18,38.85,-5.99,2.40,45.26,4.73,-1.02,2.24
-11,4,264,-84,-285,3927,-2.36,-1.42,30.31,-0.84,-2.85,39.27,-5.97,2.40,45.14,4.81,-1.28,5.67
26,25,276,-181,-291,3964,-1.97,-1.12,28.96,-1.81,-2.91,39.64,-5.96,2.41,45.02,3.94,-1.79,3.23
73,86,225,-24,-219,3913,-1.32,-0.48,27.44,-0.24,-2.19,39.13,-5.95,2.40,44.91,2.80,-3.20,5.95
121,112,240,-12,-208,3879,-0.45,0.25,26.16,-0.12,-2.08,38.79,-5.93,2.40,44.81,1.58,-3.93,3.33
-86,-66,327,121,-108,3988,-0.93,-0.18,25.54,1.21,-1.08,39.88,-5.91,2.40,44.70,5.91,-0.19,-4.68
-95,-85,369,136,-144,3930,-1.42,-0.68,25.24,1.36,-1.44,39.30,-5.90,2.40,44.60,6.22,0.33,-8.55
-30,-9,518,73,-327,3837,-1.46,-0.67,25.87,0.73,-3.27,38.37,-5.90,2.39,44.50,4.90,-1.21,-20.00
-9,-6,531,18,-369,3964,-1.37,-0.64,26.52,0.18,-3.69,39.64,-5.90,2.38,44.39,4.45,-1.27,-20.00
-20,5,531,-159,-629,3936,-1.35,-0.54,27.11,-1.59,-6.29,39.36,-5.92,2.39,44.29,4.68,-1.53,-20.00
-8,4,537,-125,-539,3892,-1.27,-0.46,27.68,-1.25,-5.39,38.92,-5.93,2.39,44.18,4.43,-1.53,-20.00
-6,3,538,81,-585,3939,-1.18,-0.40,28.19,0.81,-5.85,39.39,-5.95,2.38,44.06,4.37,-1.53,-19.70
-6,11,541,63,-544,3930,-1.10,-0.29,28.67,0.63,-5.44,39.30,-5.95,2.38,43.95,4.35,-1.71,-19.43
-5,14,580,87,-507,3855,-1.02,-0.18,29.34,0.87,-5.07,38.55,-5.96,2.37,43.83,4.31,-1.80,-20.00
-13,5,582,16,-612,3902,-0.99,-0.13,29.96,0.16,-6.12,39.02,-5.97,2.37,43.72,4.48,-1.63,-20.00
-6,12,466,-130,-614,3909,-0.93,-0.04,29.80,-1.30,-6.14,39.09,-5.99,2.38,43.60,4.33,-1.81,-11.84
-6,12,428,-186,-574,3894,-0.88,0.03,29.43,-1.86,-5.74,38.94,-6.01,2.40,43.48,4.33,-1.84,-9.01
5,9,375,-140,-283,3928,-0.76,0.09,28.78,-1.40,-2.83,39.28,-5.99,2.41,43.37,4.06,-1.80,-5.20
-7,11,378,-132,-297,3885,-0.72,0.14,28.21,-1.32,-2.97,38.85,-5.97,2.41,43.25,4.28,-1.86,-6.05
1,9,409,-145,-339,3883,-0.65,0.18,27.88,-1.45,-3.39,38.83,-5.95,2.42,43.14,4.08,-1.83,-9.01
-8,4,398,-152,-464,3925,-0.63,0.19,27.52,-1.52,-4.64,39.25,-5.96,2.43,43.03,4.27,-1.74,-8.45
128,131,351,-169,-534,4000,0.21,0.97,26.91,-1.69,-5.34,40.00,-5.98,2.44,42.93,1.28,-4.54,-5.11
212,198,341,-232,-583,3950,1.49,2.08,26.30,-2.32,-5.83,39.50,-5.98,2.47,42.82,-0.77,-6.22,-4.90
35,37,289,-174,-523,3839,1.55,2.10,25.43,-1.74,-5.23,38.39,-5.99,2.49,42.72,2.82,-2.97,-1.40
42,38,286,-159,-451,3881,1.65,2.12,24.63,-1.59,-4.51,38.81,-6.00,2.50,42.63,2.65,-3.00,-1.98
6,16,291,-34,-388,3904,1.52,2.01,23.95,-0.34,-3.88,39.04,-5.98,2.50,42.53,3.41,-2.52,-3.13
30,31,298,-45,-360,3878,1.55,1.99,23.37,-0.45,-3.60,38.78,-5.97,2.50,42.44,2.91,-2.83,-4.32
-3,14,341,44,-354,3840,1.38,1.88,23.11,0.44,-3.54,38.40,-5.95,2.50,42.35,3.61,-2.45,-8.23
3,20,351,33,-376,3872,1.26,1.81,22.94,0.33,-3.76,38.72,-5.94,2.50,42.26,3.52,-2.55,-9.25
-10,-1,371,41,-415,3931,1.07,1.63,22.91,0.41,-4.15,39.31,-5.94,2.50,42.17,3.83,-2.07,-10.97
-36,-14,379,95,-441,3943,0.75,1.38,22.93,0.95,-4.41,39.43,-5.93,2.50,42.08,4.44,-1.74,-11.61
-67,-58,410,106,-473,3893,0.26,0.89,23.14,1.06,-4.73,38.93,-5.93,2.49,41.99,5.20,-0.71,-14.01
-103,-89,400,108,-575,3872,-0.39,0.26,23.27,1.08,-5.75,38.72,-5.94,2.49,41.89,6.12,0.10,-13.02
-188,-173,334,125,-595,3859,-1.50,-0.83,22.98,1.25,-5.95,38.59,-5.95,2.48,41.80,8.16,2.11,-7.73
-103,-87,320,149,-589,3965,-1.98,-1.27,22.63,1.49,-5.89,39.65,-5.96,2.47,41.71,6.57,0.49,-6.90
-14,-6,339,217,-363,3913,-1.87,-1.18,22.44,2.17,-3.63,39.13,-5.96,2.45,41.62,4.73,-1.17,-8.71
-9,-7,388,275,-243,3905,-1.73,-1.11,22.56,2.75,-2.43,39.05,-5.96,2.44,41.53,4.59,-1.17,-12.72
-16,-4,483,300,-587,3904,-1.66,-1.02,23.25,3.00,-5.87,39.04,-5.97,2.43,41.44,4.72,-1.24,-20.00
-8,-3,487,263,-620,3895,-1.54,-0.94,23.89,2.63,-6.20,38.95,-5.98,2.42,41.34,4.53,-1.28,-19.68
-6,6,464,23,-652,4011,-1.42,-0.81,24.34,0.23,-6.52,40.11,-6.00,2.41,41.25,4.47,-1.49,-17.25
-7,-1,435,136,-625,3872,-1.32,-0.73,24.56,1.36,-6.25,38.72,-6.01,2.41,41.15,4.47,-1.37,-14.56
9,18,369,122,-519,3841,-1.14,-0.55,24.35,1.22,-5.19,38.41,-6.01,2.40,41.05,4.10,-1.80,-9.17
-5,5,363,92,-523,3910,-1.05,-0.46,24.13,0.92,-5.23,39.10,-6.02,2.39,40.96,4.36,-1.55,-8.89
1,12,393,35,-477,3927,-0.94,-0.34,24.11,0.35,-4.77,39.27,-6.03,2.38,40.86,4.21,-1.72,-11.44
-11,-1,404,25,-439,3959,-0.91,-0.32,24.17,0.25,-4.39,39.59,-6.03,2.37,40.76,4.45,-1.46,-12.31
-9,-2,435,33,-385,3896,-0.88,-0.30,24.40,0.33,-3.85,38.96,-6.03,2.36,40.67,4.40,-1.44,-14.67
-7,5,427,-35,-425,3920,-0.83,-0.24,24.57,-0.35,-4.25,39.20,-6.03,2.35,40.57,4.35,-1.59,-13.81
3,7,413,-22,-484,3897,-0.73,-0.17,24.63,-0.22,-4.84,38.97,-6.03,2.35,40.47,4.12,-1.64,-12.55
-10,0,404,-76,-491,3908,-0.72,-0.15,24.63,-0.76,-4.91,39.08,-6.05,2.34,40.37,4.39,-1.50,-11.78
-3,3,370,-41,-382,3947,-0.67,-0.12,24.43,-0.41,-3.82,39.47,-6.04,2.33,40.28,4.23,-1.57,-9.11
-2,-3,356,21,-396,3884,-0.61,-0.13,24.16,0.21,-3.96,38.84,-6.04,2.33,40.18,4.19,-1.44,-8.20
-8,-9,337,-19,-433,3922,-0.60,-0.17,23.80,-0.19,-4.33,39.22,-6.04,2.32,40.08,4.31,-1.30,-6.96
-12,-3,329,-76,-463,3875,-0.61,-0.17,23.42,-0.76,-4.63,38.75,-6.05,2.31,39.99,4.40,-1.42,-6.67
-5,-51,338,-86,-466,3986,-0.58,-0.46,23.14,-0.86,-4.66,39.86,-6.05,2.30,39.90,4.26,-0.36,-7.72
-2,-44,342,-146,-426,3835,-0.54,-0.69,22.91,-1.46,-4.26,38.35,-6.07,2.30,39.81,4.19,-0.44,-8.29
-2,-1,292,-69,-337,3862,-0.49,-0.62,22.40,-0.69,-3.37,38.62,-6.05,2.29,39.72,4.17,-1.32,-4.59
-4,-4,262,-75,-335,3881,-0.47,-0.59,21.76,-0.75,-3.35,38.81,-6.04,2.29,39.63,4.20,-1.27,-2.72
3,6,176,-79,-414,3901,-0.40,-0.49,20.66,-0.79,-4.14,39.01,-6.04,2.28,39.55,4.04,-1.49,3.41
-8,6,177,3,-422,3881,-0.41,-0.40,19.67,0.03,-4.22,38.81,-6.04,2.27,39.47,4.26,-1.51,2.28
-7,5,304,53,161,3955,-0.41,-0.33,19.56,0.53,1.61,39.55,-6.02,2.27,39.39,4.23,-1.51,-8.59
-15,2,456,45,79,3869,-0.46,-0.29,20.39,0.45,0.79,38.69,-6.00,2.27,39.31,4.39,-1.46,-20.00
-5,16,544,-98,-478,3821,-0.45,-0.16,21.67,-0.98,-4.78,38.21,-6.02,2.26,39.22,4.19,-1.78,-20.00
3,4,535,-131,-499,3811,-0.38,-0.12,22.76,-1.31,-4.99,38.11,-6.03,2.27,39.13,4.02,-1.55,-20.00
-2,15,547,-4,-488,3876,-0.36,-0.02,23.82,-0.04,-4.88,38.76,-6.04,2.26,39.04,4.12,-1.79,-20.00
-8,13,565,79,-455,3843,-0.37,0.06,24.89,0.79,-4.55,38.43,-6.04,2.26,38.94,4.25,-1.77,-20.00
-3,16,656,112,-465,3892,-0.35,0.15,26.40,1.12,-4.65,38.92,-6.04,2.25,38.84,4.14,-1.85,-20.00
-12,10,698,133,-456,3886,-0.39,0.20,28.02,1.33,-4.56,38.86,-6.04,2.24,38.72,4.34,-1.74,-20.00
-15,20,761,127,-577,3945,-0.44,0.30,29.86,1.27,-5.77,39.45,-6.05,2.24,38.61,4.42,-1.97,-20.00
-18,10,775,155,-606,3887,-0.51,0.33,31.60,1.55,-6.06,38.87,-6.05,2.24,38.48,4.50,-1.77,-20.00
-13,21,781,35,-707,3911,-0.54,0.43,33.20,0.35,-7.07,39.11,-6.07,2.25,38.35,4.41,-2.03,-20.00
-26,-22,769,76,-642,3910,-0.64,0.25,34.57,0.76,-6.42,39.10,-6.07,2.25,38.21,4.71,-1.11,-20.00
-38,9,773,145,-501,3957,-0.81,0.28,35.83,1.45,-5.01,39.57,-6.08,2.25,38.07,5.00,-1.74,-20.00
17,6,774,129,-400,3976,-0.62,0.29,36.97,1.29,-4.00,39.76,-6.07,2.25,37.92,3.83,-1.68,-20.00
1,11,817,99,-572,3854,-0.56,0.33,38.26,0.99,-5.72,38.54,-6.08,2.25,37.77,4.14,-1.80,-20.00
-22,8,837,96,-628,3907,-0.63,0.34,39.54,0.96,-6.28,39.07,-6.09,2.25,37.61,4.64,-1.74,-20.00
-23,1,928,174,-803,3887,-0.71,0.32,41.24,1.74,-8.03,38.87,-6.10,2.26,37.45,4.69,-1.60,-20.00
-11,20,962,199,-705,3839,-0.71,0.41,42.99,1.99,-7.05,38.39,-6.11,2.27,37.28,4.45,-2.01,-20.00
8,33,965,-34,-369,3914,-0.59,0.57,44.58,-0.34,-3.69,39.14,-6.09,2.27,37.10,4.02,-2.32,-20.00
-2,22,921,-119,-391,4057,-0.54,0.64,45.74,-1.19,-3.91,40.57,-6.08,2.28,36.92,4.20,-2.13,-20.00
4,20,766,-284,-370,3968,-0.46,0.70,45.84,-2.84,-3.70,39.68,-6.06,2.32,36.74,4.05,-2.13,-19.67
6,20,724,-265,-471,3826,-0.38,0.75,45.67,-2.65,-4.71,38.26,-6.07,2.36,36.56,3.99,-2.17,-16.27
4,11,464,-298,-823,3899,-0.32,0.75,43.93,-2.98,-8.23,38.99,-6.08,2.38,36.38,4.02,-2.00,3.93
-6,-1,362,-330,-712,3865,-0.32,0.66,41.75,-3.30,-7.12,38.65,-6.09,2.41,36.22,4.23,-1.75,10.28
0,11,235,-27,-326,3910,-0.29,0.67,39.01,-0.27,-3.26,39.10,-6.07,2.42,36.06,4.09,-2.00,18.15
-7,10,224,28,-356,3892,-0.30,0.66,36.47,0.28,-3.56,38.92,-6.06,2.42,35.92,4.23,-1.98,16.41
6,0,146,-3,-428,3908,-0.24,0.59,33.71,-0.03,-4.28,39.08,-6.06,2.41,35.78,3.94,-1.76,20.00
0,0,134,2,-406,3904,-0.21,0.53,31.16,0.02,-4.06,39.04,-6.05,2.41,35.66,4.05,-1.74,18.43
-10,-1,132,23,-429,3915,-0.25,0.47,28.85,0.23,-4.29,39.15,-6.05,2.41,35.55,4.27,-1.70,16.17
-1,-1,129,22,-414,3905,-0.23,0.42,26.75,0.22,-4.14,39.05,-6.05,2.40,35.44,4.08,-1.68,14.21
0,-3,106,9,-415,3899,-0.21,0.36,24.72,0.09,-4.15,38.99,-6.05,2.40,35.34,4.05,-1.62,14.02
3,3,110,33,-441,3928,-0.17,0.34,22.92,0.33,-4.41,39.28,-6.04,2.39,35.25,3.97,-1.73,11.78
1,-1,77,61,-489,3897,-0.15,0.30,21.10,0.61,-4.89,38.97,-6.05,2.38,35.17,4.01,-1.63,12.65
2,-1,70,56,-480,3911,-0.12,0.27,19.42,0.56,-4.80,39.11,-6.05,2.37,35.09,3.99,-1.62,11.47
-1,1,80,-43,-529,3940,-0.11,0.25,17.96,-0.43,-5.29,39.40,-6.06,2.37,35.02,4.05,-1.65,9.09
-3,0,80,20,-577,3906,-0.12,0.22,16.65,0.20,-5.77,39.06,-6.07,2.36,34.95,4.10,-1.62,7.71
-2,4,84,29,-531,3907,-0.12,0.22,15.50,0.29,-5.31,39.07,-6.08,2.35,34.89,4.08,-1.70,6.16
-4,5,95,-5,-533,3918,-0.13,0.23,14.53,-0.05,-5.33,39.18,-6.09,2.35,34.83,4.13,-1.71,4.20
-7,1,129,24,-467,3879,-0.16,0.21,13.86,0.24,-4.67,38.79,-6.09,2.34,34.78,4.21,-1.62,0.62
-4,5,140,10,-452,3931,-0.17,0.22,13.33,0.10,-4.52,39.31,-6.09,2.32,34.73,4.15,-1.70,-0.87
-5,11,173,11,-537,3911,-0.18,0.27,13.05,0.11,-5.37,39.11,-6.10,2.32,34.67,4.18,-1.82,-3.95
2,9,170,29,-455,3943,-0.15,0.30,12.79,0.29,-4.55,39.43,-6.10,2.30,34.62,4.03,-1.78,-3.98
1,5,171,-62,-487,3912,-0.13,0.30,12.55,-0.62,-4.87,39.12,-6.11,2.30,34.57,4.05,-1.70,-4.31
5,3,176,-31,-466,3880,-0.09,0.29,12.37,-0.31,-4.66,38.80,-6.12,2.28,34.53,3.96,-1.65,-4.92
0,-1,215,12,-446,3991,-0.08,0.25,12.44,0.12,-4.46,39.91,-6.12,2.27,34.48,4.06,-1.55,-8.14
0,-7,187,46,-452,3900,-0.07,0.18,12.34,0.46,-4.52,39.00,-6.12,2.26,34.43,4.06,-1.40,-5.87
0,6,182,66,-513,3946,-0.06,0.20,12.22,0.66,-5.13,39.46,-6.12,2.25,34.38,4.06,-1.66,-5.58
-1,4,201,22,-516,3895,-0.06,0.21,12.22,0.22,-5.16,38.95,-6.13,2.24,34.33,4.08,-1.62,-7.18
-6,2,217,20,-513,3883,-0.09,0.20,12.32,0.20,-5.13,38.83,-6.14,2.23,34.28,4.20,-1.57,-8.42
-2,1,216,10,-469,3911,-0.10,0.18,12.41,0.10,-4.69,39.11,-6.14,2.22,34.23,4.12,-1.53,-8.24
2,2,250,80,-528,3961,-0.08,0.18,12.69,0.80,-5.28,39.61,-6.15,2.21,34.18,4.04,-1.55,-10.82
-10,2,266,58,-538,3883,-0.13,0.17,13.05,0.58,-5.38,38.83,-6.15,2.20,34.13,4.30,-1.54,-11.79
-6,9,301,37,-504,3895,-0.15,0.21,13.58,0.37,-5.04,38.95,-6.16,2.19,34.08,4.23,-1.68,-14.19
-14,4,302,70,-488,3914,-0.22,0.21,14.06,0.70,-4.88,39.14,-6.16,2.18,34.02,4.41,-1.58,-13.76
-6,7,276,5,-473,3911,-0.24,0.23,14.34,0.05,-4.73,39.11,-6.17,2.17,33.97,4.26,-1.64,-11.26
-22,-9,265,-26,-460,3857,-0.35,0.16,14.52,-0.26,-4.60,38.57,-6.17,2.16,33.91,4.62,-1.28,-10.13
10,12,265,-111,-458,3889,-0.25,0.21,14.69,-1.11,-4.58,38.89,-6.19,2.15,33.85,3.95,-1.72,-9.95
7,14,286,-92,-314,3888,-0.18,0.28,14.96,-0.92,-3.14,38.88,-6.17,2.15,33.79,3.98,-1.78,-11.43
-29,3,540,17,-250,3964,-0.34,0.27,16.76,0.17,-2.50,39.64,-6.15,2.15,33.72,4.74,-1.55,-20.00
-14,5,584,14,-260,3880,-0.39,0.27,18.65,0.14,-2.60,38.80,-6.14,2.14,33.65,4.44,-1.59,-20.00
-9,-1,592,86,-627,3905,-0.41,0.24,20.39,0.86,-6.27,39.05,-6.15,2.14,33.57,4.35,-1.46,-20.00
0,14,538,43,-678,3889,-0.37,0.30,21.64,0.43,-6.78,38.89,-6.16,2.14,33.48,4.17,-1.78,-20.00
-27,-3,420,-79,-609,3855,-0.50,0.25,22.03,-0.79,-6.09,38.55,-6.18,2.14,33.40,4.76,-1.42,-15.26
-6,15,390,-143,-510,3938,-0.48,0.32,22.21,-1.43,-5.10,39.38,-6.20,2.15,33.31,4.34,-1.81,-12.52
-3,-4,339,-100,-451,3921,-0.45,0.26,22.06,-1.00,-4.51,39.21,-6.20,2.15,33.22,4.28,-1.41,-8.36
-12,7,350,-42,-532,3889,-0.48,0.28,21.99,-0.42,-5.32,38.89,-6.22,2.14,33.13,4.48,-1.63,-9.35
-5,3,344,18,-514,3902,-0.46,0.27,21.89,0.18,-5.14,39.02,-6.22,2.14,33.05,4.34,-1.55,-8.94
-3,15,335,13,-513,3915,-0.44,0.33,21.74,0.13,-5.13,39.15,-6.23,2.13,32.96,4.29,-1.80,-8.33
16,26,234,98,-786,3970,-0.29,0.46,20.99,0.98,-7.86,39.70,-6.24,2.13,32.88,3.88,-2.06,-0.55
25,19,178,119,-785,3916,-0.11,0.53,19.98,1.19,-7.85,39.16,-6.26,2.13,32.80,3.65,-1.94,3.12
-1,6,110,98,-547,3864,-0.11,0.51,18.65,0.98,-5.47,38.64,-6.26,2.13,32.73,4.18,-1.67,7.49
-6,7,116,102,-388,3927,-0.13,0.50,17.50,1.02,-3.88,39.27,-6.26,2.12,32.66,4.29,-1.68,5.76
-4,5,123,115,-390,3967,-0.14,0.48,16.50,1.15,-3.90,39.67,-6.25,2.11,32.59,4.25,-1.63,4.11
5,3,114,53,-426,3892,-0.10,0.45,15.54,0.53,-4.26,38.92,-6.25,2.10,32.53,4.05,-1.57,3.87
-1,3,80,16,-520,3898,-0.10,0.43,14.48,0.16,-5.20,38.98,-6.26,2.09,32.47,4.18,-1.56,5.63
-3,2,73,-18,-543,3874,-0.10,0.40,13.47,-0.18,-5.43,38.74,-6.27,2.09,32.42,4.23,-1.53,5.16
10,0,4,-5,-489,4008,-0.03,0.36,12.15,-0.05,-4.89,40.08,-6.27,2.08,32.37,3.95,-1.47,9.61
-4,1,-22,-45,-497,3885,-0.05,0.33,10.80,-0.45,-4.97,38.85,-6.28,2.07,32.33,4.24,-1.47,10.39
4,-4,-76,26,-393,3820,-0.02,0.27,9.26,0.26,-3.93,38.20,-6.28,2.05,32.29,4.07,-1.35,13.34
-7,-8,-76,39,-383,3899,-0.06,0.19,7.87,0.39,-3.83,38.99,-6.27,2.04,32.26,4.30,-1.24,11.87
-2,-4,-38,40,-262,3931,-0.07,0.15,6.85,0.40,-2.62,39.31,-6.26,2.03,32.23,4.19,-1.30,7.57
6,5,6,73,-285,3893,-0.03,0.17,6.20,0.73,-2.85,38.93,-6.25,2.02,32.21,4.01,-1.48,3.16
5,9,102,79,-258,3883,0.01,0.20,6.20,0.79,-2.58,38.83,-6.24,2.01,32.18,4.01,-1.56,-4.97
-2,8,126,74,-306,3918,-0.01,0.23,6.35,0.74,-3.06,39.18,-6.23,2.00,32.16,4.15,-1.54,-6.84
-11,-9,143,45,-472,3895,-0.07,0.15,6.59,0.45,-4.72,38.95,-6.23,1.98,32.13,4.36,-1.17,-8.03
-17,-12,150,53,-535,3901,-0.17,0.07,6.84,0.53,-5.35,39.01,-6.24,1.97,32.10,4.51,-1.07,-8.35
5,7,138,35,-551,3881,-0.12,0.10,7.00,0.35,-5.51,38.81,-6.25,1.96,32.08,4.06,-1.46,-7.16
7,15,141,38,-572,3902,-0.07,0.18,7.16,0.38,-5.72,39.02,-6.26,1.95,32.05,4.01,-1.64,-7.25
10,6,151,44,-489,3867,0.00,0.20,7.37,0.44,-4.89,38.67,-6.27,1.93,32.02,3.93,-1.45,-7.87
3,7,154,30,-512,3871,0.02,0.22,7.57,0.30,-5.12,38.71,-6.27,1.92,31.99,4.07,-1.47,-7.91
12,16,177,56,-456,3921,0.09,0.30,7.89,0.56,-4.56,39.21,-6.27,1.91,31.96,3.87,-1.67,-9.52
3,13,190,26,-456,3856,0.10,0.35,8.26,0.26,-4.56,38.56,-6.28,1.90,31.93,4.05,-1.61,-10.22
27,28,198,9,-481,3923,0.25,0.48,8.64,0.09,-4.81,39.23,-6.28,1.88,31.89,3.53,-1.94,-10.49
32,30,204,48,-477,3901,0.42,0.62,9.02,0.48,-4.77,39.01,-6.28,1.87,31.86,3.38,-2.01,-10.60
-47,-27,253,57,-519,3902,0.10,0.39,9.66,0.57,-5.19,39.02,-6.29,1.86,31.82,5.08,-0.79,-14.06
-47,-39,269,126,-578,3939,-0.20,0.12,10.34,1.26,-5.78,39.39,-6.30,1.85,31.78,5.17,-0.46,-14.70
-31,-14,325,144,-551,3885,-0.37,0.02,11.29,1.44,-5.51,38.85,-6.30,1.84,31.73,4.89,-0.93,-18.44
-17,-8,331,205,-596,3850,-0.44,-0.03,12.18,2.05,-5.96,38.50,-6.31,1.83,31.69,4.63,-1.03,-18.00
-2,17,355,135,-469,3848,-0.41,0.07,13.13,1.35,-4.69,38.48,-6.32,1.82,31.63,4.32,-1.56,-19.02
-10,-3,358,169,-457,3981,-0.43,0.05,14.00,1.69,-4.57,39.81,-6.32,1.80,31.58,4.49,-1.14,-18.35
-6,12,382,66,-478,3935,-0.42,0.12,14.93,0.66,-4.78,39.35,-6.32,1.79,31.52,4.41,-1.46,-19.39
1,-2,368,-73,-376,3905,-0.37,0.09,15.68,-0.73,-3.76,39.05,-6.31,1.79,31.46,4.24,-1.16,-17.41
-5,-10,313,-64,-380,3890,-0.37,0.02,16.02,-0.64,-3.80,38.90,-6.29,1.78,31.39,4.36,-0.98,-12.38
-3,5,286,-94,-370,3770,-0.35,0.05,16.16,-0.94,-3.70,37.70,-6.28,1.78,31.33,4.30,-1.29,-9.93
-9,-3,201,-77,-369,3888,-0.37,0.03,15.77,-0.77,-3.69,38.88,-6.26,1.78,31.26,4.42,-1.12,-3.14
-5,5,185,-85,-358,3974,-0.36,0.06,15.32,-0.85,-3.58,39.74,-6.25,1.77,31.20,4.32,-1.29,-2.26
-2,1,195,-6,-482,3952,-0.34,0.06,14.98,-0.06,-4.82,39.52,-6.25,1.76,31.14,4.26,-1.20,-3.46
-11,-9,205,69,-461,3872,-0.37,-0.00,14.73,0.69,-4.61,38.72,-6.26,1.75,31.08,4.45,-0.97,-4.56
-6,-1,203,-36,-391,3906,-0.37,-0.01,14.50,-0.36,-3.91,39.06,-6.25,1.74,31.03,4.35,-1.13,-4.64
2,3,192,-66,-411,3908,-0.32,0.01,14.22,-0.66,-4.11,39.08,-6.24,1.73,30.97,4.17,-1.21,-4.00
1,3,180,-49,-483,3900,-0.28,0.03,13.90,-0.49,-4.83,39.00,-6.25,1.72,30.92,4.18,-1.21,-3.32
1,-1,190,-14,-521,3904,-0.25,0.02,13.67,-0.14,-5.21,39.04,-6.26,1.72,30.86,4.18,-1.12,-4.40
-3,1,190,67,-431,3893,-0.24,0.02,13.46,0.67,-4.31,38.93,-6.26,1.70,30.81,4.26,-1.15,-4.62
1,3,190,76,-428,3906,-0.21,0.04,13.27,0.76,-4.28,39.06,-6.26,1.69,30.75,4.17,-1.19,-4.81
-10,-2,232,-7,-499,3913,-0.25,0.02,13.36,-0.07,-4.99,39.13,-6.27,1.68,30.70,4.41,-1.08,-8.27
-9,-3,246,48,-500,3970,-0.28,0.00,13.52,0.48,-5.00,39.70,-6.28,1.67,30.65,4.40,-1.04,-9.28
-7,-1,262,34,-535,3930,-0.30,-0.00,13.77,0.34,-5.35,39.30,-6.29,1.66,30.59,4.37,-1.07,-10.37
-10,0,260,47,-546,3850,-0.33,-0.00,13.98,0.47,-5.46,38.50,-6.30,1.65,30.54,4.45,-1.09,-9.97
-1,0,262,-63,-512,3874,-0.30,-0.00,14.18,-0.63,-5.12,38.74,-6.31,1.65,30.48,4.27,-1.09,-9.93
-7,-2,269,-17,-532,3886,-0.31,-0.02,14.40,-0.17,-5.32,38.86,-6.33,1.64,30.43,4.40,-1.04,-10.28
-7,-4,257,-53,-453,3928,-0.32,-0.04,14.53,-0.53,-4.53,39.28,-6.33,1.63,30.37,4.41,-0.99,-9.12
-7,6,259,-33,-399,3878,-0.33,0.00,14.66,-0.33,-3.99,38.78,-6.33,1.62,30.31,4.41,-1.19,-9.15
0,3,254,-62,-408,3901,-0.30,0.02,14.74,-0.62,-4.08,39.01,-6.32,1.61,30.25,4.25,-1.13,-8.63
-8,6,253,-75,-388,3912,-0.32,0.05,14.81,-0.75,-3.88,39.12,-6.30,1.61,30.19,4.41,-1.20,-8.47
2,4,251,-135,-376,3911,-0.28,0.07,14.86,-1.35,-3.76,39.11,-6.28,1.62,30.13,4.18,-1.17,-8.24
3,5,241,-88,-395,3880,-0.23,0.10,14.84,-0.88,-3.95,38.80,-6.27,1.62,30.07,4.14,-1.20,-7.41
-9,4,279,-3,-265,3943,-0.26,0.11,15.06,-0.03,-2.65,39.43,-6.25,1.61,30.01,4.38,-1.18,-10.39
2,6,287,9,-306,3912,-0.22,0.14,15.31,0.09,-3.06,39.12,-6.24,1.61,29.95,4.14,-1.22,-10.80
-12,-7,245,125,-562,3972,-0.27,0.08,15.27,1.25,-5.62,39.72,-6.25,1.60,29.89,4.44,-0.94,-7.28
-3,-1,222,97,-539,3860,-0.27,0.07,15.10,0.97,-5.39,38.60,-6.26,1.59,29.83,4.26,-1.05,-5.51
-8,-1,234,88,-484,3891,-0.29,0.05,15.01,0.88,-4.84,38.91,-6.26,1.58,29.77,4.37,-1.04,-6.61
0,-2,262,46,-440,3904,-0.26,0.04,15.11,0.46,-4.40,39.04,-6.26,1.57,29.71,4.20,-1.00,-8.87
-13,5,274,122,-493,3940,-0.31,0.06,15.27,1.22,-4.93,39.40,-6.27,1.56,29.65,4.48,-1.15,-9.71
-1,1,255,86,-472,3878,-0.29,0.06,15.30,0.86,-4.72,38.78,-6.27,1.55,29.59,4.24,-1.06,-8.07
-10,3,212,-75,-451,3935,-0.32,0.07,15.06,-0.75,-4.51,39.35,-6.28,1.54,29.53,4.43,-1.10,-4.67
-2,-3,218,-75,-456,3882,-0.30,0.05,14.89,-0.75,-4.56,38.82,-6.29,1.53,29.47,4.27,-0.96,-5.36
-2,9,241,-55,-403,3973,-0.28,0.10,14.87,-0.55,-4.03,39.73,-6.28,1.52,29.41,4.26,-1.22,-7.32
-2,11,216,-120,-400,3921,-0.27,0.16,14.70,-1.20,-4.00,39.21,-6.26,1.54,29.35,4.25,-1.28,-5.38
5,0,199,-119,-481,3863,-0.21,0.14,14.44,-1.19,-4.81,38.63,-6.28,1.55,29.30,4.10,-1.06,-4.20
12,-2,207,-119,-470,3852,-0.11,0.11,14.26,-1.19,-4.70,38.52,-6.30,1.56,29.24,3.94,-1.02,-5.07
-14,2,168,69,-443,3869,-0.19,0.12,13.86,0.69,-4.43,38.69,-6.30,1.55,29.19,4.49,-1.09,-2.18
-3,8,163,150,-466,3957,-0.19,0.15,13.47,1.50,-4.66,39.57,-6.30,1.54,29.13,4.27,-1.22,-2.17
-4,3,209,131,-517,3946,-0.19,0.16,13.40,1.31,-5.17,39.46,-6.30,1.53,29.08,4.29,-1.11,-6.14
-1,4,213,169,-488,3882,-0.18,0.16,13.36,1.69,-4.88,38.82,-6.31,1.52,29.03,4.23,-1.13,-6.52
2,4,203,74,-442,3907,-0.15,0.17,13.26,0.74,-4.42,39.07,-6.31,1.50,28.97,4.16,-1.12,-5.77
-2,8,202,74,-326,3938,-0.15,0.20,13.17,0.74,-3.26,39.38,-6.30,1.49,28.92,4.24,-1.20,-5.78
-4,-1,272,119,-438,3916,-0.16,0.18,13.51,1.19,-4.38,39.16,-6.30,1.48,28.87,4.28,-1.01,-11.34
-10,1,270,145,-532,3935,-0.20,0.17,13.80,1.45,-5.32,39.35,-6.30,1.47,28.81,4.42,-1.04,-10.85
-5,5,215,35,-509,3915,-0.21,0.18,13.74,0.35,-5.09,39.15,-6.31,1.46,28.76,4.32,-1.12,-6.26
-10,-10,210,17,-501,3914,-0.25,0.10,13.64,0.17,-5.01,39.14,-6.32,1.45,28.70,4.44,-0.78,-5.93
-5,3,226,-12,-382,3921,-0.26,0.11,13.66,-0.12,-3.82,39.21,-6.31,1.44,28.65,4.34,-1.04,-7.26
-7,1,259,34,-403,3922,-0.27,0.10,13.87,0.34,-4.03,39.22,-6.31,1.43,28.59,4.38,-0.99,-9.83
-8,10,289,16,-405,3919,-0.30,0.15,14.25,0.16,-4.05,39.19,-6.30,1.42,28.54,4.40,-1.18,-11.97
-4,9,292,6,-423,3923,-0.29,0.19,14.60,0.06,-4.23,39.23,-6.30,1.41,28.48,4.32,-1.17,-11.84
-9,1,317,-32,-410,3903,-0.32,0.18,15.08,-0.32,-4.10,39.03,-6.29,1.40,28.42,4.42,-0.99,-13.45
-11,2,319,-64,-385,3951,-0.35,0.17,15.51,-0.64,-3.85,39.51,-6.28,1.40,28.36,4.46,-1.01,-13.15
-21,-21,274,78,-560,3933,-0.44,0.03,15.63,0.78,-5.60,39.33,-6.29,1.39,28.30,4.70,-0.50,-9.20
-20,-18,242,91,-567,3827,-0.52,-0.08,15.55,0.91,-5.67,38.27,-6.30,1.38,28.23,4.71,-0.52,-6.58
11,21,123,213,-485,3831,-0.40,0.05,14.74,2.13,-4.85,38.31,-6.30,1.37,28.18,4.05,-1.35,2.65
16,29,109,213,-465,3912,-0.27,0.22,13.93,2.13,-4.65,39.12,-6.31,1.36,28.12,3.91,-1.55,2.99
8,15,112,66,-417,4024,-0.19,0.29,13.22,0.66,-4.17,40.24,-6.30,1.35,28.07,4.05,-1.28,1.99
-1,3,127,73,-433,3868,-0.18,0.28,12.68,0.73,-4.33,38.68,-6.30,1.34,28.02,4.23,-1.02,0.14
-6,3,152,71,-488,3870,-0.20,0.27,12.34,0.71,-4.88,38.70,-6.31,1.33,27.97,4.34,-1.01,-2.33
1,4,158,105,-467,3924,-0.17,0.27,12.07,1.05,-4.67,39.24,-6.31,1.32,27.92,4.19,-1.02,-3.12
-2,7,246,111,-360,3943,-0.17,0.29,12.36,1.11,-3.60,39.43,-6.30,1.30,27.87,4.25,-1.08,-10.26
-5,1,280,174,-402,3946,-0.18,0.26,12.83,1.74,-4.02,39.46,-6.30,1.29,27.82,4.31,-0.95,-12.64
0,6,293,83,-559,3865,-0.16,0.27,13.34,0.83,-5.59,38.65,-6.31,1.29,27.77,4.21,-1.05,-13.20
-4,7,277,26,-633,3907,-0.17,0.29,13.69,0.26,-6.33,39.07,-6.33,1.28,27.71,4.30,-1.07,-11.46
-6,2,249,-13,-562,3967,-0.19,0.27,13.84,-0.13,-5.62,39.67,-6.34,1.28,27.66,4.36,-0.96,-8.93
-6,3,255,40,-552,3877,-0.21,0.26,14.01,0.40,-5.52,38.77,-6.35,1.28,27.60,4.37,-0.97,-9.25
-4,2,268,-12,-432,3872,-0.21,0.25,14.25,-0.12,-4.32,38.72,-6.35,1.26,27.55,4.33,-0.94,-10.10
-7,4,257,-76,-412,3924,-0.23,0.25,14.39,-0.76,-4.12,39.24,-6.34,1.26,27.49,4.39,-0.98,-9.01
4,14,251,-88,-555,3884,-0.18,0.31,14.48,-0.88,-5.55,38.84,-6.36,1.27,27.43,4.16,-1.21,-8.40
-9,-6,264,-53,-535,3961,-0.22,0.24,14.64,-0.53,-5.35,39.61,-6.37,1.27,27.38,4.45,-0.78,-9.32
-2,-3,244,-45,-443,3972,-0.21,0.20,14.67,-0.45,-4.43,39.72,-6.37,1.26,27.32,4.30,-0.83,-7.60
-3,4,239,-67,-450,3859,-0.21,0.20,14.66,-0.67,-4.50,38.59,-6.38,1.26,27.26,4.33,-0.97,-7.18
5,2,280,-52,-509,3868,-0.16,0.20,14.90,-0.52,-5.09,38.68,-6.40,1.26,27.20,4.17,-0.92,-10.39
2,1,283,33,-591,3873,-0.13,0.18,15.14,0.33,-5.91,38.73,-6.41,1.25,27.14,4.23,-0.90,-10.39
-4,6,250,109,-443,3810,-0.14,0.20,15.15,1.09,-4.43,38.10,-6.41,1.24,27.08,4.35,-1.00,-7.58
-13,-1,256,62,-467,3942,-0.21,0.17,15.20,0.62,-4.67,39.42,-6.42,1.23,27.02,4.56,-0.84,-8.03
-7,4,261,-34,-494,3912,-0.23,0.18,15.27,-0.34,-4.94,39.12,-6.43,1.23,26.96,4.45,-0.94,-8.37
-4,3,239,2,-441,3968,-0.23,0.18,15.20,0.02,-4.41,39.68,-6.43,1.22,26.90,4.39,-0.91,-6.58
-6,-4,225,41,-525,3977,-0.24,0.14,15.05,0.41,-5.25,39.77,-6.44,1.21,26.84,4.44,-0.75,-5.54
-3,7,234,40,-484,3859,-0.24,0.17,14.97,0.40,-4.84,38.59,-6.44,1.20,26.78,4.38,-0.98,-6.38
-6,1,265,-11,-441,3876,-0.25,0.16,15.09,-0.11,-4.41,38.76,-6.44,1.19,26.72,4.44,-0.85,-8.87
-6,3,261,-37,-397,3906,-0.26,0.16,15.18,-0.37,-3.97,39.06,-6.43,1.18,26.66,4.44,-0.88,-8.44
-6,8,243,0,-503,3873,-0.27,0.19,15.14,0.00,-5.03,38.73,-6.44,1.17,26.60,4.45,-0.99,-6.95
0,7,238,3,-479,3938,-0.24,0.22,15.08,0.03,-4.79,39.38,-6.45,1.17,26.54,4.32,-0.97,-6.59
-2,7,203,145,-384,3887,-0.23,0.24,14.81,1.45,-3.84,38.87,-6.44,1.16,26.48,4.36,-0.97,-3.90
-4,1,210,152,-434,3897,-0.23,0.22,14.61,1.52,-4.34,38.97,-6.44,1.14,26.42,4.40,-0.84,-4.70
15,10,212,-7,-318,3964,-0.12,0.26,14.44,-0.07,-3.18,39.64,-6.43,1.14,26.37,3.97,-1.03,-5.04
7,2,210,83,-586,3811,-0.06,0.24,14.28,0.83,-5.86,38.11,-6.44,1.14,26.31,4.13,-0.86,-5.04
3,2,209,238,-365,3818,-0.04,0.23,14.13,2.38,-3.65,38.18,-6.43,1.13,26.25,4.20,-0.85,-5.11
-6,-3,218,274,-357,3872,-0.07,0.19,14.04,2.74,-3.57,38.72,-6.43,1.12,26.20,4.39,-0.73,-5.96
2,3,246,144,-370,3975,-0.05,0.19,14.14,1.44,-3.70,39.75,-6.42,1.11,26.14,4.21,-0.84,-8.22
0,3,267,93,-247,3955,-0.05,0.19,14.35,0.93,-2.47,39.55,-6.41,1.10,26.08,4.24,-0.84,-9.77
-8,-11,332,122,-547,3968,-0.09,0.10,14.94,1.22,-5.47,39.68,-6.42,1.09,26.03,4.42,-0.52,-14.65
0,11,345,188,-593,3774,-0.08,0.16,15.55,1.88,-5.93,37.74,-6.42,1.08,25.96,4.26,-0.98,-15.10
3,6,303,3,-379,3784,-0.06,0.18,15.85,0.03,-3.79,37.84,-6.41,1.08,25.90,4.19,-0.88,-11.22
-7,-7,286,-85,-396,3997,-0.09,0.12,16.01,-0.85,-3.96,39.97,-6.40,1.09,25.84,4.39,-0.61,-9.61
5,17,248,-9,-417,3958,-0.05,0.21,15.92,-0.09,-4.17,39.58,-6.39,1.08,25.77,4.13,-1.11,-6.47
-1,4,242,66,-456,3850,-0.05,0.21,15.80,0.66,-4.56,38.50,-6.39,1.07,25.71,4.25,-0.84,-6.08
5,12,276,187,-380,3874,-0.02,0.27,15.91,1.87,-3.80,38.74,-6.38,1.06,25.65,4.12,-1.01,-8.85
-12,2,306,201,-306,3982,-0.09,0.25,16.18,2.01,-3.06,39.82,-6.38,1.05,25.58,4.48,-0.80,-11.09
-3,3,448,305,-137,3958,-0.10,0.25,17.30,3.05,-1.37,39.58,-6.36,1.04,25.51,4.29,-0.82,-20.00
-4,3,484,252,-257,3974,-0.11,0.24,18.52,2.52,-2.57,39.74,-6.35,1.04,25.44,4.31,-0.81,-20.00
-2,6,544,186,-469,4016,-0.11,0.25,19.99,1.86,-4.69,40.16,-6.35,1.03,25.36,4.27,-0.87,-20.00
-1,0,541,116,-611,3786,-0.11,0.23,21.29,1.16,-6.11,37.86,-6.37,1.03,25.28,4.25,-0.74,-20.00
-2,4,385,-289,-774,3961,-0.11,0.23,21.51,-2.89,-7.74,39.61,-6.38,1.05,25.19,4.28,-0.83,-12.11
0,3,324,-352,-691,3813,-0.10,0.22,21.33,-3.52,-6.91,38.13,-6.39,1.07,25.11,4.25,-0.83,-7.12
-2,-1,123,-319,-474,3861,-0.10,0.20,19.95,-3.19,-4.74,38.61,-6.39,1.10,25.03,4.29,-0.76,8.45
1,4,73,-105,-416,3912,-0.09,0.20,18.40,-1.05,-4.16,39.12,-6.38,1.12,24.95,4.21,-0.88,11.05
1,1,49,41,-472,3932,-0.07,0.19,16.86,0.41,-4.72,39.32,-6.39,1.11,24.89,4.21,-0.81,11.46
0,2,58,63,-516,3896,-0.06,0.18,15.53,0.63,-5.16,38.96,-6.39,1.10,24.83,4.24,-0.82,9.29
-3,-3,74,34,-451,3882,-0.08,0.14,14.43,0.34,-4.51,38.82,-6.40,1.09,24.77,4.30,-0.70,6.78
-2,0,75,-12,-475,3909,-0.08,0.13,13.44,-0.12,-4.75,39.09,-6.40,1.08,24.72,4.29,-0.75,5.65
-3,0,68,-46,-420,3906,-0.09,0.12,12.51,-0.46,-4.20,39.06,-6.39,1.07,24.67,4.31,-0.74,5.27
-3,-1,59,-26,-401,3877,-0.10,0.10,11.62,-0.26,-4.01,38.77,-6.38,1.06,24.62,4.30,-0.71,5.09
-2,-2,34,-2,-454,3889,-0.10,0.08,10.67,-0.02,-4.54,38.89,-6.39,1.05,24.58,4.28,-0.67,6.20
-2,-3,29,-1,-457,3914,-0.10,0.05,9.78,-0.01,-4.57,39.14,-6.39,1.04,24.54,4.29,-0.64,5.69
0,0,30,31,-463,3916,-0.09,0.05,8.98,0.31,-4.63,39.16,-6.39,1.03,24.50,4.25,-0.69,4.76
0,-1,44,36,-512,3886,-0.08,0.03,8.35,0.36,-5.12,38.86,-6.41,1.01,24.47,4.25,-0.66,2.91
1,-3,48,36,-457,3912,-0.07,0.01,7.81,0.36,-4.57,39.12,-6.41,1.00,24.44,4.23,-0.60,2.00
-1,0,57,42,-467,3889,-0.07,0.01,7.38,0.42,-4.67,38.89,-6.41,0.99,24.41,4.27,-0.65,0.78
-2,1,76,81,-473,3881,-0.07,0.02,7.10,0.81,-4.73,38.81,-6.42,0.97,24.38,4.30,-0.67,-1.11
-1,1,82,90,-502,3896,-0.07,0.02,6.89,0.90,-5.02,38.96,-6.42,0.96,24.35,4.28,-0.66,-1.84
-2,-1,144,142,-484,3916,-0.08,0.01,7.08,1.42,-4.84,39.16,-6.43,0.94,24.33,4.30,-0.61,-6.89
2,3,153,126,-460,3867,-0.06,0.03,7.31,1.26,-4.60,38.67,-6.43,0.93,24.30,4.22,-0.68,-7.41
-1,1,153,33,-476,3901,-0.06,0.03,7.51,0.33,-4.76,39.01,-6.44,0.91,24.27,4.28,-0.63,-7.20
6,5,143,-6,-505,3896,-0.02,0.06,7.63,-0.06,-5.05,38.96,-6.45,0.91,24.24,4.14,-0.72,-6.22
2,1,125,54,-417,3884,-0.00,0.06,7.63,0.54,-4.17,38.84,-6.44,0.89,24.21,4.21,-0.63,-4.69
2,6,118,44,-434,3929,0.01,0.09,7.59,0.44,-4.34,39.29,-6.44,0.88,24.18,4.21,-0.73,-4.14
0,2,115,64,-490,3906,0.01,0.09,7.53,0.64,-4.90,39.06,-6.45,0.86,24.15,4.25,-0.64,-3.94
0,2,120,87,-482,3913,0.01,0.10,7.51,0.87,-4.82,39.13,-6.45,0.85,24.12,4.26,-0.63,-4.39
-2,5,159,61,-573,3949,-0.00,0.12,7.73,0.61,-5.73,39.49,-6.47,0.84,24.09,4.31,-0.69,-7.46
0,11,174,82,-568,3929,-0.00,0.17,8.02,0.82,-5.68,39.29,-6.48,0.83,24.06,4.28,-0.82,-8.42
2,3,187,37,-536,3869,0.01,0.17,8.36,0.37,-5.36,38.69,-6.49,0.82,24.02,4.24,-0.65,-9.16
-3,9,201,87,-537,3924,-0.01,0.21,8.75,0.87,-5.37,39.24,-6.50,0.81,23.99,4.35,-0.78,-9.93
-5,-4,243,-22,-544,3904,-0.04,0.17,9.35,-0.22,-5.44,39.04,-6.52,0.81,23.95,4.41,-0.50,-12.84
-5,6,249,-41,-609,3945,-0.07,0.19,9.94,-0.41,-6.09,39.45,-6.53,0.81,23.91,4.43,-0.71,-12.73
-2,12,235,-185,-608,4131,-0.07,0.24,10.38,-1.85,-6.08,41.31,-6.55,0.83,23.87,4.38,-0.86,-11.07
-6,1,213,-220,-544,3722,-0.10,0.22,10.64,-2.20,-5.44,37.22,-6.56,0.85,23.83,4.48,-0.64,-8.93
-5,-1,142,-150,-455,3843,-0.12,0.19,10.44,-1.50,-4.55,38.43,-6.56,0.88,23.79,4.46,-0.61,-3.12
-6,6,128,-139,-329,3846,-0.15,0.21,10.18,-1.39,-3.29,38.46,-6.54,0.89,23.75,4.48,-0.77,-2.20
-11,-15,73,99,-276,3921,-0.20,0.10,9.61,0.99,-2.76,39.21,-6.53,0.89,23.71,4.59,-0.31,1.85
-1,7,87,121,-383,3801,-0.18,0.13,9.18,1.21,-3.83,38.01,-6.53,0.87,23.67,4.38,-0.75,0.21
2,14,134,283,-363,3803,-0.15,0.20,9.08,2.83,-3.63,38.03,-6.52,0.86,23.64,4.31,-0.91,-3.87
3,7,126,255,-308,3927,-0.12,0.23,8.94,2.55,-3.08,39.27,-6.52,0.85,23.60,4.27,-0.76,-3.34
6,14,121,220,-318,3897,-0.07,0.29,8.78,2.20,-3.18,38.97,-6.51,0.84,23.57,4.19,-0.92,-3.07
7,11,121,188,-327,3930,-0.02,0.33,8.64,1.88,-3.27,39.30,-6.50,0.83,23.53,4.15,-0.86,-3.22
0,13,135,-1,-414,3921,-0.02,0.37,8.60,-0.01,-4.14,39.21,-6.49,0.81,23.50,4.29,-0.90,-4.45
5,9,123,19,-386,3914,0.01,0.39,8.49,0.19,-3.86,39.14,-6.48,0.81,23.46,4.17,-0.82,-3.54
-2,0,117,32,-611,3882,-0.00,0.35,8.36,0.32,-6.11,38.82,-6.49,0.80,23.43,4.33,-0.63,-3.17
-4,6,147,84,-721,3876,-0.03,0.35,8.42,0.84,-7.21,38.76,-6.51,0.80,23.40,4.38,-0.75,-5.65
-1,11,207,106,-482,3864,-0.03,0.39,8.84,1.06,-4.82,38.64,-6.51,0.79,23.36,4.33,-0.85,-10.28
5,12,205,110,-417,3904,0.00,0.42,9.20,1.10,-4.17,39.04,-6.51,0.78,23.33,4.19,-0.87,-9.72
2,11,230,120,-390,3931,0.02,0.45,9.69,1.20,-3.90,39.31,-6.50,0.76,23.29,4.25,-0.85,-11.32
2,5,236,105,-393,3943,0.03,0.43,10.16,1.05,-3.93,39.43,-6.50,0.75,23.25,4.24,-0.72,-11.33
3,11,222,-64,-470,3904,0.04,0.46,10.50,-0.64,-4.70,39.04,-6.51,0.77,23.21,4.23,-0.85,-9.78
1,5,214,-72,-515,3908,0.04,0.44,10.75,-0.72,-5.15,39.08,-6.53,0.78,23.16,4.28,-0.74,-8.83
-1,12,167,-133,-404,3992,0.03,0.47,10.70,-1.33,-4.04,39.92,-6.52,0.80,23.12,4.31,-0.90,-4.90
-1,6,133,-129,-318,3845,0.02,0.46,10.44,-1.29,-3.18,38.45,-6.50,0.82,23.08,4.31,-0.79,-2.29
8,13,80,-59,-439,3875,0.07,0.49,9.88,-0.59,-4.39,38.75,-6.49,0.84,23.04,4.10,-0.95,1.61
8,12,68,-59,-404,3928,0.11,0.52,9.31,-0.59,-4.04,39.28,-6.47,0.85,23.00,4.08,-0.94,2.02
-3,-3,61,9,-450,3911,0.08,0.45,8.75,0.09,-4.50,39.11,-6.47,0.83,22.97,4.31,-0.61,2.03
-7,-3,64,51,-458,3890,0.03,0.38,8.26,0.51,-4.58,38.90,-6.47,0.82,22.94,4.41,-0.58,1.27
-6,-1,57,160,-397,3976,-0.01,0.34,7.79,1.60,-3.97,39.76,-6.47,0.81,22.91,4.39,-0.60,1.35
-2,0,51,200,-365,3911,-0.02,0.31,7.32,2.00,-3.65,39.11,-6.46,0.79,22.88,4.31,-0.61,1.37
5,9,45,161,-394,3899,0.01,0.33,6.86,1.61,-3.94,38.99,-6.46,0.78,22.85,4.16,-0.79,1.40
7,12,47,124,-387,3854,0.05,0.37,6.46,1.24,-3.87,38.54,-6.45,0.77,22.82,4.10,-0.85,0.81
11,10,39,38,-415,3922,0.12,0.39,6.05,0.38,-4.15,39.22,-6.45,0.75,22.80,4.00,-0.81,1.05
5,6,29,16,-406,3940,0.14,0.39,5.63,0.16,-4.06,39.40,-6.44,0.74,22.78,4.11,-0.72,1.45
2,7,23,75,-474,3918,0.13,0.39,5.20,0.75,-4.74,39.18,-6.44,0.73,22.76,4.17,-0.73,1.51
5,11,36,104,-523,3900,0.15,0.42,4.90,1.04,-5.23,39.00,-6.45,0.72,22.74,4.11,-0.81,0.09
8,19,79,70,-481,3920,0.18,0.50,4.89,0.70,-4.81,39.20,-6.45,0.70,22.72,4.05,-0.99,-3.56
7,11,83,47,-434,3931,0.21,0.51,4.91,0.47,-4.34,39.31,-6.45,0.69,22.70,4.06,-0.82,-3.87
5,14,75,2,-475,3900,0.22,0.55,4.88,0.02,-4.75,39.00,-6.46,0.68,22.68,4.10,-0.88,-3.23
7,21,85,35,-597,3860,0.24,0.62,4.91,0.35,-5.97,38.60,-6.47,0.67,22.66,4.07,-1.04,-4.04
26,56,231,198,-722,3823,0.37,0.90,5.83,1.98,-7.22,38.23,-6.49,0.67,22.64,3.65,-1.83,-15.44
53,80,273,117,-607,3816,0.66,1.30,6.91,1.17,-6.07,38.16,-6.50,0.66,22.61,3.03,-2.42,-17.85
175,169,247,-103,-370,4020,1.66,2.20,7.72,-1.03,-3.70,40.20,-6.47,0.69,22.58,0.26,-4.49,-14.78
169,156,205,-131,-340,3833,2.53,2.93,8.20,-1.31,-3.40,38.33,-6.45,0.71,22.55,0.13,-4.44,-10.71
-20,-15,165,-121,-208,3866,2.15,2.55,8.39,-1.21,-2.08,38.66,-6.42,0.73,22.52,4.06,-0.87,-7.12
-46,-34,149,-97,-227,3873,1.66,2.08,8.46,-0.97,-2.27,38.73,-6.40,0.75,22.49,4.71,-0.37,-5.69
-10,-8,83,10,-443,3935,1.43,1.83,8.12,0.10,-4.43,39.35,-6.39,0.74,22.45,4.03,-0.83,-0.46
9,11,70,28,-426,3978,1.34,1.71,7.73,0.28,-4.26,39.78,-6.38,0.73,22.42,3.66,-1.18,0.24
43,38,29,69,-285,3900,1.47,1.77,7.14,0.69,-2.85,39.00,-6.36,0.73,22.40,2.92,-1.74,3.09
30,28,18,68,-262,3865,1.51,1.77,6.53,0.68,-2.62,38.65,-6.34,0.73,22.37,3.17,-1.53,3.38
-26,-29,-5,-32,-346,3907,1.20,1.41,5.85,-0.32,-3.46,39.07,-6.32,0.74,22.35,4.37,-0.28,4.61
-30,-36,-16,-9,-343,3896,0.89,1.05,5.17,-0.09,-3.43,38.96,-6.30,0.74,22.33,4.52,-0.04,4.82
-2,-6,-67,-51,-396,3935,0.79,0.91,4.24,-0.51,-3.96,39.35,-6.28,0.74,22.31,3.97,-0.62,8.16
17,16,-77,17,-446,3982,0.82,0.92,3.35,0.17,-4.46,39.82,-6.28,0.73,22.30,3.57,-1.06,8.06
25,21,-55,81,-453,3866,0.89,0.95,2.68,0.81,-4.53,38.66,-6.28,0.72,22.29,3.39,-1.16,5.49
18,15,-51,54,-440,3885,0.91,0.95,2.10,0.54,-4.40,38.85,-6.27,0.70,22.28,3.53,-1.03,4.54
-7,-11,-37,18,-409,3898,0.77,0.79,1.66,0.18,-4.09,38.98,-6.27,0.69,22.27,4.07,-0.45,2.89
-10,-14,-41,14,-405,3915,0.64,0.62,1.25,0.14,-4.05,39.15,-6.26,0.67,22.27,4.16,-0.33,2.79
-13,-17,-31,21,-444,3913,0.49,0.46,0.93,0.21,-4.44,39.13,-6.26,0.66,22.27,4.26,-0.21,1.61
-13,-17,-28,38,-447,3907,0.36,0.31,0.67,0.38,-4.47,39.07,-6.26,0.64,22.26,4.30,-0.16,1.08
-3,0,-39,-3,-421,3896,0.31,0.28,0.36,-0.03,-4.21,38.96,-6.26,0.63,22.26,4.11,-0.49,1.69
-5,-3,-40,29,-463,3923,0.25,0.23,0.08,0.29,-4.63,39.23,-6.26,0.61,22.26,4.17,-0.40,1.47
1,1,-6,49,-443,3912,0.23,0.21,0.04,0.49,-4.43,39.12,-6.27,0.59,22.26,4.05,-0.47,-1.45
3,2,-3,11,-431,3909,0.23,0.20,0.02,0.11,-4.31,39.09,-6.27,0.57,22.26,4.01,-0.48,-1.73
-1,-3,3,6,-425,3906,0.20,0.17,0.03,0.06,-4.25,39.06,-6.26,0.56,22.26,4.10,-0.35,-2.22
0,0,0,7,-437,3901,0.18,0.15,0.03,0.07,-4.37,39.01,-6.27,0.54,22.26,4.09,-0.40,-1.97
-1,-3,1,0,-429,3900,0.15,0.12,0.03,0.00,-4.29,39.00,-6.27,0.52,22.26,4.11,-0.32,-2.05
-2,-3,-1,6,-431,3896,0.13,0.09,0.02,0.06,-4.31,38.96,-6.27,0.50,22.26,4.14,-0.30,-1.89
9,3,-6,21,-443,3918,0.17,0.10,-0.02,0.21,-4.43,39.18,-6.27,0.49,22.26,3.91,-0.41,-1.51
9,7,-6,23,-448,3914,0.21,0.13,-0.05,0.23,-4.48,39.14,-6.27,0.47,22.26,3.90,-0.49,-1.55
6,3,-3,16,-434,3914,0.22,0.13,-0.06,0.16,-4.34,39.14,-6.27,0.45,22.26,3.96,-0.40,-1.82
6,3,-6,27,-424,3917,0.24,0.14,-0.09,0.27,-4.24,39.17,-6.27,0.43,22.26,3.95,-0.39,-1.59
8,12,-7,21,-394,3846,0.26,0.20,-0.13,0.21,-3.94,38.46,-6.26,0.42,22.26,3.90,-0.57,-1.55
14,10,-29,-45,-398,3928,0.32,0.24,-0.29,-0.45,-3.98,39.28,-6.24,0.43,22.26,3.75,-0.55,0.14
-15,-15,-29,30,-425,3880,0.20,0.12,-0.44,0.30,-4.25,38.80,-6.24,0.41,22.27,4.37,0.00,-0.01
-14,-16,-28,25,-420,3924,0.09,0.01,-0.57,0.25,-4.20,39.24,-6.24,0.39,22.27,4.38,0.06,-0.23
-4,-4,-31,32,-466,3908,0.06,-0.01,-0.70,0.32,-4.66,39.08,-6.25,0.38,22.27,4.19,-0.16,-0.12
-4,-3,-23,57,-464,3929,0.03,-0.03,-0.77,0.57,-4.64,39.29,-6.26,0.36,22.27,4.20,-0.17,-0.87
1,0,-4,13,-437,3910,0.03,-0.03,-0.72,0.13,-4.37,39.10,-6.26,0.34,22.28,4.10,-0.22,-2.42
-1,0,-5,21,-438,3900,0.02,-0.02,-0.68,0.21,-4.38,39.00,-6.26,0.32,22.28,4.15,-0.21,-2.30
-1,1,-3,12,-437,3905,0.01,-0.01,-0.63,0.12,-4.37,39.05,-6.27,0.30,22.28,4.15,-0.22,-2.41
2,3,-5,29,-435,3921,0.02,0.00,-0.59,0.29,-4.35,39.21,-6.27,0.29,22.28,4.09,-0.25,-2.21
3,1,-11,-4,-429,3908,0.04,0.01,-0.60,-0.04,-4.29,39.08,-6.27,0.27,22.29,4.07,-0.20,-1.71
7,8,-24,-48,-374,3889,0.08,0.06,-0.69,-0.48,-3.74,38.89,-6.25,0.28,22.29,3.96,-0.36,-0.70
4,15,-80,154,-415,4031,0.10,0.14,-1.11,1.54,-4.15,40.31,-6.25,0.26,22.29,4.02,-0.51,3.60
-9,-15,-97,168,-375,3889,0.03,0.04,-1.59,1.68,-3.75,38.89,-6.25,0.24,22.30,4.30,0.14,4.53
-23,-27,-56,10,-544,3902,-0.11,-0.13,-1.77,0.10,-5.44,39.02,-6.26,0.23,22.31,4.63,0.43,0.86
-29,-27,-51,33,-486,3883,-0.28,-0.28,-1.90,0.33,-4.86,38.83,-6.28,0.22,22.32,4.81,0.48,0.30
-2,-5,-54,48,-418,3952,-0.26,-0.28,-2.04,0.48,-4.18,39.52,-6.28,0.20,22.32,4.25,0.05,0.40
-4,-2,-62,42,-443,3892,-0.26,-0.27,-2.22,0.42,-4.43,38.92,-6.28,0.18,22.33,4.30,-0.01,0.89
-14,-13,-9,8,-473,3898,-0.32,-0.32,-2.05,0.08,-4.73,38.98,-6.30,0.17,22.34,4.53,0.24,-3.42
-10,-9,-4,28,-445,3902,-0.35,-0.34,-1.87,0.28,-4.45,39.02,-6.31,0.15,22.35,4.46,0.18,-3.65
4,8,4,60,-458,3904,-0.29,-0.26,-1.66,0.60,-4.58,39.04,-6.31,0.13,22.35,4.16,-0.18,-4.11
12,15,12,18,-435,3914,-0.19,-0.14,-1.42,0.18,-4.35,39.14,-6.32,0.11,22.36,3.98,-0.34,-4.53
33,32,3,5,-408,3909,0.03,0.07,-1.26,0.05,-4.08,39.09,-6.30,0.10,22.36,3.48,-0.74,-3.60
25,24,3,-7,-387,3903,0.18,0.21,-1.12,-0.07,-3.87,39.03,-6.28,0.10,22.37,3.59,-0.61,-3.45
-9,-8,0,39,-419,3919,0.11,0.14,-1.00,0.39,-4.19,39.19,-6.28,0.09,22.37,4.30,0.07,-3.08
-3,-4,0,28,-426,3916,0.08,0.10,-0.90,0.28,-4.26,39.16,-6.27,0.07,22.38,4.18,0.01,-2.97
5,1,-4,17,-419,3880,0.10,0.10,-0.84,0.17,-4.19,38.80,-6.27,0.05,22.38,4.01,-0.08,-2.56
-3,-7,-1,6,-426,3890,0.07,0.04,-0.76,0.06,-4.26,38.90,-6.26,0.03,22.38,4.18,0.11,-2.73
-3,-4,-3,18,-440,3914,0.05,0.01,-0.70,0.18,-4.40,39.14,-6.27,0.02,22.39,4.19,0.07,-2.50
1,0,-2,22,-445,3906,0.05,0.01,-0.64,0.22,-4.45,39.06,-6.28,0.00,22.39,4.11,-0.00,-2.53
-3,-3,1,15,-421,3906,0.03,-0.01,-0.57,0.15,-4.21,39.06,-6.27,-0.01,22.39,4.19,0.07,-2.71
-4,-4,1,20,-417,3903,-0.00,-0.03,-0.51,0.20,-4.17,39.03,-6.26,-0.03,22.39,4.22,0.11,-2.64
0,-1,0,25,-418,3891,-0.00,-0.03,-0.46,0.25,-4.18,38.91,-6.26,-0.05,22.39,4.13,0.06,-2.50
-1,-2,0,19,-421,3895,-0.01,-0.04,-0.41,0.19,-4.21,38.95,-6.25,-0.07,22.40,4.15,0.10,-2.45
-1,-2,2,15,-430,3898,-0.01,-0.05,-0.36,0.15,-4.30,38.98,-6.26,-0.08,22.40,4.15,0.11,-2.57
-1,-2,2,14,-426,3905,-0.02,-0.06,-0.31,0.14,-4.26,39.05,-6.25,-0.10,22.40,4.15,0.12,-2.52
0,0,2,22,-423,3915,-0.02,-0.05,-0.27,0.22,-4.23,39.15,-6.24,-0.12,22.40,4.13,0.09,-2.47
1,-1,1,18,-428,3911,-0.01,-0.05,-0.24,0.18,-4.28,39.11,-6.24,-0.14,22.40,4.10,0.13,-2.35
0,-1,0,19,-421,3914,-0.01,-0.05,-0.21,0.19,-4.21,39.14,-6.23,-0.15,22.40,4.12,0.14,-2.24
0,-1,2,18,-428,3912,-0.01,-0.05,-0.18,0.18,-4.28,39.12,-6.24,-0.17,22.40,4.12,0.15,-2.37
1,-1,0,18,-427,3915,0.00,-0.05,-0.16,0.18,-4.27,39.15,-6.23,-0.19,22.40,4.09,0.16,-2.19
-1,-3,-2,8,-406,3913,-0.01,-0.07,-0.16,0.08,-4.06,39.13,-6.22,-0.19,22.40,4.12,0.20,-2.01
-1,-5,-6,21,-428,3915,-0.01,-0.09,-0.18,0.21,-4.28,39.15,-6.22,-0.20,22.40,4.13,0.26,-1.70
0,-4,-5,14,-424,3904,-0.01,-0.11,-0.19,0.14,-4.24,39.04,-6.20,-0.20,22.40,4.10,0.25,-1.79
-1,-6,-8,11,-418,3913,-0.02,-0.13,-0.22,0.11,-4.18,39.13,-6.18,-0.20,22.41,4.11,0.29,-1.57
-5,-2,-10,30,-388,3837,-0.04,-0.13,-0.26,0.30,-3.88,38.37,-6.17,-0.21,22.41,4.18,0.21,-1.44
-8,-9,-56,79,-413,3986,-0.09,-0.17,-0.57,0.79,-4.13,39.86,-6.16,-0.23,22.41,4.26,0.38,2.12
-3,3,-48,48,-424,3833,-0.10,-0.14,-0.81,0.48,-4.24,38.33,-6.17,-0.25,22.41,4.16,0.14,1.19
-4,-2,-11,-6,-449,3922,-0.11,-0.14,-0.80,-0.06,-4.49,39.22,-6.18,-0.23,22.42,4.19,0.23,-1.93
-1,-3,-8,-17,-417,3894,-0.11,-0.14,-0.77,-0.17,-4.17,38.94,-6.18,-0.22,22.42,4.13,0.24,-2.15
0,-2,-6,15,-417,3897,-0.10,-0.14,-0.73,0.15,-4.17,38.97,-6.16,-0.22,22.42,4.09,0.22,-2.28
-1,-2,-7,22,-410,3860,-0.09,-0.14,-0.70,0.22,-4.10,38.60,-6.15,-0.23,22.42,4.11,0.23,-2.16
5,3,-11,30,-437,3898,-0.05,-0.11,-0.69,0.30,-4.37,38.98,-6.17,-0.24,22.43,3.98,0.13,-1.82
13,9,-11,12,-460,3908,0.03,-0.04,-0.69,0.12,-4.60,39.08,-6.18,-0.24,22.43,3.81,-0.01,-1.82
17,15,0,0,-444,3901,0.13,0.06,-0.62,0.00,-4.44,39.01,-6.20,-0.23,22.43,3.71,-0.17,-2.68
17,16,2,2,-439,3897,0.22,0.15,-0.55,0.02,-4.39,38.97,-6.21,-0.22,22.43,3.69,-0.22,-2.77
10,10,6,24,-422,3902,0.26,0.19,-0.46,0.24,-4.22,39.02,-6.20,-0.24,22.44,3.82,-0.10,-3.01
11,11,5,13,-424,3903,0.30,0.24,-0.38,0.13,-4.24,39.03,-6.20,-0.22,22.44,3.79,-0.15,-2.85
14,16,5,16,-420,3896,0.36,0.32,-0.31,0.16,-4.20,38.96,-6.18,-0.22,22.44,3.70,-0.26,-2.77
11,13,5,13,-410,3898,0.39,0.36,-0.25,0.13,-4.10,38.98,-6.16,-0.22,22.44,3.74,-0.22,-2.71
7,9,3,17,-417,3914,0.39,0.38,-0.21,0.17,-4.17,39.14,-6.14,-0.22,22.44,3.81,-0.14,-2.49
8,7,2,18,-431,3910,0.40,0.39,-0.17,0.18,-4.31,39.10,-6.16,-0.23,22.44,3.79,-0.10,-2.37
10,9,0,17,-423,3915,0.42,0.40,-0.16,0.17,-4.23,39.15,-6.16,-0.24,22.44,3.75,-0.13,-2.19
9,8,0,11,-427,3915,0.44,0.41,-0.14,0.11,-4.27,39.15,-6.17,-0.23,22.44,3.77,-0.13,-2.17
10,8,1,10,-424,3916,0.45,0.42,-0.12,0.10,-4.24,39.16,-6.17,-0.21,22.44,3.75,-0.14,-2.23
11,9,1,13,-423,3905,0.47,0.43,-0.10,0.13,-4.23,39.05,-6.18,-0.19,22.44,3.73,-0.18,-2.21
-2,-3,2,14,-416,3905,0.42,0.37,-0.08,0.14,-4.16,39.05,-6.16,-0.19,22.44,3.99,0.09,-2.27
-3,-2,3,18,-422,3923,0.36,0.32,-0.05,0.18,-4.22,39.23,-6.15,-0.21,22.45,4.03,0.09,-2.33
9,13,13,36,-433,3916,0.37,0.37,0.03,0.36,-4.33,39.16,-6.16,-0.22,22.45,3.78,-0.22,-3.09
10,11,12,12,-414,3901,0.40,0.40,0.10,0.12,-4.14,39.01,-6.14,-0.21,22.45,3.74,-0.19,-2.93
0,0,6,0,-421,3904,0.36,0.36,0.13,0.00,-4.21,39.04,-6.14,-0.19,22.44,3.96,0.03,-2.39
-1,0,6,-2,-420,3909,0.32,0.32,0.15,-0.02,-4.20,39.09,-6.14,-0.17,22.44,3.99,0.03,-2.37
2,3,1,6,-418,3915,0.30,0.31,0.14,0.06,-4.18,39.15,-6.13,-0.16,22.44,3.92,-0.04,-1.95
1,2,1,2,-423,3910,0.27,0.29,0.13,0.02,-4.23,39.10,-6.14,-0.14,22.44,3.95,-0.03,-1.96
-1,-1,1,18,-424,3915,0.24,0.25,0.13,0.18,-4.24,39.15,-6.14,-0.15,22.44,4.01,0.05,-1.97
0,0,1,18,-425,3919,0.22,0.23,0.12,0.18,-4.25,39.19,-6.15,-0.17,22.44,4.00,0.05,-1.98
