gyroADC_X,gyroADC_Y,gyroADC_Z,accADC_X,accADC_Y,accADC_Z,GyroX,GyroY,GyroZ,AccX,AccY,AccZ,roll_IMU,pitch_IMU,yaw_IMU,roll_PID,pitch_PID,yaw_PID
1,1,0,-61,-391,3912,0.00,0.02,0.05,-0.61,-3.91,39.12,-5.72,0.93,1.73,0.79,-0.15,-0.11
1,0,0,-77,-384,3916,0.01,0.01,0.04,-0.77,-3.84,39.16,-5.71,0.94,1.73,0.78,-0.13,-0.11
1,1,0,-83,-392,3918,0.02,0.02,0.04,-0.83,-3.92,39.18,-5.71,0.96,1.73,0.78,-0.15,-0.11
2,1,0,-65,-404,3894,0.03,0.02,0.03,-0.65,-4.04,38.94,-5.73,0.96,1.73,0.77,-0.15,-0.11
0,0,1,-72,-408,3914,0.02,0.02,0.04,-0.72,-4.08,39.14,-5.75,0.97,1.73,0.80,-0.14,-0.12
0,2,2,-77,-402,3904,0.02,0.03,0.05,-0.77,-4.02,39.04,-5.76,0.98,1.73,0.80,-0.17,-0.13
0,1,1,-70,-393,3916,0.02,0.03,0.05,-0.70,-3.93,39.16,-5.75,1.00,1.73,0.80,-0.16,-0.12
-1,0,1,-65,-401,3895,0.01,0.03,0.05,-0.65,-4.01,38.95,-5.77,0.99,1.73,0.82,-0.14,-0.12
-1,1,0,-57,-400,3900,0.00,0.03,0.04,-0.57,-4.00,39.00,-5.78,0.97,1.73,0.82,-0.16,-0.11
0,1,0,-62,-392,3897,0.00,0.04,0.04,-0.62,-3.92,38.97,-5.77,0.96,1.73,0.81,-0.15,-0.11
2,1,1,-56,-390,3899,0.02,0.04,0.04,-0.56,-3.90,38.99,-5.76,0.94,1.73,0.77,-0.15,-0.12
0,0,0,-63,-396,3910,0.01,0.04,0.04,-0.63,-3.96,39.10,-5.77,0.93,1.73,0.81,-0.13,-0.11
0,1,1,-65,-394,3926,0.01,0.04,0.04,-0.65,-3.94,39.26,-5.76,0.93,1.73,0.80,-0.15,-0.12
0,1,0,-69,-399,3900,0.01,0.04,0.04,-0.69,-3.99,39.00,-5.77,0.95,1.73,0.81,-0.15,-0.11
1,0,1,-76,-394,3905,0.02,0.04,0.04,-0.76,-3.94,39.05,-5.77,0.97,1.73,0.79,-0.14,-0.12
-1,0,0,-66,-392,3912,0.01,0.03,0.03,-0.66,-3.92,39.12,-5.75,0.96,1.73,0.82,-0.14,-0.11
1,1,0,-57,-394,3903,0.01,0.04,0.03,-0.57,-3.94,39.03,-5.75,0.95,1.73,0.79,-0.15,-0.11
1,0,0,-62,-393,3908,0.02,0.03,0.03,-0.62,-3.93,39.08,-5.75,0.93,1.73,0.79,-0.13,-0.11
1,1,0,-62,-394,3913,0.02,0.03,0.03,-0.62,-3.94,39.13,-5.75,0.91,1.73,0.79,-0.15,-0.11
1,0,1,-54,-385,3906,0.03,0.03,0.03,-0.54,-3.85,39.06,-5.74,0.90,1.73,0.79,-0.13,-0.12
1,0,2,-66,-396,3899,0.03,0.03,0.04,-0.66,-3.96,38.99,-5.75,0.91,1.73,0.79,-0.13,-0.13
1,0,2,-72,-393,3895,0.03,0.03,0.05,-0.72,-3.93,38.95,-5.75,0.93,1.73,0.79,-0.13,-0.13
0,0,0,-71,-397,3895,0.03,0.02,0.04,-0.71,-3.97,38.95,-5.76,0.94,1.73,0.80,-0.13,-0.11
1,0,-1,-68,-404,3897,0.03,0.02,0.03,-0.68,-4.04,38.97,-5.78,0.95,1.73,0.79,-0.14,-0.10
1,0,0,-77,-393,3905,0.04,0.02,0.03,-0.77,-3.93,39.05,-5.77,0.97,1.73,0.79,-0.14,-0.11
0,0,0,-75,-396,3908,0.03,0.02,0.03,-0.75,-3.96,39.08,-5.78,0.99,1.73,0.81,-0.14,-0.11
0,0,0,-65,-392,3914,0.03,0.01,0.02,-0.65,-3.92,39.14,-5.76,0.98,1.72,0.80,-0.14,-0.11
0,0,1,-65,-386,3900,0.03,0.01,0.03,-0.65,-3.86,39.00,-5.74,0.97,1.72,0.80,-0.14,-0.12
1,0,1,-67,-394,3904,0.03,0.01,0.03,-0.67,-3.94,39.04,-5.76,0.98,1.72,0.79,-0.14,-0.12
0,0,1,-58,-398,3906,0.03,0.01,0.03,-0.58,-3.98,39.06,-5.77,0.96,1.72,0.80,-0.14,-0.12
1,1,1,-54,-398,3891,0.03,0.02,0.04,-0.54,-3.98,38.91,-5.77,0.94,1.72,0.79,-0.15,-0.12
0,0,0,-51,-396,3906,0.03,0.01,0.03,-0.51,-3.96,39.06,-5.78,0.93,1.72,0.81,-0.13,-0.11
0,0,0,-55,-404,3906,0.02,0.01,0.03,-0.55,-4.04,39.06,-5.79,0.91,1.72,0.81,-0.13,-0.11
0,0,1,-61,-386,3903,0.02,0.01,0.03,-0.61,-3.86,39.03,-5.77,0.91,1.72,0.81,-0.13,-0.12
1,0,1,-64,-390,3907,0.03,0.01,0.04,-0.64,-3.90,39.07,-5.75,0.92,1.72,0.79,-0.13,-0.12
0,0,1,-68,-390,3911,0.02,0.01,0.04,-0.68,-3.90,39.11,-5.74,0.93,1.72,0.80,-0.13,-0.12
0,0,1,-67,-395,3913,0.02,0.01,0.04,-0.67,-3.95,39.13,-5.75,0.95,1.72,0.80,-0.13,-0.12
1,-1,0,-59,-397,3914,0.02,0.00,0.04,-0.59,-3.97,39.14,-5.76,0.93,1.72,0.79,-0.12,-0.11
1,0,0,-62,-399,3906,0.03,0.00,0.03,-0.62,-3.99,39.06,-5.77,0.92,1.72,0.79,-0.13,-0.11
0,0,1,-74,-391,3916,0.03,0.00,0.04,-0.74,-3.91,39.16,-5.77,0.94,1.72,0.80,-0.13,-0.12
0,1,1,-67,-398,3907,0.02,0.01,0.04,-0.67,-3.98,39.07,-5.78,0.95,1.72,0.81,-0.15,-0.12
1,1,1,-65,-398,3908,0.03,0.01,0.04,-0.65,-3.98,39.08,-5.80,0.95,1.72,0.79,-0.15,-0.12
1,1,1,-61,-397,3898,0.03,0.02,0.04,-0.61,-3.97,38.98,-5.80,0.93,1.72,0.79,-0.15,-0.12
1,0,1,-59,-388,3898,0.03,0.02,0.04,-0.59,-3.88,38.98,-5.79,0.92,1.72,0.79,-0.13,-0.12
0,0,1,-66,-392,3909,0.03,0.01,0.05,-0.66,-3.92,39.09,-5.77,0.93,1.72,0.81,-0.13,-0.12
0,0,1,-68,-397,3913,0.03,0.01,0.05,-0.68,-3.97,39.13,-5.78,0.95,1.72,0.81,-0.13,-0.12
-1,0,1,-61,-401,3902,0.02,0.01,0.05,-0.61,-4.01,39.02,-5.79,0.94,1.72,0.82,-0.13,-0.12
0,0,2,-67,-398,3918,0.02,0.01,0.06,-0.67,-3.98,39.18,-5.80,0.96,1.72,0.81,-0.14,-0.13
1,1,1,-68,-399,3911,0.02,0.02,0.06,-0.68,-3.99,39.11,-5.81,0.97,1.72,0.80,-0.15,-0.12
1,1,1,-63,-392,3901,0.02,0.02,0.06,-0.63,-3.92,39.01,-5.79,0.96,1.72,0.79,-0.15,-0.12
0,1,1,-63,-387,3907,0.02,0.02,0.06,-0.63,-3.87,39.07,-5.78,0.96,1.72,0.81,-0.15,-0.12
0,0,1,-70,-395,3891,0.02,0.02,0.06,-0.70,-3.95,38.91,-5.78,0.97,1.72,0.81,-0.14,-0.12
1,1,1,-68,-398,3905,0.02,0.03,0.06,-0.68,-3.98,39.05,-5.80,0.98,1.72,0.79,-0.16,-0.12
1,0,1,-65,-395,3897,0.03,0.02,0.06,-0.65,-3.95,38.97,-5.79,0.96,1.72,0.79,-0.14,-0.12
1,0,1,-72,-389,3903,0.03,0.02,0.06,-0.72,-3.89,39.03,-5.78,0.98,1.72,0.79,-0.14,-0.12
0,1,1,-69,-395,3897,0.03,0.02,0.06,-0.69,-3.95,38.97,-5.78,0.99,1.72,0.81,-0.16,-0.12
0,2,1,-63,-392,3892,0.03,0.03,0.06,-0.63,-3.92,38.92,-5.78,0.98,1.72,0.81,-0.17,-0.12
0,0,1,-71,-394,3898,0.02,0.03,0.06,-0.71,-3.94,38.98,-5.77,1.00,1.72,0.81,-0.14,-0.12
0,1,0,-69,-397,3907,0.02,0.03,0.05,-0.69,-3.97,39.07,-5.79,1.00,1.72,0.81,-0.16,-0.11
1,0,0,-73,-398,3909,0.02,0.03,0.05,-0.73,-3.98,39.09,-5.80,1.02,1.72,0.79,-0.15,-0.11
0,1,0,-70,-392,3911,0.02,0.03,0.04,-0.70,-3.92,39.11,-5.78,1.02,1.72,0.81,-0.16,-0.11
0,0,1,-70,-399,3894,0.02,0.03,0.04,-0.70,-3.99,38.94,-5.80,1.02,1.72,0.81,-0.15,-0.12
0,0,1,-65,-399,3897,0.02,0.03,0.05,-0.65,-3.99,38.97,-5.81,1.01,1.72,0.81,-0.14,-0.12
-1,0,1,-61,-390,3918,0.01,0.02,0.05,-0.61,-3.90,39.18,-5.79,0.99,1.72,0.83,-0.14,-0.12
-1,0,0,-58,-395,3908,0.00,0.02,0.04,-0.58,-3.95,39.08,-5.79,0.98,1.72,0.83,-0.14,-0.11
0,0,1,-71,-392,3910,0.00,0.02,0.05,-0.71,-3.92,39.10,-5.78,0.99,1.72,0.81,-0.14,-0.12
0,0,2,-67,-398,3908,0.00,0.02,0.05,-0.67,-3.98,39.08,-5.80,0.98,1.72,0.81,-0.14,-0.13
1,1,2,-66,-398,3906,0.01,0.02,0.06,-0.66,-3.98,39.06,-5.81,0.97,1.72,0.80,-0.15,-0.13
0,0,1,-60,-395,3911,0.01,0.02,0.06,-0.60,-3.95,39.11,-5.80,0.95,1.72,0.81,-0.14,-0.12
0,0,1,-64,-399,3908,0.01,0.02,0.06,-0.64,-3.99,39.08,-5.82,0.94,1.72,0.81,-0.13,-0.12
0,0,0,-66,-395,3917,0.01,0.02,0.05,-0.66,-3.95,39.17,-5.80,0.95,1.72,0.81,-0.13,-0.11
2,1,2,-70,-389,3902,0.02,0.02,0.06,-0.70,-3.89,39.02,-5.78,0.96,1.72,0.78,-0.15,-0.13
1,1,1,-72,-392,3905,0.02,0.02,0.06,-0.72,-3.92,39.05,-5.77,0.98,1.72,0.79,-0.15,-0.12
1,0,1,-69,-394,3905,0.03,0.02,0.06,-0.69,-3.94,39.05,-5.77,0.99,1.72,0.79,-0.14,-0.12
1,0,1,-68,-400,3903,0.03,0.02,0.06,-0.68,-4.00,39.03,-5.79,0.99,1.72,0.79,-0.14,-0.12
1,0,1,-62,-394,3899,0.03,0.02,0.06,-0.62,-3.94,38.99,-5.78,0.97,1.72,0.79,-0.14,-0.12
0,0,1,-61,-387,3905,0.03,0.02,0.06,-0.61,-3.87,39.05,-5.77,0.96,1.72,0.80,-0.14,-0.12
0,1,2,-54,-387,3909,0.03,0.02,0.07,-0.54,-3.87,39.09,-5.76,0.95,1.72,0.80,-0.15,-0.13
1,0,3,-53,-380,3900,0.03,0.02,0.08,-0.53,-3.80,39.00,-5.74,0.94,1.72,0.79,-0.13,-0.14
1,0,2,-59,-385,3900,0.03,0.02,0.08,-0.59,-3.85,39.00,-5.73,0.93,1.71,0.78,-0.13,-0.13
1,0,2,-62,-383,3907,0.04,0.02,0.09,-0.62,-3.83,39.07,-5.71,0.92,1.71,0.78,-0.13,-0.14
1,0,3,-61,-385,3904,0.04,0.01,0.10,-0.61,-3.85,39.04,-5.69,0.92,1.71,0.78,-0.13,-0.15
1,0,3,-70,-392,3898,0.04,0.01,0.11,-0.70,-3.92,38.98,-5.70,0.93,1.71,0.78,-0.13,-0.15
1,0,3,-80,-410,3904,0.04,0.01,0.11,-0.80,-4.10,39.04,-5.71,0.94,1.71,0.78,-0.13,-0.15
1,0,2,-80,-409,3901,0.04,0.01,0.11,-0.80,-4.09,39.01,-5.73,0.96,1.71,0.78,-0.13,-0.14
1,1,2,-74,-418,3908,0.05,0.02,0.11,-0.74,-4.18,39.08,-5.75,0.96,1.71,0.78,-0.15,-0.14
1,0,1,-77,-417,3904,0.05,0.01,0.11,-0.77,-4.17,39.04,-5.76,0.97,1.71,0.79,-0.14,-0.13
0,1,1,-72,-408,3909,0.04,0.02,0.10,-0.72,-4.08,39.09,-5.78,0.98,1.71,0.80,-0.15,-0.13
0,1,1,-70,-398,3924,0.04,0.02,0.10,-0.70,-3.98,39.24,-5.78,0.99,1.71,0.81,-0.16,-0.13
0,0,0,-63,-395,3892,0.03,0.02,0.09,-0.63,-3.95,38.92,-5.79,0.98,1.71,0.81,-0.14,-0.12
1,0,0,-69,-393,3900,0.04,0.02,0.08,-0.69,-3.93,39.00,-5.77,0.99,1.71,0.79,-0.14,-0.12
0,1,0,-64,-403,3901,0.03,0.02,0.07,-0.64,-4.03,39.01,-5.79,0.98,1.71,0.81,-0.16,-0.12
0,0,0,-63,-407,3909,0.03,0.02,0.07,-0.63,-4.07,39.09,-5.81,0.98,1.71,0.81,-0.14,-0.11
0,1,0,-66,-406,3915,0.03,0.02,0.06,-0.66,-4.06,39.15,-5.83,0.97,1.71,0.81,-0.15,-0.11
0,0,0,-69,-404,3902,0.02,0.02,0.05,-0.69,-4.04,39.02,-5.84,0.98,1.71,0.82,-0.14,-0.11
-1,1,-1,-71,-398,3902,0.02,0.03,0.04,-0.71,-3.98,39.02,-5.84,1.00,1.71,0.83,-0.16,-0.10
0,1,0,-70,-395,3898,0.01,0.03,0.04,-0.70,-3.95,38.98,-5.82,1.01,1.71,0.81,-0.16,-0.11
0,1,-1,-61,-389,3902,0.01,0.03,0.03,-0.61,-3.89,39.02,-5.81,0.99,1.71,0.81,-0.16,-0.10
0,1,-1,-62,-391,3905,0.01,0.04,0.02,-0.62,-3.91,39.05,-5.79,0.98,1.71,0.81,-0.16,-0.10
1,1,-1,-57,-395,3900,0.02,0.04,0.01,-0.57,-3.95,39.00,-5.79,0.96,1.71,0.79,-0.15,-0.10
0,2,0,-65,-387,3915,0.01,0.05,0.01,-0.65,-3.87,39.15,-5.77,0.96,1.71,0.81,-0.17,-0.10
0,1,0,-56,-385,3925,0.01,0.05,0.01,-0.56,-3.85,39.25,-5.76,0.95,1.71,0.81,-0.15,-0.10
0,1,0,-53,-382,3911,0.01,0.05,0.01,-0.53,-3.82,39.11,-5.75,0.94,1.71,0.80,-0.15,-0.10
0,0,0,-57,-387,3920,0.01,0.04,0.01,-0.57,-3.87,39.20,-5.73,0.92,1.71,0.80,-0.13,-0.10
0,1,0,-59,-382,3908,0.01,0.05,0.01,-0.59,-3.82,39.08,-5.72,0.92,1.71,0.80,-0.15,-0.10
0,1,1,-58,-381,3909,0.01,0.05,0.01,-0.58,-3.81,39.09,-5.70,0.91,1.71,0.80,-0.15,-0.11
0,1,0,-59,-389,3915,0.01,0.05,0.01,-0.59,-3.89,39.15,-5.69,0.89,1.71,0.80,-0.15,-0.10
1,1,1,-65,-398,3912,0.01,0.05,0.02,-0.65,-3.98,39.12,-5.71,0.90,1.71,0.78,-0.15,-0.11
0,1,1,-62,-396,3907,0.01,0.05,0.02,-0.62,-3.96,39.07,-5.73,0.90,1.71,0.80,-0.15,-0.11
0,0,0,-63,-400,3912,0.01,0.05,0.02,-0.63,-4.00,39.12,-5.74,0.91,1.71,0.80,-0.13,-0.11
0,0,0,-63,-396,3912,0.01,0.04,0.02,-0.63,-3.96,39.12,-5.76,0.91,1.71,0.81,-0.13,-0.11
0,0,1,-60,-392,3911,0.01,0.04,0.02,-0.60,-3.92,39.11,-5.75,0.90,1.71,0.80,-0.13,-0.11
0,0,0,-61,-383,3908,0.01,0.03,0.02,-0.61,-3.83,39.08,-5.73,0.90,1.71,0.80,-0.13,-0.11
0,0,0,-67,-388,3909,0.01,0.03,0.02,-0.67,-3.88,39.09,-5.72,0.91,1.71,0.80,-0.13,-0.11
1,0,0,-60,-393,3920,0.01,0.03,0.02,-0.60,-3.93,39.20,-5.72,0.89,1.71,0.78,-0.13,-0.11
1,0,1,-67,-390,3915,0.02,0.02,0.02,-0.67,-3.90,39.15,-5.71,0.91,1.71,0.78,-0.13,-0.11
0,0,0,-73,-395,3913,0.02,0.02,0.02,-0.73,-3.95,39.13,-5.72,0.93,1.71,0.80,-0.13,-0.11
0,1,1,-76,-393,3914,0.01,0.03,0.02,-0.76,-3.93,39.14,-5.72,0.95,1.71,0.80,-0.15,-0.11
1,1,1,-80,-389,3911,0.02,0.03,0.03,-0.80,-3.89,39.11,-5.72,0.97,1.71,0.78,-0.15,-0.12
1,0,1,-67,-390,3912,0.02,0.03,0.03,-0.67,-3.90,39.12,-5.70,0.97,1.71,0.78,-0.14,-0.12
1,0,1,-68,-395,3912,0.03,0.02,0.03,-0.68,-3.95,39.12,-5.72,0.98,1.71,0.78,-0.14,-0.12
0,0,1,-63,-389,3905,0.02,0.02,0.04,-0.63,-3.89,39.05,-5.71,0.96,1.71,0.80,-0.14,-0.12
0,1,1,-61,-388,3910,0.02,0.03,0.04,-0.61,-3.88,39.10,-5.70,0.95,1.71,0.80,-0.15,-0.12
0,0,0,-69,-392,3902,0.02,0.02,0.03,-0.69,-3.92,39.02,-5.71,0.96,1.71,0.80,-0.14,-0.11
0,0,0,-63,-390,3912,0.02,0.02,0.03,-0.63,-3.90,39.12,-5.70,0.95,1.71,0.80,-0.13,-0.11
1,0,0,-66,-393,3914,0.02,0.02,0.03,-0.66,-3.93,39.14,-5.72,0.95,1.71,0.78,-0.14,-0.11
0,0,0,-62,-392,3898,0.02,0.02,0.02,-0.62,-3.92,38.98,-5.73,0.94,1.71,0.80,-0.13,-0.11
-1,0,1,-56,-392,3897,0.01,0.01,0.03,-0.56,-3.92,38.97,-5.73,0.92,1.71,0.82,-0.13,-0.12
0,1,1,-49,-395,3903,0.01,0.02,0.03,-0.49,-3.95,39.03,-5.73,0.90,1.71,0.80,-0.14,-0.12
1,0,1,-69,-399,3908,0.02,0.02,0.03,-0.69,-3.99,39.08,-5.75,0.92,1.71,0.79,-0.13,-0.12
1,0,1,-61,-398,3911,0.02,0.02,0.04,-0.61,-3.98,39.11,-5.76,0.91,1.71,0.79,-0.13,-0.12
0,0,1,-63,-399,3909,0.02,0.01,0.04,-0.63,-3.99,39.09,-5.78,0.91,1.71,0.81,-0.13,-0.12
0,0,1,-60,-396,3906,0.02,0.01,0.04,-0.60,-3.96,39.06,-5.79,0.89,1.71,0.81,-0.13,-0.12
1,0,1,-69,-393,3915,0.02,0.01,0.04,-0.69,-3.93,39.15,-5.78,0.91,1.71,0.79,-0.13,-0.12
0,0,1,-69,-400,3912,0.02,0.01,0.05,-0.69,-4.00,39.12,-5.79,0.93,1.71,0.81,-0.13,-0.12
1,0,1,-59,-399,3906,0.02,0.01,0.05,-0.59,-3.99,39.06,-5.80,0.91,1.71,0.79,-0.13,-0.12
1,0,1,-63,-400,3910,0.03,0.01,0.05,-0.63,-4.00,39.10,-5.82,0.91,1.71,0.80,-0.13,-0.12
0,0,1,-68,-396,3909,0.02,0.01,0.05,-0.68,-3.96,39.09,-5.81,0.93,1.71,0.81,-0.13,-0.12
-1,0,2,-58,-393,3896,0.02,0.01,0.06,-0.58,-3.93,38.96,-5.80,0.92,1.71,0.83,-0.13,-0.13
1,0,0,-65,-404,3911,0.02,0.01,0.05,-0.65,-4.04,39.11,-5.82,0.92,1.71,0.80,-0.13,-0.11
0,2,0,-70,-402,3918,0.02,0.02,0.05,-0.70,-4.02,39.18,-5.82,0.94,1.71,0.81,-0.16,-0.11
0,0,1,-61,-393,3907,0.02,0.02,0.05,-0.61,-3.93,39.07,-5.81,0.93,1.71,0.81,-0.13,-0.12
0,-1,1,-63,-394,3896,0.01,0.01,0.05,-0.63,-3.94,38.96,-5.79,0.92,1.71,0.81,-0.12,-0.12
0,0,0,-65,-388,3906,0.01,0.01,0.04,-0.65,-3.88,39.06,-5.77,0.93,1.70,0.81,-0.13,-0.11
0,0,1,-60,-388,3908,0.01,0.01,0.05,-0.60,-3.88,39.08,-5.76,0.92,1.70,0.80,-0.13,-0.12
0,0,1,-67,-397,3913,0.01,0.01,0.05,-0.67,-3.97,39.13,-5.77,0.94,1.70,0.81,-0.13,-0.12
0,0,1,-65,-397,3914,0.01,0.01,0.05,-0.65,-3.97,39.14,-5.78,0.94,1.70,0.81,-0.13,-0.12
1,0,1,-58,-389,3918,0.01,0.00,0.05,-0.58,-3.89,39.18,-5.77,0.93,1.70,0.79,-0.13,-0.12
1,1,0,-60,-391,3906,0.02,0.01,0.04,-0.60,-3.91,39.06,-5.76,0.92,1.70,0.79,-0.14,-0.11
1,1,1,-62,-392,3898,0.02,0.02,0.05,-0.62,-3.92,38.98,-5.74,0.91,1.70,0.79,-0.14,-0.12
0,0,1,-57,-385,3898,0.02,0.01,0.05,-0.57,-3.85,38.98,-5.73,0.90,1.70,0.80,-0.13,-0.12
0,0,2,-63,-392,3912,0.02,0.01,0.06,-0.63,-3.92,39.12,-5.72,0.91,1.70,0.80,-0.13,-0.13
0,1,1,-62,-397,3907,0.02,0.02,0.06,-0.62,-3.97,39.07,-5.74,0.91,1.70,0.80,-0.14,-0.12
1,1,1,-59,-392,3903,0.02,0.02,0.06,-0.59,-3.92,39.03,-5.74,0.89,1.70,0.79,-0.14,-0.12
0,0,1,-60,-383,3908,0.02,0.02,0.06,-0.60,-3.83,39.08,-5.72,0.89,1.70,0.80,-0.13,-0.12
1,0,1,-63,-385,3918,0.02,0.02,0.06,-0.63,-3.85,39.18,-5.70,0.90,1.70,0.78,-0.13,-0.12
0,0,1,-63,-383,3910,0.02,0.02,0.06,-0.63,-3.83,39.10,-5.68,0.90,1.70,0.79,-0.13,-0.12
0,0,1,-53,-389,3914,0.02,0.01,0.06,-0.53,-3.89,39.14,-5.68,0.88,1.70,0.79,-0.12,-0.12
0,0,1,-55,-396,3922,0.02,0.01,0.06,-0.55,-3.96,39.22,-5.70,0.87,1.70,0.80,-0.12,-0.12
0,1,0,-59,-393,3906,0.02,0.02,0.05,-0.59,-3.93,39.06,-5.71,0.87,1.70,0.80,-0.14,-0.11
1,0,1,-61,-393,3910,0.02,0.02,0.05,-0.61,-3.93,39.10,-5.73,0.88,1.70,0.78,-0.12,-0.12
0,0,1,-64,-391,3902,0.02,0.01,0.05,-0.64,-3.91,39.02,-5.73,0.90,1.70,0.80,-0.13,-0.12
1,0,1,-75,-396,3912,0.02,0.01,0.05,-0.75,-3.96,39.12,-5.73,0.91,1.70,0.78,-0.13,-0.12
1,0,1,-75,-393,3919,0.03,0.01,0.06,-0.75,-3.93,39.19,-5.73,0.93,1.70,0.78,-0.13,-0.12
0,-1,1,-73,-391,3905,0.02,0.00,0.06,-0.73,-3.91,39.05,-5.73,0.95,1.70,0.80,-0.12,-0.12
0,0,1,-70,-396,3897,0.02,0.00,0.06,-0.70,-3.96,38.97,-5.74,0.96,1.70,0.80,-0.14,-0.12
1,0,2,-68,-393,3903,0.03,0.00,0.06,-0.68,-3.93,39.03,-5.75,0.98,1.70,0.79,-0.14,-0.13
0,1,2,-65,-393,3894,0.02,0.01,0.07,-0.65,-3.93,38.94,-5.76,0.97,1.70,0.80,-0.15,-0.13
0,0,1,-69,-399,3907,0.02,0.01,0.07,-0.69,-3.99,39.07,-5.77,0.97,1.70,0.81,-0.14,-0.12
0,1,1,-59,-386,3904,0.02,0.01,0.07,-0.59,-3.86,39.04,-5.76,0.96,1.70,0.80,-0.15,-0.12
0,1,1,-56,-383,3898,0.02,0.02,0.07,-0.56,-3.83,38.98,-5.74,0.95,1.70,0.80,-0.15,-0.12
1,0,2,-65,-390,3909,0.02,0.02,0.07,-0.65,-3.90,39.09,-5.73,0.95,1.70,0.78,-0.13,-0.13
0,0,2,-65,-392,3907,0.02,0.01,0.08,-0.65,-3.92,39.07,-5.74,0.95,1.70,0.80,-0.13,-0.13
1,0,1,-56,-393,3910,0.02,0.01,0.08,-0.56,-3.93,39.10,-5.74,0.93,1.70,0.79,-0.13,-0.12
1,0,1,-62,-391,3905,0.03,0.01,0.07,-0.62,-3.91,39.05,-5.73,0.92,1.70,0.78,-0.13,-0.12
0,0,1,-65,-380,3899,0.02,0.01,0.07,-0.65,-3.80,38.99,-5.71,0.92,1.70,0.80,-0.13,-0.12
0,0,2,-64,-387,3914,0.02,0.01,0.08,-0.64,-3.87,39.14,-5.69,0.92,1.70,0.79,-0.13,-0.13
2,0,2,-60,-391,3906,0.03,0.01,0.08,-0.60,-3.91,39.06,-5.70,0.91,1.70,0.76,-0.13,-0.13
1,0,1,-63,-396,3904,0.03,0.01,0.08,-0.63,-3.96,39.04,-5.72,0.91,1.70,0.78,-0.13,-0.12
1,-1,1,-68,-399,3911,0.04,0.00,0.08,-0.68,-3.99,39.11,-5.73,0.92,1.70,0.78,-0.11,-0.12
0,0,2,-68,-405,3912,0.03,0.00,0.08,-0.68,-4.05,39.12,-5.75,0.93,1.70,0.80,-0.13,-0.13
0,0,0,-73,-401,3917,0.03,0.00,0.07,-0.73,-4.01,39.17,-5.76,0.94,1.70,0.80,-0.13,-0.12
0,-106,8,667,-66,3061,0.03,-0.65,0.12,6.67,-0.66,30.61,-5.75,0.92,1.69,0.80,1.55,-0.19
-52,-248,82,1096,295,3981,-0.29,-2.09,0.60,10.96,2.95,39.81,-5.75,0.90,1.69,1.63,3.87,-0.90
-22,-106,68,1184,291,4047,-0.40,-2.53,0.96,11.84,2.91,40.47,-5.74,0.87,1.69,1.18,1.76,-0.85
21,105,-37,569,-121,4351,-0.23,-1.64,0.64,5.69,-1.21,43.51,-5.73,0.85,1.68,0.51,-1.55,0.10
42,82,-97,254,-296,4097,0.05,-0.97,-0.02,2.54,-2.96,40.97,-5.73,0.83,1.68,0.16,-1.27,0.72
37,74,-279,-779,-371,3710,0.27,-0.42,-1.72,-7.79,-3.71,37.10,-5.72,0.85,1.69,0.21,-1.20,2.57
26,85,-271,-736,-176,3788,0.40,0.14,-3.20,-7.36,-1.76,37.88,-5.72,0.86,1.70,0.36,-1.43,2.77
19,123,-71,-270,215,4039,0.48,0.87,-3.31,-2.70,2.15,40.39,-5.70,0.87,1.72,0.46,-2.09,1.09
12,44,-149,-732,-766,3386,0.50,1.05,-3.89,-7.32,-7.66,33.86,-5.71,0.89,1.73,0.56,-0.90,1.86
5,16,-260,-947,-1020,4002,0.48,1.05,-5.09,-9.47,-10.20,40.02,-5.72,0.91,1.75,0.67,-0.48,3.01
-10,-43,-244,-929,-1052,3909,0.37,0.68,-6.07,-9.29,-10.52,39.09,-5.73,0.92,1.78,0.92,0.46,3.05
9,-25,-245,-479,-782,3861,0.39,0.46,-6.95,-4.79,-7.82,38.61,-5.74,0.93,1.80,0.63,0.20,3.21
-3,-3,-199,-367,-790,4029,0.33,0.39,-7.47,-3.67,-7.90,40.29,-5.75,0.94,1.83,0.82,-0.13,2.91
-3,-3,-149,-122,-586,3998,0.28,0.34,-7.63,-1.22,-5.86,39.98,-5.77,0.95,1.87,0.82,-0.12,2.52
-4,-7,-135,-102,-590,3907,0.23,0.26,-7.69,-1.02,-5.90,39.07,-5.78,0.95,1.90,0.85,-0.05,2.41
2,0,-70,-99,-479,3933,0.22,0.23,-7.35,-0.99,-4.79,39.33,-5.80,0.95,1.93,0.76,-0.16,1.79
4,4,-54,-71,-444,3834,0.22,0.24,-6.95,-0.71,-4.44,38.34,-5.82,0.95,1.95,0.73,-0.22,1.58
-1,-3,9,-47,-426,3837,0.19,0.19,-6.20,-0.47,-4.26,38.37,-5.84,0.94,1.98,0.81,-0.11,0.91
-5,-5,24,-97,-396,3945,0.14,0.14,-5.43,-0.97,-3.96,39.45,-5.83,0.96,2.00,0.88,-0.07,0.65
-3,0,23,-33,-377,3941,0.11,0.13,-4.75,-0.33,-3.77,39.41,-5.82,0.94,2.02,0.85,-0.15,0.53
5,-2,30,-14,-409,3964,0.13,0.10,-4.09,-0.14,-4.09,39.64,-5.82,0.92,2.04,0.73,-0.11,0.36
-2,1,41,2,-381,3968,0.10,0.10,-3.43,0.02,-3.81,39.68,-5.81,0.91,2.05,0.83,-0.15,0.14
-4,-4,38,-28,-348,3885,0.07,0.07,-2.86,-0.28,-3.48,38.85,-5.80,0.89,2.06,0.87,-0.07,0.07
-1,-4,29,16,-364,3903,0.06,0.03,-2.39,0.16,-3.64,39.03,-5.79,0.88,2.07,0.82,-0.07,0.06
-2,-3,27,-7,-382,3868,0.04,0.01,-1.99,-0.07,-3.82,38.68,-5.79,0.86,2.08,0.84,-0.08,0.00
3,2,28,-67,-389,3902,0.05,0.02,-1.62,-0.67,-3.89,39.02,-5.78,0.87,2.08,0.76,-0.15,-0.07
1,-1,33,-51,-386,3934,0.05,0.02,-1.26,-0.51,-3.86,39.34,-5.76,0.86,2.09,0.79,-0.11,-0.18
1,-2,27,1,-374,3929,0.05,0.00,-0.97,0.01,-3.74,39.29,-5.76,0.84,2.09,0.78,-0.09,-0.18
1,0,23,-16,-379,3867,0.06,0.00,-0.73,-0.16,-3.79,38.67,-5.75,0.82,2.10,0.78,-0.12,-0.19
-4,5,8,-38,-349,3863,0.03,0.03,-0.61,-0.38,-3.49,38.63,-5.73,0.82,2.10,0.86,-0.19,-0.08
-2,4,2,-53,-360,3942,0.01,0.05,-0.53,-0.53,-3.60,39.42,-5.72,0.81,2.10,0.83,-0.18,-0.05
-1,1,-12,-96,-383,3898,0.00,0.05,-0.55,-0.96,-3.83,38.98,-5.71,0.83,2.10,0.81,-0.14,0.07
0,1,-18,-92,-377,3893,0.00,0.05,-0.61,-0.92,-3.77,38.93,-5.71,0.85,2.10,0.80,-0.14,0.14
2,-1,-13,4,-396,3898,0.02,0.04,-0.63,0.04,-3.96,38.98,-5.71,0.83,2.11,0.77,-0.11,0.10
3,0,-8,33,-411,3909,0.03,0.04,-0.61,0.33,-4.11,39.09,-5.71,0.81,2.11,0.75,-0.12,0.05
2,-1,-1,-50,-401,3894,0.04,0.03,-0.56,-0.50,-4.01,38.94,-5.73,0.81,2.11,0.77,-0.10,-0.02
1,-4,0,-42,-403,3897,0.04,0.00,-0.50,-0.42,-4.03,38.97,-5.74,0.79,2.11,0.78,-0.05,-0.04
0,-2,0,-64,-395,3894,0.04,-0.01,-0.45,-0.64,-3.95,38.94,-5.75,0.81,2.12,0.80,-0.08,-0.05
1,-1,0,-56,-390,3899,0.04,-0.02,-0.41,-0.56,-3.90,38.99,-5.73,0.81,2.12,0.78,-0.10,-0.05
1,-1,-1,-63,-391,3907,0.04,-0.02,-0.37,-0.63,-3.91,39.07,-5.73,0.83,2.12,0.78,-0.10,-0.05
1,0,0,-62,-390,3922,0.04,-0.02,-0.33,-0.62,-3.90,39.22,-5.72,0.85,2.12,0.78,-0.12,-0.07
0,0,0,-64,-382,3915,0.04,-0.02,-0.30,-0.64,-3.82,39.15,-5.70,0.86,2.12,0.79,-0.12,-0.07
0,0,0,-64,-383,3917,0.04,-0.01,-0.27,-0.64,-3.83,39.17,-5.69,0.87,2.12,0.79,-0.12,-0.08
0,0,0,-67,-386,3911,0.03,-0.01,-0.24,-0.67,-3.86,39.11,-5.68,0.88,2.12,0.79,-0.12,-0.08
0,0,-1,-63,-389,3909,0.03,-0.01,-0.23,-0.63,-3.89,39.09,-5.68,0.90,2.12,0.79,-0.12,-0.08
0,0,-1,-64,-388,3896,0.03,-0.01,-0.21,-0.64,-3.88,38.96,-5.68,0.92,2.12,0.79,-0.13,-0.08
1,0,-1,-63,-397,3906,0.03,-0.01,-0.19,-0.63,-3.97,39.06,-5.70,0.92,2.13,0.78,-0.13,-0.08
1,0,0,-56,-381,3915,0.03,-0.01,-0.18,-0.56,-3.81,39.15,-5.69,0.91,2.13,0.78,-0.13,-0.10
0,1,-1,-62,-395,3907,0.03,-0.00,-0.16,-0.62,-3.95,39.07,-5.70,0.91,2.13,0.80,-0.14,-0.09
0,0,0,-57,-385,3910,0.03,-0.00,-0.15,-0.57,-3.85,39.10,-5.69,0.89,2.13,0.79,-0.13,-0.10
1,0,0,-64,-383,3921,0.03,-0.00,-0.13,-0.64,-3.83,39.21,-5.67,0.90,2.13,0.78,-0.13,-0.10
0,0,-1,-65,-395,3919,0.03,-0.00,-0.13,-0.65,-3.95,39.19,-5.69,0.91,2.13,0.79,-0.13,-0.10
1,1,-1,-65,-395,3906,0.03,0.00,-0.12,-0.65,-3.95,39.06,-5.71,0.92,2.13,0.78,-0.14,-0.10
1,1,-1,-72,-385,3904,0.03,0.01,-0.11,-0.72,-3.85,39.04,-5.70,0.93,2.13,0.78,-0.15,-0.10
1,0,0,-72,-386,3907,0.04,0.01,-0.10,-0.72,-3.86,39.07,-5.69,0.95,2.13,0.78,-0.13,-0.11
1,1,0,-63,-387,3910,0.04,0.01,-0.09,-0.63,-3.87,39.10,-5.68,0.94,2.13,0.78,-0.15,-0.11
0,1,0,-66,-390,3903,0.03,0.02,-0.08,-0.66,-3.90,39.03,-5.69,0.95,2.13,0.79,-0.15,-0.11
0,0,0,-72,-396,3908,0.03,0.02,-0.07,-0.72,-3.96,39.08,-5.70,0.96,2.13,0.79,-0.14,-0.11
1,1,0,-72,-389,3914,0.03,0.02,-0.07,-0.72,-3.89,39.14,-5.70,0.98,2.13,0.78,-0.15,-0.12
1,1,0,-65,-385,3903,0.04,0.03,-0.06,-0.65,-3.85,39.03,-5.68,0.97,2.13,0.78,-0.15,-0.12
0,0,0,-65,-391,3906,0.03,0.02,-0.05,-0.65,-3.91,39.06,-5.69,0.96,2.13,0.79,-0.14,-0.12
0,1,0,-66,-393,3906,0.03,0.03,-0.05,-0.66,-3.93,39.06,-5.71,0.96,2.13,0.80,-0.15,-0.12
0,1,0,-65,-388,3913,0.03,0.03,-0.04,-0.65,-3.88,39.13,-5.70,0.96,2.13,0.79,-0.15,-0.12
0,1,0,-67,-391,3911,0.02,0.03,-0.04,-0.67,-3.91,39.11,-5.71,0.97,2.13,0.80,-0.15,-0.12
0,1,0,-67,-385,3913,0.02,0.04,-0.04,-0.67,-3.85,39.13,-5.69,0.97,2.13,0.79,-0.16,-0.12
3,4,0,-65,-389,3915,0.04,0.06,-0.03,-0.65,-3.89,39.15,-5.68,0.96,2.13,0.75,-0.20,-0.12
4,5,0,-70,-386,3909,0.06,0.08,-0.03,-0.70,-3.86,39.09,-5.67,0.97,2.13,0.73,-0.22,-0.12
3,4,-1,-72,-389,3900,0.07,0.10,-0.03,-0.72,-3.89,39.00,-5.67,0.99,2.13,0.74,-0.21,-0.11
3,6,0,-68,-392,3894,0.08,0.12,-0.03,-0.68,-3.92,38.94,-5.69,0.99,2.13,0.74,-0.24,-0.12
11,74,20,-54,-412,3840,0.14,0.56,0.10,-0.54,-4.12,38.40,-5.71,0.99,2.13,0.62,-1.33,-0.31
5,80,24,-70,-445,3894,0.16,1.00,0.23,-0.70,-4.45,38.94,-5.73,0.99,2.13,0.71,-1.46,-0.37
-2,28,33,-209,-374,3908,0.13,1.07,0.41,-2.09,-3.74,39.08,-5.72,1.01,2.13,0.82,-0.68,-0.48
3,30,37,-263,-391,3963,0.13,1.14,0.60,-2.63,-3.91,39.63,-5.72,1.04,2.13,0.74,-0.72,-0.55
-3,7,78,-273,-509,3913,0.10,1.07,1.01,-2.73,-5.09,39.13,-5.73,1.06,2.13,0.84,-0.37,-0.97
-3,0,90,-253,-499,3990,0.07,0.96,1.46,-2.53,-4.99,39.90,-5.74,1.08,2.12,0.84,-0.25,-1.15
-13,-72,152,-160,-470,3991,-0.01,0.43,2.24,-1.60,-4.70,39.91,-5.75,1.10,2.11,1.00,0.90,-1.82
-6,-95,160,-156,-440,3952,-0.05,-0.19,2.99,-1.56,-4.40,39.52,-5.76,1.11,2.10,0.90,1.31,-2.02
-18,-29,177,-92,-466,3871,-0.15,-0.35,3.77,-0.92,-4.66,38.71,-5.78,1.12,2.09,1.10,0.32,-2.30
-12,-17,177,234,-415,3904,-0.21,-0.42,4.48,2.34,-4.15,39.04,-5.78,1.10,2.07,1.01,0.15,-2.43
-5,-7,166,372,-553,3885,-0.22,-0.42,5.04,3.72,-5.53,38.85,-5.79,1.08,2.05,0.91,-0.00,-2.43
-6,-8,148,324,-562,3948,-0.23,-0.43,5.44,3.24,-5.62,39.48,-5.79,1.06,2.03,0.93,0.02,-2.35
-1,-10,148,105,-544,3939,-0.22,-0.45,5.80,1.05,-5.44,39.39,-5.81,1.05,2.00,0.85,0.05,-2.41
-1,-6,139,46,-469,3928,-0.20,-0.44,6.07,0.46,-4.69,39.28,-5.81,1.04,1.98,0.85,-0.01,-2.38
1,1,63,-137,-324,3947,-0.18,-0.39,5.84,-1.37,-3.24,39.47,-5.80,1.05,1.96,0.82,-0.12,-1.70
0,2,37,-168,-320,3879,-0.16,-0.34,5.49,-1.68,-3.20,38.79,-5.79,1.06,1.93,0.83,-0.14,-1.41
0,1,-43,-241,-107,3946,-0.14,-0.30,4.67,-2.41,-1.07,39.46,-5.77,1.07,1.91,0.82,-0.13,-0.59
3,-1,-59,-192,-118,3965,-0.11,-0.27,3.85,-1.92,-1.18,39.65,-5.76,1.08,1.90,0.77,-0.11,-0.30
-53,13,-57,-93,-232,3908,-0.42,-0.17,3.11,-0.93,-2.32,39.08,-5.74,1.08,1.89,1.66,-0.33,-0.19
-10,17,-53,-104,-290,3826,-0.44,-0.05,2.48,-1.04,-2.90,38.26,-5.73,1.09,1.88,1.00,-0.41,-0.11
6,17,-37,-175,-405,3874,-0.36,0.06,2.01,-1.75,-4.05,38.74,-5.73,1.11,1.87,0.75,-0.42,-0.16
14,16,-41,-209,-435,3860,-0.24,0.15,1.56,-2.09,-4.35,38.60,-5.74,1.13,1.86,0.61,-0.42,-0.04
74,65,-77,-440,-350,3877,0.24,0.53,0.93,-4.40,-3.50,38.77,-5.73,1.15,1.86,-0.35,-1.21,0.37
70,63,-83,-444,-344,3838,0.64,0.87,0.33,-4.44,-3.44,38.38,-5.73,1.17,1.86,-0.33,-1.21,0.53
-16,-25,-154,-55,-388,3971,0.48,0.63,-0.64,-0.55,-3.88,39.71,-5.72,1.16,1.86,1.00,0.15,1.31
-36,-46,-175,77,-411,3976,0.21,0.28,-1.64,0.77,-4.11,39.76,-5.72,1.14,1.87,1.33,0.51,1.67
57,-63,-222,46,-449,4078,0.54,-0.13,-2.83,0.46,-4.49,40.78,-5.72,1.12,1.88,-0.12,0.82,2.28
78,-114,-242,-19,-464,4102,0.96,-0.81,-4.03,-0.19,-4.64,41.02,-5.73,1.10,1.89,-0.49,1.67,2.66
65,-220,-353,-53,-405,3981,1.26,-2.07,-5.78,-0.53,-4.05,39.81,-5.73,1.07,1.92,-0.32,3.42,3.91
41,-244,-405,2,-240,3961,1.38,-3.35,-7.67,0.02,-2.40,39.61,-5.71,1.05,1.94,0.03,3.92,4.69
141,-223,-443,4,-136,3997,2.11,-4.38,-9.61,0.04,-1.36,39.97,-5.69,1.02,1.98,-1.57,3.71,5.35
176,-219,-442,-10,-163,3956,2.97,-5.28,-11.34,-0.10,-1.63,39.56,-5.66,0.99,2.02,-2.20,3.75,5.65
255,-158,-429,-127,-246,3874,4.23,-5.71,-12.82,-1.27,-2.46,38.74,-5.62,0.97,2.07,-3.54,2.86,5.81
252,-161,-433,-169,-262,3887,5.34,-6.12,-14.18,-1.69,-2.62,38.87,-5.59,0.95,2.13,-3.61,2.96,6.08
211,-193,-512,-186,-276,3916,6.09,-6.69,-15.89,-1.86,-2.76,39.16,-5.55,0.93,2.19,-3.07,3.50,7.05
207,-194,-547,-143,-258,3905,6.75,-7.20,-17.64,-1.43,-2.58,39.05,-5.51,0.91,2.25,-3.08,3.58,7.66
247,-174,-698,-106,-273,3930,7.58,-7.54,-20.13,-1.06,-2.73,39.30,-5.47,0.88,2.33,-3.79,3.31,9.38
267,-171,-705,-97,-324,3944,8.45,-7.83,-22.42,-0.97,-3.24,39.44,-5.42,0.85,2.42,-4.19,3.30,9.84
329,-160,-795,-46,-396,3902,9.61,-8.03,-25.03,-0.46,-3.96,39.02,-5.40,0.80,2.51,-5.26,3.16,11.07
288,-172,-809,-67,-416,3919,10.41,-8.27,-27.46,-0.67,-4.16,39.19,-5.38,0.76,2.62,-4.72,3.37,11.61
225,-214,-857,0,-488,3944,10.74,-8.75,-29.94,0.00,-4.88,39.44,-5.35,0.71,2.74,-3.79,4.07,12.46
214,-225,-863,16,-476,3948,10.97,-9.25,-32.21,0.16,-4.76,39.48,-5.32,0.65,2.86,-3.65,4.30,12.91
190,-283,-843,40,-422,4010,11.03,-10.05,-34.13,0.40,-4.22,40.10,-5.29,0.58,2.99,-3.30,5.27,13.08
183,-296,-828,107,-340,4032,11.05,-10.85,-35.77,1.07,-3.40,40.32,-5.24,0.51,3.13,-3.20,5.57,13.23
268,-297,-809,227,-230,4008,11.58,-11.58,-37.13,2.27,-2.30,40.08,-5.19,0.43,3.28,-4.56,5.67,13.31
338,-304,-830,202,-208,4071,12.48,-12.27,-38.48,2.02,-2.08,40.71,-5.13,0.35,3.42,-5.73,5.86,13.72
489,-292,-904,149,-16,4020,14.22,-12.83,-40.14,1.49,-0.16,40.20,-5.06,0.28,3.58,-8.22,5.74,14.63
492,-288,-911,140,-43,3971,15.79,-13.30,-41.69,1.40,-0.43,39.71,-4.98,0.20,3.74,-8.44,5.74,14.96
488,-322,-916,96,-73,4012,17.19,-13.94,-43.11,0.96,-0.73,40.12,-4.90,0.12,3.91,-8.54,6.34,15.25
519,-300,-889,195,-64,4012,18.64,-14.37,-44.22,1.95,-0.64,40.12,-4.81,0.04,4.08,-9.17,6.06,15.21
462,-154,-763,230,-2,3975,19.59,-13.87,-44.45,2.30,-0.02,39.75,-4.71,-0.04,4.25,-8.41,3.79,14.17
427,-72,-720,225,-8,3954,20.24,-12.93,-44.40,2.25,-0.08,39.54,-4.62,-0.12,4.42,-7.96,2.45,13.79
130,107,-560,62,-26,3886,19.01,-10.98,-43.37,0.62,-0.26,38.86,-4.52,-0.18,4.59,-3.32,-0.47,12.24
25,134,-532,77,-29,3881,17.26,-9.07,-42.28,0.77,-0.29,38.81,-4.43,-0.23,4.76,-1.55,-1.07,11.79
-284,191,-490,185,-103,3876,13.80,-6.99,-41.04,1.85,-1.03,38.76,-4.36,-0.28,4.92,3.51,-2.15,11.21
-344,204,-487,172,-146,3894,10.32,-5.05,-39.91,1.72,-1.46,38.94,-4.31,-0.33,5.08,4.78,-2.54,10.97
-454,172,-516,27,-181,3858,6.52,-3.50,-39.07,0.27,-1.81,38.58,-4.26,-0.35,5.23,6.85,-2.21,11.05
-451,144,-524,6,-182,3854,3.12,-2.27,-38.36,0.06,-1.82,38.54,-4.23,-0.37,5.39,7.15,-1.91,10.99
-397,74,-533,36,-234,3827,0.38,-1.59,-37.77,0.36,-2.34,38.27,-4.21,-0.39,5.54,6.60,-0.91,10.95
-383,61,-531,55,-242,3807,-1.99,-1.06,-37.23,0.55,-2.42,38.07,-4.21,-0.42,5.69,6.64,-0.76,10.83
-424,75,-531,51,-170,3856,-4.38,-0.50,-36.75,0.51,-1.70,38.56,-4.20,-0.44,5.83,7.51,-1.03,10.73
-451,86,-543,48,-162,3860,-6.69,0.08,-36.39,0.48,-1.62,38.60,-4.21,-0.45,5.98,8.16,-1.26,10.76
-495,119,-601,106,-188,3934,-9.04,0.80,-36.41,1.06,-1.88,39.34,-4.23,-0.47,6.12,9.08,-1.83,11.25
-482,126,-609,126,-214,3945,-11.08,1.49,-36.49,1.26,-2.14,39.45,-4.26,-0.49,6.27,9.09,-2.01,11.32
-363,119,-597,156,-333,3914,-12.18,2.06,-36.48,1.56,-3.33,39.14,-4.32,-0.51,6.42,7.40,-1.96,11.21
-319,107,-583,139,-337,3926,-12.91,2.51,-36.39,1.39,-3.37,39.26,-4.37,-0.52,6.56,6.81,-1.82,11.06
-203,26,-509,69,-326,3967,-12.86,2.42,-35.85,0.69,-3.26,39.67,-4.43,-0.54,6.70,5.05,-0.57,10.33
-184,9,-488,86,-333,3990,-12.70,2.23,-35.25,0.86,-3.33,39.90,-4.49,-0.56,6.85,4.75,-0.29,10.04
-149,11,-420,127,-363,3964,-12.33,2.07,-34.28,1.27,-3.63,39.64,-4.55,-0.58,6.98,4.19,-0.30,9.28
-141,23,-393,102,-415,3933,-11.96,2.01,-33.25,1.02,-4.15,39.33,-4.61,-0.59,7.12,4.03,-0.48,8.86
-114,-6,-407,110,-484,3904,-11.46,1.77,-32.41,1.10,-4.84,39.04,-4.67,-0.60,7.25,3.58,-0.01,8.82
-110,-22,-431,116,-505,3907,-10.99,1.46,-31.80,1.16,-5.05,39.07,-4.73,-0.61,7.37,3.48,0.27,8.90
-82,-84,-540,103,-536,3884,-10.39,0.80,-31.91,1.03,-5.36,38.84,-4.79,-0.62,7.50,3.00,1.29,9.84
-70,-100,-574,85,-532,3878,-9.78,0.11,-32.22,0.85,-5.32,38.78,-4.84,-0.64,7.63,2.76,1.60,10.18
-37,-153,-667,11,-481,3887,-9.02,-0.83,-33.07,0.11,-4.81,38.87,-4.90,-0.65,7.76,2.18,2.51,11.11
-29,-162,-685,21,-469,3902,-8.30,-1.74,-33.94,0.21,-4.69,39.02,-4.95,-0.66,7.89,1.99,2.74,11.41
11,-157,-728,58,-422,3908,-7.40,-2.52,-34.99,0.58,-4.22,39.08,-4.99,-0.69,8.03,1.30,2.75,11.95
17,-148,-738,35,-421,3902,-6.56,-3.17,-35.99,0.35,-4.21,39.02,-5.04,-0.71,8.17,1.12,2.69,12.21
13,-94,-820,-40,-394,3889,-5.82,-3.43,-37.39,-0.40,-3.94,38.89,-5.07,-0.72,8.32,1.11,1.89,13.15
3,-77,-872,-70,-377,3859,-5.22,-3.56,-38.97,-0.70,-3.77,38.59,-5.09,-0.73,8.48,1.21,1.64,13.86
-31,-41,-1013,-87,-365,3861,-4.89,-3.45,-41.26,-0.87,-3.65,38.61,-5.11,-0.74,8.64,1.69,1.09,15.45
-36,-32,-1051,-42,-375,3859,-4.62,-3.30,-43.54,-0.42,-3.75,38.59,-5.13,-0.75,8.81,1.75,0.94,16.17
-38,-19,-1086,132,-398,3927,-4.39,-3.09,-45.81,1.32,-3.98,39.27,-5.16,-0.80,8.99,1.76,0.72,16.87
-39,-12,-1073,162,-417,3948,-4.19,-2.85,-47.78,1.62,-4.17,39.48,-5.18,-0.84,9.18,1.75,0.60,17.10
-69,15,-988,171,-540,3928,-4.19,-2.47,-49.02,1.71,-5.40,39.28,-5.21,-0.88,9.38,2.22,0.15,16.59
-86,21,-963,177,-570,3928,-4.30,-2.10,-50.00,1.77,-5.70,39.28,-5.24,-0.92,9.57,2.49,0.03,16.54
-147,37,-931,142,-635,3943,-4.76,-1.66,-50.68,1.42,-6.35,39.43,-5.27,-0.95,9.78,3.47,-0.26,16.38
-156,39,-938,155,-633,3955,-5.24,-1.26,-51.33,1.55,-6.33,39.55,-5.31,-0.98,9.98,3.66,-0.33,16.54
-136,90,-959,184,-489,3969,-5.54,-0.58,-52.05,1.84,-4.89,39.69,-5.34,-1.01,10.19,3.40,-1.17,16.84
-124,138,-961,134,-412,3961,-5.75,0.32,-52.70,1.34,-4.12,39.61,-5.37,-1.04,10.40,3.24,-1.99,16.96
-118,228,-973,-12,-273,3857,-5.89,1.68,-53.37,-0.12,-2.73,38.57,-5.37,-1.04,10.61,3.16,-3.50,17.17
-133,237,-983,-37,-240,3852,-6.11,2.95,-54.03,-0.37,-2.40,38.52,-5.38,-1.04,10.83,3.41,-3.77,17.36
-172,238,-1050,52,-313,3822,-6.55,4.11,-55.03,0.52,-3.13,38.22,-5.39,-1.04,11.05,4.06,-3.91,18.09
-176,224,-1055,73,-338,3819,-6.97,5.07,-55.96,0.73,-3.38,38.19,-5.39,-1.04,11.27,4.16,-3.79,18.29
-152,140,-1022,114,-424,3879,-7.20,5.41,-56.60,1.14,-4.24,38.79,-5.43,-1.05,11.50,3.82,-2.55,18.11
-123,103,-993,156,-438,3868,-7.23,5.50,-57.00,1.56,-4.38,38.68,-5.47,-1.07,11.73,3.39,-1.99,17.92
-26,-15,-928,365,-561,3927,-6.67,4.86,-56.96,3.65,-5.61,39.27,-5.50,-1.09,11.96,1.86,-0.12,17.35
-4,-27,-914,402,-556,3981,-6.02,4.21,-56.84,4.02,-5.56,39.81,-5.53,-1.11,12.18,1.46,0.13,17.19
-27,20,-846,303,-440,3962,-5.59,3.91,-56.32,3.03,-4.40,39.62,-5.55,-1.13,12.41,1.77,-0.55,16.51
-109,54,-801,175,-393,3926,-5.69,3.85,-55.57,1.75,-3.93,39.26,-5.57,-1.15,12.63,3.03,-1.06,15.98
-189,81,-727,33,-387,3865,-6.28,3.96,-54.45,0.33,-3.87,38.65,-5.60,-1.14,12.85,4.32,-1.48,15.14
-191,82,-735,22,-424,3846,-6.81,4.06,-53.49,0.22,-4.24,38.46,-5.63,-1.13,13.07,4.41,-1.51,15.02
-112,41,-791,23,-472,3833,-6.82,3.91,-52.96,0.23,-4.72,38.33,-5.67,-1.13,13.28,3.21,-0.87,15.39
-80,34,-809,27,-435,3858,-6.62,3.72,-52.60,0.27,-4.35,38.58,-5.70,-1.12,13.49,2.70,-0.75,15.47
-1,91,-859,44,-434,3866,-5.97,3.91,-52.58,0.44,-4.34,38.66,-5.74,-1.12,13.70,1.44,-1.64,15.87
18,119,-867,39,-472,3870,-5.26,4.24,-52.61,0.39,-4.72,38.70,-5.77,-1.11,13.91,1.08,-2.10,15.93
46,167,-876,88,-613,3839,-4.45,4.84,-52.69,0.88,-6.13,38.39,-5.81,-1.12,14.12,0.57,-2.89,16.01
46,165,-876,112,-657,3835,-3.73,5.36,-52.77,1.12,-6.57,38.35,-5.83,-1.12,14.33,0.50,-2.91,16.01
30,133,-819,116,-702,3817,-3.17,5.63,-52.49,1.16,-7.02,38.17,-5.86,-1.12,14.54,0.69,-2.45,15.47
17,121,-740,83,-704,3834,-2.75,5.81,-51.75,0.83,-7.04,38.34,-5.89,-1.12,14.75,0.85,-2.29,14.65
-25,115,-469,77,-650,3868,-2.63,5.93,-49.44,0.77,-6.50,38.68,-5.91,-1.12,14.95,1.48,-2.21,11.93
-48,106,-416,48,-631,3888,-2.66,5.98,-47.03,0.48,-6.31,38.88,-5.94,-1.11,15.14,1.84,-2.08,11.04
-71,75,-257,-14,-425,3972,-2.83,5.84,-43.90,-0.14,-4.25,39.72,-5.95,-1.09,15.32,2.21,-1.60,9.12
-58,78,-248,-2,-360,3995,-2.90,5.73,-41.02,-0.02,-3.60,39.95,-5.94,-1.07,15.48,2.02,-1.63,8.52
33,132,-263,-62,-253,3876,-2.41,5.97,-38.52,-0.62,-2.53,38.76,-5.94,-1.05,15.64,0.58,-2.48,8.19
51,142,-280,-63,-233,3829,-1.85,6.24,-36.38,-0.63,-2.33,38.29,-5.93,-1.03,15.79,0.24,-2.67,7.94
53,77,-356,-1,-219,3808,-1.35,6.08,-34.91,-0.01,-2.19,38.08,-5.91,-1.01,15.93,0.16,-1.66,8.31
38,48,-380,43,-253,3816,-0.98,5.77,-33.74,0.43,-2.53,38.16,-5.90,-1.00,16.06,0.35,-1.19,8.30
-23,4,-439,124,-451,3837,-1.02,5.21,-33.04,1.24,-4.51,38.37,-5.91,-1.00,16.20,1.28,-0.46,8.67
-32,-10,-454,28,-506,3832,-1.11,4.63,-32.51,0.28,-5.06,38.32,-5.93,-0.99,16.33,1.43,-0.19,8.69
-16,-94,-511,-94,-656,3868,-1.10,3.59,-32.37,-0.94,-6.56,38.68,-5.95,-0.98,16.46,1.19,1.20,9.14
-7,-122,-531,-109,-701,3872,-1.03,2.49,-32.38,-1.09,-7.01,38.72,-5.97,-0.97,16.59,1.05,1.74,9.30
-6,-191,-590,-50,-769,3952,-0.97,1.08,-32.74,-0.50,-7.69,39.52,-5.98,-0.98,16.72,1.03,2.94,9.86
-14,-196,-601,-22,-753,3978,-0.96,-0.23,-33.13,-0.22,-7.53,39.78,-6.00,-0.99,16.85,1.15,3.15,10.01
-78,-188,-607,83,-665,4018,-1.34,-1.35,-33.52,0.83,-6.65,40.18,-6.03,-1.01,16.98,2.17,3.15,10.13
-96,-180,-594,100,-629,4022,-1.79,-2.31,-33.79,1.00,-6.29,40.22,-6.05,-1.03,17.12,2.50,3.13,10.06
-127,-153,-515,104,-541,4002,-2.38,-3.02,-33.55,1.04,-5.41,40.02,-6.07,-1.07,17.25,3.03,2.79,9.34
-129,-145,-495,83,-541,3986,-2.93,-3.60,-33.22,0.83,-5.41,39.86,-6.10,-1.10,17.38,3.12,2.74,9.10
-112,-136,-483,-39,-512,3922,-3.32,-4.07,-32.84,-0.39,-5.12,39.22,-6.12,-1.11,17.51,2.91,2.65,8.92
-104,-129,-528,-66,-463,3948,-3.62,-4.45,-32.78,-0.66,-4.63,39.48,-6.14,-1.13,17.64,2.82,2.59,9.29
-90,-61,-670,-60,-442,3889,-3.81,-4.38,-33.59,-0.60,-4.42,38.89,-6.16,-1.14,17.77,2.63,1.54,10.63
-89,-44,-703,-57,-450,3882,-3.97,-4.21,-34.52,-0.57,-4.50,38.82,-6.17,-1.15,17.90,2.63,1.27,11.06
-72,-22,-790,18,-550,3888,-4.01,-3.92,-35.88,0.18,-5.50,38.88,-6.20,-1.18,18.04,2.38,0.91,12.04
-67,-22,-809,14,-585,3869,-4.02,-3.66,-37.23,0.14,-5.85,38.69,-6.23,-1.20,18.19,2.31,0.88,12.43
-49,-7,-869,15,-694,3862,-3.92,-3.34,-38.81,0.15,-6.94,38.62,-6.26,-1.23,18.34,2.03,0.62,13.21
-37,0,-885,29,-716,3850,-3.75,-3.00,-40.33,0.29,-7.16,38.50,-6.29,-1.25,18.50,1.83,0.49,13.61
-3,11,-913,0,-751,3846,-3.40,-2.64,-41.86,0.00,-7.51,38.46,-6.32,-1.28,18.67,1.28,0.28,14.11
-4,12,-913,-8,-751,3860,-3.08,-2.30,-43.25,-0.08,-7.51,38.60,-6.35,-1.30,18.84,1.27,0.24,14.35
-37,32,-878,6,-709,3893,-3.00,-1.88,-44.28,0.06,-7.09,38.93,-6.37,-1.32,19.01,1.77,-0.11,14.23
-64,50,-861,-34,-630,3897,-3.09,-1.38,-45.10,-0.34,-6.30,38.97,-6.39,-1.34,19.19,2.19,-0.43,14.22
-86,86,-832,-59,-550,3868,-3.30,-0.72,-45.67,-0.59,-5.50,38.68,-6.41,-1.35,19.37,2.55,-1.05,14.07
-87,95,-823,-89,-542,3842,-3.50,-0.07,-46.12,-0.89,-5.42,38.42,-6.43,-1.35,19.55,2.59,-1.25,14.06
-82,111,-834,-119,-543,3841,-3.65,0.62,-46.60,-1.19,-5.43,38.41,-6.45,-1.35,19.74,2.53,-1.57,14.23
-75,114,-844,-117,-571,3837,-3.75,1.25,-47.08,-1.17,-5.71,38.37,-6.47,-1.35,19.93,2.44,-1.68,14.39
-55,107,-887,-98,-642,3805,-3.71,1.78,-47.79,-0.98,-6.42,38.05,-6.50,-1.36,20.12,2.13,-1.63,14.87
-47,97,-898,-85,-669,3825,-3.62,2.19,-48.49,-0.85,-6.69,38.25,-6.52,-1.36,20.31,2.00,-1.52,15.07
-6,53,-898,-116,-676,3790,-3.30,2.30,-49.12,-1.16,-6.76,37.90,-6.54,-1.36,20.51,1.35,-0.86,15.17
8,38,-881,-119,-679,3801,-2.92,2.30,-49.58,-1.19,-6.79,38.01,-6.56,-1.36,20.70,1.10,-0.63,15.10
63,-22,-828,-147,-718,3782,-2.24,1.93,-49.67,-1.47,-7.18,37.82,-6.58,-1.36,20.90,0.19,0.33,14.66
79,-38,-817,-138,-713,3830,-1.54,1.51,-49.69,-1.38,-7.13,38.30,-6.60,-1.37,21.10,-0.12,0.61,14.56
101,-20,-796,11,-671,3919,-0.77,1.24,-49.57,0.11,-6.71,39.19,-6.61,-1.38,21.30,-0.53,0.37,14.35
108,-8,-782,12,-664,3916,-0.03,1.06,-49.39,0.12,-6.64,39.16,-6.63,-1.39,21.49,-0.72,0.21,14.18
100,14,-715,-22,-525,3807,0.58,1.04,-48.81,-0.22,-5.25,38.07,-6.63,-1.40,21.69,-0.66,-0.13,13.50
90,20,-681,-45,-471,3835,1.07,1.06,-48.08,-0.45,-4.71,38.35,-6.62,-1.40,21.88,-0.56,-0.22,13.07
37,93,-564,-48,-322,3869,1.19,1.52,-46.72,-0.48,-3.22,38.69,-6.60,-1.40,22.07,0.24,-1.38,11.82
19,121,-539,-24,-330,3875,1.19,2.11,-45.33,-0.24,-3.30,38.75,-6.58,-1.40,22.25,0.51,-1.87,11.35
-8,187,-492,-3,-462,3852,1.02,3.04,-43.80,-0.03,-4.62,38.52,-6.58,-1.39,22.42,0.94,-2.97,10.67
-5,188,-493,12,-511,3841,0.89,3.88,-42.43,0.12,-5.11,38.41,-6.58,-1.38,22.59,0.91,-3.08,10.42
44,131,-515,91,-728,3849,1.07,4.29,-41.33,0.91,-7.28,38.49,-6.59,-1.38,22.76,0.14,-2.25,10.40
74,86,-517,111,-773,3872,1.41,4.39,-40.35,1.11,-7.73,38.72,-6.60,-1.38,22.92,-0.35,-1.57,10.23
94,21,-485,84,-765,3917,1.84,4.08,-39.27,0.84,-7.65,39.17,-6.60,-1.38,23.08,-0.70,-0.55,9.76
85,11,-464,64,-756,3914,2.18,3.74,-38.17,0.64,-7.56,39.14,-6.61,-1.38,23.23,-0.60,-0.36,9.37
25,1,-383,-28,-733,3926,2.11,3.37,-36.69,-0.28,-7.33,39.26,-6.62,-1.38,23.38,0.33,-0.17,8.41
10,-1,-366,-43,-732,3914,1.96,3.03,-35.26,-0.43,-7.32,39.14,-6.62,-1.37,23.52,0.57,-0.11,8.00
3,-8,-364,-110,-707,3917,1.78,2.67,-33.95,-1.10,-7.07,39.17,-6.62,-1.37,23.65,0.70,0.04,7.75
15,-6,-383,-120,-678,3931,1.70,2.37,-32.89,-1.20,-6.78,39.31,-6.63,-1.36,23.79,0.52,0.04,7.71
82,14,-535,-193,-549,3910,2.03,2.22,-32.87,-1.93,-5.49,39.10,-6.62,-1.35,23.92,-0.53,-0.25,8.98
101,17,-592,-192,-507,3884,2.44,2.10,-33.19,-1.92,-5.07,38.84,-6.61,-1.34,24.05,-0.87,-0.29,9.52
145,3,-711,-126,-363,3831,3.08,1.91,-34.21,-1.26,-3.63,38.31,-6.59,-1.33,24.19,-1.61,-0.06,10.70
138,1,-693,-100,-282,3831,3.62,1.72,-35.02,-1.00,-2.82,38.31,-6.56,-1.32,24.33,-1.56,-0.01,10.68
67,22,-569,-39,-308,3846,3.66,1.69,-34.98,-0.39,-3.08,38.46,-6.53,-1.32,24.47,-0.49,-0.32,9.62
48,26,-525,-32,-317,3855,3.59,1.68,-34.69,-0.32,-3.17,38.55,-6.50,-1.32,24.61,-0.19,-0.39,9.18
33,37,-416,-9,-423,3914,3.43,1.73,-33.76,-0.09,-4.23,39.14,-6.48,-1.31,24.74,0.05,-0.56,8.09
43,38,-401,-23,-474,3915,3.35,1.79,-32.83,-0.23,-4.74,39.15,-6.47,-1.30,24.87,-0.10,-0.58,7.78
95,18,-380,-110,-565,3911,3.60,1.72,-31.86,-1.10,-5.65,39.11,-6.46,-1.29,25.00,-0.92,-0.27,7.43
108,7,-376,-120,-566,3922,3.89,1.59,-30.97,-1.20,-5.66,39.22,-6.45,-1.28,25.12,-1.15,-0.09,7.23
144,-16,-346,-194,-505,3953,4.38,1.34,-29.98,-1.94,-5.05,39.53,-6.43,-1.27,25.24,-1.75,0.28,6.79
148,-20,-336,-232,-463,3945,4.85,1.08,-29.04,-2.32,-4.63,39.45,-6.41,-1.26,25.36,-1.86,0.37,6.53
178,-28,-342,-203,-379,4029,5.45,0.80,-28.22,-2.03,-3.79,40.29,-6.38,-1.25,25.47,-2.38,0.52,6.42
214,7,-371,-143,-375,4011,6.21,0.76,-27.66,-1.43,-3.75,40.11,-6.35,-1.25,25.58,-3.02,-0.01,6.56
223,73,-447,-147,-374,3933,6.95,1.13,-27.62,-1.47,-3.74,39.33,-6.32,-1.24,25.69,-3.24,-1.06,7.19
209,77,-467,-157,-390,3909,7.53,1.49,-27.71,-1.57,-3.90,39.09,-6.28,-1.22,25.80,-3.09,-1.16,7.37
123,44,-507,-142,-428,3889,7.53,1.61,-28.03,-1.42,-4.28,38.89,-6.25,-1.21,25.92,-1.78,-0.67,7.76
96,33,-506,-138,-441,3915,7.36,1.65,-28.31,-1.38,-4.41,39.15,-6.22,-1.20,26.03,-1.36,-0.51,7.80
30,20,-472,-169,-475,3932,6.81,1.61,-28.36,-1.69,-4.75,39.32,-6.19,-1.19,26.14,-0.30,-0.31,7.51
10,10,-465,-203,-451,3924,6.19,1.51,-28.36,-2.03,-4.51,39.24,-6.17,-1.17,26.26,0.07,-0.14,7.44
-27,-58,-507,-238,-462,3896,5.40,1.00,-28.62,-2.38,-4.62,38.96,-6.14,-1.16,26.37,0.71,0.94,7.84
-31,-79,-533,-248,-472,3889,4.67,0.42,-29.01,-2.48,-4.72,38.89,-6.13,-1.16,26.49,0.85,1.32,8.12
14,-70,-634,-82,-460,4026,4.29,-0.05,-29.97,-0.82,-4.60,40.26,-6.11,-1.15,26.61,0.20,1.23,9.14
59,-6,-662,-48,-470,4033,4.22,-0.08,-31.01,-0.48,-4.70,40.33,-6.09,-1.15,26.73,-0.48,0.26,9.56
101,119,-688,-161,-491,3973,4.42,0.65,-32.11,-1.61,-4.91,39.73,-6.08,-1.14,26.86,-1.15,-1.72,9.97
96,126,-694,-190,-518,3932,4.56,1.36,-33.13,-1.90,-5.18,39.32,-6.06,-1.13,26.99,-1.09,-1.90,10.19
55,77,-718,-244,-603,3847,4.44,1.69,-34.20,-2.44,-6.03,38.47,-6.05,-1.12,27.13,-0.45,-1.19,10.58
46,49,-717,-273,-615,3822,4.28,1.82,-35.15,-2.73,-6.15,38.22,-6.04,-1.12,27.27,-0.30,-0.78,10.73
24,-42,-695,-352,-471,3817,4.00,1.38,-35.88,-3.52,-4.71,38.17,-6.03,-1.11,27.41,0.06,0.65,10.67
15,-56,-696,-337,-453,3829,3.69,0.90,-36.53,-3.37,-4.53,38.29,-6.01,-1.10,27.55,0.23,0.91,10.79
-7,-79,-716,-282,-456,3844,3.28,0.33,-37.25,-2.82,-4.56,38.44,-6.00,-1.10,27.70,0.61,1.32,11.08
-8,-85,-727,-253,-454,3882,2.90,-0.22,-37.96,-2.53,-4.54,38.82,-5.99,-1.10,27.85,0.66,1.47,11.29
24,-71,-766,-156,-502,3971,2.76,-0.63,-38.84,-1.56,-5.02,39.71,-5.98,-1.10,28.01,0.19,1.30,11.77
32,-39,-776,-195,-494,3981,2.68,-0.81,-39.69,-1.95,-4.94,39.81,-5.97,-1.10,28.17,0.07,0.83,11.99
13,7,-781,-268,-579,3964,2.49,-0.68,-40.48,-2.68,-5.79,39.64,-5.96,-1.10,28.33,0.38,0.12,12.17
1,9,-776,-260,-622,3949,2.24,-0.56,-41.17,-2.60,-6.22,39.49,-5.96,-1.11,28.49,0.59,0.08,12.24
-49,6,-743,-202,-718,3941,1.72,-0.47,-41.58,-2.02,-7.18,39.41,-5.97,-1.11,28.65,1.40,0.11,12.02
-60,5,-731,-194,-722,3948,1.18,-0.39,-41.88,-1.94,-7.22,39.48,-5.97,-1.12,28.82,1.63,0.12,11.97
-98,9,-684,-217,-620,3948,0.47,-0.30,-41.87,-2.17,-6.20,39.48,-5.98,-1.12,28.99,2.28,0.05,11.55
-104,21,-675,-225,-564,3968,-0.21,-0.14,-41.80,-2.25,-5.64,39.68,-5.98,-1.13,29.15,2.45,-0.15,11.46
-105,72,-658,-268,-489,3933,-0.83,0.31,-41.63,-2.68,-4.89,39.33,-5.99,-1.12,29.32,2.53,-0.97,11.27
-101,76,-651,-285,-486,3899,-1.37,0.75,-41.44,-2.85,-4.86,38.99,-5.99,-1.12,29.48,2.52,-1.08,11.17
-70,15,-614,-287,-447,3797,-1.66,0.76,-41.04,-2.87,-4.47,37.97,-6.00,-1.12,29.65,2.08,-0.15,10.77
-34,-39,-585,-254,-448,3782,-1.70,0.45,-40.51,-2.54,-4.48,37.82,-6.00,-1.11,29.81,1.53,0.70,10.42
49,-118,-537,-184,-462,3818,-1.23,-0.32,-39.73,-1.84,-4.62,38.18,-6.01,-1.11,29.97,0.22,1.99,9.87
83,-143,-525,-158,-479,3829,-0.60,-1.16,-38.96,-1.58,-4.79,38.29,-6.02,-1.12,30.12,-0.36,2.46,9.62
171,-194,-493,-119,-497,3866,0.50,-2.22,-38.07,-1.19,-4.97,38.66,-6.02,-1.12,30.27,-1.82,3.35,9.18
190,-202,-479,-111,-485,3909,1.61,-3.23,-37.19,-1.11,-4.85,39.09,-6.02,-1.14,30.42,-2.22,3.57,8.89
251,-165,-408,-148,-444,3984,2.98,-3.92,-35.96,-1.48,-4.44,39.84,-6.00,-1.15,30.56,-3.30,3.08,8.06
266,-142,-384,-180,-439,3955,4.31,-4.39,-34.70,-1.80,-4.39,39.55,-5.98,-1.16,30.70,-3.66,2.78,7.63
270,-66,-348,-200,-423,3861,5.52,-4.35,-33.36,-2.00,-4.23,38.61,-5.96,-1.18,30.83,-3.85,1.62,7.07
256,-47,-351,-187,-422,3836,6.53,-4.21,-32.16,-1.87,-4.22,38.36,-5.93,-1.19,30.95,-3.75,1.32,6.88
187,7,-386,-123,-359,3820,7.02,-3.74,-31.30,-1.23,-3.59,38.20,-5.90,-1.20,31.08,-2.75,0.45,7.01
161,22,-412,-98,-363,3838,7.30,-3.23,-30.68,-0.98,-3.63,38.38,-5.86,-1.20,31.20,-2.39,0.17,7.11
120,13,-472,-71,-353,3842,7.30,-2.83,-30.49,-0.71,-3.53,38.42,-5.83,-1.21,31.32,-1.77,0.26,7.58
109,4,-485,-70,-362,3853,7.24,-2.52,-30.40,-0.70,-3.62,38.53,-5.79,-1.21,31.44,-1.60,0.37,7.67
57,-38,-492,-104,-415,3843,6.86,-2.50,-30.36,-1.04,-4.15,38.43,-5.77,-1.22,31.56,-0.77,1.01,7.71
38,-53,-487,-123,-408,3859,6.41,-2.58,-30.30,-1.23,-4.08,38.59,-5.74,-1.22,31.68,-0.44,1.25,7.65
2,-91,-479,-162,-424,3952,5.78,-2.87,-30.19,-1.62,-4.24,39.52,-5.72,-1.23,31.80,0.17,1.86,7.56
4,-95,-483,-164,-422,3982,5.22,-3.17,-30.12,-1.64,-4.22,39.82,-5.69,-1.23,31.91,0.20,1.95,7.57
46,-70,-513,-107,-333,4071,4.98,-3.28,-30.24,-1.07,-3.33,40.71,-5.66,-1.24,32.03,-0.42,1.58,7.84
56,-59,-529,-68,-318,4067,4.83,-3.31,-30.44,-0.68,-3.18,40.67,-5.63,-1.25,32.15,-0.56,1.42,8.00
73,23,-545,28,-324,4017,4.79,-2.84,-30.72,0.28,-3.24,40.17,-5.60,-1.26,32.27,-0.83,0.12,8.18
67,78,-534,64,-281,3970,4.72,-2.08,-30.90,0.64,-2.81,39.70,-5.56,-1.28,32.40,-0.73,-0.80,8.12
16,117,-498,11,-297,3892,4.34,-1.16,-30.85,0.11,-2.97,38.92,-5.53,-1.28,32.52,0.08,-1.48,7.79
-2,113,-482,-40,-305,3875,3.90,-0.35,-30.71,-0.40,-3.05,38.75,-5.50,-1.28,32.64,0.40,-1.51,7.63
-39,90,-438,-124,-359,3907,3.27,0.23,-30.31,-1.24,-3.59,39.07,-5.48,-1.27,32.76,1.02,-1.22,7.17
-35,85,-425,-153,-375,3919,2.73,0.73,-29.87,-1.53,-3.75,39.19,-5.47,-1.26,32.88,1.02,-1.19,6.98
-8,66,-378,-178,-360,3954,2.41,1.06,-29.19,-1.78,-3.60,39.54,-5.45,-1.25,33.00,0.64,-0.94,6.45
1,63,-366,-160,-339,3964,2.17,1.34,-28.50,-1.60,-3.39,39.64,-5.44,-1.24,33.11,0.52,-0.93,6.22
-2,66,-332,-121,-346,3887,1.94,1.61,-27.68,-1.21,-3.46,38.87,-5.43,-1.22,33.22,0.59,-1.00,5.78
-15,59,-323,-128,-319,3865,1.66,1.80,-26.88,-1.28,-3.19,38.65,-5.41,-1.21,33.33,0.82,-0.92,5.55
-58,-5,-312,-118,-252,3859,1.14,1.59,-26.10,-1.18,-2.52,38.59,-5.40,-1.20,33.44,1.52,0.08,5.31
-49,-43,-317,-124,-284,3848,0.73,1.17,-25.42,-1.24,-2.84,38.48,-5.39,-1.19,33.54,1.43,0.70,5.23
19,-107,-329,-97,-403,3852,0.77,0.40,-24.88,-0.97,-4.03,38.52,-5.39,-1.18,33.64,0.38,1.75,5.23
39,-121,-330,-81,-421,3852,0.93,-0.38,-24.41,-0.81,-4.21,38.52,-5.39,-1.17,33.73,0.06,2.05,5.14
62,-136,-352,-19,-409,3909,1.21,-1.17,-24.12,-0.19,-4.09,39.09,-5.39,-1.17,33.83,-0.32,2.36,5.27
56,-129,-361,-36,-386,3919,1.44,-1.84,-23.91,-0.36,-3.86,39.19,-5.38,-1.16,33.92,-0.25,2.32,5.30
27,-106,-428,-131,-235,3913,1.46,-2.30,-24.13,-1.31,-2.35,39.13,-5.36,-1.17,34.02,0.19,2.02,5.91
29,-108,-462,-130,-238,3921,1.49,-2.73,-24.53,-1.30,-2.38,39.21,-5.35,-1.17,34.12,0.15,2.09,6.26
88,-116,-598,-138,-270,3893,1.88,-3.16,-25.73,-1.38,-2.70,38.93,-5.33,-1.18,34.22,-0.79,2.26,7.62
113,-119,-635,-130,-293,3904,2.38,-3.57,-27.03,-1.30,-2.93,39.04,-5.31,-1.18,34.32,-1.23,2.35,8.16
202,-84,-716,-85,-392,3942,3.37,-3.73,-28.69,-0.85,-3.92,39.42,-5.30,-1.19,34.44,-2.69,1.83,9.14
207,-46,-727,-87,-395,3921,4.30,-3.64,-30.26,-0.87,-3.95,39.21,-5.28,-1.20,34.56,-2.86,1.25,9.51
119,2,-690,-110,-447,3863,4.59,-3.26,-31.44,-1.10,-4.47,38.63,-5.27,-1.21,34.68,-1.55,0.48,9.40
85,6,-664,-113,-432,3851,4.65,-2.90,-32.35,-1.13,-4.32,38.51,-5.25,-1.21,34.81,-1.04,0.38,9.33
5,-5,-554,-140,-433,3861,4.22,-2.64,-32.49,-1.40,-4.33,38.61,-5.24,-1.22,34.94,0.22,0.52,8.42
-4,-10,-519,-135,-424,3849,3.77,-2.44,-32.41,-1.35,-4.24,38.49,-5.23,-1.22,35.06,0.40,0.58,8.10
-35,-11,-380,-112,-391,3892,3.18,-2.26,-31.49,-1.12,-3.91,38.92,-5.22,-1.22,35.19,0.93,0.57,6.75
-41,-3,-336,-103,-362,3898,2.61,-2.05,-30.39,-1.03,-3.62,38.98,-5.20,-1.22,35.31,1.08,0.43,6.17
-56,42,-205,-150,-265,3877,2.01,-1.59,-28.60,-1.50,-2.65,38.77,-5.19,-1.22,35.42,1.37,-0.30,4.73
-57,43,-184,-164,-315,3903,1.46,-1.17,-26.86,-1.64,-3.15,39.03,-5.18,-1.22,35.53,1.44,-0.36,4.24
14,9,-164,-140,-336,3788,1.40,-1.00,-25.18,-1.40,-3.36,37.88,-5.17,-1.22,35.63,0.37,0.14,3.76
47,9,-219,-135,-245,3817,1.55,-0.84,-23.99,-1.35,-2.45,38.17,-5.15,-1.21,35.73,-0.16,0.12,4.01
61,8,-356,-143,-321,3867,1.76,-0.71,-23.77,-1.43,-3.21,38.67,-5.14,-1.20,35.82,-0.39,0.12,5.12
60,10,-378,-148,-375,3847,1.95,-0.58,-23.70,-1.48,-3.75,38.47,-5.13,-1.20,35.91,-0.40,0.07,5.29
46,17,-373,-144,-334,3897,2.04,-0.42,-23.60,-1.44,-3.34,38.97,-5.12,-1.19,36.01,-0.20,-0.05,5.23
45,23,-369,-133,-330,3913,2.11,-0.23,-23.49,-1.33,-3.30,39.13,-5.11,-1.18,36.10,-0.19,-0.16,5.17
38,71,-361,-139,-351,3843,2.13,0.22,-23.34,-1.39,-3.51,38.43,-5.10,-1.17,36.19,-0.09,-0.94,5.07
36,83,-351,-149,-360,3833,2.14,0.71,-23.15,-1.49,-3.60,38.33,-5.09,-1.16,36.29,-0.06,-1.18,4.94
28,77,-266,-196,-427,3813,2.09,1.11,-22.46,-1.96,-4.27,38.13,-5.09,-1.14,36.38,0.07,-1.13,4.09
22,71,-235,-202,-389,3835,2.02,1.43,-21.65,-2.02,-3.89,38.35,-5.08,-1.13,36.46,0.17,-1.07,3.68
17,78,-168,-142,-300,3891,1.92,1.76,-20.51,-1.42,-3.00,38.91,-5.07,-1.11,36.55,0.25,-1.22,2.90
26,89,-151,-117,-296,3868,1.89,2.13,-19.38,-1.17,-2.96,38.68,-5.05,-1.09,36.62,0.12,-1.43,2.55
43,75,-132,-81,-285,3876,1.96,2.37,-18.24,-0.81,-2.85,38.76,-5.04,-1.07,36.70,-0.15,-1.24,2.18
45,64,-124,-78,-295,3861,2.04,2.53,-17.18,-0.78,-2.95,38.61,-5.02,-1.05,36.77,-0.19,-1.09,1.92
45,30,-111,-82,-163,3904,2.11,2.46,-16.14,-0.82,-1.63,39.04,-5.00,-1.03,36.83,-0.20,-0.57,1.62
54,27,-122,-73,-147,3921,2.23,2.38,-15.27,-0.73,-1.47,39.21,-4.97,-1.02,36.89,-0.36,-0.52,1.55
105,47,-174,-56,-215,3858,2.65,2.42,-14.80,-0.56,-2.15,38.58,-4.95,-1.00,36.95,-1.18,-0.83,1.91
111,51,-181,-62,-240,3843,3.06,2.49,-14.43,-0.62,-2.40,38.43,-4.93,-0.98,37.01,-1.32,-0.90,1.90
96,44,-161,-70,-316,3839,3.34,2.51,-13.96,-0.70,-3.16,38.39,-4.91,-0.95,37.07,-1.12,-0.80,1.64
80,41,-148,-93,-309,3839,3.49,2.51,-13.47,-0.93,-3.09,38.39,-4.89,-0.93,37.12,-0.90,-0.75,1.44
28,15,-151,-143,-284,3860,3.31,2.35,-13.05,-1.43,-2.84,38.60,-4.87,-0.91,37.18,-0.09,-0.34,1.39
31,-6,-172,-187,-333,3831,3.17,2.08,-12.79,-1.87,-3.33,38.31,-4.86,-0.89,37.23,-0.12,0.00,1.51
59,-28,-177,-165,-389,3930,3.21,1.70,-12.59,-1.65,-3.89,39.30,-4.85,-0.87,37.28,-0.55,0.37,1.52
63,-20,-168,-135,-355,3959,3.28,1.41,-12.36,-1.35,-3.55,39.59,-4.84,-0.85,37.33,-0.62,0.28,1.40
13,30,-121,-125,-209,3921,3.03,1.45,-11.86,-1.25,-2.09,39.21,-4.82,-0.83,37.38,0.16,-0.49,0.91
-7,44,-107,-119,-181,3920,2.68,1.57,-11.33,-1.19,-1.81,39.20,-4.79,-0.81,37.42,0.50,-0.72,0.69
-31,54,-54,-108,-154,3891,2.23,1.75,-10.52,-1.08,-1.54,38.91,-4.77,-0.80,37.47,0.91,-0.89,0.09
-22,47,-38,-95,-164,3902,1.87,1.86,-9.70,-0.95,-1.64,39.02,-4.75,-0.78,37.51,0.81,-0.80,-0.19
37,24,5,-22,-232,3929,1.91,1.82,-8.70,-0.22,-2.32,39.29,-4.73,-0.76,37.54,-0.10,-0.45,-0.74
47,19,18,-29,-263,3937,2.00,1.75,-7.72,-0.29,-2.63,39.37,-4.71,-0.75,37.57,-0.26,-0.37,-1.02
27,0,79,-83,-347,3940,1.97,1.58,-6.47,-0.83,-3.47,39.40,-4.70,-0.72,37.60,0.04,-0.06,-1.77
1,-8,111,-99,-358,3949,1.78,1.37,-5.14,-0.99,-3.58,39.49,-4.70,-0.70,37.62,0.46,0.08,-2.28
-23,-11,135,-115,-310,3971,1.46,1.17,-3.81,-1.15,-3.10,39.71,-4.69,-0.68,37.63,0.86,0.14,-2.72
-23,-8,136,-116,-295,3982,1.17,1.00,-2.60,-1.16,-2.95,39.82,-4.68,-0.66,37.65,0.89,0.11,-2.95
-24,13,145,-121,-258,3974,0.91,0.98,-1.45,-1.21,-2.58,39.74,-4.67,-0.64,37.65,0.93,-0.21,-3.23
-28,20,148,-107,-247,3979,0.65,1.00,-0.40,-1.07,-2.47,39.79,-4.66,-0.62,37.65,1.01,-0.32,-3.44
-56,33,172,-90,-260,4019,0.24,1.11,0.69,-0.90,-2.60,40.19,-4.65,-0.60,37.65,1.48,-0.53,-3.84
-64,37,184,-77,-275,4013,-0.17,1.22,1.74,-0.77,-2.75,40.13,-4.65,-0.57,37.64,1.64,-0.61,-4.13
-112,56,256,-88,-428,4008,-0.84,1.44,3.13,-0.88,-4.28,40.08,-4.66,-0.55,37.63,2.45,-0.93,-4.99
-132,60,291,-99,-511,4005,-1.56,1.66,4.59,-0.99,-5.11,40.05,-4.68,-0.53,37.61,2.83,-1.01,-5.54
-236,59,456,-196,-527,3973,-2.84,1.86,6.91,-1.96,-5.27,39.73,-4.71,-0.51,37.59,4.55,-1.02,-7.36
-299,47,505,-253,-382,4011,-4.38,1.96,9.30,-2.53,-3.82,40.11,-4.73,-0.48,37.55,5.68,-0.85,-8.20
-312,58,449,-203,-289,4025,-5.85,2.11,11.11,-2.03,-2.89,40.25,-4.75,-0.45,37.51,6.03,-1.04,-8.04
-293,73,413,-180,-266,3976,-7.05,2.35,12.52,-1.80,-2.66,39.76,-4.77,-0.42,37.46,5.87,-1.30,-7.99
-227,104,272,-204,-173,3826,-7.73,2.75,12.93,-2.04,-1.73,38.26,-4.79,-0.39,37.41,4.93,-1.82,-6.86
-217,99,240,-207,-154,3796,-8.28,3.08,13.10,-2.07,-1.54,37.96,-4.81,-0.36,37.36,4.84,-1.78,-6.62
-197,54,198,-205,-228,3711,-8.65,3.10,13.00,-2.05,-2.28,37.11,-4.84,-0.32,37.31,4.58,-1.10,-6.24
-189,39,209,-220,-277,3738,-8.94,3.03,12.97,-2.20,-2.77,37.38,-4.88,-0.29,37.26,4.49,-0.87,-6.33
-156,11,288,-283,-381,3856,-9.00,2.79,13.43,-2.83,-3.81,38.56,-4.92,-0.26,37.20,4.00,-0.42,-7.08
-153,12,305,-274,-405,3874,-9.03,2.59,13.95,-2.74,-4.05,38.74,-4.96,-0.22,37.15,3.96,-0.42,-7.31
-159,22,347,-272,-484,3889,-9.10,2.46,14.67,-2.72,-4.84,38.89,-5.00,-0.19,37.09,4.07,-0.56,-7.79
-170,12,348,-291,-437,3893,-9.23,2.29,15.33,-2.91,-4.37,38.93,-5.04,-0.16,37.03,4.25,-0.40,-7.92
-140,-53,286,-203,-342,3843,-9.16,1.74,15.54,-2.03,-3.42,38.43,-5.08,-0.13,36.97,3.79,0.65,-7.42
-116,-75,264,-179,-340,3825,-8.95,1.10,15.59,-1.79,-3.40,38.25,-5.12,-0.10,36.91,3.41,1.04,-7.24
-9,-149,194,-121,-316,3827,-8.11,0.09,15.22,-1.21,-3.16,38.27,-5.15,-0.08,36.85,1.70,2.27,-6.58
20,-167,184,-114,-317,3812,-7.18,-0.94,14.82,-1.14,-3.17,38.12,-5.17,-0.06,36.79,1.16,2.65,-6.42
83,-203,200,-113,-330,3843,-5.95,-2.09,14.56,-1.13,-3.30,38.43,-5.19,-0.04,36.73,0.08,3.32,-6.51
84,-206,212,-117,-333,3867,-4.85,-3.13,14.39,-1.17,-3.33,38.67,-5.21,-0.03,36.67,-0.05,3.47,-6.57
58,-168,287,-148,-425,3935,-4.01,-3.85,14.71,-1.48,-4.25,39.35,-5.23,-0.03,36.61,0.26,2.96,-7.26
41,-148,313,-139,-451,3930,-3.36,-4.36,15.14,-1.39,-4.51,39.30,-5.26,-0.02,36.55,0.46,2.71,-7.56
-59,-76,423,-110,-524,3959,-3.38,-4.39,16.21,-1.10,-5.24,39.59,-5.28,-0.02,36.48,1.99,1.62,-8.68
-91,-45,474,-143,-503,3982,-3.60,-4.23,17.48,-1.43,-5.03,39.82,-5.31,-0.02,36.41,2.50,1.13,-9.33
-148,-21,497,-217,-324,3969,-4.14,-3.93,18.76,-2.17,-3.24,39.69,-5.32,-0.01,36.33,3.43,0.73,-9.75
-159,-27,475,-201,-321,3961,-4.70,-3.70,19.79,-2.01,-3.21,39.61,-5.34,0.00,36.25,3.66,0.80,-9.74
-112,-54,394,-141,-360,3891,-4.91,-3.66,20.21,-1.41,-3.60,38.91,-5.36,0.01,36.17,2.97,1.20,-9.13
-87,-66,380,-141,-365,3881,-4.95,-3.70,20.51,-1.41,-3.65,38.81,-5.38,0.02,36.09,2.59,1.39,-9.06
-44,-111,347,-106,-422,3826,-4.72,-4.01,20.57,-1.06,-4.22,38.26,-5.41,0.03,36.01,1.92,2.10,-8.79
-44,-125,355,-100,-442,3820,-4.52,-4.37,20.68,-1.00,-4.42,38.20,-5.43,0.03,35.92,1.90,2.35,-8.87
-56,-163,455,21,-456,3882,-4.41,-4.93,21.39,0.21,-4.56,38.82,-5.47,0.02,35.84,2.08,2.99,-9.84
-59,-163,493,69,-456,3897,-4.33,-5.43,22.26,0.69,-4.56,38.97,-5.50,-0.01,35.74,2.12,3.05,-10.31
-89,-122,660,105,-419,3904,-4.44,-5.63,24.06,1.05,-4.19,39.04,-5.53,-0.04,35.65,2.59,2.45,-12.04
-121,-98,761,97,-387,3899,-4.73,-5.66,26.29,0.97,-3.87,38.99,-5.55,-0.07,35.54,3.11,2.09,-13.29
-209,-91,985,42,-514,3867,-5.53,-5.65,29.67,0.42,-5.14,38.67,-5.59,-0.08,35.42,4.54,1.98,-15.79
-230,-99,1052,2,-518,3857,-6.38,-5.69,33.12,0.02,-5.18,38.57,-5.63,-0.09,35.29,4.96,2.11,-16.96
-259,-128,1212,-103,-449,3848,-7.33,-5.90,37.20,-1.03,-4.49,38.48,-5.67,-0.09,35.14,5.50,2.57,-19.04
-251,-129,1232,-134,-467,3820,-8.12,-6.10,41.00,-1.34,-4.67,38.20,-5.71,-0.08,34.97,5.47,2.61,-19.88
-184,-110,1238,-204,-409,3797,-8.43,-6.16,44.45,-2.04,-4.09,37.97,-5.75,-0.07,34.79,4.48,2.32,-20.54
-158,-98,1218,-197,-390,3810,-8.55,-6.14,47.44,-1.97,-3.90,38.10,-5.78,-0.05,34.60,4.10,2.14,-20.89
-69,-38,1103,-166,-482,3752,-8.12,-5.76,49.42,-1.66,-4.82,37.52,-5.83,-0.04,34.40,2.71,1.18,-20.26
-54,-29,1067,-172,-496,3764,-7.64,-5.36,50.99,-1.72,-4.96,37.64,-5.87,-0.03,34.19,2.44,1.00,-20.22
12,-28,933,-73,-536,3836,-6.80,-5.00,51.58,-0.73,-5.36,38.36,-5.91,-0.02,33.99,1.35,0.95,-19.18
37,-49,874,-7,-565,3838,-5.89,-4.79,51.75,-0.07,-5.65,38.38,-5.95,-0.01,33.78,0.88,1.25,-18.70
63,-77,795,19,-515,3913,-4.92,-4.78,51.43,0.19,-5.15,39.13,-5.99,-0.01,33.57,0.39,1.67,-17.96
65,-77,774,24,-485,3946,-4.03,-4.78,51.01,0.24,-4.85,39.46,-6.02,-0.02,33.37,0.27,1.67,-17.70
48,-35,688,-71,-398,3963,-3.34,-4.51,50.10,-0.71,-3.98,39.63,-6.03,0.00,33.17,0.46,1.00,-16.79
39,-21,654,-112,-370,3934,-2.76,-4.19,49.08,-1.12,-3.70,39.34,-6.04,0.02,32.97,0.54,0.75,-16.31
36,2,482,-160,-374,3897,-2.27,-3.76,47.11,-1.60,-3.74,38.97,-6.04,0.05,32.78,0.53,0.35,-14.49
50,4,428,-154,-415,3879,-1.74,-3.36,45.01,-1.54,-4.15,38.79,-6.05,0.07,32.60,0.26,0.28,-13.64
135,4,300,-83,-539,3899,-0.74,-3.00,42.34,-0.83,-5.39,38.99,-6.07,0.09,32.43,-1.13,0.24,-12.07
159,3,284,-57,-539,3946,0.30,-2.68,39.84,-0.57,-5.39,39.46,-6.08,0.10,32.27,-1.60,0.22,-11.48
178,-11,280,195,-605,3877,1.36,-2.48,37.56,1.95,-6.05,38.77,-6.09,0.09,32.12,-2.00,0.41,-11.03
132,-30,319,275,-592,3885,2.03,-2.41,35.75,2.75,-5.92,38.85,-6.09,0.08,31.98,-1.37,0.70,-11.03
-10,-47,449,232,-383,4028,1.77,-2.46,34.92,2.32,-3.83,40.28,-6.08,0.07,31.84,0.82,0.96,-11.97
-38,-40,484,220,-372,4034,1.36,-2.46,34.38,2.20,-3.72,40.34,-6.07,0.06,31.70,1.29,0.86,-12.16
-75,-2,579,94,-394,3995,0.76,-2.22,34.47,0.94,-3.94,39.95,-6.06,0.05,31.56,1.91,0.25,-12.97
-71,3,592,59,-401,3985,0.25,-1.98,34.64,0.59,-4.01,39.85,-6.05,0.03,31.42,1.90,0.15,-13.10
-36,-6,576,3,-498,3951,0.01,-1.82,34.69,0.03,-4.98,39.51,-6.07,0.04,31.28,1.40,0.27,-12.97
-24,-14,555,-26,-541,3941,-0.14,-1.72,34.60,-0.26,-5.41,39.41,-6.09,0.05,31.15,1.23,0.38,-12.77
10,-32,495,-88,-627,3938,-0.06,-1.75,34.16,-0.88,-6.27,39.38,-6.11,0.07,31.01,0.71,0.66,-12.17
18,-35,479,-108,-665,3948,0.05,-1.79,33.67,-1.08,-6.65,39.48,-6.12,0.08,30.87,0.58,0.71,-11.94
6,-31,468,-116,-726,3895,0.08,-1.80,33.16,-1.16,-7.26,38.95,-6.14,0.09,30.74,0.76,0.65,-11.75
-18,-21,487,-102,-703,3903,-0.03,-1.75,32.81,-1.02,-7.03,39.03,-6.16,0.11,30.61,1.14,0.49,-11.84
-99,31,568,-91,-656,3864,-0.63,-1.38,32.99,-0.91,-6.56,38.64,-6.18,0.12,30.48,2.44,-0.35,-12.55
-140,58,608,-106,-639,3856,-1.43,-0.89,33.40,-1.06,-6.39,38.56,-6.20,0.14,30.35,3.15,-0.81,-12.95
-240,131,730,-116,-623,3768,-2.75,-0.00,34.52,-1.16,-6.23,37.68,-6.22,0.16,30.21,4.82,-2.02,-14.18
-259,146,773,-116,-628,3760,-4.05,0.89,35.78,-1.16,-6.28,37.60,-6.26,0.19,30.07,5.25,-2.35,-14.76
-267,182,926,-170,-495,3772,-5.28,1.91,37.85,-1.70,-4.95,37.72,-6.29,0.23,29.92,5.50,-3.01,-16.42
-251,192,955,-173,-464,3770,-6.28,2.89,39.89,-1.73,-4.64,37.70,-6.32,0.28,29.76,5.36,-3.27,-17.02
-176,218,976,-180,-367,3700,-6.72,3.93,41.86,-1.80,-3.67,37.00,-6.34,0.33,29.60,4.27,-3.78,-17.54
-149,221,957,-181,-329,3712,-6.96,4.89,43.51,-1.81,-3.29,37.12,-6.36,0.38,29.42,3.88,-3.93,-17.67
-36,221,813,-92,-349,3690,-6.48,5.75,44.12,-0.92,-3.49,36.90,-6.37,0.44,29.25,2.11,-4.03,-16.54
22,216,729,-14,-430,3691,-5.70,6.49,44.15,-0.14,-4.30,36.91,-6.40,0.47,29.08,1.15,-4.03,-15.83
136,192,631,124,-529,3751,-4.30,7.01,43.59,1.24,-5.29,37.51,-6.43,0.51,28.91,-0.73,-3.72,-14.89
157,181,631,152,-534,3781,-2.91,7.41,43.08,1.52,-5.34,37.81,-6.45,0.54,28.74,-1.19,-3.60,-14.79
155,131,714,159,-542,3776,-1.68,7.47,43.12,1.59,-5.42,37.76,-6.46,0.57,28.57,-1.29,-2.85,-15.49
131,110,760,145,-536,3771,-0.71,7.40,43.45,1.45,-5.36,37.71,-6.47,0.61,28.40,-1.02,-2.53,-15.93
28,44,987,42,-544,3825,-0.47,6.92,45.12,0.42,-5.44,38.25,-6.49,0.64,28.23,0.53,-1.48,-18.14
5,29,1057,-15,-517,3860,-0.39,6.41,47.06,-0.15,-5.17,38.60,-6.50,0.68,28.04,0.87,-1.20,-19.07
-8,-25,1187,-166,-431,3896,-0.40,5.62,49.59,-1.66,-4.31,38.96,-6.50,0.75,27.85,1.07,-0.30,-20.61
7,-41,1178,-172,-435,3890,-0.32,4.80,51.82,-1.72,-4.35,38.90,-6.50,0.81,27.65,0.84,0.02,-20.92
82,-68,1054,-105,-479,3885,0.21,3.91,53.07,-1.05,-4.79,38.85,-6.51,0.86,27.44,-0.36,0.51,-20.08
117,-69,970,-29,-512,3839,0.91,3.10,53.68,-0.29,-5.12,38.39,-6.52,0.89,27.22,-0.97,0.61,-19.47
133,-71,864,11,-471,3897,1.63,2.35,53.58,0.11,-4.71,38.97,-6.51,0.91,27.01,-1.28,0.71,-18.54
131,-71,841,53,-467,3906,2.26,1.69,53.35,0.53,-4.67,39.06,-6.50,0.92,26.80,-1.32,0.78,-18.29
97,-71,823,198,-500,3901,2.63,1.08,53.04,1.98,-5.00,39.01,-6.49,0.93,26.59,-0.84,0.84,-18.07
87,-71,829,205,-494,3949,2.90,0.54,52.79,2.05,-4.94,39.49,-6.48,0.94,26.38,-0.72,0.90,-18.06
75,-60,856,258,-515,3972,3.06,0.12,52.73,2.58,-5.15,39.72,-6.47,0.95,26.17,-0.56,0.77,-18.27
71,-56,870,286,-526,3970,3.19,-0.23,52.77,2.86,-5.26,39.70,-6.46,0.95,25.96,-0.51,0.74,-18.38
26,-58,976,120,-479,3966,3.03,-0.56,53.44,1.20,-4.79,39.66,-6.44,0.95,25.75,0.19,0.81,-19.39
14,-61,1000,32,-417,3973,2.81,-0.88,54.20,0.32,-4.17,39.73,-6.42,0.96,25.53,0.39,0.89,-19.71
-2,-36,955,-113,-243,3900,2.52,-1.01,54.60,-1.13,-2.43,39.00,-6.39,0.98,25.32,0.66,0.52,-19.39
19,-8,870,-154,-228,3855,2.38,-0.96,54.45,-1.54,-2.28,38.55,-6.36,1.01,25.10,0.35,0.08,-18.63
143,10,648,-200,-226,3832,3.02,-0.80,52.96,-2.00,-2.26,38.32,-6.33,1.04,24.89,-1.61,-0.22,-16.47
187,2,576,-178,-260,3831,3.86,-0.71,51.18,-1.78,-2.60,38.31,-6.30,1.07,24.68,-2.37,-0.11,-15.53
318,-27,328,-55,-364,3870,5.41,-0.80,48.06,-0.55,-3.64,38.70,-6.25,1.08,24.49,-4.53,0.34,-12.86
344,-30,259,-37,-358,3902,6.97,-0.91,44.83,-0.37,-3.58,39.02,-6.21,1.09,24.31,-5.10,0.40,-11.68
369,-24,-2,-23,-352,3939,8.52,-0.96,40.34,-0.23,-3.52,39.39,-6.15,1.09,24.15,-5.65,0.31,-8.66
360,-17,-79,-41,-357,3944,9.87,-0.97,35.82,-0.41,-3.57,39.44,-6.10,1.10,24.01,-5.66,0.21,-7.19
314,9,-365,-70,-390,3954,10.79,-0.82,30.01,-0.70,-3.90,39.54,-6.03,1.10,23.89,-5.06,-0.21,-3.72
307,16,-451,-78,-424,3968,11.59,-0.64,24.26,-0.78,-4.24,39.68,-6.00,1.11,23.79,-5.04,-0.33,-1.95
281,32,-763,-204,-459,3979,12.14,-0.38,17.18,-2.04,-4.59,39.79,-5.96,1.14,23.72,-4.71,-0.61,1.96
266,37,-952,-213,-443,3992,12.55,-0.12,9.66,-2.13,-4.43,39.92,-5.91,1.16,23.69,-4.53,-0.71,4.92
223,29,-1368,-217,-380,3905,12.66,0.07,0.35,-2.17,-3.80,39.05,-5.86,1.18,23.68,-3.89,-0.61,10.11
203,17,-1481,-212,-299,3903,12.63,0.17,-8.72,-2.12,-2.99,39.03,-5.80,1.19,23.72,-3.59,-0.44,12.69
176,-36,-1865,-75,-167,3963,12.44,-0.07,-19.23,-0.75,-1.67,39.63,-5.73,1.18,23.79,-3.17,0.39,17.82
179,-47,-1964,-50,-180,3967,12.29,-0.35,-29.29,-0.50,-1.80,39.67,-5.66,1.16,23.91,-3.21,0.59,20.45
226,-66,-2243,60,-304,4019,12.44,-0.71,-40.04,0.60,-3.04,40.19,-5.61,1.13,24.07,-3.95,0.92,24.73
240,-66,-2295,109,-357,4045,12.66,-1.05,-50.03,1.09,-3.57,40.45,-5.56,1.09,24.27,-4.19,0.96,26.95
205,-65,-2369,120,-528,4010,12.64,-1.34,-59.48,1.20,-5.28,40.10,-5.52,1.05,24.50,-3.66,0.98,29.25
167,-70,-2352,96,-565,3988,12.40,-1.63,-67.88,0.96,-5.65,39.88,-5.49,1.00,24.77,-3.06,1.10,30.60
-32,-91,-2134,-67,-539,3997,10.96,-2.02,-74.11,-0.67,-5.39,39.97,-5.47,0.96,25.07,0.12,1.46,29.85
-136,-78,-1976,-140,-457,3985,9.04,-2.30,-78.75,-1.40,-4.57,39.85,-5.45,0.94,25.38,1.90,1.30,29.32
-256,23,-1649,-80,-335,4041,6.57,-1.93,-80.94,-0.80,-3.35,40.41,-5.41,0.90,25.70,3.98,-0.28,26.93
-264,53,-1570,-76,-325,4001,4.30,-1.41,-82.42,-0.76,-3.25,40.01,-5.38,0.87,26.03,4.33,-0.78,26.50
-260,99,-1325,-78,-247,3888,2.29,-0.67,-82.26,-0.78,-2.47,38.88,-5.36,0.84,26.36,4.48,-1.56,24.38
-249,90,-1258,-55,-238,3865,0.54,-0.05,-81.71,-0.55,-2.38,38.65,-5.34,0.81,26.68,4.49,-1.48,23.69
-184,25,-946,0,-145,3901,-0.64,0.11,-79.31,0.00,-1.45,39.01,-5.33,0.78,27.00,3.62,-0.50,20.60
-155,18,-850,24,-124,3913,-1.52,0.21,-76.56,0.24,-1.24,39.13,-5.33,0.74,27.30,3.27,-0.40,19.28
-47,14,-515,10,-191,3895,-1.65,0.27,-72.05,0.10,-1.91,38.95,-5.32,0.71,27.59,1.63,-0.34,15.61
-26,9,-434,-10,-208,3878,-1.65,0.30,-67.49,-0.10,-2.08,38.78,-5.31,0.68,27.86,1.31,-0.26,14.09
23,-30,-263,-75,-329,3910,-1.34,0.09,-62.35,-0.75,-3.29,39.10,-5.31,0.67,28.11,0.53,0.35,11.71
38,-56,-239,-141,-382,3896,-0.98,-0.26,-57.57,-1.41,-3.82,38.96,-5.32,0.67,28.34,0.27,0.79,10.64
91,-107,-264,-167,-442,3902,-0.32,-0.89,-53.42,-1.67,-4.42,39.02,-5.33,0.66,28.55,-0.61,1.63,10.09
114,-114,-280,-161,-445,3892,0.40,-1.50,-49.79,-1.61,-4.45,38.92,-5.34,0.65,28.75,-1.03,1.80,9.56
164,-71,-364,-152,-276,3958,1.36,-1.78,-47.03,-1.52,-2.76,39.58,-5.33,0.64,28.93,-1.90,1.18,9.77
162,-29,-391,-144,-258,3982,2.22,-1.78,-44.71,-1.44,-2.58,39.82,-5.31,0.63,29.11,-1.96,0.54,9.57
90,103,-537,-183,-305,3922,2.54,-0.97,-43.52,-1.83,-3.05,39.22,-5.29,0.63,29.28,-0.90,-1.56,10.59
70,125,-590,-177,-352,3915,2.72,-0.11,-42.76,-1.77,-3.52,39.15,-5.28,0.63,29.45,-0.61,-1.98,10.89
66,149,-735,-163,-438,3878,2.85,0.81,-42.97,-1.63,-4.38,38.78,-5.28,0.63,29.63,-0.56,-2.44,12.15
80,150,-755,-144,-431,3905,3.05,1.64,-43.28,-1.44,-4.31,39.05,-5.28,0.64,29.80,-0.80,-2.55,12.36
156,201,-728,0,-334,3952,3.70,2.70,-43.39,0.00,-3.34,39.52,-5.26,0.62,29.97,-2.03,-3.43,12.14
171,230,-674,50,-314,3929,4.37,3.84,-43.16,0.50,-3.14,39.29,-5.23,0.60,30.15,-2.33,-3.99,11.63
123,236,-560,61,-332,3880,4.68,4.89,-42.26,0.61,-3.32,38.80,-5.21,0.58,30.32,-1.63,-4.19,10.50
93,226,-529,63,-309,3876,4.78,5.78,-41.26,0.63,-3.09,38.76,-5.19,0.58,30.48,-1.19,-4.13,10.04
-53,212,-460,73,-289,3894,3.98,6.50,-39.94,0.73,-2.89,38.94,-5.16,0.57,30.64,1.12,-3.99,9.21
-90,222,-444,64,-305,3908,3.03,7.20,-38.66,0.64,-3.05,39.08,-5.14,0.57,30.80,1.78,-4.21,8.84
-181,242,-369,40,-436,3930,1.63,7.96,-37.04,0.40,-4.36,39.30,-5.15,0.58,30.95,3.31,-4.59,7.90
-194,237,-336,12,-471,3907,0.28,8.61,-35.39,0.12,-4.71,39.07,-5.17,0.59,31.10,3.65,-4.59,7.32
-205,190,-267,-114,-353,3892,-1.00,8.91,-33.48,-1.14,-3.53,38.92,-5.18,0.63,31.23,3.95,-3.91,6.38
-198,176,-285,-124,-308,3898,-2.11,9.09,-31.87,-1.24,-3.08,38.98,-5.18,0.67,31.36,3.96,-3.72,6.24
-115,142,-405,-149,-239,3850,-2.60,9.05,-31.15,-1.49,-2.39,38.50,-5.18,0.71,31.49,2.75,-3.20,7.12
-42,124,-441,-138,-241,3871,-2.59,8.90,-30.73,-1.38,-2.41,38.71,-5.17,0.75,31.61,1.63,-2.92,7.34
54,119,-387,-43,-304,3902,-2.00,8.73,-30.02,-0.43,-3.04,39.02,-5.17,0.77,31.74,0.11,-2.83,6.75
60,120,-360,-47,-313,3894,-1.44,8.59,-29.21,-0.47,-3.13,38.94,-5.15,0.79,31.86,-0.04,-2.83,6.37
52,107,-294,-42,-337,3905,-0.98,8.39,-28.08,-0.42,-3.37,39.05,-5.15,0.80,31.97,0.03,-2.61,5.60
51,100,-283,-48,-357,3891,-0.57,8.16,-27.00,-0.48,-3.57,38.91,-5.16,0.81,32.08,0.00,-2.48,5.31
57,79,-208,-68,-425,3887,-0.16,7.82,-25.57,-0.68,-4.25,38.87,-5.18,0.83,32.19,-0.13,-2.13,4.41
57,75,-173,-67,-428,3907,0.20,7.50,-24.07,-0.67,-4.28,39.07,-5.20,0.86,32.29,-0.16,-2.04,3.84
-1,79,-23,-80,-415,3937,0.17,7.23,-21.80,-0.80,-4.15,39.37,-5.22,0.89,32.38,0.73,-2.08,2.16
-31,85,14,-87,-388,3946,-0.03,7.03,-19.54,-0.87,-3.88,39.46,-5.23,0.92,32.46,1.21,-2.15,1.43
-118,104,75,-119,-305,3979,-0.75,6.96,-17.12,-1.19,-3.05,39.79,-5.22,0.95,32.53,2.61,-2.44,0.48
-125,105,72,-146,-312,3969,-1.44,6.90,-14.97,-1.46,-3.12,39.69,-5.22,0.99,32.59,2.79,-2.45,0.12
-80,85,42,-202,-325,3941,-1.78,6.73,-13.22,-2.02,-3.25,39.41,-5.22,1.03,32.64,2.14,-2.14,0.05
-63,76,27,-199,-317,3944,-1.99,6.52,-11.73,-1.99,-3.17,39.44,-5.23,1.07,32.69,1.90,-1.98,-0.09
-21,35,-20,-197,-346,3927,-1.92,6.08,-10.68,-1.97,-3.46,39.27,-5.23,1.11,32.74,1.25,-1.32,0.12
-14,24,-22,-177,-340,3939,-1.81,5.62,-9.75,-1.77,-3.40,39.39,-5.24,1.14,32.78,1.13,-1.11,-0.03
-17,18,30,-109,-283,4022,-1.73,5.17,-8.59,-1.09,-2.83,40.22,-5.23,1.17,32.81,1.17,-0.97,-0.68
-25,30,58,-98,-278,4033,-1.71,4.83,-7.38,-0.98,-2.78,40.33,-5.22,1.19,32.84,1.29,-1.12,-1.14
-92,93,136,-92,-303,3977,-2.10,4.92,-5.81,-0.92,-3.03,39.77,-5.21,1.21,32.87,2.35,-2.10,-2.08
-118,105,142,-85,-335,3949,-2.61,5.07,-4.36,-0.85,-3.35,39.49,-5.20,1.23,32.89,2.80,-2.30,-2.39
-185,109,124,-124,-451,3908,-3.48,5.23,-3.17,-1.24,-4.51,39.08,-5.23,1.25,32.90,3.91,-2.38,-2.46
-196,91,102,-171,-459,3897,-4.33,5.26,-2.23,-1.71,-4.59,38.97,-5.26,1.29,32.91,4.17,-2.11,-2.44
-161,58,75,-197,-413,3890,-4.88,5.09,-1.55,-1.97,-4.13,38.90,-5.29,1.32,32.92,3.70,-1.60,-2.33
-144,58,77,-174,-396,3872,-5.27,4.93,-0.93,-1.74,-3.96,38.72,-5.32,1.36,32.93,3.49,-1.59,-2.46
-82,87,90,-140,-405,3846,-5.24,4.97,-0.28,-1.40,-4.05,38.46,-5.35,1.39,32.93,2.54,-2.04,-2.69
-59,102,89,-162,-407,3838,-5.08,5.09,0.29,-1.62,-4.07,38.38,-5.39,1.43,32.93,2.18,-2.28,-2.78
-13,100,45,-230,-374,3767,-4.65,5.19,0.53,-2.30,-3.74,37.67,-5.41,1.47,32.93,1.44,-2.27,-2.45
-8,89,28,-241,-350,3757,-4.23,5.22,0.65,-2.41,-3.50,37.57,-5.42,1.50,32.93,1.32,-2.11,-2.33
-1,72,-17,-248,-339,3774,-3.81,5.14,0.48,-2.48,-3.39,37.74,-5.44,1.54,32.93,1.17,-1.85,-1.92
-3,75,-24,-238,-348,3786,-3.45,5.08,0.29,-2.38,-3.48,37.86,-5.45,1.58,32.93,1.17,-1.89,-1.82
-2,66,-6,-227,-437,3815,-3.12,4.97,0.22,-2.27,-4.37,38.15,-5.47,1.62,32.93,1.12,-1.75,-1.96
-7,49,24,-221,-452,3839,-2.85,4.78,0.35,-2.21,-4.52,38.39,-5.49,1.65,32.93,1.17,-1.47,-2.24
-28,20,86,-189,-432,3906,-2.74,4.42,0.84,-1.89,-4.32,39.06,-5.51,1.68,32.93,1.48,-1.00,-2.85
-34,17,97,-190,-416,3903,-2.67,4.08,1.34,-1.90,-4.16,39.03,-5.53,1.72,32.93,1.57,-0.92,-3.04
-42,25,96,-236,-346,3922,-2.66,3.83,1.80,-2.36,-3.46,39.22,-5.54,1.75,32.92,1.69,-1.02,-3.11
-40,25,83,-268,-324,3928,-2.64,3.60,2.12,-2.68,-3.24,39.28,-5.54,1.78,32.92,1.66,-1.00,-3.06
10,21,20,-280,-391,3938,-2.31,3.36,2.03,-2.80,-3.91,39.38,-5.55,1.82,32.91,0.86,-0.92,-2.51
27,18,7,-270,-431,3939,-1.92,3.14,1.87,-2.70,-4.31,39.39,-5.57,1.85,32.90,0.57,-0.86,-2.37
71,19,-11,-222,-502,3981,-1.29,2.94,1.62,-2.22,-5.02,39.81,-5.58,1.87,32.90,-0.17,-0.86,-2.17
70,19,-8,-217,-505,3980,-0.74,2.76,1.41,-2.17,-5.05,39.80,-5.60,1.89,32.89,-0.21,-0.84,-2.16
20,14,10,-187,-493,3990,-0.54,2.57,1.33,-1.87,-4.93,39.90,-5.62,1.91,32.89,0.54,-0.75,-2.30
-13,17,25,-185,-473,3982,-0.57,2.42,1.35,-1.85,-4.73,39.82,-5.64,1.93,32.89,1.05,-0.78,-2.43
-60,30,54,-202,-429,3950,-0.87,2.36,1.54,-2.02,-4.29,39.50,-5.65,1.96,32.88,1.80,-0.98,-2.71
-68,32,61,-226,-401,3931,-1.20,2.32,1.76,-2.26,-4.01,39.31,-5.66,1.99,32.88,1.95,-1.01,-2.80
-73,38,46,-259,-297,3882,-1.53,2.32,1.86,-2.59,-2.97,38.82,-5.65,2.01,32.87,2.06,-1.10,-2.70
-67,43,25,-256,-300,3875,-1.78,2.35,1.83,-2.56,-3.00,38.75,-5.65,2.04,32.86,2.00,-1.18,-2.51
-16,55,-45,-202,-355,3842,-1.70,2.45,1.37,-2.02,-3.55,38.42,-5.65,2.06,32.86,1.21,-1.38,-1.84
1,58,-52,-182,-368,3837,-1.53,2.56,0.92,-1.82,-3.68,38.37,-5.65,2.09,32.85,0.93,-1.44,-1.70
29,57,-38,-163,-393,3840,-1.20,2.65,0.59,-1.63,-3.93,38.40,-5.66,2.12,32.85,0.47,-1.44,-1.76
27,55,-29,-155,-398,3854,-0.91,2.72,0.36,-1.55,-3.98,38.54,-5.68,2.14,32.85,0.48,-1.42,-1.79
3,58,-2,-169,-442,3876,-0.80,2.80,0.31,-1.69,-4.42,38.76,-5.70,2.16,32.85,0.84,-1.48,-2.01
-8,60,12,-195,-453,3883,-0.77,2.89,0.35,-1.95,-4.53,38.83,-5.72,2.18,32.85,1.00,-1.52,-2.14
-13,48,36,-232,-418,3897,-0.77,2.89,0.54,-2.32,-4.18,38.97,-5.73,2.21,32.85,1.08,-1.34,-2.37
-12,43,36,-233,-405,3901,-0.77,2.87,0.70,-2.33,-4.05,39.01,-5.74,2.24,32.85,1.07,-1.27,-2.40
-5,23,18,-211,-403,3901,-0.72,2.72,0.74,-2.11,-4.03,39.01,-5.74,2.27,32.85,0.95,-0.95,-2.26
0,20,14,-211,-403,3905,-0.65,2.57,0.75,-2.11,-4.03,39.05,-5.75,2.30,32.85,0.87,-0.89,-2.22
117,-42,10,-261,-460,3986,0.13,2.06,0.74,-2.61,-4.60,39.86,-5.76,2.32,32.85,-0.99,0.10,-2.19
208,-93,4,-255,-455,3748,1.38,1.28,0.69,-2.55,-4.55,37.48,-5.76,2.34,32.85,-2.51,0.96,-2.13
290,-151,-16,-298,-351,3949,3.01,0.23,0.52,-2.98,-3.51,39.49,-5.74,2.36,32.84,-3.93,1.95,-1.93
271,-149,-19,-301,-362,3993,4.37,-0.70,0.35,-3.01,-3.62,39.93,-5.72,2.37,32.84,-3.78,2.01,-1.87
283,-178,-16,-305,-416,3885,5.66,-1.71,0.22,-3.05,-4.16,38.85,-5.70,2.39,32.84,-4.10,2.56,-1.87
236,-193,-27,-286,-424,3923,6.53,-2.72,0.03,-2.86,-4.24,39.23,-5.68,2.39,32.84,-3.48,2.89,-1.75
252,-189,-39,-173,-439,3960,7.41,-3.60,-0.21,-1.73,-4.39,39.60,-5.67,2.38,32.84,-3.82,2.92,-1.60
237,-185,-40,-149,-406,3981,8.12,-4.37,-0.43,-1.49,-4.06,39.81,-5.65,2.35,32.84,-3.66,2.94,-1.55
139,-97,5,-140,-306,4063,8.15,-4.52,-0.36,-1.40,-3.06,40.63,-5.60,2.32,32.84,-2.18,1.62,-1.95
104,-66,14,-147,-266,4018,7.97,-4.47,-0.24,-1.47,-2.66,40.18,-5.55,2.30,32.84,-1.63,1.15,-2.05
163,-112,2,-255,-321,3875,8.17,-4.71,-0.20,-2.55,-3.21,38.75,-5.50,2.30,32.84,-2.56,1.87,-1.95
190,-120,1,-231,-280,3906,8.51,-4.97,-0.17,-2.31,-2.80,39.06,-5.45,2.29,32.83,-3.01,2.02,-1.95
164,-107,-13,-235,-243,3936,8.66,-5.13,-0.24,-2.35,-2.43,39.36,-5.40,2.28,32.83,-2.64,1.84,-1.82
171,-104,-12,-221,-227,3930,8.84,-5.25,-0.29,-2.21,-2.27,39.30,-5.35,2.27,32.83,-2.77,1.81,-1.82
62,-128,-11,-154,-324,4084,8.33,-5.50,-0.32,-1.54,-3.24,40.84,-5.30,2.24,32.83,-1.07,2.21,-1.82
21,-121,-4,-86,-397,4015,7.63,-5.69,-0.32,-0.86,-3.97,40.15,-5.28,2.20,32.83,-0.37,2.13,-1.88
8,-103,-15,-126,-441,4010,6.91,-5.75,-0.38,-1.26,-4.41,40.10,-5.27,2.17,32.83,-0.10,1.86,-1.78
6,-94,-20,-128,-428,4000,6.26,-5.75,-0.46,-1.28,-4.28,40.00,-5.26,2.14,32.83,-0.00,1.73,-1.72
36,-82,-14,-154,-413,3919,5.85,-5.67,-0.50,-1.54,-4.13,39.19,-5.25,2.12,32.83,-0.42,1.54,-1.76
68,-90,-3,-181,-386,3892,5.68,-5.66,-0.47,-1.81,-3.86,38.92,-5.24,2.11,32.83,-0.89,1.66,-1.86
10,-73,8,-261,-357,3913,5.17,-5.54,-0.37,-2.61,-3.57,39.13,-5.22,2.11,32.83,0.04,1.39,-1.97
9,-65,21,-246,-374,3926,4.71,-5.38,-0.21,-2.46,-3.74,39.26,-5.20,2.11,32.83,0.10,1.25,-2.11
45,-51,29,-234,-313,3958,4.52,-5.15,-0.01,-2.34,-3.13,39.58,-5.18,2.10,32.83,-0.43,1.02,-2.21
39,-37,26,-215,-290,3902,4.30,-4.86,0.15,-2.15,-2.90,39.02,-5.15,2.10,32.82,-0.32,0.77,-2.22
23,-13,53,-368,-21,3932,4.01,-4.46,0.46,-3.68,-0.21,39.32,-5.12,2.09,32.82,-0.05,0.37,-2.50
24,5,109,-358,-34,3954,3.76,-3.98,1.08,-3.58,-0.34,39.54,-5.09,2.08,32.81,-0.04,0.04,-3.09
6,16,162,-247,-398,3836,3.42,-3.48,1.96,-2.47,-3.98,38.36,-5.08,2.09,32.80,0.27,-0.18,-3.69
10,1,166,-201,-470,3783,3.14,-3.13,2.77,-2.01,-4.70,37.83,-5.08,2.08,32.79,0.23,0.02,-3.87
-7,-40,129,-30,-423,3796,2.78,-3.06,3.28,-0.30,-4.23,37.96,-5.08,2.06,32.78,0.53,0.64,-3.65
-11,-47,114,-9,-347,3864,2.44,-3.04,3.65,-0.09,-3.47,38.64,-5.07,2.03,32.76,0.63,0.75,-3.59
-4,-71,74,56,-258,3896,2.17,-3.17,3.74,0.56,-2.58,38.96,-5.06,2.00,32.75,0.54,1.13,-3.26
-3,-77,65,52,-234,3895,1.93,-3.32,3.76,0.52,-2.34,38.95,-5.04,1.97,32.73,0.55,1.24,-3.19
-8,-102,41,20,-210,3859,1.69,-3.61,3.63,0.20,-2.10,38.59,-5.02,1.95,32.71,0.65,1.66,-2.96
-8,-105,33,-6,-203,3868,1.47,-3.89,3.47,-0.06,-2.03,38.68,-5.00,1.92,32.70,0.67,1.74,-2.86
-5,-109,15,-116,-142,3883,1.29,-4.17,3.22,-1.16,-1.42,38.83,-4.98,1.90,32.68,0.64,1.83,-2.66
-3,-108,8,-180,-145,3877,1.15,-4.41,2.94,-1.80,-1.45,38.77,-4.95,1.89,32.67,0.62,1.84,-2.56
-2,-102,10,-139,-258,3936,1.02,-4.59,2.71,-1.39,-2.58,39.36,-4.93,1.88,32.66,0.62,1.77,-2.53
-2,-103,6,-123,-254,3958,0.91,-4.76,2.48,-1.23,-2.54,39.58,-4.91,1.86,32.64,0.62,1.80,-2.45
0,-83,-22,-91,-290,3966,0.82,-4.79,2.09,-0.91,-2.90,39.66,-4.89,1.83,32.63,0.60,1.51,-2.15
3,-75,-28,-79,-324,3969,0.75,-4.77,1.71,-0.79,-3.24,39.69,-4.88,1.79,32.63,0.56,1.39,-2.03
-4,-40,-24,-54,-374,3978,0.65,-4.54,1.40,-0.54,-3.74,39.78,-4.89,1.76,32.62,0.68,0.83,-2.00
-5,-32,-20,-44,-380,3958,0.56,-4.28,1.13,-0.44,-3.80,39.58,-4.89,1.72,32.61,0.70,0.69,-1.99
-4,-18,-12,-87,-309,3903,0.48,-3.96,0.95,-0.87,-3.09,39.03,-4.88,1.69,32.61,0.69,0.45,-2.02
-1,-15,-11,-86,-295,3896,0.42,-3.66,0.79,-0.86,-2.95,38.96,-4.86,1.67,32.60,0.65,0.37,-2.00
-1,-12,-20,-79,-277,3879,0.37,-3.36,0.59,-0.79,-2.77,38.79,-4.85,1.65,32.60,0.65,0.30,-1.89
-1,-16,-30,-94,-288,3875,0.33,-3.12,0.34,-0.94,-2.88,38.75,-4.83,1.63,32.60,0.66,0.34,-1.76
0,-37,-55,-148,-244,3839,0.30,-3.04,-0.03,-1.48,-2.44,38.39,-4.81,1.62,32.59,0.64,0.65,-1.49
3,-49,-66,-159,-251,3835,0.29,-3.03,-0.43,-1.59,-2.51,38.35,-4.79,1.62,32.59,0.60,0.83,-1.32
-3,-82,-77,-62,-310,3880,0.24,-3.23,-0.85,-0.62,-3.10,38.80,-4.79,1.59,32.60,0.69,1.36,-1.15
-4,-89,-66,-44,-307,3882,0.19,-3.45,-1.17,-0.44,-3.07,38.82,-4.78,1.56,32.60,0.71,1.50,-1.19
-5,-90,-36,-39,-318,3934,0.14,-3.65,-1.27,-0.39,-3.18,39.34,-4.78,1.52,32.60,0.73,1.54,-1.42
-3,-87,-30,-38,-317,3923,0.11,-3.82,-1.33,-0.38,-3.17,39.23,-4.78,1.49,32.61,0.70,1.51,-1.46
-9,-85,-31,-21,-327,3895,0.04,-3.96,-1.38,-0.21,-3.27,38.95,-4.78,1.46,32.61,0.80,1.50,-1.45
-10,-86,-34,-27,-321,3908,-0.02,-4.08,-1.45,-0.27,-3.21,39.08,-4.77,1.42,32.62,0.82,1.54,-1.41
-12,-53,57,7,474,4063,-0.09,-4.00,-0.96,0.07,4.74,40.63,-4.76,1.40,32.62,0.86,1.03,-2.27
5,-41,260,-199,435,4074,-0.05,-3.85,0.72,-1.99,4.35,40.74,-4.74,1.39,32.61,0.59,0.83,-4.29
-20,-14,31,-44,-867,3762,-0.17,-3.55,0.84,-0.44,-8.67,37.62,-4.76,1.37,32.61,0.99,0.39,-2.37
-40,-14,40,61,-528,3748,-0.40,-3.28,1.00,0.61,-5.28,37.48,-4.77,1.35,32.61,1.32,0.36,-2.47
-71,-14,21,-47,-325,4001,-0.79,-3.04,1.03,-0.47,-3.25,40.01,-4.77,1.32,32.60,1.83,0.34,-2.32
-51,-12,6,-55,-399,3999,-1.02,-2.81,0.96,-0.55,-3.99,39.99,-4.79,1.30,32.60,1.55,0.29,-2.18
-20,-19,-63,-66,-372,3912,-1.04,-2.64,0.48,-0.66,-3.72,39.12,-4.81,1.28,32.59,1.09,0.38,-1.51
-12,-27,-69,-23,-280,3888,-1.01,-2.54,0.01,-0.23,-2.80,38.88,-4.81,1.26,32.59,0.96,0.50,-1.37
-13,-37,-18,-18,-286,3966,-0.99,-2.51,-0.10,-0.18,-2.86,39.66,-4.80,1.23,32.59,0.97,0.65,-1.79
-12,-27,-14,-21,-273,3928,-0.96,-2.43,-0.18,-0.21,-2.73,39.28,-4.79,1.21,32.59,0.95,0.49,-1.81
-7,-10,-11,-72,-288,3901,-0.91,-2.25,-0.22,-0.72,-2.88,39.01,-4.78,1.19,32.59,0.87,0.22,-1.82
-9,-9,-19,-94,-292,3886,-0.87,-2.08,-0.32,-0.94,-2.92,38.86,-4.76,1.19,32.59,0.89,0.19,-1.74
-8,-15,-168,-219,-203,3922,-0.84,-1.96,-1.31,-2.19,-2.03,39.22,-4.76,1.20,32.60,0.87,0.26,-0.30
-5,-9,-195,-44,-269,3934,-0.78,-1.82,-2.37,-0.44,-2.69,39.34,-4.74,1.18,32.60,0.82,0.16,0.12
4,-7,-133,-101,-322,3927,-0.68,-1.68,-2.94,-1.01,-3.22,39.27,-4.74,1.19,32.62,0.67,0.11,-0.30
1,-3,-136,-123,-305,3934,-0.61,-1.53,-3.48,-1.23,-3.05,39.34,-4.74,1.20,32.63,0.71,0.04,-0.18
4,-4,-102,-95,-398,3911,-0.52,-1.40,-3.75,-0.95,-3.98,39.11,-4.76,1.20,32.64,0.66,0.04,-0.42
2,-2,-95,-97,-401,3888,-0.46,-1.27,-3.96,-0.97,-4.01,38.88,-4.78,1.19,32.66,0.69,-0.00,-0.45
0,-5,-81,-149,-358,3884,-0.41,-1.18,-4.06,-1.49,-3.58,38.84,-4.79,1.20,32.67,0.71,0.03,-0.55
-3,-5,-84,-136,-361,3920,-0.39,-1.09,-4.16,-1.36,-3.61,39.20,-4.80,1.21,32.69,0.76,0.02,-0.50
-4,1,-73,-20,-325,3889,-0.37,-0.97,-4.19,-0.20,-3.25,38.89,-4.80,1.19,32.71,0.77,-0.08,-0.59
-2,1,-52,-17,-340,3921,-0.35,-0.87,-4.09,-0.17,-3.40,39.21,-4.81,1.17,32.72,0.74,-0.09,-0.79
1,3,-7,90,-277,3901,-0.31,-0.77,-3.72,0.90,-2.77,39.01,-4.80,1.15,32.74,0.69,-0.13,-1.24
0,3,6,116,-255,3896,-0.28,-0.67,-3.31,1.16,-2.55,38.96,-4.80,1.12,32.75,0.70,-0.13,-1.42
1,-6,1,44,-225,3896,-0.24,-0.64,-2.98,0.44,-2.25,38.96,-4.79,1.11,32.76,0.68,0.00,-1.44
2,-5,-3,-16,-279,3893,-0.21,-0.61,-2.70,-0.16,-2.79,38.93,-4.78,1.09,32.77,0.66,-0.01,-1.46
1,2,-8,-46,-309,3916,-0.18,-0.53,-2.48,-0.46,-3.09,39.16,-4.77,1.07,32.78,0.67,-0.13,-1.46
0,3,-7,-41,-307,3912,-0.16,-0.46,-2.27,-0.41,-3.07,39.12,-4.76,1.05,32.79,0.68,-0.15,-1.50
-1,3,-3,-68,-311,3893,-0.15,-0.40,-2.06,-0.68,-3.11,38.93,-4.74,1.04,32.80,0.69,-0.15,-1.57
-3,2,-3,-68,-325,3915,-0.15,-0.35,-1.87,-0.68,-3.25,39.15,-4.74,1.02,32.81,0.73,-0.14,-1.61
-6,-4,1,-40,-310,3904,-0.18,-0.34,-1.68,-0.40,-3.10,39.04,-4.74,1.01,32.81,0.77,-0.05,-1.68
-6,-5,-1,-54,-313,3919,-0.19,-0.33,-1.52,-0.54,-3.13,39.19,-4.73,0.99,32.82,0.77,-0.03,-1.69
-8,-4,2,-60,-364,3865,-0.22,-0.32,-1.36,-0.60,-3.64,38.65,-4.75,0.99,32.82,0.81,-0.04,-1.74
-11,-2,5,-58,-346,3880,-0.27,-0.30,-1.19,-0.58,-3.46,38.80,-4.76,0.98,32.83,0.86,-0.07,-1.80
-9,-5,8,-93,-364,3896,-0.30,-0.30,-1.02,-0.93,-3.64,38.96,-4.78,0.99,32.83,0.84,-0.03,-1.85
-9,-6,12,-88,-335,3910,-0.32,-0.31,-0.85,-0.88,-3.35,39.10,-4.79,1.00,32.84,0.84,-0.02,-1.92
-12,-2,29,-96,-340,3900,-0.36,-0.29,-0.58,-0.96,-3.40,39.00,-4.80,1.02,32.84,0.89,-0.08,-2.11
-9,-3,14,-107,-364,3906,-0.38,-0.28,-0.44,-1.07,-3.64,39.06,-4.81,1.03,32.84,0.85,-0.07,-2.01
-7,-4,17,-50,-293,3923,-0.39,-0.28,-0.29,-0.50,-2.93,39.23,-4.80,1.02,32.84,0.82,-0.05,-2.06
-5,-5,21,-49,-304,3938,-0.38,-0.28,-0.14,-0.49,-3.04,39.38,-4.78,1.01,32.84,0.79,-0.04,-2.12
-6,-6,-2,-45,-303,3923,-0.38,-0.29,-0.13,-0.45,-3.03,39.23,-4.77,0.99,32.84,0.80,-0.02,-1.93
-13,-11,-4,-50,-312,3926,-0.42,-0.33,-0.15,-0.50,-3.12,39.26,-4.76,0.98,32.84,0.91,0.06,-1.91
-13,-8,14,-105,-370,3923,-0.46,-0.34,-0.05,-1.05,-3.70,39.23,-4.78,0.99,32.84,0.91,0.02,-2.08
-9,-5,16,-109,-367,3911,-0.47,-0.34,0.06,-1.09,-3.67,39.11,-4.79,1.00,32.84,0.86,-0.03,-2.12
-5,4,22,-87,-333,3913,-0.45,-0.28,0.19,-0.87,-3.33,39.13,-4.80,1.02,32.84,0.79,-0.17,-2.19
1,6,30,-79,-342,3891,-0.40,-0.22,0.35,-0.79,-3.42,38.91,-4.82,1.02,32.84,0.70,-0.21,-2.29
3,6,29,-31,-226,3888,-0.34,-0.16,0.49,-0.31,-2.26,38.88,-4.80,1.02,32.84,0.66,-0.22,-2.30
-4,5,31,-39,-223,3904,-0.33,-0.11,0.63,-0.39,-2.23,39.04,-4.78,1.01,32.84,0.77,-0.21,-2.35
-5,-3,21,50,-239,3908,-0.33,-0.12,0.70,0.50,-2.39,39.08,-4.77,1.00,32.83,0.78,-0.08,-2.27
-7,-6,16,49,-223,3925,-0.34,-0.14,0.72,0.49,-2.23,39.25,-4.76,0.98,32.83,0.81,-0.03,-2.24
-3,-4,4,18,-265,3924,-0.32,-0.15,0.68,0.18,-2.65,39.24,-4.75,0.97,32.83,0.74,-0.06,-2.12
-1,-2,-3,-35,-287,3930,-0.30,-0.15,0.59,-0.35,-2.87,39.30,-4.74,0.96,32.82,0.71,-0.09,-2.05
1,1,-4,-54,-307,3923,-0.26,-0.13,0.51,-0.54,-3.07,39.23,-4.73,0.95,32.82,0.67,-0.13,-2.03
3,3,-3,-52,-313,3928,-0.22,-0.10,0.44,-0.52,-3.13,39.28,-4.72,0.93,32.82,0.64,-0.17,-2.02
-2,-3,0,-40,-318,3919,-0.21,-0.11,0.39,-0.40,-3.18,39.19,-4.71,0.91,32.82,0.71,-0.07,-2.04
-2,-4,1,-26,-340,3900,-0.20,-0.12,0.36,-0.26,-3.40,39.00,-4.72,0.90,32.82,0.71,-0.05,-2.04
-16,-18,7,-50,-317,3929,-0.28,-0.22,0.37,-0.50,-3.17,39.29,-4.71,0.88,32.81,0.93,0.17,-2.09
-13,-24,6,-78,-352,3982,-0.33,-0.34,0.37,-0.78,-3.52,39.82,-4.73,0.89,32.81,0.89,0.28,-2.09
-19,-22,45,-54,-358,3936,-0.41,-0.44,0.61,-0.54,-3.58,39.36,-4.75,0.89,32.81,1.00,0.26,-2.46
-16,-24,55,-81,-382,3902,-0.47,-0.54,0.88,-0.81,-3.82,39.02,-4.77,0.89,32.81,0.96,0.30,-2.59
18,15,60,-124,-312,3933,-0.31,-0.40,1.16,-1.24,-3.12,39.33,-4.76,0.91,32.80,0.42,-0.31,-2.68
0,-5,81,-307,-372,3840,-0.28,-0.39,1.54,-3.07,-3.72,38.40,-4.77,0.92,32.80,0.70,-0.01,-2.93
-12,-11,111,-231,-509,3897,-0.32,-0.42,2.06,-2.31,-5.09,38.97,-4.78,0.93,32.79,0.89,0.08,-3.28
-3,-3,112,-218,-533,3835,-0.31,-0.39,2.54,-2.18,-5.33,38.35,-4.80,0.94,32.78,0.75,-0.05,-3.37
-14,2,123,-106,-480,3850,-0.37,-0.34,3.03,-1.06,-4.80,38.50,-4.82,0.95,32.77,0.93,-0.13,-3.55
-8,1,133,-27,-449,3857,-0.38,-0.30,3.54,-0.27,-4.49,38.57,-4.84,0.94,32.75,0.84,-0.12,-3.73
-20,-9,176,137,-265,3987,-0.46,-0.33,4.26,1.37,-2.65,39.87,-4.83,0.93,32.74,1.03,0.04,-4.22
-27,-11,172,134,-252,3905,-0.58,-0.36,4.88,1.34,-2.52,39.05,-4.83,0.91,32.72,1.15,0.08,-4.29
-30,-15,138,123,-141,3887,-0.71,-0.42,5.24,1.23,-1.41,38.87,-4.82,0.90,32.69,1.20,0.15,-4.07
-32,-16,131,104,-228,3917,-0.83,-0.47,5.51,1.04,-2.28,39.17,-4.81,0.88,32.67,1.25,0.17,-4.06
-38,-23,115,31,-287,3889,-0.98,-0.57,5.66,0.31,-2.87,38.89,-4.81,0.86,32.65,1.35,0.29,-3.95
-43,-27,148,41,-418,3903,-1.14,-0.67,6.00,0.41,-4.18,39.03,-4.82,0.85,32.63,1.45,0.36,-4.29
-56,-39,158,-64,-217,4015,-1.37,-0.84,6.36,-0.64,-2.17,40.15,-4.81,0.85,32.60,1.67,0.56,-4.43
-46,-34,136,-38,-265,3880,-1.51,-0.97,6.56,-0.38,-2.65,38.80,-4.80,0.84,32.57,1.53,0.50,-4.28
-25,-19,161,76,-361,4045,-1.52,-0.99,6.88,0.76,-3.61,40.45,-4.81,0.82,32.55,1.21,0.28,-4.55
-24,-14,172,136,-376,3904,-1.51,-0.97,7.24,1.36,-3.76,39.04,-4.82,0.80,32.52,1.20,0.20,-4.71
-13,-3,265,99,-376,3885,-1.44,-0.89,8.14,0.99,-3.76,38.85,-4.83,0.78,32.48,1.02,0.03,-5.65
-13,-23,287,26,-186,3822,-1.37,-0.95,9.07,0.26,-1.86,38.22,-4.82,0.77,32.45,1.01,0.34,-6.00
-3,-6,356,145,-509,3923,-1.25,-0.89,10.34,1.45,-5.09,39.23,-4.83,0.76,32.41,0.85,0.08,-6.81
-18,0,365,71,-432,3957,-1.24,-0.80,11.53,0.71,-4.32,39.57,-4.85,0.75,32.36,1.08,-0.02,-7.10
-8,-2,421,62,-395,3951,-1.16,-0.73,12.95,0.62,-3.95,39.51,-4.86,0.73,32.31,0.92,0.00,-7.82
2,-15,407,2,-347,3912,-1.04,-0.75,14.13,0.02,-3.47,39.12,-4.87,0.72,32.25,0.76,0.21,-7.91
6,27,480,-100,-257,4017,-0.90,-0.51,15.65,-1.00,-2.57,40.17,-4.86,0.73,32.19,0.68,-0.46,-8.80
1,2,497,-127,-296,3918,-0.80,-0.45,17.12,-1.27,-2.96,39.18,-4.85,0.75,32.12,0.75,-0.09,-9.20
2,-8,531,-173,-377,3958,-0.71,-0.45,18.64,-1.73,-3.77,39.58,-4.86,0.77,32.05,0.72,0.06,-9.76
-1,15,523,-120,-324,3861,-0.64,-0.31,19.97,-1.20,-3.24,38.61,-4.86,0.80,31.97,0.76,-0.31,-9.93
-4,11,494,-82,-298,3972,-0.60,-0.22,20.99,-0.82,-2.98,39.72,-4.85,0.81,31.88,0.80,-0.26,-9.86
-4,24,512,-191,-284,3859,-0.57,-0.05,22.01,-1.91,-2.84,38.59,-4.84,0.84,31.79,0.80,-0.48,-10.19
0,-2,553,-170,-384,3919,-0.51,-0.06,23.18,-1.70,-3.84,39.19,-4.85,0.86,31.70,0.73,-0.08,-10.74
-19,-5,604,-187,-248,3917,-0.58,-0.08,24.55,-1.87,-2.48,39.17,-4.84,0.88,31.60,1.03,-0.04,-11.41
-13,-10,751,-163,-414,3818,-0.60,-0.13,26.67,-1.63,-4.14,38.18,-4.85,0.91,31.50,0.94,0.04,-13.03
-15,-8,771,-10,-445,3939,-0.63,-0.17,28.71,-0.10,-4.45,39.39,-4.87,0.91,31.38,0.98,0.01,-13.56
-25,3,775,-116,-339,3833,-0.72,-0.13,30.57,-1.16,-3.39,38.33,-4.87,0.94,31.26,1.14,-0.16,-13.92
-13,11,770,-128,-290,3963,-0.73,-0.05,32.21,-1.28,-2.90,39.63,-4.86,0.96,31.13,0.95,-0.30,-14.16
-7,9,706,-72,-334,3913,-0.70,0.01,33.29,-0.72,-3.34,39.13,-4.87,0.99,31.00,0.86,-0.28,-13.80
-11,19,671,-56,-299,3867,-0.69,0.12,34.06,-0.56,-2.99,38.67,-4.85,1.00,30.86,0.92,-0.44,-13.64
-8,11,520,-67,-183,3919,-0.67,0.18,33.82,-0.67,-1.83,39.19,-4.83,1.01,30.73,0.87,-0.33,-12.31
-2,10,471,-9,-158,3963,-0.62,0.22,33.31,-0.09,-1.58,39.63,-4.82,1.01,30.60,0.77,-0.32,-11.79
-8,-1,275,-58,-98,3882,-0.60,0.19,31.66,-0.58,-0.98,38.82,-4.80,1.02,30.47,0.86,-0.15,-9.83
-4,-2,215,-42,-150,3886,-0.57,0.16,29.81,-0.42,-1.50,38.86,-4.78,1.03,30.35,0.79,-0.13,-8.98
2,0,104,-30,-333,3935,-0.50,0.14,27.46,-0.30,-3.33,39.35,-4.78,1.02,30.24,0.69,-0.16,-7.61
6,2,85,-26,-329,3908,-0.41,0.14,25.23,-0.26,-3.29,39.08,-4.78,1.01,30.14,0.62,-0.19,-7.05
2,3,26,-94,-287,3894,-0.36,0.15,22.87,-0.94,-2.87,38.94,-4.77,1.03,30.05,0.67,-0.21,-6.12
1,0,14,-93,-288,3892,-0.32,0.13,20.67,-0.93,-2.88,38.92,-4.75,1.05,29.97,0.68,-0.16,-5.62
1,0,2,-92,-265,3913,-0.28,0.12,18.61,-0.92,-2.65,39.13,-4.73,1.06,29.89,0.68,-0.16,-5.14
2,1,1,-79,-301,3912,-0.24,0.11,16.76,-0.79,-3.01,39.12,-4.72,1.07,29.82,0.65,-0.18,-4.80
1,2,0,-50,-320,3921,-0.21,0.11,15.08,-0.50,-3.20,39.21,-4.71,1.06,29.76,0.67,-0.19,-4.49
1,4,0,-47,-318,3918,-0.18,0.13,13.57,-0.47,-3.18,39.18,-4.71,1.05,29.71,0.66,-0.22,-4.21
2,3,1,-35,-333,3910,-0.15,0.13,12.22,-0.35,-3.33,39.10,-4.71,1.03,29.66,0.65,-0.20,-3.98
1,0,2,-33,-347,3909,-0.13,0.12,11.01,-0.33,-3.47,39.09,-4.72,1.02,29.62,0.66,-0.16,-3.77
-4,-14,7,-31,-335,3921,-0.14,0.02,9.95,-0.31,-3.35,39.21,-4.73,1.01,29.58,0.74,0.07,-3.62
-3,-15,8,-26,-355,3936,-0.15,-0.07,9.01,-0.26,-3.55,39.36,-4.74,1.00,29.54,0.72,0.10,-3.45
-13,-17,68,22,-408,3888,-0.21,-0.17,8.52,0.22,-4.08,38.88,-4.75,0.98,29.51,0.89,0.14,-3.87
-6,-13,96,-24,-463,3830,-0.23,-0.23,8.25,-0.24,-4.63,38.30,-4.77,0.98,29.48,0.78,0.08,-4.06
-5,-14,201,40,-443,3919,-0.23,-0.29,8.65,0.40,-4.43,39.19,-4.78,0.97,29.44,0.77,0.11,-5.02
-3,-3,224,73,-426,3951,-0.23,-0.28,9.16,0.73,-4.26,39.51,-4.79,0.96,29.41,0.74,-0.06,-5.30
-4,-79,327,45,-419,3815,-0.23,-0.74,10.23,0.45,-4.19,38.15,-4.81,0.94,29.36,0.76,1.15,-6.37
-10,-69,382,12,-475,3837,-0.27,-1.08,11.54,0.12,-4.75,38.37,-4.82,0.94,29.32,0.86,1.03,-7.06
-21,-22,603,3,-536,3897,-0.37,-1.11,14.07,0.03,-5.36,38.97,-4.84,0.93,29.26,1.04,0.32,-9.38
-15,-21,672,-6,-523,3886,-0.42,-1.13,16.76,-0.06,-5.23,38.86,-4.86,0.93,29.20,0.95,0.31,-10.45
-17,-1,932,-79,-448,3867,-0.49,-1.02,20.77,-0.79,-4.48,38.67,-4.88,0.93,29.11,0.99,-0.01,-13.36
-18,14,1042,-91,-395,3882,-0.55,-0.83,25.05,-0.91,-3.95,38.82,-4.90,0.94,29.01,1.02,-0.26,-15.06
-16,8,1070,-41,-220,3899,-0.59,-0.70,29.07,-0.41,-2.20,38.99,-4.88,0.95,28.90,0.99,-0.18,-16.01
-24,3,1025,-35,-229,3940,-0.68,-0.61,32.42,-0.35,-2.29,39.40,-4.86,0.95,28.77,1.12,-0.12,-16.22
-6,-9,776,70,-221,3910,-0.65,-0.61,33.91,0.70,-2.21,39.10,-4.85,0.95,28.63,0.84,0.07,-14.37
-4,-18,692,85,-210,3916,-0.61,-0.65,34.74,0.85,-2.10,39.16,-4.84,0.94,28.49,0.80,0.21,-13.79
4,-18,420,-7,-206,3879,-0.52,-0.70,33.83,-0.07,-2.06,38.79,-4.82,0.94,28.36,0.67,0.21,-11.32
-2,-9,364,-81,-224,3861,-0.48,-0.68,32.66,-0.81,-2.24,38.61,-4.80,0.95,28.23,0.75,0.07,-10.63
-5,18,227,-154,-191,3861,-0.46,-0.51,30.78,-1.54,-1.91,38.61,-4.79,0.97,28.10,0.79,-0.36,-9.12
-4,24,194,-136,-216,3894,-0.44,-0.31,28.89,-1.36,-2.16,38.94,-4.77,0.99,27.99,0.77,-0.47,-8.50
-10,37,96,-119,-217,3886,-0.46,-0.05,26.58,-1.19,-2.17,38.86,-4.76,1.01,27.88,0.87,-0.70,-7.25
-12,40,64,-96,-265,3907,-0.49,0.20,24.32,-0.96,-2.65,39.07,-4.74,1.02,27.78,0.90,-0.77,-6.56
0,17,27,-49,-329,3949,-0.44,0.28,22.05,-0.49,-3.29,39.49,-4.74,1.01,27.70,0.71,-0.43,-5.84
3,14,24,-27,-357,3931,-0.38,0.34,19.99,-0.27,-3.57,39.31,-4.75,1.01,27.62,0.66,-0.39,-5.44
3,9,42,23,-397,3919,-0.32,0.36,18.25,0.23,-3.97,39.19,-4.76,1.00,27.54,0.65,-0.31,-5.28
3,9,50,6,-416,3910,-0.27,0.38,16.73,0.06,-4.16,39.10,-4.78,0.99,27.48,0.65,-0.32,-5.07
4,5,31,25,-437,3914,-0.22,0.37,15.24,0.25,-4.37,39.14,-4.79,0.99,27.42,0.63,-0.25,-4.64
-5,2,38,4,-393,3909,-0.23,0.35,13.95,0.04,-3.93,39.09,-4.80,0.98,27.36,0.77,-0.20,-4.46
-2,2,50,-30,-317,3911,-0.22,0.32,12.86,-0.30,-3.17,39.11,-4.80,0.97,27.31,0.72,-0.20,-4.37
0,4,57,-42,-283,3907,-0.19,0.32,11.92,-0.42,-2.83,39.07,-4.78,0.97,27.26,0.69,-0.23,-4.25
-1,3,86,-35,-318,3892,-0.18,0.30,11.26,-0.35,-3.18,38.92,-4.78,0.95,27.22,0.70,-0.21,-4.38
-5,2,90,-58,-335,3890,-0.19,0.28,10.68,-0.58,-3.35,38.90,-4.79,0.95,27.18,0.77,-0.19,-4.31
-3,0,88,-87,-250,3914,-0.19,0.26,10.15,-0.87,-2.50,39.14,-4.77,0.96,27.14,0.73,-0.16,-4.19
-4,2,82,-74,-217,3890,-0.20,0.24,9.63,-0.74,-2.17,38.90,-4.76,0.96,27.10,0.75,-0.19,-4.05
4,6,34,-94,-234,3888,-0.15,0.25,8.88,-0.94,-2.34,38.88,-4.74,0.97,27.06,0.62,-0.25,-3.50
5,7,19,-91,-277,3913,-0.11,0.27,8.11,-0.91,-2.77,39.13,-4.72,0.98,27.03,0.60,-0.27,-3.23
3,7,5,-32,-324,3906,-0.08,0.29,7.33,-0.32,-3.24,39.06,-4.72,0.97,27.00,0.62,-0.27,-2.97
2,6,2,-36,-331,3905,-0.06,0.30,6.61,-0.36,-3.31,39.05,-4.73,0.96,26.97,0.64,-0.26,-2.82
1,1,6,-7,-338,3916,-0.05,0.27,5.98,-0.07,-3.38,39.16,-4.73,0.94,26.95,0.65,-0.18,-2.74
1,-2,13,-1,-330,3889,-0.04,0.23,5.46,-0.01,-3.30,38.89,-4.73,0.93,26.93,0.65,-0.12,-2.70
1,1,14,14,-325,3927,-0.03,0.22,5.00,0.14,-3.25,39.27,-4.73,0.91,26.91,0.65,-0.16,-2.63
1,4,18,4,-321,3907,-0.02,0.22,4.61,0.04,-3.21,39.07,-4.73,0.89,26.89,0.65,-0.21,-2.59
1,6,21,-15,-316,3905,-0.01,0.23,4.28,-0.15,-3.16,39.05,-4.73,0.88,26.87,0.65,-0.24,-2.56
3,7,22,-16,-320,3905,0.01,0.25,3.98,-0.16,-3.20,39.05,-4.73,0.86,26.86,0.62,-0.25,-2.51
2,2,28,2,-331,3917,0.02,0.24,3.76,0.02,-3.31,39.17,-4.73,0.85,26.84,0.63,-0.17,-2.52
-2,2,32,5,-348,3905,0.01,0.23,3.58,0.05,-3.48,39.05,-4.74,0.83,26.83,0.69,-0.17,-2.52
-1,1,47,-9,-326,3921,-0.00,0.21,3.51,-0.09,-3.26,39.21,-4.74,0.81,26.81,0.68,-0.15,-2.63
0,0,49,1,-305,3914,-0.00,0.19,3.45,0.01,-3.05,39.14,-4.73,0.80,26.80,0.66,-0.13,-2.64
-6,0,60,-24,-270,3893,-0.04,0.17,3.47,-0.24,-2.70,38.93,-4.71,0.79,26.79,0.76,-0.13,-2.74
-2,0,58,-75,-314,3904,-0.05,0.15,3.48,-0.75,-3.14,39.04,-4.71,0.81,26.77,0.69,-0.13,-2.72
-1,2,51,-78,-357,3894,-0.05,0.15,3.44,-0.78,-3.57,38.94,-4.72,0.82,26.76,0.68,-0.16,-2.65
-2,1,49,-57,-366,3914,-0.05,0.14,3.40,-0.57,-3.66,39.14,-4.74,0.82,26.75,0.70,-0.15,-2.63
-3,1,51,-63,-375,3877,-0.07,0.13,3.37,-0.63,-3.75,38.77,-4.76,0.83,26.73,0.72,-0.14,-2.64
0,1,49,-66,-374,3922,-0.06,0.13,3.33,-0.66,-3.74,39.22,-4.78,0.83,26.72,0.68,-0.14,-2.62
2,3,32,-67,-353,3904,-0.04,0.13,3.19,-0.67,-3.53,39.04,-4.80,0.84,26.71,0.65,-0.18,-2.45
3,4,27,-75,-324,3900,-0.02,0.14,3.04,-0.75,-3.24,39.00,-4.79,0.86,26.70,0.63,-0.20,-2.37
1,3,7,-82,-367,3925,-0.01,0.15,2.78,-0.82,-3.67,39.25,-4.81,0.87,26.68,0.66,-0.18,-2.16
0,2,2,-49,-333,3906,-0.01,0.14,2.51,-0.49,-3.33,39.06,-4.81,0.86,26.67,0.68,-0.17,-2.07
0,1,4,-24,-319,3903,-0.01,0.14,2.29,-0.24,-3.19,39.03,-4.81,0.84,26.67,0.67,-0.15,-2.04
1,0,6,-23,-338,3909,-0.00,0.12,2.09,-0.23,-3.38,39.09,-4.81,0.82,26.66,0.66,-0.13,-2.03
0,-1,15,-25,-325,3904,-0.00,0.10,1.98,-0.25,-3.25,39.04,-4.81,0.81,26.65,0.67,-0.11,-2.08
-1,-3,13,-23,-331,3909,-0.01,0.08,1.86,-0.23,-3.31,39.09,-4.81,0.79,26.64,0.69,-0.07,-2.04
-1,-2,37,-6,-340,3868,-0.01,0.06,1.90,-0.06,-3.40,38.68,-4.82,0.77,26.63,0.69,-0.08,-2.25
-3,-2,31,-46,-367,3912,-0.03,0.04,1.90,-0.46,-3.67,39.12,-4.84,0.77,26.63,0.73,-0.08,-2.20
-5,-2,25,-51,-359,3931,-0.06,0.02,1.86,-0.51,-3.59,39.31,-4.85,0.77,26.62,0.76,-0.08,-2.14
-5,-2,22,-55,-348,3933,-0.08,0.01,1.81,-0.55,-3.48,39.33,-4.87,0.77,26.61,0.77,-0.08,-2.11
-4,-2,16,-30,-343,3918,-0.10,-0.01,1.72,-0.30,-3.43,39.18,-4.88,0.76,26.61,0.75,-0.07,-2.04
-4,-3,19,-13,-343,3909,-0.11,-0.02,1.67,-0.13,-3.43,39.09,-4.88,0.74,26.60,0.76,-0.06,-2.06
-2,5,85,-28,-401,3908,-0.11,0.01,2.02,-0.28,-4.01,39.08,-4.90,0.73,26.59,0.73,-0.18,-2.68
-2,0,119,-4,-397,3900,-0.11,0.01,2.54,-0.04,-3.97,39.00,-4.92,0.72,26.58,0.73,-0.10,-3.06
-8,3,309,51,-346,3903,-0.15,0.03,4.17,0.51,-3.46,39.03,-4.92,0.71,26.57,0.83,-0.15,-4.96
-12,4,448,7,-377,3907,-0.21,0.05,6.49,0.07,-3.77,39.07,-4.93,0.69,26.54,0.90,-0.16,-6.55
-28,-5,691,-10,-396,3932,-0.36,0.01,10.06,-0.10,-3.96,39.32,-4.95,0.69,26.50,1.16,-0.02,-9.25
-4,12,747,29,-353,3874,-0.35,0.08,13.61,0.29,-3.53,38.74,-4.95,0.67,26.45,0.79,-0.29,-10.35
-14,10,918,33,-351,3874,-0.40,0.14,17.85,0.33,-3.51,38.74,-4.96,0.66,26.37,0.95,-0.26,-12.56
-11,14,942,50,-297,3919,-0.43,0.21,21.81,0.50,-2.97,39.19,-4.95,0.65,26.29,0.90,-0.33,-13.46
-6,9,931,34,-337,3953,-0.42,0.24,25.31,0.34,-3.37,39.53,-4.95,0.65,26.19,0.83,-0.25,-13.99
-22,11,918,66,-357,3864,-0.51,0.29,28.38,0.66,-3.57,38.64,-4.95,0.64,26.07,1.08,-0.29,-14.42
-9,10,859,69,-328,3893,-0.52,0.32,30.78,0.69,-3.28,38.93,-4.95,0.63,25.95,0.88,-0.27,-14.35
-16,10,837,-14,-289,3951,-0.56,0.35,32.81,-0.14,-2.89,39.51,-4.94,0.64,25.82,0.99,-0.28,-14.52
-3,8,713,-76,-385,3907,-0.52,0.36,33.87,-0.76,-3.85,39.07,-4.95,0.66,25.69,0.79,-0.25,-13.65
-15,10,677,-124,-412,3898,-0.56,0.39,34.62,-1.24,-4.12,38.98,-4.97,0.69,25.55,0.98,-0.29,-13.47
-11,7,623,-116,-460,3958,-0.57,0.39,34.96,-1.16,-4.60,39.58,-4.98,0.71,25.41,0.92,-0.25,-13.06
-22,3,617,-55,-445,3844,-0.65,0.37,35.22,-0.55,-4.45,38.44,-5.00,0.72,25.27,1.10,-0.19,-13.05
-19,10,673,-10,-401,3885,-0.70,0.39,35.81,-0.10,-4.01,38.85,-5.02,0.73,25.13,1.06,-0.30,-13.62
-3,19,700,-1,-387,3888,-0.65,0.47,36.50,-0.01,-3.87,38.88,-5.03,0.73,24.98,0.82,-0.44,-13.97
-12,16,755,66,-457,3967,-0.66,0.52,37.45,0.66,-4.57,39.67,-5.04,0.73,24.83,0.96,-0.40,-14.59
-8,21,779,29,-367,3885,-0.64,0.60,38.46,0.29,-3.67,38.85,-5.05,0.73,24.68,0.90,-0.48,-14.97
-7,23,826,-127,-481,3924,-0.62,0.68,39.65,-1.27,-4.81,39.24,-5.07,0.76,24.52,0.88,-0.53,-15.57
-15,20,828,-100,-458,3883,-0.65,0.73,40.74,-1.00,-4.58,38.83,-5.08,0.78,24.36,1.01,-0.49,-15.77
-2,27,785,-147,-519,3932,-0.60,0.82,41.45,-1.47,-5.19,39.32,-5.10,0.81,24.20,0.81,-0.61,-15.53
-12,21,754,-121,-463,3854,-0.61,0.87,41.91,-1.21,-4.63,38.54,-5.12,0.83,24.03,0.96,-0.53,-15.34
-4,15,687,-74,-474,3917,-0.57,0.87,41.91,-0.74,-4.74,39.17,-5.13,0.86,23.86,0.84,-0.44,-14.76
-5,17,669,-84,-450,3837,-0.55,0.89,41.80,-0.84,-4.50,38.37,-5.15,0.88,23.70,0.85,-0.47,-14.58
-7,19,626,-24,-422,3891,-0.53,0.92,41.44,-0.24,-4.22,38.91,-5.17,0.89,23.53,0.89,-0.51,-14.14
-10,16,616,-9,-349,3927,-0.54,0.92,41.05,-0.09,-3.49,39.27,-5.16,0.89,23.37,0.93,-0.46,-13.97
-3,9,632,38,-244,3929,-0.51,0.89,40.80,0.38,-2.44,39.29,-5.15,0.90,23.21,0.82,-0.35,-14.05
-13,11,645,40,-234,3878,-0.53,0.86,40.65,0.40,-2.34,38.78,-5.14,0.90,23.05,0.97,-0.38,-14.13
-10,8,687,62,-251,3898,-0.54,0.83,40.78,0.62,-2.51,38.98,-5.12,0.90,22.88,0.93,-0.33,-14.50
-11,2,693,117,-243,3919,-0.56,0.76,40.93,1.17,-2.43,39.19,-5.11,0.91,22.72,0.94,-0.24,-14.57
-10,4,665,102,-184,3952,-0.56,0.70,40.89,1.02,-1.84,39.52,-5.10,0.91,22.56,0.92,-0.26,-14.31
-15,9,637,75,-236,3908,-0.60,0.69,40.69,0.75,-2.36,39.08,-5.09,0.91,22.39,1.00,-0.34,-14.03
-3,3,566,-68,-183,3949,-0.55,0.64,40.07,-0.68,-1.83,39.49,-5.07,0.93,22.24,0.81,-0.24,-13.31
-7,-5,551,-98,-156,3943,-0.54,0.54,39.43,-0.98,-1.56,39.43,-5.05,0.95,22.08,0.87,-0.11,-13.05
-7,2,489,-181,-309,3930,-0.53,0.50,38.47,-1.81,-3.09,39.30,-5.05,0.98,21.92,0.87,-0.22,-12.35
-12,8,477,-139,-335,3913,-0.55,0.50,37.53,-1.39,-3.35,39.13,-5.04,1.02,21.78,0.95,-0.32,-12.07
-15,12,473,-126,-430,3914,-0.59,0.52,36.66,-1.26,-4.30,39.14,-5.06,1.04,21.63,1.00,-0.38,-11.87
-9,8,464,-119,-471,3937,-0.58,0.52,35.83,-1.19,-4.71,39.37,-5.07,1.06,21.49,0.91,-0.32,-11.64
-3,14,469,-53,-325,3907,-0.54,0.55,35.10,-0.53,-3.25,39.07,-5.06,1.07,21.35,0.81,-0.42,-11.54
-7,18,490,-101,-365,3925,-0.53,0.61,34.58,-1.01,-3.65,39.25,-5.07,1.10,21.21,0.87,-0.49,-11.62
-8,15,544,-144,-353,3912,-0.53,0.64,34.44,-1.44,-3.53,39.12,-5.07,1.13,21.07,0.89,-0.45,-12.04
-2,16,544,-162,-270,3881,-0.49,0.67,34.32,-1.62,-2.70,38.81,-5.06,1.16,20.94,0.79,-0.48,-12.01
-15,13,542,-129,-260,3910,-0.53,0.68,34.19,-1.29,-2.60,39.10,-5.04,1.18,20.80,0.99,-0.43,-11.96
-4,17,542,-136,-236,3893,-0.50,0.72,34.08,-1.36,-2.36,38.93,-5.02,1.20,20.66,0.82,-0.50,-11.94
-6,14,542,-150,-339,3892,-0.49,0.73,33.98,-1.50,-3.39,38.92,-5.02,1.24,20.53,0.85,-0.46,-11.91
-2,11,541,-127,-331,3894,-0.45,0.73,33.88,-1.27,-3.31,38.94,-5.02,1.27,20.39,0.78,-0.42,-11.88
-6,12,526,-134,-378,3898,-0.44,0.73,33.70,-1.34,-3.78,38.98,-5.03,1.30,20.26,0.84,-0.44,-11.71
-10,12,512,-65,-375,3891,-0.46,0.73,33.45,-0.65,-3.75,38.91,-5.04,1.30,20.13,0.91,-0.44,-11.54
-11,8,391,-3,-456,3929,-0.48,0.70,32.49,-0.03,-4.56,39.29,-5.05,1.31,20.00,0.92,-0.38,-10.33
0,6,355,5,-429,3903,-0.43,0.67,31.41,0.05,-4.29,39.03,-5.06,1.31,19.87,0.75,-0.34,-9.83
-10,-3,323,-47,-402,3939,-0.45,0.58,30.24,-0.47,-4.02,39.39,-5.08,1.31,19.75,0.91,-0.20,-9.34
-15,-6,336,-72,-354,3884,-0.50,0.49,29.26,-0.72,-3.54,38.84,-5.09,1.30,19.64,0.99,-0.14,-9.27
-2,5,355,-46,-318,3897,-0.46,0.47,28.50,-0.46,-3.18,38.97,-5.07,1.30,19.52,0.79,-0.31,-9.28
-5,-1,366,-9,-332,3934,-0.44,0.42,27.89,-0.09,-3.32,39.34,-5.07,1.29,19.41,0.83,-0.21,-9.26
-11,12,450,-60,-331,3868,-0.47,0.45,27.84,-0.60,-3.31,38.68,-5.06,1.29,19.30,0.92,-0.41,-9.96
1,13,477,-76,-309,3893,-0.41,0.48,27.97,-0.76,-3.09,38.93,-5.04,1.30,19.19,0.73,-0.43,-10.20
-9,13,592,-55,-396,3885,-0.43,0.51,28.78,-0.55,-3.96,38.85,-5.06,1.30,19.08,0.89,-0.43,-11.32
-3,15,619,-38,-371,3917,-0.40,0.55,29.68,-0.38,-3.71,39.17,-5.07,1.29,18.96,0.80,-0.47,-11.70
-8,13,709,4,-389,3937,-0.41,0.58,31.04,0.04,-3.89,39.37,-5.07,1.29,18.83,0.87,-0.44,-12.70
-5,12,724,28,-405,3903,-0.40,0.59,32.35,0.28,-4.05,39.03,-5.08,1.29,18.71,0.83,-0.42,-13.05
-18,12,745,-20,-457,3906,-0.47,0.61,33.66,-0.20,-4.57,39.06,-5.09,1.29,18.57,1.04,-0.43,-13.45
-9,22,731,-8,-383,3942,-0.48,0.68,34.75,-0.08,-3.83,39.42,-5.10,1.29,18.43,0.90,-0.59,-13.52
-11,14,660,-16,-368,3946,-0.50,0.70,35.30,-0.16,-3.68,39.46,-5.10,1.29,18.29,0.93,-0.47,-13.01
-15,10,640,-11,-337,3890,-0.54,0.69,35.68,-0.11,-3.37,38.90,-5.10,1.28,18.15,1.00,-0.40,-12.90
-16,9,600,-45,-325,3922,-0.58,0.68,35.77,-0.45,-3.25,39.22,-5.09,1.28,18.01,1.02,-0.39,-12.57
-6,16,606,-33,-303,3881,-0.56,0.71,35.89,-0.33,-3.03,38.81,-5.08,1.29,17.87,0.86,-0.50,-12.63
-5,23,655,-47,-295,3860,-0.54,0.78,36.30,-0.47,-2.95,38.60,-5.06,1.29,17.72,0.84,-0.61,-13.11
-12,8,680,-66,-305,3946,-0.56,0.75,36.81,-0.66,-3.05,39.46,-5.04,1.30,17.57,0.95,-0.38,-13.41
1,21,766,-45,-352,3913,-0.49,0.80,37.81,-0.45,-3.52,39.13,-5.04,1.30,17.42,0.74,-0.58,-14.31
-8,21,781,-78,-360,3916,-0.49,0.85,38.79,-0.78,-3.60,39.16,-5.06,1.30,17.27,0.88,-0.59,-14.60
-26,12,761,-15,-448,3917,-0.60,0.84,39.55,-0.15,-4.48,39.17,-5.07,1.31,17.11,1.17,-0.45,-14.56
-16,14,731,-33,-345,3925,-0.64,0.84,40.06,-0.33,-3.45,39.25,-5.07,1.31,16.95,1.02,-0.48,-14.38
-16,10,760,-54,-373,3908,-0.67,0.82,40.69,-0.54,-3.73,39.08,-5.08,1.31,16.79,1.02,-0.42,-14.73
-13,16,772,-66,-332,3907,-0.69,0.83,41.33,-0.66,-3.32,39.07,-5.07,1.31,16.63,0.98,-0.51,-14.94
6,25,808,-79,-338,3888,-0.58,0.90,42.12,-0.79,-3.38,38.88,-5.06,1.32,16.46,0.68,-0.66,-15.38
-28,13,815,-104,-384,3901,-0.69,0.89,42.88,-1.04,-3.84,39.01,-5.07,1.34,16.29,1.21,-0.48,-15.56
-16,14,751,-87,-420,3907,-0.72,0.89,43.17,-0.87,-4.20,39.07,-5.09,1.36,16.12,1.03,-0.50,-15.06
-8,13,727,-106,-418,3926,-0.70,0.88,43.29,-1.06,-4.18,39.26,-5.11,1.38,15.95,0.91,-0.48,-14.87
-17,11,663,-94,-385,3913,-0.73,0.86,43.01,-0.94,-3.85,39.13,-5.12,1.40,15.78,1.05,-0.45,-14.27
-6,14,656,-100,-341,3909,-0.70,0.86,42.71,-1.00,-3.41,39.09,-5.10,1.42,15.61,0.88,-0.50,-14.14
-15,15,696,-134,-444,3925,-0.72,0.86,42.68,-1.34,-4.44,39.25,-5.12,1.45,15.44,1.02,-0.52,-14.47
-11,14,715,-123,-410,3880,-0.71,0.86,42.78,-1.23,-4.10,38.80,-5.14,1.48,15.27,0.96,-0.51,-14.64
-7,9,692,-57,-385,3907,-0.68,0.83,42.72,-0.57,-3.85,39.07,-5.15,1.48,15.10,0.90,-0.43,-14.42
-18,9,683,-97,-428,3886,-0.73,0.80,42.61,-0.97,-4.28,38.86,-5.16,1.50,14.93,1.07,-0.43,-14.31
-17,8,721,-82,-364,3962,-0.76,0.77,42.75,-0.82,-3.64,39.62,-5.17,1.50,14.76,1.06,-0.41,-14.65
-17,12,742,-62,-425,3853,-0.78,0.77,43.00,-0.62,-4.25,38.53,-5.18,1.51,14.59,1.07,-0.47,-14.86
-10,14,850,-74,-404,3923,-0.77,0.78,43.89,-0.74,-4.04,39.23,-5.19,1.52,14.41,0.96,-0.51,-15.93
-9,13,882,-51,-415,3874,-0.75,0.78,44.88,-0.51,-4.15,38.74,-5.21,1.52,14.24,0.94,-0.49,-16.36
-17,16,972,-26,-433,3916,-0.77,0.80,46.32,-0.26,-4.33,39.16,-5.22,1.53,14.05,1.07,-0.54,-17.37
-3,20,982,-45,-364,3862,-0.72,0.84,47.68,-0.45,-3.64,38.62,-5.22,1.53,13.86,0.85,-0.61,-17.69
-4,16,951,-56,-454,3894,-0.67,0.85,48.71,-0.56,-4.54,38.94,-5.23,1.55,13.67,0.86,-0.55,-17.60
-13,13,919,-5,-435,3918,-0.68,0.85,49.45,-0.05,-4.35,39.18,-5.24,1.55,13.47,1.00,-0.50,-17.45
-5,6,809,58,-234,3927,-0.64,0.80,49.44,0.58,-2.34,39.27,-5.23,1.56,13.27,0.87,-0.39,-16.51
-16,7,777,51,-235,3898,-0.68,0.76,49.23,0.51,-2.35,38.98,-5.21,1.57,13.08,1.04,-0.41,-16.19
-5,6,707,17,-145,3900,-0.64,0.72,48.62,0.17,-1.45,39.00,-5.20,1.58,12.88,0.87,-0.39,-15.47
-7,6,694,-46,-236,3878,-0.62,0.69,47.99,-0.46,-2.36,38.78,-5.18,1.59,12.69,0.90,-0.39,-15.24
-22,5,633,-69,-356,3846,-0.69,0.65,47.06,-0.69,-3.56,38.46,-5.18,1.59,12.51,1.13,-0.37,-14.54
1,16,611,-156,-410,3948,-0.62,0.68,46.08,-1.56,-4.10,39.48,-5.19,1.62,12.32,0.77,-0.54,-14.17
-5,12,524,-151,-392,3927,-0.58,0.69,44.67,-1.51,-3.92,39.27,-5.20,1.66,12.15,0.86,-0.49,-13.17
-9,1,495,-85,-421,3894,-0.58,0.62,43.22,-0.85,-4.21,38.94,-5.21,1.67,11.97,0.93,-0.31,-12.65
-5,7,383,-69,-289,3888,-0.55,0.60,41.23,-0.69,-2.89,38.88,-5.19,1.67,11.81,0.86,-0.40,-11.34
-5,0,321,-118,-223,3936,-0.53,0.54,39.07,-1.18,-2.23,39.36,-5.17,1.69,11.65,0.86,-0.29,-10.42
3,3,166,-235,-216,3921,-0.46,0.51,36.17,-2.35,-2.16,39.21,-5.16,1.72,11.51,0.72,-0.34,-8.58
-5,1,130,-248,-217,3906,-0.44,0.46,33.35,-2.48,-2.17,39.06,-5.14,1.74,11.38,0.84,-0.31,-7.76
2,3,15,-96,-337,3896,-0.39,0.43,30.11,-0.96,-3.37,38.96,-5.13,1.74,11.26,0.73,-0.33,-6.19
-2,0,15,-86,-359,3902,-0.36,0.39,27.19,-0.86,-3.59,39.02,-5.13,1.73,11.15,0.79,-0.28,-5.67
-2,-1,-2,-70,-358,3907,-0.34,0.35,24.46,-0.70,-3.58,39.07,-5.13,1.73,11.05,0.78,-0.26,-5.03
-1,2,3,-67,-354,3909,-0.31,0.32,22.03,-0.67,-3.54,39.09,-5.13,1.72,10.96,0.77,-0.30,-4.63
0,2,0,-60,-354,3902,-0.28,0.30,19.83,-0.60,-3.54,39.02,-5.13,1.71,10.88,0.75,-0.30,-4.20
0,0,2,-48,-374,3908,-0.25,0.27,17.86,-0.48,-3.74,39.08,-5.14,1.70,10.81,0.75,-0.27,-3.86
0,1,1,-41,-360,3897,-0.22,0.25,16.08,-0.41,-3.60,38.97,-5.14,1.69,10.75,0.74,-0.28,-3.53
0,1,1,-55,-354,3903,-0.20,0.23,14.47,-0.55,-3.54,39.03,-5.14,1.67,10.69,0.74,-0.27,-3.24
0,1,2,-46,-364,3895,-0.18,0.22,13.04,-0.46,-3.64,38.95,-5.14,1.66,10.64,0.74,-0.27,-2.99
-1,-1,1,-53,-370,3919,-0.17,0.19,11.74,-0.53,-3.70,39.19,-5.15,1.65,10.59,0.75,-0.23,-2.75
0,0,2,-64,-375,3908,-0.15,0.17,10.58,-0.64,-3.75,39.08,-5.15,1.64,10.55,0.74,-0.25,-2.54
0,1,0,-66,-371,3906,-0.14,0.16,9.52,-0.66,-3.71,39.06,-5.16,1.62,10.51,0.74,-0.26,-2.34
0,0,2,-59,-371,3916,-0.12,0.14,8.58,-0.59,-3.71,39.16,-5.17,1.61,10.48,0.74,-0.24,-2.18
1,0,1,-48,-376,3916,-0.11,0.13,7.73,-0.48,-3.76,39.16,-5.17,1.60,10.45,0.72,-0.24,-2.02
0,0,1,-48,-373,3904,-0.09,0.12,6.96,-0.48,-3.73,39.04,-5.18,1.58,10.42,0.73,-0.23,-1.88
0,-1,1,-69,-375,3907,-0.09,0.10,6.27,-0.69,-3.75,39.07,-5.18,1.57,10.40,0.73,-0.21,-1.76
-1,-1,1,-69,-368,3907,-0.08,0.08,5.65,-0.69,-3.68,39.07,-5.19,1.55,10.37,0.75,-0.21,-1.64
-1,0,1,-59,-368,3899,-0.08,0.07,5.09,-0.59,-3.68,38.99,-5.20,1.54,10.35,0.75,-0.22,-1.54
0,0,1,-51,-366,3903,-0.07,0.07,4.59,-0.51,-3.66,39.03,-5.20,1.52,10.34,0.74,-0.22,-1.45
0,0,1,-61,-368,3903,-0.07,0.06,4.14,-0.61,-3.68,39.03,-5.20,1.51,10.32,0.74,-0.22,-1.37
0,0,2,-58,-369,3908,-0.06,0.05,3.73,-0.58,-3.69,39.08,-5.21,1.49,10.31,0.74,-0.21,-1.30
0,1,1,-57,-367,3923,-0.05,0.05,3.37,-0.57,-3.67,39.23,-5.21,1.47,10.29,0.74,-0.23,-1.23
0,1,1,-57,-371,3910,-0.05,0.06,3.04,-0.57,-3.71,39.10,-5.22,1.46,10.28,0.74,-0.22,-1.17
0,0,2,-55,-365,3911,-0.04,0.05,2.75,-0.55,-3.65,39.11,-5.22,1.44,10.27,0.74,-0.21,-1.12
1,0,2,-56,-368,3898,-0.03,0.04,2.48,-0.56,-3.68,38.98,-5.23,1.42,10.26,0.72,-0.20,-1.08
0,0,1,-64,-376,3902,-0.03,0.04,2.24,-0.64,-3.76,39.02,-5.23,1.41,10.25,0.74,-0.20,-1.02
1,-1,1,-61,-374,3918,-0.02,0.03,2.02,-0.61,-3.74,39.18,-5.24,1.39,10.24,0.72,-0.18,-0.99
0,0,1,-55,-381,3919,-0.02,0.03,1.83,-0.55,-3.81,39.19,-5.25,1.38,10.24,0.74,-0.20,-0.95
0,1,1,-46,-376,3905,-0.02,0.03,1.65,-0.46,-3.76,39.05,-5.26,1.36,10.23,0.74,-0.21,-0.92
-1,0,1,-56,-373,3905,-0.02,0.03,1.49,-0.56,-3.73,39.05,-5.26,1.34,10.22,0.75,-0.19,-0.89
0,-1,1,-59,-372,3903,-0.02,0.02,1.35,-0.59,-3.72,39.03,-5.27,1.33,10.22,0.74,-0.17,-0.86
0,0,1,-56,-371,3916,-0.02,0.02,1.22,-0.56,-3.71,39.16,-5.27,1.31,10.21,0.74,-0.19,-0.84
0,0,1,-65,-363,3893,-0.02,0.02,1.10,-0.65,-3.63,38.93,-5.28,1.29,10.21,0.74,-0.18,-0.82
1,0,1,-68,-370,3902,-0.01,0.01,1.00,-0.68,-3.70,39.02,-5.28,1.28,10.21,0.73,-0.18,-0.80
0,0,0,-56,-370,3914,-0.01,0.01,0.90,-0.56,-3.70,39.14,-5.29,1.26,10.20,0.74,-0.18,-0.77
-1,1,0,-65,-369,3915,-0.01,0.02,0.81,-0.65,-3.69,39.15,-5.29,1.24,10.20,0.76,-0.19,-0.76
0,-1,1,-55,-371,3910,-0.01,0.01,0.73,-0.55,-3.71,39.10,-5.30,1.22,10.20,0.74,-0.16,-0.75
0,0,0,-57,-367,3921,-0.01,0.01,0.66,-0.57,-3.67,39.21,-5.30,1.21,10.19,0.74,-0.17,-0.73
0,0,0,-62,-369,3906,-0.01,0.01,0.60,-0.62,-3.69,39.06,-5.31,1.19,10.19,0.74,-0.17,-0.72
0,0,0,-64,-371,3909,-0.01,0.01,0.54,-0.64,-3.71,39.09,-5.31,1.17,10.19,0.74,-0.16,-0.71
0,1,1,-57,-364,3912,-0.01,0.01,0.49,-0.57,-3.64,39.12,-5.31,1.15,10.19,0.74,-0.18,-0.71
0,1,1,-51,-372,3897,-0.01,0.02,0.45,-0.51,-3.72,38.97,-5.32,1.14,10.19,0.75,-0.18,-0.70
0,0,2,-55,-366,3900,-0.01,0.02,0.41,-0.55,-3.66,39.00,-5.32,1.12,10.18,0.75,-0.16,-0.70
1,0,1,-67,-371,3906,0.00,0.01,0.38,-0.67,-3.71,39.06,-5.33,1.10,10.18,0.73,-0.16,-0.69
1,0,1,-61,-371,3905,0.01,0.01,0.35,-0.61,-3.71,39.05,-5.34,1.09,10.18,0.73,-0.15,-0.68
0,0,0,-56,-370,3893,0.01,0.01,0.31,-0.56,-3.70,38.93,-5.35,1.07,10.18,0.75,-0.15,-0.67
0,1,1,-43,-367,3904,0.01,0.02,0.29,-0.43,-3.67,39.04,-5.35,1.05,10.18,0.75,-0.16,-0.67
0,0,1,-61,-368,3909,0.00,0.01,0.26,-0.61,-3.68,39.09,-5.35,1.03,10.18,0.75,-0.15,-0.67
0,0,1,-62,-371,3926,0.00,0.01,0.24,-0.62,-3.71,39.26,-5.36,1.02,10.18,0.75,-0.14,-0.66
1,0,1,-63,-370,3908,0.01,0.01,0.23,-0.63,-3.70,39.08,-5.37,1.00,10.18,0.73,-0.14,-0.66
1,1,1,-61,-362,3912,0.02,0.02,0.21,-0.61,-3.62,39.12,-5.35,0.99,10.18,0.73,-0.16,-0.66
1,0,1,-56,-360,3902,0.02,0.02,0.19,-0.56,-3.60,39.02,-5.35,0.97,10.17,0.73,-0.14,-0.65
0,0,0,-66,-369,3908,0.02,0.01,0.17,-0.66,-3.69,39.08,-5.36,0.97,10.17,0.75,-0.14,-0.64
0,0,0,-61,-367,3912,0.02,0.01,0.16,-0.61,-3.67,39.12,-5.36,0.95,10.17,0.75,-0.13,-0.64
0,0,1,-65,-373,3906,0.01,0.01,0.15,-0.65,-3.73,39.06,-5.38,0.95,10.17,0.75,-0.13,-0.65
0,0,0,-51,-372,3911,0.01,0.01,0.13,-0.51,-3.72,39.11,-5.39,0.93,10.17,0.75,-0.13,-0.63
0,1,0,-58,-374,3911,0.01,0.01,0.12,-0.58,-3.74,39.11,-5.40,0.92,10.17,0.75,-0.15,-0.63
0,0,1,-57,-369,3902,0.01,0.01,0.11,-0.57,-3.69,39.02,-5.40,0.90,10.17,0.75,-0.13,-0.64
1,1,0,-70,-371,3907,0.02,0.02,0.10,-0.70,-3.71,39.07,-5.40,0.92,10.17,0.74,-0.15,-0.63
0,1,1,-63,-369,3905,0.01,0.02,0.10,-0.63,-3.69,39.05,-5.39,0.93,10.17,0.75,-0.15,-0.64
0,0,0,-58,-359,3904,0.01,0.02,0.09,-0.58,-3.59,39.04,-5.37,0.92,10.17,0.75,-0.13,-0.63
0,1,0,-51,-358,3903,0.01,0.02,0.08,-0.51,-3.58,39.03,-5.36,0.90,10.17,0.75,-0.14,-0.62
0,1,1,-58,-371,3908,0.01,0.03,0.08,-0.58,-3.71,39.08,-5.37,0.89,10.17,0.75,-0.14,-0.63
0,0,2,-57,-367,3900,0.01,0.03,0.08,-0.57,-3.67,39.00,-5.37,0.87,10.17,0.75,-0.12,-0.64
1,0,0,-66,-365,3905,0.01,0.02,0.07,-0.66,-3.65,39.05,-5.37,0.89,10.17,0.73,-0.13,-0.62
0,0,1,-61,-365,3911,0.01,0.02,0.07,-0.61,-3.65,39.11,-5.35,0.89,10.17,0.75,-0.13,-0.63
0,1,0,-55,-366,3904,0.01,0.02,0.07,-0.55,-3.66,39.04,-5.35,0.87,10.17,0.75,-0.14,-0.62
0,0,2,-55,-381,3905,0.01,0.02,0.07,-0.55,-3.81,39.05,-5.37,0.87,10.17,0.75,-0.12,-0.64
0,1,1,-53,-376,3924,0.01,0.03,0.07,-0.53,-3.76,39.24,-5.38,0.85,10.17,0.75,-0.14,-0.63
0,1,0,-48,-372,3910,0.01,0.03,0.06,-0.48,-3.72,39.10,-5.39,0.84,10.17,0.75,-0.14,-0.62
0,0,1,-51,-367,3913,0.01,0.03,0.06,-0.51,-3.67,39.13,-5.38,0.82,10.17,0.75,-0.12,-0.63
0,1,1,-52,-370,3912,0.01,0.03,0.06,-0.52,-3.70,39.12,-5.39,0.80,10.17,0.75,-0.13,-0.63
-1,0,1,-59,-366,3902,0.00,0.03,0.06,-0.59,-3.66,39.02,-5.38,0.82,10.17,0.77,-0.12,-0.63
0,0,1,-60,-365,3906,0.00,0.02,0.06,-0.60,-3.65,39.06,-5.37,0.83,10.17,0.75,-0.12,-0.63
0,1,1,-57,-368,3905,0.00,0.03,0.06,-0.57,-3.68,39.05,-5.39,0.83,10.17,0.75,-0.13,-0.63
0,1,1,-47,-366,3909,0.00,0.03,0.06,-0.47,-3.66,39.09,-5.38,0.81,10.17,0.75,-0.13,-0.63
0,1,0,-54,-363,3903,0.00,0.03,0.06,-0.54,-3.63,39.03,-5.37,0.81,10.17,0.75,-0.13,-0.62
0,0,1,-48,-375,3903,0.00,0.03,0.06,-0.48,-3.75,39.03,-5.38,0.80,10.17,0.75,-0.11,-0.63
-1,0,1,-57,-364,3908,-0.01,0.03,0.06,-0.57,-3.64,39.08,-5.36,0.81,10.17,0.77,-0.12,-0.63
0,0,1,-55,-360,3903,-0.01,0.02,0.06,-0.55,-3.60,39.03,-5.35,0.81,10.17,0.75,-0.12,-0.63
0,1,1,-55,-371,3904,-0.00,0.03,0.06,-0.55,-3.71,39.04,-5.36,0.81,10.17,0.75,-0.13,-0.63
0,1,1,-64,-379,3910,-0.00,0.03,0.06,-0.64,-3.79,39.10,-5.38,0.82,10.17,0.75,-0.13,-0.63
0,0,0,-57,-370,3906,-0.00,0.03,0.05,-0.57,-3.70,39.06,-5.39,0.82,10.17,0.76,-0.12,-0.62
0,0,1,-55,-372,3914,-0.00,0.03,0.05,-0.55,-3.72,39.14,-5.41,0.81,10.17,0.76,-0.12,-0.63
0,1,1,-57,-371,3895,-0.00,0.03,0.05,-0.57,-3.71,38.95,-5.43,0.82,10.17,0.76,-0.13,-0.63
0,0,0,-57,-366,3896,-0.00,0.03,0.05,-0.57,-3.66,38.96,-5.41,0.83,10.17,0.76,-0.12,-0.62
0,0,0,-56,-369,3897,-0.00,0.02,0.04,-0.56,-3.69,38.97,-5.41,0.81,10.17,0.76,-0.12,-0.62
0,1,1,-63,-366,3899,-0.00,0.03,0.05,-0.63,-3.66,38.99,-5.40,0.83,10.16,0.76,-0.13,-0.63
0,0,1,-53,-373,3898,-0.00,0.02,0.05,-0.53,-3.73,38.98,-5.42,0.82,10.16,0.76,-0.12,-0.63
1,-1,1,-52,-371,3906,0.00,0.02,0.05,-0.52,-3.71,39.06,-5.42,0.80,10.16,0.74,-0.10,-0.63
0,0,0,-60,-363,3923,0.00,0.01,0.04,-0.60,-3.63,39.23,-5.40,0.81,10.16,0.76,-0.11,-0.62
0,1,0,-59,-362,3923,0.00,0.02,0.04,-0.59,-3.62,39.23,-5.39,0.81,10.16,0.75,-0.13,-0.62
1,0,0,-55,-365,3910,0.01,0.02,0.04,-0.55,-3.65,39.10,-5.37,0.81,10.16,0.74,-0.12,-0.62
1,0,1,-50,-361,3902,0.01,0.02,0.04,-0.50,-3.61,39.02,-5.36,0.80,10.16,0.73,-0.11,-0.63
0,1,1,-51,-368,3915,0.01,0.02,0.04,-0.51,-3.68,39.15,-5.36,0.78,10.16,0.75,-0.13,-0.63
-1,0,1,-54,-369,3906,0.01,0.02,0.04,-0.54,-3.69,39.06,-5.38,0.78,10.16,0.77,-0.11,-0.63
0,0,1,-59,-367,3909,0.00,0.02,0.04,-0.59,-3.67,39.09,-5.37,0.80,10.16,0.75,-0.11,-0.63
0,0,1,-61,-369,3912,0.00,0.01,0.05,-0.61,-3.69,39.12,-5.38,0.82,10.16,0.75,-0.12,-0.63
0,0,1,-67,-375,3904,0.00,0.01,0.05,-0.67,-3.75,39.04,-5.39,0.84,10.16,0.75,-0.12,-0.63
1,0,1,-65,-370,3908,0.01,0.01,0.05,-0.65,-3.70,39.08,-5.39,0.85,10.16,0.74,-0.12,-0.63
0,0,1,-58,-370,3907,0.01,0.01,0.05,-0.58,-3.70,39.07,-5.41,0.85,10.16,0.76,-0.12,-0.63
1,0,1,-56,-366,3914,0.01,0.01,0.05,-0.56,-3.66,39.14,-5.39,0.84,10.16,0.74,-0.12,-0.63
0,0,1,-57,-374,3909,0.01,0.01,0.05,-0.57,-3.74,39.09,-5.41,0.84,10.16,0.76,-0.12,-0.63
-1,0,1,-58,-377,3914,0.01,0.01,0.05,-0.58,-3.77,39.14,-5.43,0.84,10.16,0.77,-0.12,-0.63
1,0,1,-62,-375,3909,0.01,0.01,0.05,-0.62,-3.75,39.09,-5.44,0.85,10.16,0.75,-0.12,-0.63
0,0,0,-60,-378,3903,0.01,0.01,0.05,-0.60,-3.78,39.03,-5.46,0.86,10.16,0.76,-0.12,-0.62
-1,0,0,-62,-371,3922,0.00,0.01,0.04,-0.62,-3.71,39.22,-5.44,0.87,10.16,0.78,-0.12,-0.62
0,0,0,-57,-373,3910,0.00,0.01,0.04,-0.57,-3.73,39.10,-5.45,0.85,10.16,0.76,-0.12,-0.62
0,1,0,-56,-369,3916,0.00,0.01,0.04,-0.56,-3.69,39.16,-5.43,0.84,10.16,0.76,-0.13,-0.62
0,0,0,-56,-367,3904,0.00,0.01,0.03,-0.56,-3.67,39.04,-5.41,0.84,10.16,0.76,-0.12,-0.62
1,0,0,-68,-372,3901,0.01,0.01,0.03,-0.68,-3.72,39.01,-5.42,0.85,10.16,0.74,-0.12,-0.61
1,1,0,-64,-374,3909,0.01,0.01,0.03,-0.64,-3.74,39.09,-5.43,0.87,10.16,0.74,-0.14,-0.61
0,1,1,-66,-371,3918,0.01,0.02,0.03,-0.66,-3.71,39.18,-5.42,0.89,10.16,0.76,-0.14,-0.62
0,1,1,-54,-362,3915,0.01,0.02,0.03,-0.54,-3.62,39.15,-5.41,0.88,10.16,0.76,-0.14,-0.62
0,0,1,-61,-366,3913,0.01,0.02,0.04,-0.61,-3.66,39.13,-5.39,0.88,10.16,0.75,-0.13,-0.62
0,0,1,-59,-370,3907,0.01,0.02,0.04,-0.59,-3.70,39.07,-5.40,0.87,10.16,0.76,-0.12,-0.62
0,0,0,-57,-363,3912,0.01,0.02,0.03,-0.57,-3.63,39.12,-5.39,0.86,10.16,0.75,-0.12,-0.62
1,1,1,-57,-366,3907,0.01,0.02,0.04,-0.57,-3.66,39.07,-5.37,0.85,10.16,0.74,-0.14,-0.62
0,0,1,-52,-366,3904,0.01,0.02,0.04,-0.52,-3.66,39.04,-5.37,0.83,10.16,0.75,-0.12,-0.63
0,0,1,-56,-364,3905,0.01,0.02,0.04,-0.56,-3.64,39.05,-5.35,0.83,10.16,0.75,-0.12,-0.63
0,-1,0,-58,-367,3903,0.01,0.01,0.04,-0.58,-3.67,39.03,-5.36,0.84,10.16,0.75,-0.10,-0.62
0,0,0,-60,-365,3914,0.01,0.01,0.03,-0.60,-3.65,39.14,-5.35,0.85,10.16,0.75,-0.12,-0.62
0,0,1,-54,-365,3902,0.01,0.01,0.04,-0.54,-3.65,39.02,-5.35,0.83,10.16,0.75,-0.12,-0.62
0,0,1,-48,-362,3911,0.01,0.01,0.04,-0.48,-3.62,39.11,-5.34,0.82,10.16,0.75,-0.12,-0.62
0,0,1,-58,-367,3915,0.01,0.01,0.04,-0.58,-3.67,39.15,-5.35,0.83,10.16,0.75,-0.12,-0.63
0,0,1,-52,-367,3909,0.01,0.01,0.04,-0.52,-3.67,39.09,-5.35,0.82,10.16,0.75,-0.11,-0.63
0,0,2,-61,-371,3902,0.01,0.00,0.05,-0.61,-3.71,39.02,-5.37,0.83,10.16,0.75,-0.12,-0.64
0,1,1,-55,-376,3908,0.00,0.01,0.05,-0.55,-3.76,39.08,-5.38,0.83,10.16,0.75,-0.13,-0.63
0,0,1,-57,-372,3908,0.00,0.01,0.05,-0.57,-3.72,39.08,-5.40,0.83,10.16,0.76,-0.12,-0.63
0,0,1,-57,-369,3914,0.00,0.01,0.05,-0.57,-3.69,39.14,-5.38,0.83,10.16,0.75,-0.12,-0.63
0,0,0,-60,-365,3915,0.00,0.01,0.05,-0.60,-3.65,39.15,-5.37,0.84,10.16,0.75,-0.12,-0.62
0,0,0,-54,-372,3897,0.00,0.01,0.04,-0.54,-3.72,38.97,-5.38,0.83,10.16,0.75,-0.12,-0.62
0,0,1,-58,-372,3915,0.00,0.01,0.05,-0.58,-3.72,39.15,-5.40,0.84,10.16,0.76,-0.12,-0.63
0,-1,1,-59,-373,3911,0.00,-0.00,0.05,-0.59,-3.73,39.11,-5.42,0.85,10.16,0.76,-0.10,-0.63
0,1,1,-59,-366,3911,0.00,0.01,0.05,-0.59,-3.66,39.11,-5.40,0.85,10.16,0.76,-0.13,-0.63
0,0,1,-53,-366,3902,0.00,0.01,0.05,-0.53,-3.66,39.02,-5.39,0.83,10.16,0.75,-0.12,-0.63
0,0,0,-58,-362,3915,0.00,0.00,0.04,-0.58,-3.62,39.15,-5.37,0.84,10.16,0.75,-0.12,-0.62
-1,0,0,-60,-368,3905,-0.00,0.00,0.04,-0.60,-3.68,39.05,-5.38,0.85,10.16,0.77,-0.12,-0.62
0,0,0,-54,-361,3903,-0.00,0.00,0.04,-0.54,-3.61,39.03,-5.36,0.84,10.16,0.75,-0.12,-0.62
0,0,0,-54,-363,3925,-0.00,0.00,0.03,-0.54,-3.63,39.25,-5.35,0.83,10.16,0.75,-0.12,-0.62
1,0,0,-66,-370,3914,0.00,0.00,0.03,-0.66,-3.70,39.14,-5.36,0.85,10.16,0.73,-0.12,-0.61
0,1,1,-62,-371,3891,0.00,0.01,0.03,-0.62,-3.71,38.91,-5.37,0.86,10.16,0.75,-0.14,-0.62
0,1,1,-63,-379,3907,0.00,0.01,0.04,-0.63,-3.79,39.07,-5.39,0.87,10.16,0.75,-0.14,-0.62
0,0,1,-57,-369,3909,0.00,0.01,0.04,-0.57,-3.69,39.09,-5.39,0.85,10.16,0.75,-0.12,-0.62
0,0,1,-45,-365,3906,0.00,0.01,0.04,-0.45,-3.65,39.06,-5.39,0.83,10.16,0.75,-0.12,-0.62
1,-1,0,-60,-372,3902,0.01,0.00,0.04,-0.60,-3.72,39.02,-5.40,0.84,10.16,0.74,-0.10,-0.62
0,0,1,-64,-368,3910,0.01,0.00,0.04,-0.64,-3.68,39.10,-5.40,0.86,10.16,0.75,-0.12,-0.62
0,1,1,-54,-364,3911,0.01,0.01,0.04,-0.54,-3.64,39.11,-5.38,0.85,10.15,0.75,-0.13,-0.63
0,1,1,-56,-362,3902,0.01,0.01,0.04,-0.56,-3.62,39.02,-5.36,0.84,10.15,0.75,-0.13,-0.63
1,1,1,-59,-368,3901,0.01,0.02,0.04,-0.59,-3.68,39.01,-5.38,0.85,10.15,0.74,-0.14,-0.63
1,0,1,-63,-361,3896,0.02,0.02,0.05,-0.63,-3.61,38.96,-5.36,0.86,10.15,0.73,-0.12,-0.63
1,0,1,-59,-362,3907,0.02,0.02,0.05,-0.59,-3.62,39.07,-5.35,0.86,10.15,0.73,-0.12,-0.63
0,1,1,-61,-362,3909,0.02,0.02,0.05,-0.61,-3.62,39.09,-5.33,0.87,10.15,0.74,-0.14,-0.63
0,0,1,-56,-362,3896,0.02,0.02,0.05,-0.56,-3.62,38.96,-5.32,0.86,10.15,0.74,-0.12,-0.63
1,-1,1,-54,-371,3914,0.02,0.01,0.05,-0.54,-3.71,39.14,-5.34,0.84,10.15,0.73,-0.10,-0.63
1,1,1,-56,-371,3908,0.03,0.02,0.05,-0.56,-3.71,39.08,-5.35,0.84,10.15,0.73,-0.13,-0.63
1,0,1,-63,-373,3922,0.03,0.01,0.05,-0.63,-3.73,39.22,-5.37,0.85,10.15,0.73,-0.12,-0.63
1,1,1,-60,-374,3905,0.03,0.02,0.05,-0.60,-3.74,39.05,-5.38,0.86,10.15,0.74,-0.14,-0.63
0,1,1,-66,-377,3899,0.03,0.02,0.05,-0.66,-3.77,38.99,-5.40,0.87,10.15,0.75,-0.14,-0.63
-1,0,0,-68,-372,3904,0.02,0.02,0.05,-0.68,-3.72,39.04,-5.40,0.88,10.15,0.77,-0.13,-0.62
0,1,1,-52,-365,3903,0.02,0.02,0.05,-0.52,-3.65,39.03,-5.40,0.87,10.15,0.75,-0.14,-0.63
0,0,1,-53,-367,3896,0.02,0.02,0.05,-0.53,-3.67,38.96,-5.39,0.85,10.15,0.75,-0.12,-0.63
1,1,0,-50,-365,3907,0.02,0.03,0.05,-0.50,-3.65,39.07,-5.39,0.83,10.15,0.74,-0.13,-0.62
0,0,0,-50,-365,3906,0.02,0.02,0.04,-0.50,-3.65,39.06,-5.38,0.82,10.15,0.75,-0.12,-0.62
1,0,2,-54,-365,3912,0.02,0.02,0.05,-0.54,-3.65,39.12,-5.36,0.81,10.15,0.73,-0.12,-0.63
1,0,1,-46,-370,3908,0.03,0.02,0.05,-0.46,-3.70,39.08,-5.37,0.79,10.15,0.73,-0.11,-0.63
1,0,1,-52,-375,3897,0.03,0.02,0.05,-0.52,-3.75,38.97,-5.39,0.79,10.15,0.74,-0.11,-0.63
0,0,2,-51,-373,3909,0.03,0.02,0.06,-0.51,-3.73,39.09,-5.40,0.78,10.15,0.75,-0.11,-0.64
0,0,1,-63,-369,3908,0.02,0.01,0.06,-0.63,-3.69,39.08,-5.40,0.80,10.15,0.75,-0.11,-0.63
0,0,1,-61,-367,3915,0.02,0.01,0.06,-0.61,-3.67,39.15,-5.39,0.81,10.15,0.75,-0.11,-0.63
0,0,0,-57,-360,3898,0.02,0.01,0.05,-0.57,-3.60,38.98,-5.37,0.82,10.15,0.75,-0.12,-0.62
0,-1,0,-62,-364,3914,0.02,0.00,0.05,-0.62,-3.64,39.14,-5.36,0.83,10.15,0.75,-0.10,-0.62
0,1,0,-52,-370,3899,0.02,0.01,0.04,-0.52,-3.70,38.99,-5.38,0.82,10.15,0.75,-0.13,-0.62
0,0,0,-48,-364,3904,0.01,0.01,0.04,-0.48,-3.64,39.04,-5.37,0.80,10.15,0.75,-0.11,-0.62
1,0,1,-58,-368,3912,0.02,0.01,0.04,-0.58,-3.68,39.12,-5.37,0.82,10.15,0.73,-0.12,-0.62
1,0,1,-57,-380,3912,0.02,0.01,0.04,-0.57,-3.80,39.12,-5.39,0.82,10.15,0.74,-0.12,-0.63
0,0,0,-50,-374,3904,0.02,0.01,0.04,-0.50,-3.74,39.04,-5.40,0.81,10.15,0.75,-0.11,-0.62
1,-1,1,-51,-375,3904,0.02,-0.00,0.04,-0.51,-3.75,39.04,-5.42,0.80,10.15,0.74,-0.10,-0.62
-1,1,1,-44,-361,3918,0.02,0.01,0.04,-0.44,-3.61,39.18,-5.40,0.78,10.15,0.77,-0.13,-0.63
-1,0,1,-58,-367,3914,0.01,0.01,0.04,-0.58,-3.67,39.14,-5.39,0.80,10.15,0.77,-0.11,-0.63
1,0,0,-61,-371,3901,0.01,0.00,0.04,-0.61,-3.71,39.01,-5.40,0.81,10.15,0.74,-0.11,-0.62
0,1,1,-60,-362,3912,0.01,0.01,0.04,-0.60,-3.62,39.12,-5.38,0.82,10.15,0.75,-0.13,-0.62
0,0,1,-57,-366,3905,0.01,0.01,0.04,-0.57,-3.66,39.05,-5.37,0.83,10.15,0.75,-0.12,-0.63
0,-1,1,-59,-361,3905,0.01,0.00,0.05,-0.59,-3.61,39.05,-5.35,0.84,10.15,0.75,-0.10,-0.63
1,0,1,-56,-366,3897,0.02,0.00,0.05,-0.56,-3.66,38.97,-5.36,0.82,10.15,0.73,-0.12,-0.63
0,1,1,-60,-364,3906,0.01,0.01,0.05,-0.60,-3.64,39.06,-5.35,0.84,10.15,0.75,-0.13,-0.63
0,0,1,-68,-364,3901,0.01,0.01,0.05,-0.68,-3.64,39.01,-5.35,0.86,10.15,0.75,-0.12,-0.63
0,1,0,-56,-370,3911,0.01,0.01,0.05,-0.56,-3.70,39.11,-5.36,0.85,10.15,0.75,-0.13,-0.62
1,0,0,-61,-360,3900,0.02,0.01,0.04,-0.61,-3.60,39.00,-5.35,0.85,10.15,0.73,-0.12,-0.62
0,0,0,-68,-362,3904,0.01,0.01,0.04,-0.68,-3.62,39.04,-5.34,0.87,10.15,0.75,-0.12,-0.62
0,0,1,-56,-362,3915,0.01,0.01,0.04,-0.56,-3.62,39.15,-5.33,0.86,10.15,0.74,-0.12,-0.62
1,0,1,-59,-366,3922,0.02,0.01,0.04,-0.59,-3.66,39.22,-5.35,0.86,10.15,0.73,-0.12,-0.62
1,0,1,-68,-372,3912,0.02,0.01,0.04,-0.68,-3.72,39.12,-5.36,0.87,10.15,0.73,-0.12,-0.62
0,1,2,-64,-368,3912,0.02,0.01,0.05,-0.64,-3.68,39.12,-5.36,0.89,10.15,0.75,-0.14,-0.63
0,0,1,-63,-366,3906,0.02,0.01,0.05,-0.63,-3.66,39.06,-5.36,0.91,10.15,0.75,-0.13,-0.63
0,0,2,-57,-367,3913,0.02,0.01,0.06,-0.57,-3.67,39.13,-5.36,0.89,10.15,0.75,-0.13,-0.64
1,0,1,-59,-364,3924,0.02,0.01,0.06,-0.59,-3.64,39.24,-5.34,0.88,10.15,0.73,-0.12,-0.63
0,0,0,-72,-365,3935,0.02,0.01,0.05,-0.72,-3.65,39.35,-5.34,0.90,10.14,0.75,-0.13,-0.62
0,0,1,-54,-373,3912,0.02,0.01,0.05,-0.54,-3.73,39.12,-5.35,0.88,10.14,0.75,-0.12,-0.63
0,0,1,-54,-374,3910,0.02,0.01,0.05,-0.54,-3.74,39.10,-5.36,0.87,10.14,0.75,-0.12,-0.63
0,-1,1,-58,-380,3910,0.01,-0.00,0.06,-0.58,-3.80,39.10,-5.38,0.87,10.14,0.75,-0.11,-0.63
1,0,1,-60,-371,3906,0.02,-0.00,0.06,-0.60,-3.71,39.06,-5.40,0.87,10.15,0.74,-0.12,-0.63
0,0,1,-58,-367,3899,0.02,-0.00,0.06,-0.58,-3.67,38.99,-5.39,0.86,10.14,0.75,-0.12,-0.63
-1,1,0,-55,-368,3910,0.01,0.01,0.05,-0.55,-3.68,39.10,-5.38,0.84,10.14,0.77,-0.13,-0.62
0,0,1,-52,-365,3912,0.01,0.01,0.05,-0.52,-3.65,39.12,-5.37,0.83,10.14,0.75,-0.12,-0.63
0,0,1,-52,-368,3909,0.01,0.00,0.05,-0.52,-3.68,39.09,-5.37,0.81,10.14,0.75,-0.11,-0.63
0,0,0,-55,-374,3913,0.01,0.00,0.05,-0.55,-3.74,39.13,-5.39,0.81,10.14,0.75,-0.11,-0.62
0,0,0,-55,-363,3914,0.01,0.00,0.04,-0.55,-3.63,39.14,-5.37,0.81,10.14,0.75,-0.11,-0.62
1,0,1,-64,-368,3903,0.01,0.00,0.04,-0.64,-3.68,39.03,-5.38,0.82,10.14,0.74,-0.12,-0.63
0,0,1,-60,-370,3920,0.01,0.00,0.05,-0.60,-3.70,39.20,-5.38,0.84,10.14,0.75,-0.12,-0.63
0,0,1,-65,-369,3895,0.01,0.00,0.05,-0.65,-3.69,38.95,-5.39,0.86,10.14,0.75,-0.12,-0.63
-1,0,1,-60,-368,3906,0.00,0.00,0.05,-0.60,-3.68,39.06,-5.38,0.88,10.14,0.77,-0.12,-0.63
0,0,1,-56,-375,3900,0.00,0.00,0.05,-0.56,-3.75,39.00,-5.40,0.87,10.14,0.76,-0.12,-0.63
0,0,1,-59,-376,3888,0.00,0.00,0.05,-0.59,-3.76,38.88,-5.42,0.87,10.14,0.76,-0.12,-0.63
0,1,1,-67,-370,3898,0.00,0.01,0.05,-0.67,-3.70,38.98,-5.42,0.89,10.14,0.76,-0.14,-0.63
0,1,1,-58,-370,3910,0.00,0.01,0.05,-0.58,-3.70,39.10,-5.41,0.87,10.14,0.76,-0.14,-0.63
1,1,1,-56,-365,3904,0.01,0.02,0.05,-0.56,-3.65,39.04,-5.40,0.86,10.14,0.74,-0.14,-0.63
1,0,1,-54,-368,3908,0.01,0.02,0.05,-0.54,-3.68,39.08,-5.39,0.84,10.14,0.74,-0.12,-0.63
1,1,1,-58,-363,3901,0.02,0.02,0.06,-0.58,-3.63,39.01,-5.37,0.84,10.14,0.74,-0.14,-0.63
1,1,1,-54,-374,3902,0.02,0.02,0.06,-0.54,-3.74,39.02,-5.39,0.83,10.14,0.74,-0.13,-0.63
0,-1,1,-57,-373,3906,0.02,0.02,0.06,-0.57,-3.73,39.06,-5.41,0.83,10.14,0.76,-0.10,-0.63
0,0,1,-61,-371,3898,0.02,0.01,0.06,-0.61,-3.71,38.98,-5.42,0.85,10.14,0.76,-0.12,-0.63
0,0,0,-65,-363,3904,0.02,0.01,0.05,-0.65,-3.63,39.04,-5.40,0.86,10.14,0.75,-0.12,-0.62
