gyroADC_X,gyroADC_Y,gyroADC_Z,accADC_X,accADC_Y,accADC_Z,GyroX,GyroY,GyroZ,AccX,AccY,AccZ,roll_IMU,pitch_IMU,yaw_IMU,roll_PID,pitch_PID,yaw_PID
0,0,0,-53,-424,3886,-0.04,-0.00,-0.02,-0.53,-4.24,38.86,-6.27,0.83,0.08,4.15,-0.55,-0.03
6,1,0,-36,-421,3895,-0.00,0.00,-0.02,-0.36,-4.21,38.95,-6.26,0.81,0.08,4.01,-0.56,-0.03
0,1,-2,-40,-417,3943,-0.00,0.01,-0.03,-0.40,-4.17,39.43,-6.25,0.80,0.08,4.12,-0.55,0.13
-2,0,-1,-62,-405,3945,-0.01,0.01,-0.03,-0.62,-4.05,39.45,-6.23,0.80,0.08,4.16,-0.53,0.04
-4,2,1,-95,-438,3919,-0.04,0.02,-0.02,-0.95,-4.38,39.19,-6.24,0.82,0.08,4.21,-0.59,-0.12
-3,2,1,-78,-456,3894,-0.05,0.03,-0.01,-0.78,-4.56,38.94,-6.25,0.83,0.08,4.20,-0.60,-0.11
-4,-1,1,-78,-461,3892,-0.07,0.02,-0.01,-0.78,-4.61,38.92,-6.27,0.84,0.08,4.24,-0.54,-0.10
-1,-1,-2,-46,-437,3888,-0.07,0.01,-0.02,-0.46,-4.37,38.88,-6.28,0.83,0.08,4.18,-0.53,0.14
1,-1,-1,-32,-436,3890,-0.06,0.01,-0.02,-0.32,-4.36,38.90,-6.28,0.81,0.08,4.14,-0.51,0.05
5,-2,-1,-34,-403,3888,-0.02,-0.01,-0.03,-0.34,-4.03,38.88,-6.27,0.80,0.08,4.04,-0.48,0.05
5,-1,-1,-35,-395,3896,0.01,-0.01,-0.03,-0.35,-3.95,38.96,-6.26,0.79,0.08,4.02,-0.50,0.05
2,0,0,-54,-387,3918,0.02,-0.01,-0.03,-0.54,-3.87,39.18,-6.24,0.79,0.08,4.07,-0.52,-0.04
0,0,0,-64,-402,3912,0.02,-0.01,-0.02,-0.64,-4.02,39.12,-6.22,0.79,0.08,4.10,-0.52,-0.03
-1,2,0,-80,-421,3915,0.01,0.00,-0.02,-0.80,-4.21,39.15,-6.22,0.81,0.08,4.12,-0.58,-0.03
-2,1,0,-73,-416,3919,-0.00,0.01,-0.02,-0.73,-4.16,39.19,-6.21,0.83,0.08,4.14,-0.57,-0.03
-3,1,0,-60,-453,3906,-0.02,0.01,-0.02,-0.60,-4.53,39.06,-6.22,0.83,0.08,4.17,-0.57,-0.03
-4,0,-1,-50,-452,3905,-0.04,0.01,-0.02,-0.50,-4.52,39.05,-6.24,0.82,0.08,4.21,-0.55,0.05
-3,-1,-1,-56,-442,3898,-0.06,0.01,-0.03,-0.56,-4.42,38.98,-6.26,0.82,0.08,4.21,-0.53,0.05
-2,0,-1,-56,-440,3903,-0.06,0.00,-0.03,-0.56,-4.40,39.03,-6.28,0.82,0.08,4.20,-0.54,0.05
-1,0,0,-58,-412,3903,-0.06,0.00,-0.03,-0.58,-4.12,39.03,-6.26,0.83,0.08,4.17,-0.55,-0.04
-1,-1,0,-53,-402,3891,-0.06,-0.00,-0.02,-0.53,-4.02,38.91,-6.24,0.82,0.08,4.16,-0.52,-0.03
0,0,0,-40,-396,3903,-0.06,-0.00,-0.02,-0.40,-3.96,39.03,-6.23,0.81,0.08,4.13,-0.54,-0.03
0,0,1,-42,-397,3894,-0.05,-0.00,-0.01,-0.42,-3.97,38.94,-6.21,0.81,0.08,4.11,-0.53,-0.11
2,1,0,-43,-412,3910,-0.03,0.00,-0.01,-0.43,-4.12,39.10,-6.20,0.79,0.08,4.06,-0.55,-0.02
2,1,0,-41,-423,3908,-0.02,0.01,-0.01,-0.41,-4.23,39.08,-6.20,0.78,0.08,4.05,-0.53,-0.02
0,1,-1,-63,-460,3905,-0.02,0.02,-0.02,-0.63,-4.60,39.05,-6.21,0.78,0.08,4.11,-0.54,0.06
-1,0,-1,-73,-462,3918,-0.02,0.01,-0.02,-0.73,-4.62,39.18,-6.23,0.79,0.08,4.14,-0.52,0.06
0,-1,0,-70,-433,3898,-0.02,0.01,-0.02,-0.70,-4.33,38.98,-6.24,0.81,0.08,4.12,-0.51,-0.03
-1,-1,-1,-63,-441,3887,-0.02,-0.00,-0.02,-0.63,-4.41,38.87,-6.25,0.81,0.08,4.15,-0.52,0.05
-1,-1,0,-49,-410,3896,-0.03,-0.01,-0.02,-0.49,-4.10,38.96,-6.24,0.81,0.08,4.14,-0.51,-0.03
0,-1,0,-48,-403,3904,-0.02,-0.01,-0.02,-0.48,-4.03,39.04,-6.22,0.80,0.08,4.11,-0.51,-0.03
0,-1,0,-43,-405,3899,-0.02,-0.02,-0.02,-0.43,-4.05,38.99,-6.20,0.79,0.08,4.10,-0.50,-0.02
0,0,0,-45,-407,3907,-0.02,-0.02,-0.01,-0.45,-4.07,39.07,-6.19,0.78,0.08,4.09,-0.51,-0.02
0,0,-1,-53,-422,3904,-0.02,-0.01,-0.02,-0.53,-4.22,39.04,-6.17,0.77,0.08,4.08,-0.51,0.06
0,1,0,-57,-422,3906,-0.02,-0.01,-0.02,-0.57,-4.22,39.06,-6.17,0.79,0.08,4.08,-0.54,-0.03
1,0,-1,-63,-441,3910,-0.01,-0.01,-0.02,-0.63,-4.41,39.10,-6.19,0.80,0.08,4.07,-0.53,0.05
0,0,0,-64,-442,3905,-0.01,-0.01,-0.02,-0.64,-4.42,39.05,-6.20,0.81,0.08,4.10,-0.53,-0.03
-1,0,0,-61,-435,3893,-0.01,-0.00,-0.02,-0.61,-4.35,38.93,-6.22,0.82,0.08,4.13,-0.54,-0.03
-1,-1,0,-62,-432,3899,-0.02,-0.01,-0.02,-0.62,-4.32,38.99,-6.23,0.83,0.08,4.14,-0.52,-0.02
0,0,0,-52,-415,3909,-0.02,-0.01,-0.01,-0.52,-4.15,39.09,-6.22,0.82,0.08,4.11,-0.54,-0.02
-1,-1,0,-54,-416,3910,-0.02,-0.01,-0.01,-0.54,-4.16,39.10,-6.20,0.82,0.08,4.12,-0.52,-0.02
-1,0,0,-52,-422,3904,-0.02,-0.01,-0.01,-0.52,-4.22,39.04,-6.19,0.80,0.08,4.11,-0.53,-0.02
-1,0,-1,-44,-424,3906,-0.03,-0.01,-0.02,-0.44,-4.24,39.06,-6.19,0.78,0.08,4.11,-0.51,0.06
0,0,0,-45,-424,3890,-0.03,-0.01,-0.01,-0.45,-4.24,38.90,-6.20,0.76,0.08,4.10,-0.50,-0.02
1,0,0,-50,-425,3903,-0.02,-0.01,-0.01,-0.50,-4.25,39.03,-6.20,0.75,0.08,4.08,-0.49,-0.02
1,0,0,-58,-431,3904,-0.01,-0.01,-0.01,-0.58,-4.31,39.04,-6.22,0.76,0.08,4.09,-0.50,-0.02
0,1,0,-54,-430,3898,-0.01,-0.00,-0.01,-0.54,-4.30,38.98,-6.23,0.77,0.08,4.12,-0.53,-0.02
-1,0,0,-66,-428,3908,-0.01,-0.00,-0.01,-0.66,-4.28,39.08,-6.24,0.79,0.08,4.14,-0.52,-0.02
0,-1,0,-66,-425,3924,-0.01,-0.01,-0.01,-0.66,-4.25,39.24,-6.23,0.80,0.08,4.12,-0.51,-0.02
-1,0,0,-55,-417,3902,-0.02,-0.01,-0.01,-0.55,-4.17,39.02,-6.21,0.80,0.08,4.13,-0.53,-0.02
-1,-1,0,-54,-411,3900,-0.02,-0.01,-0.01,-0.54,-4.11,39.00,-6.19,0.80,0.08,4.11,-0.51,-0.01
-1,-1,0,-47,-422,3898,-0.03,-0.02,-0.01,-0.47,-4.22,38.98,-6.19,0.78,0.08,4.11,-0.49,-0.01
0,0,0,-52,-421,3899,-0.02,-0.02,-0.01,-0.52,-4.21,38.99,-6.18,0.77,0.08,4.08,-0.51,-0.01
0,0,0,-47,-428,3910,-0.02,-0.01,-0.01,-0.47,-4.28,39.10,-6.19,0.76,0.08,4.09,-0.50,-0.01
-1,0,0,-46,-422,3909,-0.02,-0.01,-0.00,-0.46,-4.22,39.09,-6.18,0.74,0.08,4.11,-0.49,-0.01
0,1,0,-61,-437,3908,-0.02,-0.01,-0.00,-0.61,-4.37,39.08,-6.20,0.75,0.08,4.10,-0.51,-0.01
1,1,0,-60,-431,3912,-0.01,0.00,-0.00,-0.60,-4.31,39.12,-6.21,0.77,0.08,4.08,-0.53,-0.01
-1,0,-1,-60,-437,3910,-0.02,0.00,-0.01,-0.60,-4.37,39.10,-6.22,0.78,0.08,4.13,-0.51,0.07
-1,0,0,-55,-436,3904,-0.02,0.00,-0.01,-0.55,-4.36,39.04,-6.24,0.78,0.08,4.15,-0.51,-0.02
-1,-1,0,-59,-420,3902,-0.03,-0.00,-0.01,-0.59,-4.20,39.02,-6.23,0.79,0.08,4.14,-0.50,-0.02
0,-1,0,-54,-416,3908,-0.02,-0.01,-0.01,-0.54,-4.16,39.08,-6.21,0.79,0.08,4.11,-0.50,-0.01
0,0,0,-51,-414,3900,-0.02,-0.01,-0.01,-0.51,-4.14,39.00,-6.19,0.78,0.08,4.09,-0.52,-0.01
0,0,0,-52,-411,3910,-0.02,-0.01,-0.01,-0.52,-4.11,39.10,-6.18,0.78,0.08,4.08,-0.51,-0.01
-1,0,0,-50,-422,3898,-0.02,-0.01,-0.01,-0.50,-4.22,38.98,-6.18,0.76,0.08,4.10,-0.50,-0.01
0,1,0,-52,-431,3906,-0.02,-0.00,-0.00,-0.52,-4.31,39.06,-6.19,0.76,0.08,4.09,-0.52,-0.01
0,0,0,-56,-428,3908,-0.02,-0.00,-0.00,-0.56,-4.28,39.08,-6.21,0.78,0.08,4.10,-0.51,-0.01
0,0,-1,-60,-427,3908,-0.02,-0.00,-0.01,-0.60,-4.27,39.08,-6.21,0.79,0.08,4.11,-0.52,0.07
1,0,-1,-58,-432,3896,-0.01,-0.00,-0.01,-0.58,-4.32,38.96,-6.23,0.80,0.08,4.09,-0.53,0.06
1,0,0,-55,-423,3907,-0.00,-0.00,-0.01,-0.55,-4.23,39.07,-6.21,0.80,0.08,4.08,-0.53,-0.02
-1,-1,-1,-58,-417,3892,-0.01,-0.01,-0.02,-0.58,-4.17,38.92,-6.20,0.81,0.08,4.11,-0.51,0.06
-1,0,-1,-63,-423,3904,-0.01,-0.01,-0.02,-0.63,-4.23,39.04,-6.19,0.83,0.08,4.11,-0.54,0.05
-1,0,-1,-58,-429,3902,-0.02,-0.01,-0.03,-0.58,-4.29,39.02,-6.21,0.83,0.08,4.12,-0.55,0.05
-1,-1,-1,-52,-425,3894,-0.02,-0.01,-0.03,-0.52,-4.25,38.94,-6.22,0.81,0.08,4.13,-0.51,0.05
0,0,0,-53,-433,3904,-0.02,-0.01,-0.03,-0.53,-4.33,39.04,-6.23,0.81,0.08,4.12,-0.53,-0.04
0,0,0,-53,-439,3897,-0.02,-0.01,-0.02,-0.53,-4.39,38.97,-6.25,0.80,0.08,4.13,-0.53,-0.03
0,0,0,-46,-434,3903,-0.02,-0.01,-0.02,-0.46,-4.34,39.03,-6.26,0.79,0.08,4.14,-0.52,-0.03
0,0,-1,-46,-428,3910,-0.01,-0.01,-0.03,-0.46,-4.28,39.10,-6.26,0.77,0.08,4.14,-0.51,0.05
0,0,-1,-59,-427,3906,-0.01,-0.01,-0.03,-0.59,-4.27,39.06,-6.26,0.79,0.08,4.13,-0.52,0.05
0,0,0,-59,-423,3915,-0.01,-0.01,-0.03,-0.59,-4.23,39.15,-6.24,0.80,0.08,4.12,-0.53,-0.04
0,-1,0,-51,-417,3910,-0.01,-0.01,-0.02,-0.51,-4.17,39.10,-6.22,0.79,0.08,4.11,-0.50,-0.03
0,0,0,-50,-414,3900,-0.01,-0.01,-0.02,-0.50,-4.14,39.00,-6.21,0.79,0.08,4.10,-0.52,-0.03
-1,-1,1,-56,-416,3913,-0.01,-0.02,-0.01,-0.56,-4.16,39.13,-6.19,0.79,0.08,4.11,-0.50,-0.11
-1,0,0,-56,-422,3912,-0.02,-0.01,-0.01,-0.56,-4.22,39.12,-6.17,0.80,0.08,4.10,-0.53,-0.02
0,0,0,-60,-424,3911,-0.02,-0.01,-0.01,-0.60,-4.24,39.11,-6.18,0.82,0.08,4.08,-0.54,-0.02
-1,-1,0,-60,-426,3900,-0.02,-0.02,-0.01,-0.60,-4.26,39.00,-6.19,0.83,0.08,4.11,-0.52,-0.02
-1,0,1,-59,-422,3898,-0.03,-0.02,-0.00,-0.59,-4.22,38.98,-6.18,0.85,0.08,4.11,-0.56,-0.09
-1,1,0,-56,-427,3903,-0.03,-0.01,-0.00,-0.56,-4.27,39.03,-6.20,0.84,0.08,4.12,-0.57,-0.01
-1,0,0,-51,-426,3907,-0.03,-0.01,-0.00,-0.51,-4.26,39.07,-6.20,0.82,0.08,4.12,-0.54,-0.01
-1,0,-1,-49,-425,3901,-0.04,-0.01,-0.01,-0.49,-4.25,39.01,-6.21,0.80,0.08,4.13,-0.53,0.07
0,0,0,-52,-423,3908,-0.03,-0.01,-0.01,-0.52,-4.23,39.08,-6.20,0.79,0.08,4.10,-0.52,-0.01
0,0,0,-52,-433,3915,-0.03,-0.01,-0.01,-0.52,-4.33,39.15,-6.21,0.78,0.08,4.11,-0.52,-0.01
0,0,-1,-52,-433,3911,-0.03,-0.00,-0.01,-0.52,-4.33,39.11,-6.23,0.78,0.08,4.12,-0.51,0.06
0,-1,0,-53,-438,3907,-0.02,-0.01,-0.01,-0.53,-4.38,39.07,-6.25,0.78,0.08,4.13,-0.49,-0.02
-1,-1,0,-49,-434,3905,-0.03,-0.02,-0.01,-0.49,-4.34,39.05,-6.27,0.77,0.08,4.16,-0.48,-0.02
-1,-1,0,-56,-429,3906,-0.03,-0.02,-0.01,-0.56,-4.29,39.06,-6.27,0.79,0.08,4.16,-0.49,-0.02
-1,0,0,-58,-427,3899,-0.03,-0.02,-0.01,-0.58,-4.27,38.99,-6.26,0.80,0.08,4.16,-0.53,-0.02
-1,-1,0,-55,-422,3901,-0.04,-0.02,-0.01,-0.55,-4.22,39.01,-6.24,0.80,0.08,4.15,-0.50,-0.01
-1,-1,0,-53,-419,3899,-0.04,-0.03,-0.01,-0.53,-4.19,38.99,-6.23,0.80,0.08,4.14,-0.50,-0.01
-1,0,0,-54,-422,3902,-0.04,-0.02,-0.01,-0.54,-4.22,39.02,-6.21,0.80,0.08,4.13,-0.52,-0.01
0,0,0,-55,-424,3906,-0.04,-0.02,-0.01,-0.55,-4.24,39.06,-6.19,0.80,0.08,4.10,-0.52,-0.01
0,0,0,-57,-429,3904,-0.03,-0.02,-0.00,-0.57,-4.29,39.04,-6.21,0.81,0.08,4.11,-0.53,-0.01
0,0,0,-64,-423,3913,-0.03,-0.02,-0.00,-0.64,-4.23,39.13,-6.20,0.83,0.08,4.10,-0.54,-0.01
0,0,0,-56,-427,3912,-0.03,-0.02,-0.00,-0.56,-4.27,39.12,-6.22,0.82,0.08,4.11,-0.54,-0.01
0,0,0,-58,-428,3910,-0.02,-0.01,-0.00,-0.58,-4.28,39.10,-6.23,0.83,0.08,4.12,-0.55,-0.01
-1,0,0,-56,-433,3910,-0.03,-0.01,-0.00,-0.56,-4.33,39.10,-6.25,0.83,0.08,4.15,-0.54,-0.01
0,0,0,-59,-430,3911,-0.03,-0.01,-0.00,-0.59,-4.30,39.11,-6.26,0.84,0.08,4.14,-0.55,-0.01
0,0,-1,-56,-422,3912,-0.02,-0.01,-0.01,-0.56,-4.22,39.12,-6.25,0.84,0.08,4.13,-0.55,0.07
0,0,-1,-56,-428,3910,-0.02,-0.01,-0.01,-0.56,-4.28,39.10,-6.25,0.82,0.08,4.13,-0.54,0.06
0,-1,-1,-53,-426,3901,-0.02,-0.01,-0.02,-0.53,-4.26,39.01,-6.24,0.80,0.08,4.12,-0.51,0.06
0,-1,-1,-65,-425,3917,-0.02,-0.02,-0.02,-0.65,-4.25,39.17,-6.24,0.82,0.08,4.12,-0.52,0.05
0,-1,0,-56,-426,3917,-0.01,-0.02,-0.02,-0.56,-4.26,39.17,-6.22,0.82,0.08,4.11,-0.51,-0.03
-1,-1,0,-54,-431,3906,-0.02,-0.03,-0.02,-0.54,-4.31,39.06,-6.23,0.81,0.08,4.14,-0.51,-0.03
-1,-1,0,-55,-423,3912,-0.02,-0.03,-0.02,-0.55,-4.23,39.12,-6.22,0.81,0.08,4.13,-0.50,-0.02
0,1,0,-63,-426,3905,-0.02,-0.02,-0.01,-0.63,-4.26,39.05,-6.22,0.83,0.08,4.11,-0.56,-0.02
-1,1,0,-61,-427,3903,-0.03,-0.01,-0.01,-0.61,-4.27,39.03,-6.23,0.84,0.08,4.14,-0.57,-0.02
-1,0,1,-51,-423,3896,-0.03,-0.01,-0.01,-0.51,-4.23,38.96,-6.22,0.82,0.08,4.13,-0.54,-0.10
-1,0,0,-52,-421,3902,-0.03,-0.01,-0.01,-0.52,-4.21,39.02,-6.21,0.81,0.08,4.13,-0.53,-0.01
-1,0,0,-53,-424,3912,-0.03,-0.01,-0.00,-0.53,-4.24,39.12,-6.20,0.80,0.08,4.12,-0.52,-0.01
-1,0,0,-58,-430,3899,-0.04,-0.01,-0.00,-0.58,-4.30,38.99,-6.22,0.80,0.08,4.13,-0.53,-0.01
-1,0,1,-54,-433,3901,-0.04,-0.01,0.00,-0.54,-4.33,39.01,-6.23,0.80,0.08,4.15,-0.53,-0.09
-1,0,0,-53,-422,3905,-0.04,-0.01,0.00,-0.53,-4.22,39.05,-6.22,0.79,0.08,4.13,-0.52,-0.01
0,0,0,-58,-425,3903,-0.04,-0.01,0.00,-0.58,-4.25,39.03,-6.22,0.81,0.08,4.11,-0.53,-0.01
-1,0,0,-58,-429,3895,-0.04,-0.01,0.00,-0.58,-4.29,38.95,-6.23,0.82,0.08,4.14,-0.54,-0.01
-1,0,0,-58,-432,3909,-0.04,-0.01,0.00,-0.58,-4.32,39.09,-6.25,0.83,0.08,4.16,-0.54,-0.01
-1,0,0,-55,-422,3913,-0.04,-0.00,0.00,-0.55,-4.22,39.13,-6.23,0.82,0.08,4.15,-0.54,-0.01
0,0,-1,-55,-428,3901,-0.04,-0.00,-0.00,-0.55,-4.28,39.01,-6.25,0.81,0.08,4.13,-0.53,0.07
-1,0,0,-50,-433,3903,-0.04,-0.00,-0.00,-0.50,-4.33,39.03,-6.26,0.80,0.08,4.16,-0.53,-0.01
0,0,-1,-54,-422,3890,-0.04,-0.00,-0.01,-0.54,-4.22,38.90,-6.24,0.80,0.08,4.13,-0.52,0.07
0,0,-1,-59,-421,3896,-0.03,-0.00,-0.02,-0.59,-4.21,38.96,-6.23,0.81,0.08,4.12,-0.53,0.06
0,-1,0,-55,-427,3903,-0.03,-0.01,-0.01,-0.55,-4.27,39.03,-6.25,0.80,0.08,4.13,-0.51,-0.02
0,-1,-1,-60,-427,3904,-0.03,-0.01,-0.02,-0.60,-4.27,39.04,-6.25,0.82,0.08,4.13,-0.52,0.06
0,0,-1,-50,-430,3903,-0.02,-0.01,-0.02,-0.50,-4.30,39.03,-6.25,0.80,0.08,4.13,-0.53,0.05
0,0,0,-53,-420,3905,-0.02,-0.01,-0.02,-0.53,-4.20,39.05,-6.24,0.80,0.08,4.12,-0.52,-0.03
0,0,-1,-52,-426,3908,-0.02,-0.01,-0.02,-0.52,-4.26,39.08,-6.23,0.78,0.08,4.12,-0.51,0.05
-1,0,0,-54,-429,3908,-0.02,-0.01,-0.02,-0.54,-4.29,39.08,-6.25,0.78,0.08,4.15,-0.51,-0.03
-1,1,0,-65,-420,3899,-0.03,-0.00,-0.02,-0.65,-4.20,38.99,-6.24,0.80,0.08,4.15,-0.55,-0.03
-1,0,0,-64,-425,3905,-0.03,-0.00,-0.02,-0.64,-4.25,39.05,-6.23,0.82,0.08,4.14,-0.54,-0.03
-1,-1,0,-46,-428,3894,-0.03,-0.01,-0.02,-0.46,-4.28,38.94,-6.24,0.80,0.08,4.15,-0.51,-0.02
0,0,1,-50,-424,3897,-0.03,-0.01,-0.01,-0.50,-4.24,38.97,-6.23,0.78,0.08,4.12,-0.51,-0.10
-1,0,-1,-55,-435,3903,-0.03,-0.01,-0.01,-0.55,-4.35,39.03,-6.25,0.79,0.08,4.15,-0.52,0.06
-1,0,-1,-54,-433,3898,-0.04,-0.01,-0.02,-0.54,-4.33,38.98,-6.27,0.79,0.08,4.17,-0.52,0.06
0,-1,0,-62,-416,3906,-0.03,-0.01,-0.02,-0.62,-4.16,39.06,-6.25,0.80,0.08,4.14,-0.50,-0.03
1,0,0,-54,-420,3921,-0.02,-0.01,-0.01,-0.54,-4.20,39.21,-6.24,0.79,0.08,4.10,-0.52,-0.02
1,-1,-1,-53,-412,3928,-0.01,-0.02,-0.02,-0.53,-4.12,39.28,-6.22,0.79,0.08,4.09,-0.50,0.06
0,0,-1,-55,-415,3935,-0.01,-0.01,-0.02,-0.55,-4.15,39.35,-6.20,0.79,0.08,4.10,-0.52,0.05
-1,0,0,-59,-428,3895,-0.02,-0.01,-0.02,-0.59,-4.28,38.95,-6.21,0.81,0.08,4.13,-0.53,-0.03
-1,0,0,-59,-425,3894,-0.02,-0.01,-0.02,-0.59,-4.25,38.94,-6.22,0.82,0.08,4.13,-0.54,-0.03
-2,1,-1,-59,-424,3915,-0.03,-0.00,-0.02,-0.59,-4.24,39.15,-6.20,0.84,0.08,4.14,-0.57,0.05
-1,0,-1,-62,-429,3901,-0.04,-0.00,-0.03,-0.62,-4.29,39.01,-6.22,0.85,0.08,4.13,-0.56,0.05
0,0,-1,-53,-427,3908,-0.03,-0.00,-0.03,-0.53,-4.27,39.08,-6.22,0.83,0.08,4.12,-0.55,0.04
0,0,0,-51,-431,3905,-0.03,-0.00,-0.03,-0.51,-4.31,39.05,-6.23,0.82,0.08,4.12,-0.54,-0.04
0,0,-1,-53,-420,3899,-0.03,-0.00,-0.03,-0.53,-4.20,38.99,-6.22,0.81,0.08,4.11,-0.53,0.04
0,0,-1,-55,-416,3906,-0.02,-0.00,-0.03,-0.55,-4.16,39.06,-6.20,0.81,0.08,4.10,-0.53,0.04
-1,-1,0,-60,-405,3914,-0.03,-0.01,-0.03,-0.60,-4.05,39.14,-6.18,0.81,0.08,4.11,-0.51,-0.04
-1,-1,0,-64,-418,3907,-0.03,-0.01,-0.03,-0.64,-4.18,39.07,-6.17,0.83,0.08,4.10,-0.52,-0.04
0,1,0,-56,-419,3897,-0.03,-0.01,-0.02,-0.56,-4.19,38.97,-6.16,0.82,0.08,4.07,-0.56,-0.03
0,0,0,-55,-428,3901,-0.02,-0.01,-0.02,-0.55,-4.28,39.01,-6.17,0.82,0.08,4.08,-0.54,-0.03
0,0,0,-54,-431,3910,-0.02,-0.00,-0.02,-0.54,-4.31,39.10,-6.19,0.81,0.08,4.09,-0.54,-0.03
-1,0,0,-48,-435,3917,-0.03,-0.00,-0.02,-0.48,-4.35,39.17,-6.21,0.80,0.09,4.12,-0.53,-0.03
0,0,0,-67,-421,3906,-0.02,-0.00,-0.02,-0.67,-4.21,39.06,-6.20,0.82,0.09,4.10,-0.54,-0.02
0,0,0,-63,-415,3908,-0.02,-0.00,-0.01,-0.63,-4.15,39.08,-6.18,0.83,0.08,4.09,-0.55,-0.02
-1,0,-1,-63,-425,3907,-0.03,-0.00,-0.02,-0.63,-4.25,39.07,-6.19,0.85,0.09,4.11,-0.56,0.06
-1,0,0,-63,-422,3912,-0.03,-0.00,-0.02,-0.63,-4.22,39.12,-6.18,0.87,0.08,4.11,-0.57,-0.03
1,0,0,-59,-420,3910,-0.02,-0.00,-0.02,-0.59,-4.20,39.10,-6.16,0.86,0.08,4.05,-0.57,-0.02
1,0,0,-60,-432,3909,-0.01,-0.00,-0.01,-0.60,-4.32,39.09,-6.18,0.86,0.09,4.06,-0.57,-0.02
1,0,-1,-58,-427,3907,-0.00,-0.00,-0.02,-0.58,-4.27,39.07,-6.20,0.86,0.09,4.07,-0.57,0.06
0,0,-2,-53,-423,3904,-0.00,-0.00,-0.03,-0.53,-4.23,39.04,-6.20,0.84,0.09,4.09,-0.55,0.13
0,0,-1,-62,-427,3909,-0.00,-0.00,-0.03,-0.62,-4.27,39.09,-6.21,0.86,0.09,4.10,-0.56,0.04
0,0,-1,-56,-432,3909,-0.00,-0.00,-0.04,-0.56,-4.32,39.09,-6.22,0.85,0.09,4.11,-0.56,0.04
0,0,0,-52,-427,3901,-0.00,-0.00,-0.03,-0.52,-4.27,39.01,-6.23,0.83,0.09,4.11,-0.55,-0.04
-1,0,0,-60,-426,3899,-0.01,-0.00,-0.03,-0.60,-4.26,38.99,-6.23,0.85,0.09,4.13,-0.56,-0.04
0,0,0,-55,-427,3898,-0.01,-0.00,-0.03,-0.55,-4.27,38.98,-6.24,0.83,0.09,4.12,-0.55,-0.03
-1,0,0,-55,-423,3901,-0.01,-0.00,-0.02,-0.55,-4.23,39.01,-6.22,0.82,0.09,4.13,-0.54,-0.03
0,0,0,-60,-426,3906,-0.01,-0.00,-0.02,-0.60,-4.26,39.06,-6.22,0.84,0.09,4.11,-0.56,-0.03
0,0,0,-59,-422,3902,-0.01,-0.00,-0.02,-0.59,-4.22,39.02,-6.21,0.85,0.09,4.10,-0.56,-0.03
-1,0,0,-54,-418,3908,-0.02,-0.00,-0.02,-0.54,-4.18,39.08,-6.19,0.84,0.09,4.11,-0.55,-0.03
-1,-1,0,-56,-425,3914,-0.02,-0.01,-0.02,-0.56,-4.25,39.14,-6.20,0.82,0.09,4.11,-0.52,-0.02
-1,-1,-1,-59,-436,3898,-0.02,-0.01,-0.02,-0.59,-4.36,38.98,-6.21,0.82,0.09,4.13,-0.52,0.06
-1,-1,0,-51,-426,3894,-0.03,-0.02,-0.02,-0.51,-4.26,38.94,-6.22,0.81,0.09,4.13,-0.51,-0.03
0,0,-1,-53,-423,3901,-0.03,-0.02,-0.02,-0.53,-4.23,39.01,-6.21,0.79,0.09,4.10,-0.52,0.05
-1,0,0,-61,-418,3894,-0.03,-0.01,-0.02,-0.61,-4.18,38.94,-6.20,0.81,0.09,4.12,-0.53,-0.03
-1,0,0,-56,-430,3904,-0.03,-0.01,-0.02,-0.56,-4.30,39.04,-6.21,0.81,0.09,4.13,-0.53,-0.03
-1,0,-1,-56,-427,3905,-0.03,-0.01,-0.02,-0.56,-4.27,39.05,-6.23,0.81,0.09,4.14,-0.53,0.05
0,0,0,-57,-429,3909,-0.03,-0.01,-0.02,-0.57,-4.29,39.09,-6.25,0.82,0.09,4.13,-0.54,-0.03
0,0,0,-51,-436,3906,-0.03,-0.01,-0.02,-0.51,-4.36,39.06,-6.26,0.81,0.09,4.14,-0.53,-0.03
-1,0,0,-59,-430,3907,-0.03,-0.01,-0.02,-0.59,-4.30,39.07,-6.27,0.83,0.09,4.17,-0.55,-0.03
0,0,0,-60,-415,3908,-0.03,-0.01,-0.01,-0.60,-4.15,39.08,-6.25,0.83,0.09,4.13,-0.55,-0.02
0,0,0,-67,-427,3899,-0.03,-0.01,-0.01,-0.67,-4.27,38.99,-6.25,0.85,0.09,4.13,-0.56,-0.02
-1,0,0,-60,-431,3902,-0.03,-0.01,-0.01,-0.60,-4.31,39.02,-6.27,0.86,0.09,4.17,-0.57,-0.02
-1,0,0,-58,-423,3907,-0.03,-0.01,-0.01,-0.58,-4.23,39.07,-6.25,0.86,0.09,4.15,-0.56,-0.02
-1,-1,0,-59,-424,3904,-0.04,-0.01,-0.01,-0.59,-4.24,39.04,-6.23,0.86,0.09,4.14,-0.54,-0.02
-1,-1,0,-60,-423,3918,-0.04,-0.02,-0.01,-0.60,-4.23,39.18,-6.22,0.86,0.09,4.13,-0.54,-0.02
-1,-1,0,-59,-435,3913,-0.04,-0.02,-0.01,-0.59,-4.35,39.13,-6.23,0.86,0.09,4.15,-0.54,-0.02
0,0,0,-62,-433,3906,-0.04,-0.02,-0.01,-0.62,-4.33,39.06,-6.25,0.87,0.09,4.14,-0.57,-0.02
0,0,0,-59,-422,3900,-0.03,-0.02,-0.01,-0.59,-4.22,39.00,-6.23,0.87,0.09,4.12,-0.57,-0.01
0,0,0,-64,-427,3906,-0.03,-0.01,-0.01,-0.64,-4.27,39.06,-6.23,0.89,0.09,4.12,-0.58,-0.01
0,1,1,-52,-435,3903,-0.03,-0.01,0.00,-0.52,-4.35,39.03,-6.25,0.87,0.09,4.13,-0.59,-0.09
0,1,0,-50,-430,3913,-0.02,-0.00,0.00,-0.50,-4.30,39.13,-6.25,0.85,0.09,4.13,-0.58,-0.01
-1,0,1,-56,-424,3894,-0.03,-0.00,0.01,-0.56,-4.24,38.94,-6.24,0.84,0.09,4.14,-0.56,-0.09
-1,0,0,-58,-423,3904,-0.03,-0.00,0.01,-0.58,-4.23,39.04,-6.22,0.84,0.09,4.13,-0.56,-0.00
0,-1,-1,-55,-427,3897,-0.03,-0.01,-0.00,-0.55,-4.27,38.97,-6.23,0.83,0.09,4.12,-0.53,0.08
0,1,0,-53,-426,3906,-0.02,0.00,-0.00,-0.53,-4.26,39.06,-6.23,0.81,0.09,4.12,-0.56,-0.01
-1,0,-1,-51,-427,3898,-0.03,0.00,-0.01,-0.51,-4.27,38.98,-6.24,0.79,0.09,4.14,-0.52,0.07
0,0,0,-53,-428,3890,-0.03,0.00,-0.01,-0.53,-4.28,38.90,-6.25,0.79,0.09,4.13,-0.52,-0.01
0,0,0,-64,-430,3887,-0.02,0.00,-0.01,-0.64,-4.30,38.87,-6.26,0.80,0.09,4.14,-0.53,-0.01
0,0,0,-54,-424,3902,-0.02,0.00,-0.00,-0.54,-4.24,39.02,-6.24,0.80,0.09,4.13,-0.53,-0.01
0,-1,-1,-55,-425,3900,-0.02,-0.01,-0.01,-0.55,-4.25,39.00,-6.22,0.80,0.09,4.11,-0.51,0.07
-1,-1,-1,-54,-421,3900,-0.02,-0.01,-0.02,-0.54,-4.21,39.00,-6.21,0.80,0.09,4.12,-0.50,0.06
-1,0,0,-53,-425,3907,-0.03,-0.01,-0.01,-0.53,-4.25,39.07,-6.21,0.78,0.09,4.12,-0.51,-0.02
0,-1,0,-64,-425,3902,-0.02,-0.02,-0.01,-0.64,-4.25,39.02,-6.21,0.80,0.09,4.10,-0.50,-0.02
0,0,0,-61,-423,3895,-0.02,-0.01,-0.01,-0.61,-4.23,38.95,-6.21,0.82,0.09,4.10,-0.54,-0.02
0,0,0,-54,-424,3916,-0.02,-0.01,-0.01,-0.54,-4.24,39.16,-6.19,0.80,0.09,4.09,-0.53,-0.02
-1,0,0,-51,-425,3896,-0.02,-0.01,-0.01,-0.51,-4.25,38.96,-6.20,0.79,0.09,4.12,-0.52,-0.02
-1,0,0,-53,-429,3900,-0.03,-0.01,-0.01,-0.53,-4.29,39.00,-6.22,0.78,0.09,4.13,-0.51,-0.02
0,0,0,-56,-436,3903,-0.02,-0.01,-0.01,-0.56,-4.36,39.03,-6.24,0.79,0.09,4.12,-0.52,-0.02
0,0,0,-49,-431,3900,-0.02,-0.01,-0.01,-0.49,-4.31,39.00,-6.25,0.77,0.09,4.13,-0.51,-0.01
0,-1,0,-56,-435,3903,-0.02,-0.01,-0.01,-0.56,-4.35,39.03,-6.27,0.78,0.09,4.14,-0.49,-0.01
0,0,-1,-54,-429,3901,-0.02,-0.01,-0.01,-0.54,-4.29,39.01,-6.28,0.79,0.09,4.15,-0.52,0.06
0,-1,0,-51,-426,3901,-0.02,-0.02,-0.01,-0.51,-4.26,39.01,-6.27,0.78,0.09,4.14,-0.49,-0.02
0,-1,0,-60,-440,3907,-0.01,-0.02,-0.01,-0.60,-4.40,39.07,-6.28,0.79,0.09,4.15,-0.50,-0.02
-1,-1,0,-53,-429,3908,-0.02,-0.03,-0.01,-0.53,-4.29,39.08,-6.27,0.78,0.09,4.16,-0.49,-0.02
-1,-1,-1,-50,-421,3896,-0.02,-0.03,-0.01,-0.50,-4.21,38.96,-6.25,0.77,0.09,4.15,-0.48,0.06
0,-1,0,-53,-423,3907,-0.02,-0.03,-0.01,-0.53,-4.23,39.07,-6.24,0.77,0.09,4.12,-0.48,-0.02
0,0,-1,-58,-421,3897,-0.02,-0.03,-0.02,-0.58,-4.21,38.97,-6.22,0.78,0.09,4.11,-0.51,0.06
0,0,0,-54,-424,3891,-0.02,-0.03,-0.02,-0.54,-4.24,38.91,-6.21,0.80,0.09,4.10,-0.52,-0.02
0,0,-1,-52,-424,3906,-0.02,-0.02,-0.02,-0.52,-4.24,39.06,-6.21,0.78,0.09,4.10,-0.51,0.06
0,0,-1,-52,-430,3906,-0.01,-0.02,-0.02,-0.52,-4.30,39.06,-6.22,0.78,0.09,4.11,-0.51,0.05
0,0,0,-55,-427,3917,-0.01,-0.02,-0.02,-0.55,-4.27,39.17,-6.22,0.79,0.09,4.11,-0.52,-0.03
0,-1,-1,-58,-424,3904,-0.01,-0.02,-0.03,-0.58,-4.24,39.04,-6.21,0.81,0.09,4.10,-0.51,0.05
-1,0,0,-57,-429,3901,-0.02,-0.02,-0.02,-0.57,-4.29,39.01,-6.23,0.82,0.09,4.14,-0.53,-0.03
-1,0,0,-62,-429,3901,-0.02,-0.02,-0.02,-0.62,-4.29,39.01,-6.24,0.83,0.09,4.14,-0.54,-0.03
0,0,0,-52,-427,3896,-0.02,-0.02,-0.02,-0.52,-4.27,38.96,-6.24,0.82,0.09,4.13,-0.53,-0.03
1,0,0,-53,-433,3908,-0.01,-0.02,-0.02,-0.53,-4.33,39.08,-6.26,0.81,0.09,4.11,-0.53,-0.03
1,0,0,-53,-427,3910,-0.00,-0.01,-0.02,-0.53,-4.27,39.10,-6.25,0.79,0.09,4.10,-0.52,-0.02
0,0,0,-52,-426,3918,-0.00,-0.01,-0.01,-0.52,-4.26,39.18,-6.23,0.78,0.09,4.12,-0.51,-0.02
-1,-1,0,-63,-417,3897,-0.01,-0.02,-0.01,-0.63,-4.17,38.97,-6.22,0.79,0.09,4.13,-0.50,-0.02
0,0,0,-51,-427,3911,-0.01,-0.02,-0.01,-0.51,-4.27,39.11,-6.23,0.78,0.09,4.11,-0.51,-0.02
0,0,0,-55,-413,3911,-0.01,-0.01,-0.01,-0.55,-4.13,39.11,-6.21,0.78,0.09,4.10,-0.51,-0.02
0,-1,0,-54,-417,3905,-0.01,-0.02,-0.01,-0.54,-4.17,39.05,-6.19,0.78,0.09,4.09,-0.49,-0.02
-1,-1,0,-55,-421,3913,-0.01,-0.02,-0.01,-0.55,-4.21,39.13,-6.17,0.79,0.09,4.10,-0.49,-0.02
-1,0,0,-57,-425,3911,-0.02,-0.02,-0.01,-0.57,-4.25,39.11,-6.18,0.80,0.09,4.11,-0.52,-0.02
0,-1,0,-55,-427,3909,-0.02,-0.02,-0.01,-0.55,-4.27,39.09,-6.20,0.80,0.09,4.10,-0.50,-0.01
-1,-2,0,-56,-433,3904,-0.02,-0.03,-0.01,-0.56,-4.33,39.04,-6.22,0.80,0.09,4.13,-0.48,-0.01
-1,-1,1,-58,-422,3902,-0.02,-0.04,0.00,-0.58,-4.22,39.02,-6.21,0.82,0.09,4.12,-0.51,-0.09
0,0,1,-52,-422,3906,-0.02,-0.03,0.01,-0.52,-4.22,39.06,-6.20,0.80,0.09,4.09,-0.52,-0.09
0,0,0,-54,-424,3903,-0.02,-0.03,0.01,-0.54,-4.24,39.03,-6.20,0.78,0.09,4.10,-0.51,-0.00
-1,0,0,-61,-419,3907,-0.02,-0.03,0.01,-0.61,-4.19,39.07,-6.19,0.80,0.09,4.11,-0.52,-0.00
-1,0,0,-51,-419,3914,-0.03,-0.02,0.00,-0.51,-4.19,39.14,-6.18,0.79,0.09,4.10,-0.51,-0.00
0,0,0,-49,-417,3907,-0.02,-0.02,0.00,-0.49,-4.17,39.07,-6.16,0.78,0.09,4.07,-0.51,-0.00
0,0,0,-51,-429,3904,-0.02,-0.02,0.00,-0.51,-4.29,39.04,-6.18,0.77,0.09,4.08,-0.50,-0.00
0,0,0,-60,-428,3902,-0.02,-0.02,0.00,-0.60,-4.28,39.02,-6.19,0.78,0.09,4.09,-0.51,-0.00
-1,-1,0,-59,-419,3901,-0.02,-0.02,0.00,-0.59,-4.19,39.01,-6.18,0.80,0.09,4.11,-0.50,-0.00
-1,-1,-1,-60,-414,3906,-0.03,-0.03,-0.00,-0.60,-4.14,39.06,-6.16,0.81,0.09,4.10,-0.51,0.07
-1,-1,1,-58,-419,3900,-0.03,-0.03,0.00,-0.58,-4.19,39.00,-6.15,0.82,0.09,4.09,-0.51,-0.09
0,0,1,-56,-418,3906,-0.03,-0.03,0.01,-0.56,-4.18,39.06,-6.13,0.82,0.09,4.06,-0.53,-0.08
0,0,0,-51,-429,3910,-0.03,-0.02,0.01,-0.51,-4.29,39.10,-6.15,0.81,0.09,4.07,-0.53,0.00
-1,-1,0,-57,-431,3912,-0.03,-0.03,0.01,-0.57,-4.31,39.12,-6.17,0.81,0.09,4.10,-0.51,-0.00
0,-1,0,-60,-424,3914,-0.03,-0.03,0.01,-0.60,-4.24,39.14,-6.17,0.83,0.09,4.08,-0.52,-0.00
0,0,0,-58,-418,3911,-0.02,-0.03,0.01,-0.58,-4.18,39.11,-6.15,0.83,0.09,4.07,-0.54,-0.00
-1,0,0,-54,-424,3911,-0.03,-0.03,0.01,-0.54,-4.24,39.11,-6.17,0.82,0.09,4.10,-0.53,-0.00
0,0,0,-57,-421,3906,-0.02,-0.02,0.00,-0.57,-4.21,39.06,-6.15,0.83,0.09,4.07,-0.54,-0.00
0,0,0,-58,-421,3901,-0.02,-0.02,0.00,-0.58,-4.21,39.01,-6.16,0.85,0.09,4.07,-0.55,-0.00
0,0,0,-53,-426,3905,-0.02,-0.02,0.00,-0.53,-4.26,39.05,-6.17,0.83,0.09,4.08,-0.55,-0.00
0,1,0,-65,-427,3910,-0.02,-0.01,0.00,-0.65,-4.27,39.10,-6.18,0.85,0.09,4.08,-0.58,-0.00
0,0,0,-66,-424,3897,-0.02,-0.01,0.00,-0.66,-4.24,38.97,-6.19,0.87,0.09,4.09,-0.57,-0.00
0,0,0,-56,-427,3912,-0.01,-0.01,0.00,-0.56,-4.27,39.12,-6.20,0.85,0.09,4.09,-0.56,-0.00
0,0,0,-57,-431,3902,-0.01,-0.01,0.00,-0.57,-4.31,39.02,-6.22,0.85,0.09,4.11,-0.56,-0.01
1,0,0,-54,-428,3902,-0.01,-0.01,0.00,-0.54,-4.28,39.02,-6.23,0.83,0.09,4.09,-0.55,-0.01
1,0,-1,-53,-424,3903,0.00,-0.01,-0.00,-0.53,-4.24,39.03,-6.22,0.82,0.09,4.08,-0.54,0.07
0,0,0,-62,-425,3906,0.00,-0.01,-0.00,-0.62,-4.25,39.06,-6.22,0.84,0.09,4.10,-0.55,-0.01
1,0,0,-59,-421,3911,0.01,-0.00,-0.00,-0.59,-4.21,39.11,-6.20,0.84,0.09,4.07,-0.55,-0.01
1,0,-1,-55,-425,3906,0.01,-0.00,-0.01,-0.55,-4.25,39.06,-6.20,0.82,0.09,4.07,-0.54,0.07
0,0,-1,-53,-426,3895,0.01,-0.00,-0.01,-0.53,-4.26,38.95,-6.22,0.81,0.09,4.10,-0.53,0.06
-1,0,-1,-54,-427,3886,0.00,-0.00,-0.02,-0.54,-4.27,38.86,-6.23,0.80,0.09,4.13,-0.53,0.06
0,0,-1,-53,-424,3903,0.00,-0.00,-0.02,-0.53,-4.24,39.03,-6.22,0.79,0.09,4.10,-0.52,0.05
0,0,0,-56,-420,3901,0.00,-0.00,-0.02,-0.56,-4.20,39.01,-6.20,0.80,0.09,4.09,-0.53,-0.03
0,0,-1,-52,-423,3900,0.00,-0.00,-0.02,-0.52,-4.23,39.00,-6.20,0.78,0.09,4.09,-0.51,0.05
1,0,0,-50,-423,3902,0.01,-0.00,-0.02,-0.50,-4.23,39.02,-6.19,0.76,0.09,4.06,-0.50,-0.03
0,-1,0,-54,-423,3913,0.01,-0.01,-0.02,-0.54,-4.23,39.13,-6.18,0.77,0.09,4.08,-0.49,-0.03
0,1,0,-53,-428,3908,0.01,-0.00,-0.02,-0.53,-4.28,39.08,-6.20,0.77,0.09,4.09,-0.53,-0.03
0,0,0,-55,-438,3915,0.01,-0.00,-0.02,-0.55,-4.38,39.15,-6.22,0.78,0.09,4.10,-0.51,-0.03
0,0,0,-52,-430,3901,0.01,-0.00,-0.01,-0.52,-4.30,39.01,-6.23,0.77,0.09,4.11,-0.51,-0.02
1,0,0,-53,-432,3900,0.01,-0.00,-0.01,-0.53,-4.32,39.00,-6.25,0.77,0.09,4.10,-0.51,-0.02
0,0,0,-50,-424,3904,0.01,-0.00,-0.01,-0.50,-4.24,39.04,-6.24,0.76,0.09,4.11,-0.50,-0.02
0,0,0,-52,-422,3904,0.01,-0.00,-0.01,-0.52,-4.22,39.04,-6.22,0.76,0.09,4.10,-0.50,-0.02
0,0,-1,-47,-429,3910,0.01,-0.00,-0.02,-0.47,-4.29,39.10,-6.23,0.74,0.09,4.11,-0.49,0.06
0,0,0,-52,-422,3914,0.01,-0.00,-0.01,-0.52,-4.22,39.14,-6.21,0.75,0.09,4.10,-0.49,-0.02
0,0,0,-56,-424,3912,0.01,-0.00,-0.01,-0.56,-4.24,39.12,-6.20,0.76,0.09,4.09,-0.50,-0.02
-1,0,-1,-59,-416,3905,-0.00,-0.00,-0.02,-0.59,-4.16,39.05,-6.19,0.78,0.09,4.11,-0.51,0.06
-1,0,0,-52,-414,3906,-0.01,-0.00,-0.02,-0.52,-4.14,39.06,-6.17,0.77,0.09,4.10,-0.51,-0.02
0,-1,0,-55,-417,3898,-0.01,-0.01,-0.01,-0.55,-4.17,38.98,-6.16,0.78,0.09,4.06,-0.49,-0.02
0,0,0,-58,-428,3890,-0.01,-0.01,-0.01,-0.58,-4.28,38.90,-6.17,0.79,0.09,4.07,-0.52,-0.02
-1,0,0,-56,-430,3894,-0.01,-0.01,-0.01,-0.56,-4.30,38.94,-6.19,0.79,0.09,4.11,-0.52,-0.02
-1,0,0,-48,-429,3908,-0.02,-0.00,-0.01,-0.48,-4.29,39.08,-6.20,0.78,0.09,4.12,-0.51,-0.02
-1,0,0,-46,-430,3901,-0.02,-0.00,-0.01,-0.46,-4.30,39.01,-6.21,0.77,0.09,4.13,-0.50,-0.02
0,0,0,-45,-420,3898,-0.02,-0.00,-0.01,-0.45,-4.20,38.98,-6.20,0.75,0.09,4.10,-0.49,-0.02
0,0,0,-52,-421,3899,-0.02,-0.00,-0.01,-0.52,-4.21,38.99,-6.19,0.75,0.09,4.09,-0.50,-0.02
0,0,0,-51,-417,3900,-0.01,-0.00,-0.01,-0.51,-4.17,39.00,-6.17,0.75,0.09,4.07,-0.50,-0.02
0,1,0,-53,-423,3914,-0.01,0.00,-0.01,-0.53,-4.23,39.14,-6.17,0.77,0.09,4.07,-0.53,-0.01
0,0,0,-56,-426,3904,-0.01,0.00,-0.01,-0.56,-4.26,39.04,-6.18,0.78,0.09,4.08,-0.52,-0.01
0,0,0,-55,-421,3896,-0.01,0.00,-0.00,-0.55,-4.21,38.96,-6.17,0.80,0.09,4.08,-0.53,-0.01
0,0,0,-50,-422,3910,-0.01,0.00,-0.00,-0.50,-4.22,39.10,-6.17,0.78,0.09,4.07,-0.51,-0.01
-1,-1,0,-53,-425,3898,-0.01,-0.00,-0.00,-0.53,-4.25,38.98,-6.19,0.78,0.09,4.11,-0.49,-0.01
0,0,0,-57,-426,3908,-0.01,-0.00,-0.00,-0.57,-4.26,39.08,-6.20,0.79,0.09,4.09,-0.52,-0.01
0,0,0,-53,-423,3906,-0.01,-0.00,-0.00,-0.53,-4.23,39.06,-6.19,0.78,0.09,4.09,-0.51,-0.01
0,0,0,-64,-424,3895,-0.01,-0.00,-0.00,-0.64,-4.24,38.95,-6.19,0.80,0.09,4.09,-0.53,-0.01
-1,0,0,-63,-426,3906,-0.02,-0.00,-0.00,-0.63,-4.26,39.06,-6.19,0.81,0.09,4.11,-0.54,-0.01
-1,-1,1,-53,-420,3910,-0.02,-0.01,0.00,-0.53,-4.20,39.10,-6.18,0.80,0.09,4.10,-0.51,-0.09
0,0,0,-54,-424,3919,-0.02,-0.01,0.00,-0.54,-4.24,39.19,-6.18,0.79,0.09,4.08,-0.52,-0.00
0,0,0,-54,-430,3907,-0.02,-0.01,0.00,-0.54,-4.30,39.07,-6.19,0.79,0.09,4.09,-0.52,-0.00
-1,0,-1,-53,-429,3895,-0.02,-0.01,-0.00,-0.53,-4.29,38.95,-6.21,0.78,0.09,4.13,-0.52,0.07
0,-1,-1,-60,-431,3896,-0.02,-0.01,-0.01,-0.60,-4.31,38.96,-6.23,0.80,0.09,4.11,-0.50,0.07
0,0,0,-57,-435,3903,-0.02,-0.01,-0.01,-0.57,-4.35,39.03,-6.24,0.80,0.09,4.12,-0.53,-0.02
0,0,0,-57,-428,3900,-0.02,-0.01,-0.01,-0.57,-4.28,39.00,-6.25,0.82,0.09,4.13,-0.54,-0.02
0,0,1,-57,-428,3895,-0.01,-0.01,-0.00,-0.57,-4.28,38.95,-6.27,0.83,0.09,4.14,-0.54,-0.09
0,0,-1,-56,-431,3908,-0.01,-0.01,-0.01,-0.56,-4.31,39.08,-6.28,0.82,0.09,4.15,-0.54,0.07
1,-1,-1,-60,-427,3907,-0.01,-0.01,-0.01,-0.60,-4.27,39.07,-6.27,0.83,0.09,4.12,-0.53,0.06
1,0,1,-59,-422,3907,0.00,-0.01,-0.00,-0.59,-4.22,39.07,-6.25,0.84,0.09,4.11,-0.55,-0.10
0,0,0,-56,-426,3916,0.00,-0.01,-0.00,-0.56,-4.26,39.16,-6.24,0.83,0.09,4.12,-0.55,-0.01
1,-1,0,-57,-417,3895,0.01,-0.02,-0.00,-0.57,-4.17,38.95,-6.22,0.83,0.09,4.08,-0.52,-0.01
0,-1,1,-59,-419,3903,0.01,-0.02,0.00,-0.59,-4.19,39.03,-6.20,0.84,0.09,4.09,-0.53,-0.09
1,0,0,-60,-426,3889,0.01,-0.02,0.00,-0.60,-4.26,38.89,-6.22,0.85,0.09,4.08,-0.55,-0.01
0,-1,0,-51,-432,3896,0.01,-0.02,0.00,-0.51,-4.32,38.96,-6.23,0.84,0.09,4.11,-0.53,-0.01
0,0,-1,-52,-424,3899,0.01,-0.02,-0.00,-0.52,-4.24,38.99,-6.22,0.82,0.09,4.10,-0.53,0.07
1,0,-1,-54,-427,3912,0.01,-0.02,-0.01,-0.54,-4.27,39.12,-6.23,0.80,0.09,4.09,-0.52,0.07
1,0,0,-50,-418,3902,0.02,-0.02,-0.01,-0.50,-4.18,39.02,-6.21,0.79,0.09,4.07,-0.52,-0.02
1,0,0,-59,-419,3902,0.02,-0.01,-0.01,-0.59,-4.19,39.02,-6.20,0.80,0.09,4.06,-0.53,-0.02
0,1,0,-55,-431,3910,0.02,-0.01,-0.01,-0.55,-4.31,39.10,-6.22,0.80,0.09,4.10,-0.55,-0.02
-1,1,0,-51,-426,3903,0.01,-0.00,-0.01,-0.51,-4.26,39.03,-6.22,0.78,0.09,4.12,-0.54,-0.02
0,-1,0,-69,-428,3909,0.01,-0.01,-0.01,-0.69,-4.28,39.09,-6.22,0.80,0.09,4.10,-0.51,-0.01
1,0,0,-58,-432,3908,0.02,-0.01,-0.01,-0.58,-4.32,39.08,-6.24,0.81,0.09,4.09,-0.53,-0.01
0,0,0,-55,-419,3902,0.02,-0.01,-0.00,-0.55,-4.19,39.02,-6.22,0.81,0.09,4.10,-0.53,-0.01
1,0,0,-60,-422,3891,0.02,-0.00,-0.00,-0.60,-4.22,38.91,-6.21,0.83,0.09,4.07,-0.54,-0.01
0,0,0,-60,-433,3897,0.02,-0.00,-0.00,-0.60,-4.33,38.97,-6.23,0.83,0.09,4.11,-0.55,-0.01
-1,-1,0,-61,-432,3895,0.01,-0.01,-0.00,-0.61,-4.32,38.95,-6.25,0.84,0.09,4.14,-0.53,-0.01
0,0,0,-59,-430,3905,0.01,-0.01,-0.00,-0.59,-4.30,39.05,-6.26,0.85,0.09,4.13,-0.56,-0.01
0,0,-1,-60,-423,3908,0.01,-0.01,-0.01,-0.60,-4.23,39.08,-6.24,0.85,0.09,4.12,-0.56,0.07
-1,0,0,-56,-424,3901,0.00,-0.01,-0.01,-0.56,-4.24,39.01,-6.23,0.84,0.09,4.13,-0.55,-0.02
-1,0,0,-56,-430,3901,-0.01,-0.01,-0.01,-0.56,-4.30,39.01,-6.25,0.84,0.09,4.14,-0.55,-0.02
0,-1,-1,-57,-422,3888,-0.00,-0.01,-0.01,-0.57,-4.22,38.88,-6.23,0.84,0.09,4.11,-0.53,0.06
1,-1,-1,-61,-422,3899,0.00,-0.02,-0.02,-0.61,-4.22,38.99,-6.22,0.85,0.09,4.08,-0.54,0.06
1,-1,-1,-52,-423,3906,0.01,-0.02,-0.02,-0.52,-4.23,39.06,-6.21,0.83,0.09,4.08,-0.52,0.05
0,0,-1,-50,-421,3902,0.01,-0.02,-0.03,-0.50,-4.21,39.02,-6.20,0.82,0.09,4.09,-0.53,0.05
0,0,0,-55,-421,3897,0.01,-0.02,-0.02,-0.55,-4.21,38.97,-6.18,0.81,0.09,4.08,-0.53,-0.03
0,0,0,-65,-421,3904,0.01,-0.02,-0.02,-0.65,-4.21,39.04,-6.18,0.83,0.09,4.08,-0.54,-0.03
-1,0,0,-55,-421,3907,-0.00,-0.01,-0.02,-0.55,-4.21,39.07,-6.17,0.82,0.09,4.09,-0.53,-0.03
-1,0,0,-54,-421,3900,-0.01,-0.01,-0.02,-0.54,-4.21,39.00,-6.16,0.80,0.09,4.09,-0.52,-0.03
0,0,-1,-53,-423,3899,-0.01,-0.01,-0.02,-0.53,-4.23,38.99,-6.18,0.79,0.09,4.08,-0.52,0.05
0,0,0,-54,-418,3907,-0.01,-0.01,-0.02,-0.54,-4.18,39.07,-6.16,0.79,0.09,4.07,-0.52,-0.03
0,0,0,-55,-418,3901,-0.01,-0.01,-0.02,-0.55,-4.18,39.01,-6.14,0.79,0.09,4.06,-0.52,-0.03
0,0,0,-52,-419,3898,-0.00,-0.01,-0.02,-0.52,-4.19,38.98,-6.14,0.77,0.09,4.05,-0.51,-0.02
0,0,-1,-55,-430,3909,-0.00,-0.01,-0.02,-0.55,-4.30,39.09,-6.16,0.78,0.09,4.06,-0.51,0.06
0,-1,0,-53,-424,3903,-0.00,-0.01,-0.02,-0.53,-4.24,39.03,-6.17,0.78,0.09,4.08,-0.49,-0.03
1,0,0,-46,-429,3898,0.00,-0.01,-0.02,-0.46,-4.29,38.98,-6.19,0.76,0.09,4.06,-0.50,-0.03
1,-1,0,-48,-431,3901,0.01,-0.02,-0.01,-0.48,-4.31,39.01,-6.20,0.75,0.09,4.07,-0.47,-0.02
0,-1,-1,-55,-433,3910,0.01,-0.02,-0.02,-0.55,-4.33,39.10,-6.22,0.76,0.09,4.10,-0.48,0.06
0,-1,-1,-61,-434,3911,0.01,-0.02,-0.02,-0.61,-4.34,39.11,-6.23,0.77,0.09,4.11,-0.48,0.05
0,-1,0,-60,-430,3903,0.01,-0.03,-0.02,-0.60,-4.30,39.03,-6.24,0.79,0.09,4.12,-0.49,-0.03
0,-1,0,-57,-433,3916,0.01,-0.03,-0.02,-0.57,-4.33,39.16,-6.26,0.80,0.09,4.13,-0.50,-0.03
0,-1,0,-61,-419,3903,0.01,-0.03,-0.02,-0.61,-4.19,39.03,-6.24,0.81,0.09,4.12,-0.50,-0.03
1,0,0,-58,-411,3909,0.01,-0.03,-0.02,-0.58,-4.11,39.09,-6.22,0.81,0.09,4.08,-0.53,-0.02
0,0,0,-58,-424,3896,0.01,-0.03,-0.01,-0.58,-4.24,38.96,-6.22,0.83,0.09,4.10,-0.54,-0.02
0,0,-1,-55,-430,3898,0.01,-0.03,-0.02,-0.55,-4.30,38.98,-6.23,0.82,0.09,4.11,-0.54,0.06
1,0,1,-55,-424,3907,0.01,-0.02,-0.01,-0.55,-4.24,39.07,-6.22,0.82,0.09,4.08,-0.53,-0.10
0,0,0,-58,-435,3907,0.01,-0.02,-0.01,-0.58,-4.35,39.07,-6.24,0.82,0.09,4.11,-0.53,-0.02
-1,-1,0,-56,-431,3891,0.01,-0.02,-0.01,-0.56,-4.31,38.91,-6.25,0.82,0.09,4.15,-0.51,-0.02
0,-1,0,-63,-430,3904,0.00,-0.03,-0.01,-0.63,-4.30,39.04,-6.26,0.84,0.09,4.13,-0.52,-0.02
-1,0,0,-55,-425,3899,-0.00,-0.03,-0.01,-0.55,-4.25,38.99,-6.25,0.82,0.09,4.14,-0.54,-0.02
-1,0,0,-57,-424,3912,-0.01,-0.02,-0.01,-0.57,-4.24,39.12,-6.23,0.83,0.09,4.13,-0.54,-0.01
-1,0,0,-59,-430,3903,-0.01,-0.02,-0.01,-0.59,-4.30,39.03,-6.24,0.84,0.09,4.14,-0.55,-0.01
-1,0,0,-57,-428,3906,-0.02,-0.02,-0.01,-0.57,-4.28,39.06,-6.26,0.83,0.09,4.16,-0.54,-0.01
0,0,0,-57,-424,3914,-0.02,-0.02,-0.00,-0.57,-4.24,39.14,-6.24,0.83,0.09,4.12,-0.54,-0.01
-1,0,1,-56,-429,3900,-0.02,-0.01,0.00,-0.56,-4.29,39.00,-6.26,0.82,0.09,4.16,-0.54,-0.09
-1,0,0,-52,-431,3913,-0.02,-0.01,0.00,-0.52,-4.31,39.13,-6.27,0.81,0.09,4.16,-0.53,-0.01
-1,-1,0,-52,-433,3899,-0.03,-0.02,0.00,-0.52,-4.33,38.99,-6.28,0.80,0.09,4.17,-0.50,-0.01
-1,-1,0,-57,-422,3900,-0.03,-0.02,0.00,-0.57,-4.22,39.00,-6.26,0.80,0.09,4.16,-0.50,-0.01
-1,0,-1,-54,-424,3904,-0.03,-0.02,-0.00,-0.54,-4.24,39.04,-6.25,0.80,0.09,4.15,-0.52,0.07
0,0,0,-54,-418,3903,-0.03,-0.02,-0.00,-0.54,-4.18,39.03,-6.23,0.80,0.09,4.12,-0.52,-0.01
-1,0,0,-47,-421,3910,-0.03,-0.02,-0.00,-0.47,-4.21,39.10,-6.22,0.78,0.09,4.13,-0.51,-0.01
0,0,0,-50,-424,3899,-0.03,-0.01,-0.00,-0.50,-4.24,38.99,-6.21,0.76,0.09,4.11,-0.50,-0.01
0,0,0,-50,-428,3903,-0.03,-0.01,-0.00,-0.50,-4.28,39.03,-6.23,0.75,0.09,4.12,-0.49,-0.01
-1,-1,1,-59,-427,3907,-0.03,-0.02,0.00,-0.59,-4.27,39.07,-6.23,0.77,0.09,4.14,-0.48,-0.09
0,0,0,-57,-432,3902,-0.03,-0.02,0.00,-0.57,-4.32,39.02,-6.25,0.78,0.09,4.13,-0.51,-0.01
1,-1,0,-58,-429,3897,-0.02,-0.02,0.00,-0.58,-4.29,38.97,-6.25,0.80,0.09,4.11,-0.50,-0.01
1,-1,0,-58,-433,3898,-0.01,-0.02,0.00,-0.58,-4.33,38.98,-6.27,0.81,0.09,4.12,-0.51,-0.01
0,-1,0,-53,-430,3899,-0.01,-0.03,0.00,-0.53,-4.30,38.99,-6.28,0.79,0.09,4.15,-0.49,-0.01
0,0,0,-54,-434,3905,-0.01,-0.03,0.00,-0.54,-4.34,39.05,-6.30,0.79,0.09,4.16,-0.51,-0.01
-1,0,-1,-59,-423,3899,-0.01,-0.02,-0.00,-0.59,-4.23,38.99,-6.28,0.80,0.09,4.17,-0.52,0.07
-1,0,0,-58,-421,3895,-0.02,-0.02,-0.00,-0.58,-4.21,38.95,-6.27,0.81,0.09,4.16,-0.53,-0.01
0,0,0,-62,-428,3918,-0.02,-0.02,-0.00,-0.62,-4.28,39.18,-6.26,0.82,0.09,4.14,-0.54,-0.01
0,-1,1,-63,-424,3914,-0.02,-0.02,0.00,-0.63,-4.24,39.14,-6.25,0.84,0.09,4.13,-0.53,-0.09
1,0,0,-62,-434,3910,-0.01,-0.02,0.00,-0.62,-4.34,39.10,-6.26,0.85,0.09,4.12,-0.55,-0.01
1,0,0,-64,-434,3911,-0.00,-0.02,0.00,-0.64,-4.34,39.11,-6.28,0.86,0.09,4.12,-0.56,-0.01
-1,0,1,-60,-423,3900,-0.01,-0.02,0.01,-0.60,-4.23,39.00,-6.26,0.87,0.09,4.15,-0.57,-0.08
0,0,1,-55,-421,3900,-0.01,-0.01,0.01,-0.55,-4.21,39.00,-6.24,0.86,0.09,4.12,-0.56,-0.08
-1,-1,0,-58,-423,3901,-0.01,-0.02,0.01,-0.58,-4.23,39.01,-6.22,0.85,0.09,4.13,-0.54,0.00
-1,0,0,-52,-423,3896,-0.02,-0.02,0.01,-0.52,-4.23,38.96,-6.22,0.84,0.09,4.13,-0.55,0.00
1,0,0,-59,-428,3892,-0.01,-0.02,0.01,-0.59,-4.28,38.92,-6.24,0.84,0.09,4.10,-0.55,0.00
0,1,0,-55,-426,3892,-0.01,-0.01,0.01,-0.55,-4.26,38.92,-6.24,0.83,0.09,4.12,-0.56,0.00
0,-1,0,-56,-419,3906,-0.01,-0.01,0.01,-0.56,-4.19,39.06,-6.22,0.82,0.09,4.11,-0.52,0.00
0,-1,0,-65,-428,3899,-0.01,-0.02,0.01,-0.65,-4.28,38.99,-6.23,0.84,0.09,4.11,-0.53,-0.00
-1,0,0,-56,-424,3890,-0.01,-0.02,0.01,-0.56,-4.24,38.90,-6.22,0.82,0.09,4.13,-0.54,-0.00
-1,0,-1,-55,-427,3902,-0.02,-0.01,-0.00,-0.55,-4.27,39.02,-6.24,0.81,0.09,4.14,-0.53,0.08
0,0,0,-60,-432,3907,-0.02,-0.01,-0.00,-0.60,-4.32,39.07,-6.25,0.82,0.09,4.13,-0.54,-0.01
-1,0,-1,-62,-432,3908,-0.02,-0.01,-0.01,-0.62,-4.32,39.08,-6.26,0.84,0.09,4.16,-0.55,0.07
0,0,0,-57,-424,3914,-0.02,-0.01,-0.01,-0.57,-4.24,39.14,-6.24,0.84,0.09,4.12,-0.55,-0.01
0,0,-1,-55,-428,3903,-0.02,-0.01,-0.01,-0.55,-4.28,39.03,-6.25,0.82,0.09,4.13,-0.54,0.06
0,0,0,-50,-416,3898,-0.01,-0.01,-0.01,-0.50,-4.16,38.98,-6.23,0.81,0.09,4.12,-0.53,-0.02
0,0,0,-58,-420,3900,-0.01,-0.01,-0.01,-0.58,-4.20,39.00,-6.22,0.82,0.09,4.11,-0.54,-0.02
1,0,0,-56,-422,3906,-0.01,-0.01,-0.01,-0.56,-4.22,39.06,-6.20,0.82,0.09,4.07,-0.54,-0.02
0,0,0,-53,-419,3906,-0.00,-0.01,-0.01,-0.53,-4.19,39.06,-6.18,0.81,0.09,4.08,-0.53,-0.02
0,-1,0,-61,-431,3898,-0.00,-0.01,-0.01,-0.61,-4.31,38.98,-6.20,0.82,0.09,4.09,-0.52,-0.02
0,0,0,-59,-423,3906,-0.00,-0.01,-0.01,-0.59,-4.23,39.06,-6.19,0.83,0.09,4.09,-0.55,-0.01
0,-1,0,-56,-423,3904,-0.00,-0.02,-0.01,-0.56,-4.23,39.04,-6.18,0.82,0.09,4.08,-0.52,-0.01
1,-1,0,-53,-423,3915,0.00,-0.02,-0.00,-0.53,-4.23,39.15,-6.18,0.80,0.09,4.06,-0.50,-0.01
0,-1,0,-49,-414,3913,0.00,-0.02,-0.00,-0.49,-4.14,39.13,-6.16,0.79,0.09,4.07,-0.50,-0.01
1,-1,0,-51,-420,3907,0.01,-0.03,-0.00,-0.51,-4.20,39.07,-6.15,0.77,0.09,4.04,-0.48,-0.01
0,0,0,-47,-429,3900,0.01,-0.03,-0.00,-0.47,-4.29,39.00,-6.17,0.76,0.09,4.07,-0.50,-0.01
0,0,0,-55,-427,3907,0.01,-0.02,-0.00,-0.55,-4.27,39.07,-6.18,0.77,0.09,4.08,-0.50,-0.01
1,-1,0,-50,-434,3897,0.01,-0.03,-0.00,-0.50,-4.34,38.97,-6.20,0.77,0.09,4.07,-0.48,-0.01
0,0,1,-51,-437,3891,0.01,-0.02,0.00,-0.51,-4.37,38.91,-6.22,0.77,0.09,4.10,-0.50,-0.09
0,-1,0,-47,-429,3896,0.01,-0.03,0.00,-0.47,-4.29,38.96,-6.23,0.75,0.09,4.11,-0.47,-0.00
1,0,0,-48,-433,3898,0.02,-0.02,0.00,-0.48,-4.33,38.98,-6.25,0.74,0.09,4.10,-0.48,-0.01
1,0,-1,-47,-423,3895,0.02,-0.02,-0.00,-0.47,-4.23,38.95,-6.24,0.73,0.09,4.09,-0.48,0.07
0,0,-1,-50,-415,3893,0.02,-0.02,-0.01,-0.50,-4.15,38.93,-6.22,0.73,0.09,4.10,-0.48,0.07
1,1,1,-50,-423,3900,0.02,-0.01,-0.00,-0.50,-4.23,39.00,-6.20,0.73,0.09,4.07,-0.50,-0.10
0,0,1,-56,-430,3902,0.02,-0.01,0.00,-0.56,-4.30,39.02,-6.21,0.74,0.09,4.09,-0.49,-0.09
1,0,0,-50,-434,3897,0.02,-0.01,0.00,-0.50,-4.34,38.97,-6.23,0.74,0.09,4.09,-0.49,-0.00
1,0,0,-56,-426,3901,0.03,-0.01,0.00,-0.56,-4.26,39.01,-6.23,0.76,0.09,4.08,-0.50,-0.00
1,0,0,-55,-425,3908,0.03,-0.01,0.00,-0.55,-4.25,39.08,-6.22,0.78,0.09,4.08,-0.51,-0.01
1,0,0,-56,-425,3903,0.03,-0.01,0.00,-0.56,-4.25,39.03,-6.22,0.79,0.09,4.07,-0.52,-0.01
0,-1,-1,-53,-422,3902,0.03,-0.01,-0.00,-0.53,-4.22,39.02,-6.20,0.79,0.09,4.08,-0.50,0.07
0,-1,-2,-49,-415,3908,0.03,-0.02,-0.02,-0.49,-4.15,39.08,-6.19,0.78,0.09,4.07,-0.49,0.14
1,1,-1,-61,-424,3905,0.03,-0.01,-0.02,-0.61,-4.24,39.05,-6.19,0.80,0.09,4.05,-0.54,0.06
1,0,-1,-58,-421,3905,0.03,-0.01,-0.02,-0.58,-4.21,39.05,-6.18,0.81,0.09,4.05,-0.53,0.05
0,0,-1,-53,-424,3910,0.03,-0.01,-0.03,-0.53,-4.24,39.10,-6.18,0.79,0.09,4.07,-0.52,0.05
0,0,0,-57,-426,3909,0.03,-0.01,-0.03,-0.57,-4.26,39.09,-6.19,0.81,0.09,4.08,-0.53,-0.03
1,-1,0,-61,-420,3912,0.03,-0.01,-0.02,-0.61,-4.20,39.12,-6.18,0.82,0.09,4.05,-0.52,-0.03
1,-1,0,-62,-423,3913,0.03,-0.02,-0.02,-0.62,-4.23,39.13,-6.18,0.84,0.09,4.05,-0.53,-0.03
1,0,0,-54,-435,3905,0.04,-0.02,-0.02,-0.54,-4.35,39.05,-6.20,0.83,0.09,4.06,-0.55,-0.03
1,-1,0,-55,-431,3903,0.04,-0.02,-0.02,-0.55,-4.31,39.03,-6.21,0.83,0.09,4.07,-0.52,-0.03
1,0,0,-53,-436,3900,0.04,-0.02,-0.01,-0.53,-4.36,39.00,-6.23,0.82,0.09,4.08,-0.54,-0.02
1,0,-1,-57,-435,3901,0.04,-0.02,-0.02,-0.57,-4.35,39.01,-6.25,0.82,0.09,4.09,-0.54,0.06
0,-1,-1,-50,-423,3911,0.04,-0.02,-0.02,-0.50,-4.23,39.11,-6.24,0.81,0.09,4.11,-0.51,0.05
0,0,-1,-55,-423,3912,0.03,-0.02,-0.03,-0.55,-4.23,39.12,-6.22,0.81,0.09,4.10,-0.53,0.05
0,-1,0,-60,-418,3905,0.03,-0.02,-0.02,-0.60,-4.18,39.05,-6.20,0.82,0.09,4.09,-0.51,-0.03
1,-1,0,-58,-419,3908,0.03,-0.03,-0.02,-0.58,-4.19,39.08,-6.19,0.82,0.09,4.05,-0.52,-0.03
0,0,0,-58,-423,3919,0.03,-0.02,-0.02,-0.58,-4.23,39.19,-6.17,0.83,0.09,4.07,-0.54,-0.03
1,0,0,-52,-424,3903,0.03,-0.02,-0.02,-0.52,-4.24,39.03,-6.18,0.82,0.09,4.05,-0.53,-0.03
-1,0,0,-59,-430,3896,0.02,-0.02,-0.02,-0.59,-4.30,38.96,-6.20,0.82,0.09,4.10,-0.54,-0.03
-1,1,-1,-61,-430,3902,0.02,-0.01,-0.02,-0.61,-4.30,39.02,-6.21,0.83,0.09,4.11,-0.57,0.05
-1,-1,-1,-48,-423,3909,0.01,-0.02,-0.02,-0.48,-4.23,39.09,-6.21,0.82,0.09,4.11,-0.51,0.05
-1,0,0,-56,-426,3911,0.00,-0.01,-0.02,-0.56,-4.26,39.11,-6.22,0.82,0.09,4.13,-0.53,-0.03
0,1,0,-60,-422,3918,0.00,-0.01,-0.02,-0.60,-4.22,39.18,-6.21,0.83,0.09,4.10,-0.56,-0.03
0,0,0,-56,-422,3901,0.00,-0.01,-0.02,-0.56,-4.22,39.01,-6.19,0.82,0.09,4.09,-0.54,-0.03
-1,0,1,-54,-418,3902,-0.01,-0.01,-0.01,-0.54,-4.18,39.02,-6.17,0.81,0.09,4.10,-0.54,-0.10
0,0,0,-53,-424,3899,-0.00,-0.01,-0.01,-0.53,-4.24,38.99,-6.19,0.80,0.09,4.08,-0.53,-0.02
0,0,0,-58,-435,3905,-0.00,-0.00,-0.01,-0.58,-4.35,39.05,-6.20,0.80,0.09,4.10,-0.53,-0.02
-2,0,0,-55,-428,3918,-0.02,-0.00,-0.01,-0.55,-4.28,39.18,-6.22,0.80,0.09,4.15,-0.53,-0.02
-1,0,-1,-55,-426,3902,-0.02,-0.00,-0.01,-0.55,-4.26,39.02,-6.24,0.80,0.09,4.14,-0.53,0.06
0,0,0,-60,-427,3908,-0.02,-0.00,-0.01,-0.60,-4.27,39.08,-6.24,0.82,0.09,4.12,-0.54,-0.02
-1,0,-1,-52,-432,3907,-0.02,-0.00,-0.02,-0.52,-4.32,39.07,-6.25,0.81,0.09,4.15,-0.53,0.06
-1,0,0,-54,-428,3913,-0.03,-0.00,-0.01,-0.54,-4.28,39.13,-6.25,0.79,0.09,4.15,-0.52,-0.02
-1,0,0,-50,-428,3888,-0.03,-0.00,-0.01,-0.50,-4.28,38.88,-6.25,0.78,0.09,4.16,-0.51,-0.02
-1,0,0,-50,-419,3898,-0.03,-0.00,-0.01,-0.50,-4.19,38.98,-6.24,0.77,0.09,4.15,-0.51,-0.02
0,0,0,-51,-414,3901,-0.03,-0.00,-0.01,-0.51,-4.14,39.01,-6.22,0.77,0.09,4.11,-0.51,-0.02
0,-1,0,-60,-420,3902,-0.03,-0.01,-0.01,-0.60,-4.20,39.02,-6.21,0.78,0.09,4.11,-0.49,-0.02
0,-1,0,-59,-425,3905,-0.02,-0.01,-0.01,-0.59,-4.25,39.05,-6.21,0.80,0.09,4.11,-0.50,-0.02
0,0,1,-53,-429,3918,-0.02,-0.01,-0.00,-0.53,-4.29,39.18,-6.22,0.79,0.09,4.11,-0.52,-0.10
0,0,0,-56,-434,3890,-0.02,-0.01,-0.00,-0.56,-4.34,38.90,-6.24,0.79,0.09,4.13,-0.52,-0.01
0,0,0,-52,-429,3898,-0.02,-0.01,-0.00,-0.52,-4.29,38.98,-6.26,0.78,0.09,4.13,-0.51,-0.01
0,-1,-1,-58,-433,3905,-0.02,-0.01,-0.01,-0.58,-4.33,39.05,-6.27,0.79,0.10,4.14,-0.50,0.07
0,0,-1,-48,-427,3906,-0.01,-0.01,-0.01,-0.48,-4.27,39.06,-6.26,0.78,0.10,4.14,-0.51,0.06
0,0,0,-55,-426,3906,-0.01,-0.01,-0.01,-0.55,-4.26,39.06,-6.25,0.79,0.09,4.13,-0.52,-0.02
0,0,0,-51,-431,3903,-0.01,-0.01,-0.01,-0.51,-4.31,39.03,-6.26,0.77,0.10,4.14,-0.51,-0.02
0,0,-1,-52,-424,3902,-0.01,-0.01,-0.02,-0.52,-4.24,39.02,-6.25,0.77,0.09,4.12,-0.51,0.06
0,0,0,-45,-420,3898,-0.01,-0.01,-0.01,-0.45,-4.20,38.98,-6.23,0.76,0.09,4.12,-0.50,-0.02
0,0,0,-50,-427,3908,-0.01,-0.01,-0.01,-0.50,-4.27,39.08,-6.23,0.74,0.09,4.12,-0.48,-0.02
0,0,0,-55,-424,3906,-0.01,-0.01,-0.01,-0.55,-4.24,39.06,-6.23,0.75,0.09,4.11,-0.50,-0.02
1,0,0,-51,-425,3895,-0.00,-0.01,-0.01,-0.51,-4.25,38.95,-6.23,0.74,0.09,4.09,-0.48,-0.02
0,0,0,-50,-426,3900,-0.00,-0.01,-0.01,-0.50,-4.26,39.00,-6.24,0.72,0.10,4.12,-0.47,-0.02
1,0,0,-46,-430,3900,0.01,-0.01,-0.01,-0.46,-4.30,39.00,-6.25,0.71,0.10,4.11,-0.47,-0.02
0,0,0,-45,-428,3909,0.00,-0.00,-0.01,-0.45,-4.28,39.09,-6.25,0.69,0.10,4.13,-0.45,-0.02
0,0,-1,-57,-425,3900,0.00,-0.00,-0.01,-0.57,-4.25,39.00,-6.25,0.71,0.10,4.12,-0.47,0.06
0,0,0,-58,-426,3899,0.00,-0.00,-0.01,-0.58,-4.26,38.99,-6.25,0.73,0.10,4.12,-0.48,-0.02
0,0,0,-59,-426,3905,0.00,-0.00,-0.01,-0.59,-4.26,39.05,-6.24,0.74,0.10,4.12,-0.49,-0.02
0,0,0,-56,-424,3905,0.00,-0.00,-0.01,-0.56,-4.24,39.05,-6.23,0.76,0.10,4.11,-0.50,-0.02
0,1,0,-50,-427,3914,0.00,0.00,-0.01,-0.50,-4.27,39.14,-6.23,0.74,0.10,4.11,-0.51,-0.02
0,1,-1,-55,-435,3915,0.00,0.01,-0.01,-0.55,-4.35,39.15,-6.25,0.75,0.10,4.12,-0.52,0.06
-1,0,-1,-52,-422,3902,-0.00,0.01,-0.02,-0.52,-4.22,39.02,-6.23,0.75,0.10,4.13,-0.50,0.06
0,0,-1,-54,-420,3906,-0.00,0.01,-0.02,-0.54,-4.20,39.06,-6.21,0.76,0.10,4.10,-0.50,0.05
0,0,0,-54,-417,3904,-0.00,0.01,-0.02,-0.54,-4.17,39.04,-6.19,0.76,0.09,4.09,-0.51,-0.03
0,-1,0,-48,-429,3909,-0.00,-0.00,-0.02,-0.48,-4.29,39.09,-6.21,0.75,0.10,4.10,-0.48,-0.03
-1,-1,0,-50,-433,3903,-0.01,-0.01,-0.02,-0.50,-4.33,39.03,-6.22,0.75,0.10,4.13,-0.47,-0.03
-1,0,-1,-54,-424,3906,-0.01,-0.01,-0.02,-0.54,-4.24,39.06,-6.21,0.76,0.10,4.12,-0.50,0.05
-1,-1,0,-49,-415,3902,-0.02,-0.01,-0.02,-0.49,-4.15,39.02,-6.20,0.76,0.10,4.11,-0.48,-0.03
0,-1,0,-54,-429,3895,-0.02,-0.02,-0.02,-0.54,-4.29,38.95,-6.21,0.76,0.10,4.11,-0.48,-0.03
-1,0,0,-69,-427,3902,-0.02,-0.01,-0.02,-0.69,-4.27,39.02,-6.22,0.78,0.10,4.13,-0.51,-0.02
0,0,1,-67,-426,3904,-0.02,-0.01,-0.01,-0.67,-4.26,39.04,-6.22,0.80,0.10,4.11,-0.52,-0.10
0,0,0,-62,-418,3903,-0.02,-0.01,-0.01,-0.62,-4.18,39.03,-6.20,0.81,0.10,4.10,-0.53,-0.02
0,0,0,-57,-426,3907,-0.02,-0.01,-0.01,-0.57,-4.26,39.07,-6.22,0.83,0.10,4.11,-0.54,-0.02
1,0,0,-50,-433,3909,-0.01,-0.01,-0.01,-0.50,-4.33,39.09,-6.23,0.81,0.10,4.09,-0.53,-0.01
0,0,0,-48,-426,3903,-0.01,-0.01,-0.01,-0.48,-4.26,39.03,-6.23,0.79,0.10,4.11,-0.52,-0.01
0,0,0,-48,-421,3910,-0.01,-0.01,-0.00,-0.48,-4.21,39.10,-6.22,0.78,0.10,4.11,-0.51,-0.01
0,0,0,-53,-421,3904,-0.01,-0.01,-0.00,-0.53,-4.21,39.04,-6.20,0.78,0.10,4.09,-0.51,-0.01
0,-1,0,-60,-423,3904,-0.01,-0.01,-0.00,-0.60,-4.23,39.04,-6.20,0.80,0.10,4.09,-0.50,-0.01
1,0,0,-56,-422,3900,0.00,-0.01,-0.00,-0.56,-4.22,39.00,-6.18,0.81,0.10,4.06,-0.53,-0.01
0,0,0,-58,-425,3907,0.00,-0.01,-0.00,-0.58,-4.25,39.07,-6.19,0.82,0.10,4.09,-0.54,-0.01
0,0,0,-55,-421,3901,0.00,-0.01,-0.00,-0.55,-4.21,39.01,-6.18,0.81,0.10,4.08,-0.54,-0.01
0,-1,0,-57,-428,3904,0.00,-0.01,-0.00,-0.57,-4.28,39.04,-6.20,0.82,0.10,4.09,-0.52,-0.01
0,-1,0,-56,-434,3904,0.00,-0.02,-0.00,-0.56,-4.34,39.04,-6.21,0.82,0.10,4.10,-0.51,-0.01
0,0,0,-56,-424,3899,0.00,-0.02,-0.00,-0.56,-4.24,38.99,-6.20,0.82,0.10,4.09,-0.53,-0.01
1,0,0,-60,-419,3904,0.01,-0.02,-0.00,-0.60,-4.19,39.04,-6.18,0.83,0.10,4.06,-0.54,-0.01
0,-1,-1,-57,-422,3904,0.01,-0.02,-0.01,-0.57,-4.22,39.04,-6.16,0.83,0.10,4.07,-0.52,0.07
0,-1,-1,-57,-430,3912,0.01,-0.02,-0.01,-0.57,-4.30,39.12,-6.18,0.83,0.10,4.08,-0.52,0.06
0,0,-1,-55,-438,3897,0.01,-0.02,-0.02,-0.55,-4.38,38.97,-6.20,0.83,0.10,4.09,-0.54,0.06
1,-1,-1,-64,-430,3892,0.01,-0.03,-0.02,-0.64,-4.30,38.92,-6.21,0.84,0.10,4.08,-0.53,0.05
2,-1,0,-58,-423,3906,0.02,-0.03,-0.02,-0.58,-4.23,39.06,-6.20,0.84,0.10,4.04,-0.53,-0.03
1,-2,-1,-58,-429,3901,0.03,-0.04,-0.02,-0.58,-4.29,39.01,-6.21,0.84,0.10,4.07,-0.51,0.05
1,-1,-1,-57,-432,3906,0.03,-0.04,-0.03,-0.57,-4.32,39.06,-6.23,0.84,0.10,4.08,-0.52,0.05
0,-1,0,-58,-428,3908,0.03,-0.04,-0.02,-0.58,-4.28,39.08,-6.25,0.84,0.10,4.12,-0.53,-0.04
-1,0,0,-56,-422,3904,0.02,-0.04,-0.02,-0.56,-4.22,39.04,-6.23,0.84,0.10,4.13,-0.54,-0.03
0,0,0,-55,-422,3901,0.02,-0.03,-0.02,-0.55,-4.22,39.01,-6.22,0.83,0.10,4.10,-0.54,-0.03
1,0,0,-61,-435,3892,0.02,-0.03,-0.02,-0.61,-4.35,38.92,-6.23,0.84,0.10,4.09,-0.54,-0.03
0,-1,1,-62,-431,3894,0.02,-0.03,-0.01,-0.62,-4.31,38.94,-6.25,0.85,0.10,4.12,-0.53,-0.10
-1,-1,0,-64,-422,3908,0.01,-0.04,-0.01,-0.64,-4.22,39.08,-6.23,0.86,0.10,4.13,-0.54,-0.02
0,0,0,-51,-427,3892,0.01,-0.03,-0.01,-0.51,-4.27,38.92,-6.24,0.84,0.10,4.11,-0.55,-0.02
-1,0,0,-51,-423,3897,0.00,-0.03,-0.01,-0.51,-4.23,38.97,-6.23,0.83,0.10,4.13,-0.54,-0.02
0,1,0,-56,-417,3908,0.00,-0.02,-0.01,-0.56,-4.17,39.08,-6.21,0.82,0.10,4.10,-0.56,-0.02
0,0,1,-49,-413,3902,0.00,-0.02,0.00,-0.49,-4.13,39.02,-6.20,0.81,0.10,4.09,-0.53,-0.09
1,0,1,-55,-415,3903,0.01,-0.02,0.01,-0.55,-4.15,39.03,-6.18,0.81,0.10,4.06,-0.53,-0.09
1,0,0,-62,-427,3912,0.01,-0.02,0.01,-0.62,-4.27,39.12,-6.19,0.83,0.10,4.06,-0.54,-0.00
-1,0,0,-56,-434,3905,0.01,-0.01,0.00,-0.56,-4.34,39.05,-6.21,0.83,0.10,4.11,-0.54,-0.00
-1,0,0,-63,-440,3910,-0.00,-0.01,0.00,-0.63,-4.40,39.10,-6.22,0.83,0.10,4.13,-0.55,-0.00
-2,0,0,-63,-434,3914,-0.01,-0.01,0.00,-0.63,-4.34,39.14,-6.24,0.85,0.10,4.16,-0.55,-0.00
-1,0,0,-60,-423,3907,-0.02,-0.01,0.00,-0.60,-4.23,39.07,-6.22,0.85,0.10,4.13,-0.56,-0.00
0,-1,1,-56,-412,3907,-0.02,-0.02,0.01,-0.56,-4.12,39.07,-6.20,0.85,0.10,4.10,-0.54,-0.08
0,0,0,-62,-413,3903,-0.01,-0.01,0.01,-0.62,-4.13,39.03,-6.19,0.86,0.10,4.09,-0.56,0.00
0,-1,0,-61,-410,3905,-0.01,-0.02,0.01,-0.61,-4.10,39.05,-6.17,0.86,0.10,4.07,-0.54,-0.00
0,-1,0,-60,-423,3908,-0.01,-0.02,0.01,-0.60,-4.23,39.08,-6.18,0.87,0.10,4.08,-0.55,-0.00
0,-1,0,-56,-432,3910,-0.01,-0.03,0.01,-0.56,-4.32,39.10,-6.19,0.87,0.10,4.09,-0.54,-0.00
1,0,0,-57,-427,3892,-0.00,-0.02,0.01,-0.57,-4.27,38.92,-6.21,0.86,0.10,4.08,-0.56,-0.00
-1,-1,-1,-55,-430,3894,-0.01,-0.03,-0.00,-0.55,-4.30,38.94,-6.23,0.85,0.10,4.13,-0.53,0.07
0,-1,0,-60,-431,3907,-0.01,-0.03,-0.00,-0.60,-4.31,39.07,-6.24,0.86,0.10,4.12,-0.54,-0.01
1,-1,1,-58,-421,3895,-0.00,-0.03,0.01,-0.58,-4.21,38.95,-6.23,0.85,0.10,4.09,-0.53,-0.09
1,0,0,-56,-417,3894,0.00,-0.03,0.00,-0.56,-4.17,38.94,-6.21,0.85,0.10,4.08,-0.55,-0.00
0,0,-1,-56,-414,3904,0.00,-0.03,-0.00,-0.56,-4.14,39.04,-6.19,0.84,0.10,4.08,-0.55,0.07
0,-1,0,-54,-403,3907,0.00,-0.03,-0.00,-0.54,-4.03,39.07,-6.17,0.84,0.10,4.07,-0.53,-0.01
1,-1,0,-52,-402,3909,0.01,-0.03,-0.00,-0.52,-4.02,39.09,-6.15,0.84,0.10,4.04,-0.52,-0.01
2,-1,1,-47,-420,3899,0.02,-0.04,0.00,-0.47,-4.20,38.99,-6.15,0.82,0.10,4.02,-0.51,-0.09
1,-1,1,-46,-426,3896,0.02,-0.04,0.01,-0.46,-4.26,38.96,-6.16,0.80,0.10,4.04,-0.50,-0.08
2,-1,0,-52,-425,3895,0.03,-0.04,0.01,-0.52,-4.25,38.95,-6.18,0.79,0.10,4.03,-0.49,0.00
1,-1,0,-51,-430,3913,0.04,-0.04,0.01,-0.51,-4.30,39.13,-6.19,0.78,0.10,4.06,-0.48,0.00
1,0,-1,-66,-421,3913,0.04,-0.04,0.00,-0.66,-4.21,39.13,-6.19,0.80,0.10,4.05,-0.52,0.08
1,0,-1,-67,-427,3910,0.04,-0.03,-0.00,-0.67,-4.27,39.10,-6.19,0.82,0.10,4.06,-0.53,0.07
0,-1,0,-58,-426,3899,0.04,-0.04,-0.00,-0.58,-4.26,38.99,-6.21,0.83,0.10,4.09,-0.52,-0.01
1,0,0,-53,-423,3912,0.04,-0.03,-0.00,-0.53,-4.23,39.12,-6.20,0.81,0.10,4.06,-0.53,-0.01
0,0,0,-48,-425,3891,0.04,-0.03,-0.00,-0.48,-4.25,38.91,-6.20,0.80,0.10,4.08,-0.52,-0.01
0,0,0,-49,-419,3892,0.03,-0.03,-0.00,-0.49,-4.19,38.92,-6.19,0.78,0.10,4.08,-0.51,-0.01
0,0,0,-48,-424,3910,0.03,-0.02,-0.00,-0.48,-4.24,39.10,-6.19,0.76,0.10,4.08,-0.50,-0.01
1,0,0,-51,-427,3900,0.03,-0.02,-0.00,-0.51,-4.27,39.00,-6.21,0.76,0.10,4.07,-0.49,-0.01
1,0,1,-56,-428,3905,0.04,-0.02,0.00,-0.56,-4.28,39.05,-6.22,0.77,0.10,4.08,-0.50,-0.09
0,-1,0,-55,-429,3905,0.03,-0.02,0.00,-0.55,-4.29,39.05,-6.23,0.78,0.10,4.11,-0.49,-0.01
0,-1,0,-52,-434,3909,0.03,-0.03,0.00,-0.52,-4.34,39.09,-6.25,0.78,0.10,4.12,-0.48,-0.01
0,-1,0,-52,-426,3914,0.03,-0.03,0.00,-0.52,-4.26,39.14,-6.24,0.77,0.10,4.11,-0.48,-0.01
0,0,-1,-62,-427,3909,0.02,-0.03,-0.00,-0.62,-4.27,39.09,-6.24,0.79,0.10,4.11,-0.51,0.07
0,0,0,-58,-425,3904,0.02,-0.03,-0.00,-0.58,-4.25,39.04,-6.23,0.80,0.10,4.11,-0.52,-0.01
0,0,0,-51,-416,3897,0.02,-0.02,-0.00,-0.51,-4.16,38.97,-6.21,0.80,0.10,4.09,-0.52,-0.01
0,-1,0,-51,-413,3902,0.02,-0.03,-0.00,-0.51,-4.13,39.02,-6.19,0.79,0.10,4.08,-0.49,-0.01
-1,-1,0,-53,-417,3897,0.01,-0.03,-0.00,-0.53,-4.17,38.97,-6.18,0.79,0.10,4.09,-0.49,-0.01
0,0,0,-45,-424,3892,0.01,-0.03,-0.00,-0.45,-4.24,38.92,-6.18,0.77,0.10,4.08,-0.50,-0.01
0,0,0,-55,-427,3906,0.01,-0.02,-0.00,-0.55,-4.27,39.06,-6.20,0.78,0.10,4.09,-0.51,-0.01
0,-1,0,-55,-418,3891,0.01,-0.03,-0.00,-0.55,-4.18,38.91,-6.18,0.79,0.10,4.08,-0.49,-0.01
1,-1,0,-55,-415,3904,0.01,-0.03,-0.00,-0.55,-4.15,39.04,-6.16,0.79,0.10,4.04,-0.49,-0.01
1,-1,0,-57,-423,3913,0.02,-0.03,-0.00,-0.57,-4.23,39.13,-6.17,0.81,0.10,4.04,-0.50,-0.01
-1,-1,0,-59,-427,3892,0.01,-0.04,-0.00,-0.59,-4.27,38.92,-6.18,0.82,0.10,4.10,-0.51,-0.01
0,-1,0,-57,-424,3890,0.01,-0.04,-0.00,-0.57,-4.24,38.90,-6.20,0.82,0.10,4.09,-0.51,-0.01
1,0,1,-48,-421,3903,0.01,-0.04,0.01,-0.48,-4.21,39.03,-6.19,0.81,0.10,4.06,-0.52,-0.09
0,-1,1,-50,-416,3905,0.01,-0.04,0.01,-0.50,-4.16,39.05,-6.18,0.80,0.10,4.07,-0.49,-0.08
1,-1,0,-50,-426,3907,0.02,-0.04,0.01,-0.50,-4.26,39.07,-6.19,0.78,0.10,4.06,-0.48,0.00
1,0,0,-54,-430,3909,0.02,-0.04,0.01,-0.54,-4.30,39.09,-6.21,0.78,0.10,4.07,-0.51,0.00
0,-1,0,-56,-427,3905,0.02,-0.04,0.01,-0.56,-4.27,39.05,-6.22,0.79,0.10,4.10,-0.49,-0.00
1,-1,0,-55,-423,3903,0.02,-0.04,0.01,-0.55,-4.23,39.03,-6.20,0.80,0.10,4.07,-0.50,-0.00
0,-1,0,-58,-427,3907,0.02,-0.04,0.01,-0.58,-4.27,39.07,-6.21,0.81,0.10,4.09,-0.50,-0.00
1,-1,-1,-56,-425,3896,0.03,-0.04,-0.00,-0.56,-4.25,38.96,-6.23,0.82,0.10,4.08,-0.51,0.08
1,0,0,-56,-429,3898,0.03,-0.04,-0.00,-0.56,-4.29,38.98,-6.25,0.82,0.10,4.09,-0.53,-0.01
0,0,0,-61,-424,3907,0.03,-0.04,-0.00,-0.61,-4.24,39.07,-6.24,0.83,0.10,4.11,-0.54,-0.01
1,0,0,-56,-425,3897,0.03,-0.03,-0.00,-0.56,-4.25,38.97,-6.22,0.82,0.10,4.08,-0.53,-0.01
1,0,0,-52,-429,3899,0.03,-0.03,-0.00,-0.52,-4.29,38.99,-6.24,0.81,0.10,4.09,-0.52,-0.01
1,0,0,-54,-427,3903,0.04,-0.03,-0.00,-0.54,-4.27,39.03,-6.24,0.79,0.10,4.09,-0.51,-0.01
1,-1,0,-61,-423,3913,0.04,-0.03,-0.00,-0.61,-4.23,39.13,-6.23,0.80,0.10,4.08,-0.50,-0.01
0,0,-1,-63,-424,3905,0.03,-0.03,-0.01,-0.63,-4.24,39.05,-6.23,0.82,0.10,4.10,-0.53,0.07
0,0,0,-62,-427,3905,0.03,-0.02,-0.01,-0.62,-4.27,39.05,-6.23,0.84,0.10,4.10,-0.55,-0.01
1,-1,0,-66,-422,3906,0.03,-0.03,-0.01,-0.66,-4.22,39.06,-6.22,0.85,0.10,4.08,-0.54,-0.01
1,-1,0,-64,-424,3898,0.04,-0.03,-0.00,-0.64,-4.24,38.98,-6.22,0.87,0.10,4.07,-0.55,-0.01
0,-1,0,-63,-421,3910,0.03,-0.03,-0.00,-0.63,-4.21,39.10,-6.20,0.88,0.10,4.08,-0.55,-0.01
0,-1,0,-54,-420,3901,0.03,-0.04,-0.00,-0.54,-4.20,39.01,-6.19,0.87,0.10,4.08,-0.54,-0.01
0,0,0,-60,-428,3900,0.03,-0.03,-0.00,-0.60,-4.28,39.00,-6.21,0.87,0.10,4.09,-0.56,-0.01
0,-1,0,-62,-422,3894,0.02,-0.04,-0.00,-0.62,-4.22,38.94,-6.20,0.88,0.10,4.09,-0.55,-0.01
0,0,1,-60,-421,3892,0.02,-0.03,0.00,-0.60,-4.21,38.92,-6.18,0.88,0.09,4.07,-0.57,-0.09
1,0,0,-54,-428,3904,0.03,-0.03,0.00,-0.54,-4.28,39.04,-6.19,0.87,0.10,4.06,-0.56,-0.01
0,-1,1,-54,-427,3911,0.02,-0.03,0.01,-0.54,-4.27,39.11,-6.20,0.85,0.10,4.09,-0.53,-0.08
-1,0,1,-50,-420,3916,0.01,-0.03,0.01,-0.50,-4.20,39.16,-6.19,0.83,0.09,4.10,-0.54,-0.08
-2,0,0,-44,-427,3903,0.00,-0.03,0.01,-0.44,-4.27,39.03,-6.20,0.82,0.09,4.13,-0.53,0.00
-3,0,0,-46,-431,3897,-0.02,-0.02,0.01,-0.46,-4.31,38.97,-6.21,0.80,0.10,4.16,-0.52,0.00
-3,0,0,-61,-428,3901,-0.03,-0.02,0.01,-0.61,-4.28,39.01,-6.22,0.82,0.10,4.17,-0.53,0.00
-4,0,0,-58,-415,3894,-0.06,-0.02,0.01,-0.58,-4.15,38.94,-6.20,0.82,0.09,4.19,-0.54,0.00
-5,1,0,-53,-416,3905,-0.08,-0.01,0.01,-0.53,-4.16,39.05,-6.18,0.81,0.09,4.20,-0.55,0.00
-5,1,0,-57,-421,3916,-0.10,-0.00,0.01,-0.57,-4.21,39.16,-6.17,0.82,0.09,4.20,-0.56,-0.00
-6,0,1,-66,-424,3913,-0.13,-0.00,0.01,-0.66,-4.24,39.13,-6.17,0.84,0.09,4.23,-0.55,-0.08
-6,0,1,-59,-417,3913,-0.15,-0.00,0.02,-0.59,-4.17,39.13,-6.15,0.84,0.09,4.22,-0.55,-0.07
-7,0,1,-54,-426,3905,-0.18,-0.00,0.02,-0.54,-4.26,39.05,-6.17,0.83,0.09,4.26,-0.55,-0.07
-6,0,1,-44,-424,3903,-0.20,-0.00,0.03,-0.44,-4.24,39.03,-6.17,0.81,0.09,4.25,-0.54,-0.07
-5,1,0,-45,-430,3902,-0.21,0.00,0.02,-0.45,-4.30,39.02,-6.18,0.80,0.09,4.24,-0.55,0.02
-5,0,0,-49,-429,3898,-0.22,0.00,0.02,-0.49,-4.29,38.98,-6.20,0.79,0.09,4.25,-0.52,0.01
-4,0,0,-52,-426,3902,-0.22,0.00,0.02,-0.52,-4.26,39.02,-6.21,0.77,0.09,4.24,-0.51,0.01
-3,1,0,-59,-420,3912,-0.22,0.01,0.02,-0.59,-4.20,39.12,-6.20,0.79,0.09,4.21,-0.54,0.01
-3,0,0,-58,-425,3891,-0.21,0.01,0.02,-0.58,-4.25,38.91,-6.21,0.80,0.09,4.22,-0.53,0.01
-3,1,0,-54,-423,3900,-0.21,0.01,0.01,-0.54,-4.23,39.00,-6.20,0.79,0.09,4.21,-0.55,0.01
-2,0,1,-49,-427,3899,-0.20,0.01,0.02,-0.49,-4.27,38.99,-6.21,0.78,0.09,4.19,-0.52,-0.07
-1,0,0,-55,-437,3894,-0.19,0.01,0.02,-0.55,-4.37,38.94,-6.23,0.78,0.09,4.18,-0.52,0.01
-1,0,0,-54,-432,3911,-0.18,0.01,0.01,-0.54,-4.32,39.11,-6.25,0.78,0.09,4.19,-0.52,0.01
-1,-1,0,-59,-428,3903,-0.16,0.00,0.01,-0.59,-4.28,39.03,-6.25,0.80,0.09,4.19,-0.51,0.01
0,-1,0,-49,-433,3903,-0.15,-0.00,0.01,-0.49,-4.33,39.03,-6.26,0.79,0.09,4.17,-0.50,0.00
0,0,0,-55,-430,3904,-0.13,-0.00,0.01,-0.55,-4.30,39.04,-6.28,0.80,0.09,4.18,-0.53,0.00
-1,-1,-1,-54,-427,3910,-0.13,-0.01,0.00,-0.54,-4.27,39.10,-6.26,0.79,0.09,4.19,-0.50,0.08
0,-1,0,-55,-421,3899,-0.11,-0.01,0.00,-0.55,-4.21,38.99,-6.24,0.79,0.09,4.15,-0.50,-0.00
0,0,0,-54,-420,3904,-0.10,-0.01,0.00,-0.54,-4.20,39.04,-6.23,0.79,0.09,4.14,-0.52,-0.01
-1,0,0,-57,-421,3907,-0.10,-0.01,0.00,-0.57,-4.21,39.07,-6.21,0.80,0.09,4.15,-0.53,-0.01
-1,-1,0,-54,-432,3905,-0.09,-0.02,0.00,-0.54,-4.32,39.05,-6.23,0.80,0.09,4.16,-0.50,-0.01
-1,0,0,-48,-438,3899,-0.09,-0.01,0.00,-0.48,-4.38,38.99,-6.24,0.79,0.09,4.17,-0.52,-0.01
-1,0,0,-58,-433,3907,-0.09,-0.01,0.00,-0.58,-4.33,39.07,-6.26,0.80,0.09,4.18,-0.52,-0.01
-1,0,0,-57,-430,3913,-0.09,-0.01,0.00,-0.57,-4.30,39.13,-6.27,0.82,0.09,4.18,-0.54,-0.01
0,0,-1,-52,-430,3901,-0.08,-0.01,-0.00,-0.52,-4.30,39.01,-6.27,0.80,0.09,4.16,-0.53,0.07
-1,0,0,-53,-428,3906,-0.07,-0.01,-0.00,-0.53,-4.28,39.06,-6.26,0.79,0.09,4.17,-0.52,-0.01
-1,0,0,-60,-421,3899,-0.07,-0.01,-0.00,-0.60,-4.21,38.99,-6.25,0.80,0.09,4.17,-0.52,-0.01
0,0,0,-62,-422,3899,-0.07,-0.01,-0.00,-0.62,-4.22,38.99,-6.24,0.81,0.09,4.14,-0.53,-0.01
0,0,0,-46,-439,3911,-0.06,-0.01,-0.00,-0.46,-4.39,39.11,-6.25,0.80,0.09,4.14,-0.53,-0.01
-1,0,0,-48,-429,3913,-0.06,-0.01,-0.00,-0.48,-4.29,39.13,-6.25,0.78,0.09,4.16,-0.51,-0.01
0,0,0,-56,-428,3902,-0.05,-0.01,-0.00,-0.56,-4.28,39.02,-6.26,0.80,0.09,4.14,-0.53,-0.01
0,0,0,-57,-431,3903,-0.05,-0.01,-0.00,-0.57,-4.31,39.03,-6.27,0.81,0.09,4.15,-0.53,-0.01
0,0,-1,-48,-423,3902,-0.04,-0.00,-0.01,-0.48,-4.23,39.02,-6.26,0.80,0.09,4.14,-0.52,0.07
-1,0,-1,-53,-420,3915,-0.05,-0.00,-0.01,-0.53,-4.20,39.15,-6.24,0.79,0.09,4.15,-0.52,0.06
-1,0,0,-60,-429,3905,-0.05,-0.00,-0.01,-0.60,-4.29,39.05,-6.25,0.81,0.09,4.16,-0.53,-0.02
-1,0,0,-68,-420,3889,-0.05,-0.00,-0.01,-0.68,-4.20,38.89,-6.24,0.83,0.09,4.15,-0.55,-0.02
0,0,0,-65,-425,3888,-0.04,-0.00,-0.01,-0.65,-4.25,38.88,-6.24,0.85,0.09,4.13,-0.56,-0.02
-1,0,0,-54,-424,3895,-0.05,-0.00,-0.01,-0.54,-4.24,38.95,-6.23,0.83,0.09,4.15,-0.55,-0.02
-1,0,0,-56,-422,3916,-0.05,-0.00,-0.01,-0.56,-4.22,39.16,-6.22,0.83,0.09,4.14,-0.54,-0.02
-2,-1,0,-53,-416,3899,-0.05,-0.01,-0.01,-0.53,-4.16,38.99,-6.20,0.82,0.09,4.15,-0.52,-0.02
-1,-1,0,-51,-425,3898,-0.05,-0.01,-0.01,-0.51,-4.25,38.98,-6.20,0.80,0.09,4.13,-0.51,-0.02
-1,0,0,-50,-426,3905,-0.06,-0.01,-0.01,-0.50,-4.26,39.05,-6.21,0.78,0.09,4.13,-0.51,-0.01
-2,0,0,-63,-425,3895,-0.06,-0.01,-0.01,-0.63,-4.25,38.95,-6.21,0.80,0.09,4.16,-0.53,-0.01
-2,1,1,-60,-425,3917,-0.07,-0.00,0.00,-0.60,-4.25,39.17,-6.21,0.82,0.09,4.16,-0.56,-0.09
0,1,1,-59,-433,3905,-0.06,0.00,0.01,-0.59,-4.33,39.05,-6.23,0.83,0.09,4.13,-0.57,-0.09
0,-1,1,-58,-423,3890,-0.06,-0.00,0.01,-0.58,-4.23,38.90,-6.21,0.84,0.09,4.12,-0.53,-0.08
1,-1,0,-50,-425,3900,-0.04,-0.01,0.01,-0.50,-4.25,39.00,-6.21,0.82,0.09,4.09,-0.52,0.00
-1,0,0,-46,-431,3911,-0.05,-0.01,0.01,-0.46,-4.31,39.11,-6.22,0.80,0.09,4.14,-0.53,0.00
1,-1,1,-53,-427,3906,-0.03,-0.01,0.02,-0.53,-4.27,39.06,-6.23,0.79,0.09,4.10,-0.50,-0.08
1,-1,1,-52,-418,3909,-0.03,-0.02,0.02,-0.52,-4.18,39.09,-6.21,0.78,0.09,4.09,-0.49,-0.07
-1,-1,0,-49,-426,3894,-0.03,-0.02,0.02,-0.49,-4.26,38.94,-6.22,0.77,0.09,4.13,-0.48,0.01
-1,0,0,-41,-433,3899,-0.03,-0.02,0.02,-0.41,-4.33,38.99,-6.23,0.75,0.09,4.14,-0.49,0.01
0,-1,1,-51,-425,3906,-0.03,-0.02,0.02,-0.51,-4.25,39.06,-6.21,0.75,0.09,4.11,-0.46,-0.07
0,-1,0,-52,-415,3911,-0.03,-0.03,0.02,-0.52,-4.15,39.11,-6.20,0.75,0.09,4.10,-0.46,0.01
0,-1,0,-58,-431,3905,-0.02,-0.03,0.02,-0.58,-4.31,39.05,-6.21,0.76,0.09,4.10,-0.47,0.01
0,0,0,-58,-438,3913,-0.02,-0.03,0.02,-0.58,-4.38,39.13,-6.23,0.77,0.09,4.12,-0.50,0.01
0,-1,0,-60,-428,3906,-0.02,-0.03,0.01,-0.60,-4.28,39.06,-6.23,0.78,0.09,4.12,-0.49,0.01
-1,0,1,-60,-424,3919,-0.02,-0.03,0.02,-0.60,-4.24,39.19,-6.22,0.80,0.09,4.13,-0.52,-0.07
1,-1,0,-53,-417,3908,-0.01,-0.03,0.02,-0.53,-4.17,39.08,-6.20,0.80,0.09,4.08,-0.50,0.01
1,0,1,-46,-423,3914,-0.01,-0.03,0.02,-0.46,-4.23,39.14,-6.20,0.78,0.09,4.07,-0.51,-0.07
0,0,0,-51,-428,3926,-0.01,-0.03,0.02,-0.51,-4.28,39.26,-6.21,0.76,0.09,4.10,-0.50,0.01
-2,0,0,-52,-426,3916,-0.02,-0.02,0.02,-0.52,-4.26,39.16,-6.21,0.74,0.09,4.14,-0.48,0.01
-1,0,0,-55,-428,3911,-0.02,-0.02,0.02,-0.55,-4.28,39.11,-6.22,0.76,0.09,4.13,-0.50,0.01
0,0,0,-56,-420,3916,-0.02,-0.02,0.01,-0.56,-4.20,39.16,-6.20,0.77,0.09,4.10,-0.50,0.01
-1,0,0,-58,-426,3920,-0.02,-0.02,0.01,-0.58,-4.26,39.20,-6.20,0.79,0.09,4.12,-0.51,0.00
-1,0,0,-59,-434,3910,-0.03,-0.02,0.01,-0.59,-4.34,39.10,-6.22,0.80,0.09,4.13,-0.52,0.00
0,0,0,-66,-435,3903,-0.03,-0.01,0.01,-0.66,-4.35,39.03,-6.23,0.81,0.09,4.12,-0.53,0.00
-1,0,0,-57,-421,3919,-0.03,-0.01,0.01,-0.57,-4.21,39.19,-6.21,0.81,0.09,4.13,-0.53,0.00
-2,1,0,-60,-431,3896,-0.04,-0.00,0.01,-0.60,-4.31,38.96,-6.23,0.82,0.09,4.16,-0.56,0.00
-1,0,0,-48,-439,3891,-0.04,-0.00,0.01,-0.48,-4.39,38.91,-6.24,0.81,0.09,4.15,-0.54,-0.00
0,-1,0,-49,-416,3922,-0.04,-0.01,0.01,-0.49,-4.16,39.22,-6.23,0.81,0.09,4.12,-0.51,-0.00
-1,0,0,-47,-425,3920,-0.04,-0.01,0.01,-0.47,-4.25,39.20,-6.22,0.79,0.09,4.14,-0.52,-0.00
1,-1,1,-43,-430,3893,-0.03,-0.01,0.01,-0.43,-4.30,38.93,-6.23,0.77,0.09,4.10,-0.48,-0.08
1,-2,1,-58,-429,3891,-0.02,-0.03,0.02,-0.58,-4.29,38.91,-6.24,0.79,0.09,4.11,-0.47,-0.08
1,0,0,-58,-419,3913,-0.01,-0.02,0.01,-0.58,-4.19,39.13,-6.23,0.79,0.09,4.09,-0.52,0.01
0,0,0,-52,-429,3903,-0.01,-0.02,0.01,-0.52,-4.29,39.03,-6.24,0.78,0.09,4.12,-0.51,0.01
3,-1,0,-62,-443,3891,0.01,-0.02,0.01,-0.62,-4.43,38.91,-6.26,0.79,0.09,4.07,-0.49,0.00
4,-1,0,-66,-428,3893,0.03,-0.03,0.01,-0.66,-4.28,38.93,-6.26,0.81,0.09,4.04,-0.51,0.00
3,-2,1,-63,-422,3896,0.05,-0.04,0.02,-0.63,-4.22,38.96,-6.25,0.82,0.09,4.05,-0.49,-0.08
2,-2,1,-61,-432,3889,0.05,-0.05,0.02,-0.61,-4.32,38.89,-6.26,0.83,0.09,4.08,-0.50,-0.07
2,-1,2,-51,-427,3899,0.06,-0.05,0.03,-0.51,-4.27,38.99,-6.26,0.82,0.09,4.07,-0.51,-0.15
1,-1,1,-57,-418,3894,0.06,-0.05,0.03,-0.57,-4.18,38.94,-6.24,0.82,0.09,4.08,-0.51,-0.06
2,-1,0,-47,-428,3898,0.07,-0.05,0.03,-0.47,-4.28,38.98,-6.24,0.80,0.09,4.06,-0.49,0.02
2,0,0,-39,-427,3895,0.07,-0.04,0.03,-0.39,-4.27,38.95,-6.25,0.78,0.09,4.06,-0.50,0.02
1,0,0,-36,-423,3892,0.07,-0.04,0.02,-0.36,-4.23,38.92,-6.24,0.76,0.09,4.08,-0.49,0.02
1,0,0,-34,-423,3888,0.07,-0.04,0.02,-0.34,-4.23,38.88,-6.24,0.74,0.09,4.08,-0.48,0.02
3,-1,-1,-42,-427,3907,0.08,-0.04,0.01,-0.42,-4.27,39.07,-6.24,0.73,0.09,4.03,-0.45,0.09
3,-1,-1,-44,-416,3901,0.09,-0.04,0.01,-0.44,-4.16,39.01,-6.22,0.72,0.09,4.02,-0.44,0.08
4,-1,-2,-53,-406,3907,0.11,-0.04,-0.01,-0.53,-4.06,39.07,-6.20,0.72,0.09,3.98,-0.44,0.15
4,-1,-1,-55,-404,3912,0.12,-0.04,-0.01,-0.55,-4.04,39.12,-6.19,0.73,0.09,3.97,-0.45,0.06
3,0,0,-59,-419,3910,0.13,-0.04,-0.01,-0.59,-4.19,39.10,-6.18,0.74,0.09,3.98,-0.48,-0.02
4,1,0,-59,-425,3908,0.14,-0.03,-0.01,-0.59,-4.25,39.08,-6.18,0.76,0.09,3.96,-0.51,-0.02
3,1,0,-62,-441,3900,0.14,-0.02,-0.01,-0.62,-4.41,39.00,-6.20,0.77,0.09,3.99,-0.52,-0.02
3,1,-1,-62,-449,3899,0.15,-0.01,-0.01,-0.62,-4.49,38.99,-6.21,0.77,0.09,4.00,-0.53,0.06
2,0,-2,-59,-441,3908,0.14,-0.01,-0.02,-0.59,-4.41,39.08,-6.23,0.78,0.09,4.03,-0.51,0.13
2,-1,-1,-62,-437,3917,0.14,-0.02,-0.03,-0.62,-4.37,39.17,-6.24,0.79,0.09,4.04,-0.50,0.05
2,-1,-1,-63,-428,3905,0.14,-0.02,-0.03,-0.63,-4.28,39.05,-6.24,0.81,0.09,4.04,-0.51,0.04
3,-1,-1,-63,-417,3894,0.14,-0.03,-0.03,-0.63,-4.17,38.94,-6.23,0.82,0.09,4.01,-0.52,0.04
3,0,0,-58,-415,3898,0.15,-0.02,-0.03,-0.58,-4.15,38.98,-6.21,0.82,0.09,4.00,-0.54,-0.04
3,-1,0,-55,-419,3898,0.15,-0.03,-0.03,-0.55,-4.19,38.98,-6.19,0.82,0.09,3.98,-0.51,-0.04
2,0,1,-47,-419,3902,0.15,-0.02,-0.02,-0.47,-4.19,39.02,-6.18,0.80,0.09,4.00,-0.52,-0.11
2,0,1,-47,-422,3909,0.15,-0.02,-0.01,-0.47,-4.22,39.09,-6.18,0.79,0.09,4.00,-0.51,-0.10
2,0,-1,-53,-438,3900,0.14,-0.02,-0.02,-0.53,-4.38,39.00,-6.20,0.78,0.09,4.01,-0.51,0.06
1,0,-1,-53,-438,3899,0.14,-0.02,-0.02,-0.53,-4.38,38.99,-6.22,0.78,0.09,4.04,-0.51,0.05
1,-1,-1,-52,-432,3896,0.13,-0.02,-0.02,-0.52,-4.32,38.96,-6.23,0.78,0.09,4.06,-0.49,0.05
1,-1,0,-59,-436,3896,0.12,-0.03,-0.02,-0.59,-4.36,38.96,-6.25,0.79,0.09,4.07,-0.49,-0.03
0,0,-2,-58,-423,3908,0.11,-0.02,-0.03,-0.58,-4.23,39.08,-6.23,0.80,0.09,4.08,-0.52,0.13
0,0,-1,-65,-427,3911,0.10,-0.02,-0.04,-0.65,-4.27,39.11,-6.23,0.82,0.09,4.09,-0.53,0.04
1,0,0,-56,-419,3912,0.09,-0.02,-0.03,-0.56,-4.19,39.12,-6.21,0.82,0.09,4.06,-0.53,-0.04
2,-1,0,-58,-420,3910,0.10,-0.02,-0.03,-0.58,-4.20,39.10,-6.20,0.82,0.09,4.02,-0.52,-0.04
0,0,0,-46,-412,3909,0.09,-0.02,-0.03,-0.46,-4.12,39.09,-6.18,0.81,0.09,4.06,-0.53,-0.04
1,0,0,-52,-416,3911,0.08,-0.02,-0.02,-0.52,-4.16,39.11,-6.17,0.80,0.09,4.03,-0.52,-0.03
0,-1,0,-51,-418,3902,0.08,-0.02,-0.02,-0.51,-4.18,39.02,-6.15,0.79,0.09,4.04,-0.49,-0.03
0,-1,0,-50,-422,3900,0.07,-0.03,-0.02,-0.50,-4.22,39.00,-6.16,0.77,0.09,4.05,-0.48,-0.03
1,-1,-1,-55,-419,3918,0.07,-0.03,-0.02,-0.55,-4.19,39.18,-6.14,0.78,0.09,4.02,-0.49,0.05
1,-1,-1,-57,-415,3903,0.07,-0.03,-0.03,-0.57,-4.15,39.03,-6.13,0.79,0.09,4.01,-0.49,0.05
0,0,-1,-60,-421,3902,0.06,-0.03,-0.03,-0.60,-4.21,39.02,-6.13,0.81,0.09,4.03,-0.52,0.04
0,0,0,-60,-425,3896,0.05,-0.03,-0.03,-0.60,-4.25,38.96,-6.15,0.82,0.09,4.04,-0.53,-0.04
0,0,1,-60,-418,3900,0.05,-0.02,-0.02,-0.60,-4.18,39.00,-6.14,0.83,0.09,4.04,-0.54,-0.11
-1,0,0,-61,-421,3906,0.04,-0.02,-0.02,-0.61,-4.21,39.06,-6.14,0.85,0.09,4.06,-0.56,-0.03
1,0,1,-57,-421,3902,0.04,-0.02,-0.01,-0.57,-4.21,39.02,-6.15,0.84,0.09,4.03,-0.55,-0.10
1,0,0,-57,-422,3901,0.04,-0.02,-0.01,-0.57,-4.22,39.01,-6.17,0.83,0.09,4.04,-0.54,-0.02
0,0,0,-52,-420,3913,0.04,-0.02,-0.01,-0.52,-4.20,39.13,-6.16,0.82,0.09,4.06,-0.53,-0.02
0,-1,0,-54,-419,3909,0.03,-0.02,-0.01,-0.54,-4.19,39.09,-6.15,0.81,0.09,4.05,-0.51,-0.02
0,-1,0,-52,-422,3906,0.03,-0.02,-0.01,-0.52,-4.22,39.06,-6.15,0.79,0.09,4.05,-0.49,-0.01
-1,0,0,-52,-418,3900,0.02,-0.02,-0.01,-0.52,-4.18,39.00,-6.14,0.78,0.09,4.07,-0.51,-0.01
0,-1,0,-57,-418,3899,0.02,-0.03,-0.00,-0.57,-4.18,38.99,-6.13,0.79,0.09,4.04,-0.50,-0.01
0,-1,0,-60,-417,3898,0.02,-0.03,-0.00,-0.60,-4.17,38.98,-6.13,0.81,0.09,4.04,-0.51,-0.01
0,0,1,-54,-425,3910,0.02,-0.03,0.00,-0.54,-4.25,39.10,-6.14,0.81,0.09,4.05,-0.52,-0.09
0,0,1,-56,-429,3904,0.01,-0.02,0.01,-0.56,-4.29,39.04,-6.16,0.81,0.09,4.06,-0.53,-0.08
0,1,0,-58,-425,3901,0.01,-0.02,0.01,-0.58,-4.25,39.01,-6.18,0.82,0.09,4.07,-0.56,-0.00
0,1,0,-47,-422,3902,0.01,-0.01,0.01,-0.47,-4.22,39.02,-6.18,0.80,0.09,4.07,-0.55,-0.00
0,0,0,-52,-434,3904,0.01,-0.01,0.01,-0.52,-4.34,39.04,-6.19,0.80,0.09,4.09,-0.52,-0.00
-1,-1,0,-56,-423,3901,0.00,-0.01,0.01,-0.56,-4.23,39.01,-6.19,0.81,0.09,4.10,-0.51,-0.00
-1,0,0,-56,-421,3900,-0.00,-0.01,0.00,-0.56,-4.21,39.00,-6.17,0.82,0.09,4.09,-0.54,-0.00
1,0,0,-56,-422,3901,0.00,-0.01,0.00,-0.56,-4.22,39.01,-6.19,0.83,0.09,4.06,-0.54,-0.00
1,0,0,-56,-422,3908,0.01,-0.01,0.00,-0.56,-4.22,39.08,-6.17,0.82,0.09,4.05,-0.54,-0.00
0,0,0,-61,-414,3913,0.01,-0.01,0.00,-0.61,-4.14,39.13,-6.15,0.83,0.09,4.06,-0.54,-0.00
1,0,0,-60,-416,3915,0.01,-0.01,0.00,-0.60,-4.16,39.15,-6.14,0.84,0.09,4.03,-0.55,-0.00
0,0,0,-61,-427,3913,0.01,-0.01,0.00,-0.61,-4.27,39.13,-6.15,0.85,0.09,4.06,-0.56,-0.01
0,0,1,-55,-419,3913,0.01,-0.01,0.01,-0.55,-4.19,39.13,-6.14,0.83,0.09,4.05,-0.55,-0.08
0,0,1,-56,-424,3913,0.01,-0.01,0.01,-0.56,-4.24,39.13,-6.16,0.83,0.09,4.06,-0.54,-0.08
0,-1,1,-59,-434,3910,0.01,-0.01,0.02,-0.59,-4.34,39.10,-6.18,0.83,0.09,4.07,-0.52,-0.07
0,0,1,-59,-433,3910,0.01,-0.01,0.02,-0.59,-4.33,39.10,-6.19,0.83,0.09,4.09,-0.55,-0.07
0,0,1,-57,-426,3900,0.01,-0.01,0.03,-0.57,-4.26,39.00,-6.21,0.83,0.09,4.10,-0.55,-0.06
-1,0,1,-64,-429,3905,0.00,-0.01,0.03,-0.64,-4.29,39.05,-6.22,0.85,0.09,4.13,-0.56,-0.06
-1,0,0,-49,-427,3902,-0.01,-0.01,0.03,-0.49,-4.27,39.02,-6.22,0.83,0.09,4.13,-0.55,0.02
0,0,1,-52,-420,3905,-0.01,-0.01,0.03,-0.52,-4.20,39.05,-6.21,0.82,0.09,4.10,-0.54,-0.06
1,0,1,-49,-422,3899,0.00,-0.01,0.03,-0.49,-4.22,38.99,-6.20,0.80,0.09,4.07,-0.53,-0.06
1,0,1,-49,-417,3895,0.01,-0.01,0.04,-0.49,-4.17,38.95,-6.19,0.79,0.09,4.06,-0.52,-0.05
0,0,1,-64,-418,3906,0.01,-0.00,0.04,-0.64,-4.18,39.06,-6.18,0.80,0.09,4.08,-0.53,-0.05
0,0,1,-61,-421,3906,0.01,-0.00,0.04,-0.61,-4.21,39.06,-6.18,0.82,0.09,4.07,-0.54,-0.05
0,0,1,-58,-424,3898,0.01,-0.00,0.04,-0.58,-4.24,38.98,-6.19,0.83,0.09,4.08,-0.55,-0.05
1,0,1,-57,-430,3902,0.01,-0.00,0.04,-0.57,-4.30,39.02,-6.21,0.83,0.09,4.07,-0.55,-0.05
-1,1,0,-57,-427,3904,0.00,0.00,0.04,-0.57,-4.27,39.04,-6.23,0.83,0.09,4.13,-0.57,0.03
-1,1,0,-60,-432,3905,-0.00,0.01,0.04,-0.60,-4.32,39.05,-6.24,0.84,0.09,4.14,-0.58,0.03
-1,1,0,-53,-419,3903,-0.01,0.01,0.03,-0.53,-4.19,39.03,-6.23,0.83,0.09,4.13,-0.57,0.03
0,0,0,-53,-421,3904,-0.01,0.01,0.03,-0.53,-4.21,39.04,-6.21,0.82,0.09,4.10,-0.54,0.02
-1,0,1,-54,-412,3908,-0.01,0.01,0.03,-0.54,-4.12,39.08,-6.19,0.82,0.09,4.11,-0.54,-0.06
-1,0,1,-57,-413,3917,-0.02,0.01,0.04,-0.57,-4.13,39.17,-6.18,0.82,0.09,4.10,-0.54,-0.06
0,0,0,-57,-422,3902,-0.02,0.01,0.03,-0.57,-4.22,39.02,-6.17,0.84,0.09,4.08,-0.55,0.03
-1,0,1,-59,-425,3899,-0.02,0.01,0.03,-0.59,-4.25,38.99,-6.19,0.84,0.09,4.11,-0.56,-0.06
-1,0,0,-63,-429,3889,-0.02,0.01,0.03,-0.63,-4.29,38.89,-6.20,0.86,0.09,4.12,-0.57,0.03
-1,0,0,-68,-429,3901,-0.03,0.01,0.03,-0.68,-4.29,39.01,-6.21,0.87,0.09,4.13,-0.58,0.02
-1,0,0,-67,-422,3912,-0.03,0.01,0.03,-0.67,-4.22,39.12,-6.20,0.89,0.09,4.12,-0.59,0.02
-1,0,0,-61,-422,3900,-0.03,0.01,0.02,-0.61,-4.22,39.00,-6.18,0.89,0.09,4.11,-0.59,0.02
-1,0,0,-49,-425,3891,-0.04,0.00,0.02,-0.49,-4.25,38.91,-6.19,0.87,0.09,4.12,-0.58,0.01
-1,-1,0,-46,-418,3903,-0.04,-0.00,0.02,-0.46,-4.18,39.03,-6.18,0.86,0.09,4.11,-0.54,0.01
0,0,0,-56,-423,3897,-0.04,-0.00,0.02,-0.56,-4.23,38.97,-6.19,0.84,0.09,4.09,-0.55,0.01
0,0,0,-52,-423,3899,-0.03,-0.00,0.01,-0.52,-4.23,38.99,-6.19,0.82,0.09,4.09,-0.54,0.01
0,0,1,-48,-422,3891,-0.03,-0.00,0.02,-0.48,-4.22,38.91,-6.19,0.80,0.09,4.09,-0.53,-0.07
0,0,0,-50,-422,3891,-0.03,-0.00,0.02,-0.50,-4.22,38.91,-6.19,0.78,0.09,4.09,-0.52,0.01
0,-1,-1,-40,-427,3904,-0.02,-0.01,0.01,-0.40,-4.27,39.04,-6.19,0.76,0.09,4.09,-0.48,0.09
0,-1,0,-45,-424,3905,-0.02,-0.01,0.01,-0.45,-4.24,39.05,-6.20,0.75,0.09,4.09,-0.47,0.00
0,0,-1,-56,-424,3902,-0.02,-0.01,0.00,-0.56,-4.24,39.02,-6.20,0.76,0.09,4.10,-0.50,0.08
0,0,0,-58,-424,3905,-0.02,-0.01,0.00,-0.58,-4.24,39.05,-6.20,0.78,0.09,4.09,-0.51,-0.01
0,-1,-1,-61,-427,3907,-0.02,-0.02,-0.00,-0.61,-4.27,39.07,-6.20,0.80,0.09,4.10,-0.50,0.07
-1,-1,-1,-54,-418,3905,-0.02,-0.02,-0.01,-0.54,-4.18,39.05,-6.19,0.80,0.09,4.11,-0.50,0.07
1,-1,0,-58,-416,3903,-0.01,-0.02,-0.01,-0.58,-4.16,39.03,-6.17,0.81,0.09,4.05,-0.50,-0.02
1,-1,-1,-49,-417,3895,-0.00,-0.03,-0.01,-0.49,-4.17,38.95,-6.16,0.79,0.09,4.05,-0.49,0.06
0,-1,1,-48,-418,3903,-0.00,-0.03,-0.01,-0.48,-4.18,39.03,-6.15,0.77,0.09,4.06,-0.48,-0.10
0,-1,0,-50,-420,3907,-0.00,-0.03,-0.01,-0.50,-4.20,39.07,-6.14,0.76,0.09,4.06,-0.47,-0.01
1,-1,0,-58,-416,3910,0.00,-0.04,-0.01,-0.58,-4.16,39.10,-6.13,0.77,0.09,4.03,-0.48,-0.01
0,0,0,-53,-415,3907,0.00,-0.03,-0.01,-0.53,-4.15,39.07,-6.12,0.77,0.09,4.04,-0.50,-0.01
0,0,0,-58,-432,3905,0.00,-0.03,-0.00,-0.58,-4.32,39.05,-6.13,0.78,0.09,4.05,-0.50,-0.01
-1,0,-1,-59,-430,3907,-0.00,-0.03,-0.01,-0.59,-4.30,39.07,-6.15,0.79,0.09,4.08,-0.51,0.07
-1,0,-1,-51,-430,3908,-0.01,-0.02,-0.02,-0.51,-4.30,39.08,-6.17,0.78,0.09,4.09,-0.51,0.06
-1,0,0,-44,-434,3903,-0.01,-0.02,-0.01,-0.44,-4.34,39.03,-6.18,0.77,0.09,4.10,-0.50,-0.02
0,0,1,-49,-418,3919,-0.01,-0.02,-0.01,-0.49,-4.18,39.19,-6.16,0.76,0.09,4.07,-0.50,-0.10
-1,0,1,-44,-415,3904,-0.02,-0.02,0.00,-0.44,-4.15,39.04,-6.15,0.75,0.09,4.09,-0.49,-0.09
-1,-1,1,-62,-424,3901,-0.02,-0.02,0.01,-0.62,-4.24,39.01,-6.16,0.76,0.09,4.09,-0.48,-0.09
0,0,1,-56,-426,3910,-0.02,-0.02,0.01,-0.56,-4.26,39.10,-6.17,0.77,0.09,4.08,-0.51,-0.08
-1,1,1,-48,-431,3904,-0.02,-0.01,0.02,-0.48,-4.31,39.04,-6.19,0.77,0.09,4.11,-0.52,-0.07
0,0,0,-51,-430,3905,-0.02,-0.01,0.02,-0.51,-4.30,39.05,-6.21,0.76,0.09,4.10,-0.50,0.01
0,0,1,-59,-422,3890,-0.02,-0.01,0.02,-0.59,-4.22,38.90,-6.20,0.78,0.09,4.10,-0.51,-0.07
0,0,1,-57,-415,3895,-0.02,-0.01,0.02,-0.57,-4.15,38.95,-6.19,0.79,0.09,4.09,-0.52,-0.07
0,0,1,-64,-414,3901,-0.02,-0.01,0.03,-0.64,-4.14,39.01,-6.17,0.80,0.09,4.08,-0.53,-0.06
0,0,1,-52,-409,3908,-0.01,-0.01,0.03,-0.52,-4.09,39.08,-6.16,0.80,0.09,4.07,-0.52,-0.06
0,0,1,-60,-422,3912,-0.01,-0.01,0.03,-0.60,-4.22,39.12,-6.16,0.82,0.09,4.07,-0.54,-0.06
-1,0,1,-60,-425,3908,-0.02,-0.01,0.04,-0.60,-4.25,39.08,-6.17,0.83,0.09,4.10,-0.55,-0.05
0,0,1,-55,-431,3904,-0.02,-0.01,0.04,-0.55,-4.31,39.04,-6.19,0.83,0.09,4.09,-0.54,-0.05
0,0,1,-55,-434,3915,-0.01,-0.00,0.04,-0.55,-4.34,39.15,-6.20,0.82,0.09,4.10,-0.54,-0.05
-1,0,0,-52,-428,3905,-0.02,-0.00,0.04,-0.52,-4.28,39.05,-6.22,0.81,0.09,4.13,-0.53,0.03
-1,0,0,-52,-431,3914,-0.02,-0.00,0.03,-0.52,-4.31,39.14,-6.23,0.80,0.09,4.14,-0.52,0.03
-2,0,0,-61,-425,3896,-0.03,-0.00,0.03,-0.61,-4.25,38.96,-6.23,0.82,0.09,4.16,-0.54,0.02
-1,-1,1,-59,-421,3905,-0.04,-0.01,0.03,-0.59,-4.21,39.05,-6.21,0.82,0.09,4.13,-0.52,-0.06
-1,0,0,-55,-426,3911,-0.04,-0.01,0.03,-0.55,-4.26,39.11,-6.22,0.81,0.09,4.13,-0.53,0.02
-2,0,0,-62,-423,3906,-0.05,-0.01,0.03,-0.62,-4.23,39.06,-6.21,0.82,0.09,4.15,-0.54,0.02
-2,0,0,-63,-420,3904,-0.05,-0.01,0.02,-0.63,-4.20,39.04,-6.20,0.84,0.09,4.15,-0.55,0.02
-2,0,0,-61,-421,3899,-0.06,-0.01,0.02,-0.61,-4.21,38.99,-6.19,0.85,0.09,4.14,-0.56,0.02
-1,0,0,-50,-425,3905,-0.06,-0.01,0.02,-0.50,-4.25,39.05,-6.19,0.84,0.09,4.12,-0.55,0.01
-1,0,1,-50,-430,3909,-0.06,-0.00,0.02,-0.50,-4.30,39.09,-6.20,0.82,0.09,4.13,-0.54,-0.07
-2,0,0,-53,-433,3894,-0.07,-0.00,0.02,-0.53,-4.33,38.94,-6.22,0.82,0.09,4.17,-0.54,0.01
-1,-1,0,-47,-426,3896,-0.07,-0.01,0.02,-0.47,-4.26,38.96,-6.22,0.80,0.09,4.15,-0.50,0.01
0,0,0,-48,-413,3904,-0.06,-0.01,0.02,-0.48,-4.13,39.04,-6.21,0.79,0.09,4.11,-0.52,0.01
0,0,0,-46,-418,3904,-0.05,-0.01,0.02,-0.46,-4.18,39.04,-6.20,0.77,0.09,4.10,-0.51,0.01
-1,0,0,-56,-415,3896,-0.05,-0.01,0.01,-0.56,-4.15,38.96,-6.18,0.78,0.09,4.11,-0.51,0.01
0,0,-1,-54,-419,3891,-0.05,-0.01,0.01,-0.54,-4.19,38.91,-6.16,0.79,0.09,4.08,-0.52,0.08
0,-1,0,-53,-430,3902,-0.04,-0.01,0.01,-0.53,-4.30,39.02,-6.18,0.78,0.09,4.09,-0.49,-0.00
-1,0,0,-52,-426,3920,-0.05,-0.01,0.01,-0.52,-4.26,39.20,-6.19,0.77,0.09,4.12,-0.50,-0.00
0,0,0,-56,-426,3894,-0.04,-0.01,0.00,-0.56,-4.26,38.94,-6.21,0.78,0.09,4.11,-0.51,-0.00
0,0,0,-56,-436,3894,-0.04,-0.01,0.00,-0.56,-4.36,38.94,-6.22,0.79,0.09,4.12,-0.52,-0.00
0,0,0,-58,-427,3911,-0.03,-0.01,0.00,-0.58,-4.27,39.11,-6.23,0.80,0.09,4.12,-0.53,-0.00
-1,0,0,-53,-427,3909,-0.04,-0.01,0.00,-0.53,-4.27,39.09,-6.23,0.79,0.09,4.14,-0.52,-0.00
-1,0,-1,-56,-420,3904,-0.04,-0.01,-0.00,-0.56,-4.20,39.04,-6.21,0.79,0.09,4.13,-0.52,0.07
-1,0,0,-49,-416,3905,-0.04,-0.01,-0.00,-0.49,-4.16,39.05,-6.20,0.78,0.09,4.12,-0.51,-0.01
-1,-1,0,-48,-416,3904,-0.04,-0.01,-0.00,-0.48,-4.16,39.04,-6.18,0.77,0.09,4.11,-0.49,-0.01
0,-1,0,-44,-424,3908,-0.04,-0.02,-0.00,-0.44,-4.24,39.08,-6.18,0.75,0.09,4.09,-0.47,-0.01
0,-1,0,-50,-427,3911,-0.03,-0.02,-0.00,-0.50,-4.27,39.11,-6.20,0.74,0.09,4.10,-0.47,-0.01
0,-1,0,-59,-424,3909,-0.03,-0.02,-0.00,-0.59,-4.24,39.09,-6.20,0.76,0.09,4.10,-0.48,-0.01
0,0,0,-63,-431,3908,-0.03,-0.02,-0.00,-0.63,-4.31,39.08,-6.21,0.78,0.09,4.11,-0.51,-0.01
-1,0,0,-65,-420,3898,-0.03,-0.02,-0.00,-0.65,-4.20,38.98,-6.20,0.80,0.09,4.12,-0.52,-0.01
-1,0,0,-62,-422,3911,-0.03,-0.02,-0.00,-0.62,-4.22,39.11,-6.20,0.81,0.09,4.12,-0.53,-0.01
-1,0,0,-59,-424,3908,-0.04,-0.02,-0.00,-0.59,-4.24,39.08,-6.19,0.83,0.09,4.12,-0.54,-0.01
0,0,0,-54,-421,3911,-0.03,-0.01,-0.00,-0.54,-4.21,39.11,-6.18,0.82,0.09,4.09,-0.54,-0.01
0,1,0,-50,-415,3901,-0.03,-0.01,-0.00,-0.50,-4.15,39.01,-6.17,0.81,0.09,4.08,-0.55,-0.01
0,0,0,-47,-424,3893,-0.03,-0.01,-0.00,-0.47,-4.24,38.93,-6.17,0.79,0.09,4.08,-0.52,-0.01
0,-1,1,-51,-424,3898,-0.02,-0.01,0.01,-0.51,-4.24,38.98,-6.19,0.78,0.09,4.09,-0.49,-0.09
1,-1,0,-46,-417,3902,-0.02,-0.02,0.00,-0.46,-4.17,39.02,-6.17,0.76,0.09,4.06,-0.48,-0.00
1,-1,0,-55,-424,3904,-0.01,-0.02,0.00,-0.55,-4.24,39.04,-6.18,0.78,0.09,4.06,-0.49,-0.00
0,0,0,-59,-429,3904,-0.01,-0.02,0.00,-0.59,-4.29,39.04,-6.20,0.79,0.09,4.09,-0.52,-0.00
-1,0,0,-59,-422,3893,-0.01,-0.02,0.00,-0.59,-4.22,38.93,-6.19,0.81,0.09,4.11,-0.53,-0.00
0,-1,0,-57,-421,3905,-0.01,-0.02,0.00,-0.57,-4.21,39.05,-6.18,0.82,0.09,4.08,-0.51,-0.00
0,0,0,-55,-422,3899,-0.01,-0.02,0.00,-0.55,-4.22,38.99,-6.18,0.80,0.09,4.08,-0.52,-0.00
0,0,1,-56,-425,3904,-0.01,-0.02,0.01,-0.56,-4.25,39.04,-6.19,0.81,0.09,4.09,-0.53,-0.08
1,0,0,-54,-423,3899,-0.00,-0.02,0.01,-0.54,-4.23,38.99,-6.19,0.79,0.09,4.07,-0.52,0.00
0,-1,1,-57,-424,3897,-0.00,-0.02,0.01,-0.57,-4.24,38.97,-6.20,0.81,0.09,4.09,-0.51,-0.08
0,0,0,-63,-420,3905,-0.00,-0.02,0.01,-0.63,-4.20,39.05,-6.19,0.82,0.09,4.09,-0.54,0.00
0,0,0,-57,-432,3908,-0.00,-0.02,0.01,-0.57,-4.32,39.08,-6.21,0.82,0.09,4.10,-0.54,0.00
0,0,0,-55,-435,3902,-0.00,-0.01,0.01,-0.55,-4.35,39.02,-6.23,0.82,0.09,4.11,-0.54,0.00
0,-1,0,-62,-431,3913,-0.00,-0.02,0.01,-0.62,-4.31,39.13,-6.24,0.84,0.09,4.12,-0.53,0.00
0,0,0,-56,-431,3908,-0.00,-0.02,0.01,-0.56,-4.31,39.08,-6.25,0.83,0.09,4.13,-0.54,0.00
0,0,-1,-57,-435,3908,-0.00,-0.02,0.00,-0.57,-4.35,39.08,-6.27,0.83,0.09,4.14,-0.54,0.08
0,-1,0,-60,-426,3904,-0.00,-0.02,0.00,-0.60,-4.26,39.04,-6.26,0.84,0.09,4.13,-0.53,-0.01
0,0,0,-62,-419,3901,-0.00,-0.02,0.00,-0.62,-4.19,39.01,-6.24,0.85,0.09,4.12,-0.56,-0.01
0,-1,1,-60,-416,3899,-0.00,-0.02,0.01,-0.60,-4.16,38.99,-6.23,0.85,0.09,4.11,-0.54,-0.09
0,0,0,-57,-421,3907,-0.00,-0.02,0.01,-0.57,-4.21,39.07,-6.21,0.85,0.09,4.10,-0.55,-0.00
0,0,0,-54,-426,3903,-0.00,-0.02,0.01,-0.54,-4.26,39.03,-6.21,0.83,0.09,4.10,-0.54,-0.00
0,0,1,-47,-431,3904,-0.00,-0.02,0.01,-0.47,-4.31,39.04,-6.22,0.81,0.09,4.11,-0.53,-0.08
0,0,1,-54,-427,3905,-0.00,-0.01,0.02,-0.54,-4.27,39.05,-6.23,0.80,0.09,4.11,-0.52,-0.08
0,0,0,-55,-430,3904,-0.00,-0.01,0.01,-0.55,-4.30,39.04,-6.25,0.80,0.09,4.13,-0.52,0.01
1,0,0,-59,-434,3910,0.01,-0.01,0.01,-0.59,-4.34,39.10,-6.27,0.81,0.09,4.11,-0.53,0.01
-1,0,0,-47,-431,3902,-0.00,-0.01,0.01,-0.47,-4.31,39.02,-6.27,0.79,0.09,4.16,-0.52,0.00
0,0,0,-50,-433,3912,-0.00,-0.01,0.01,-0.50,-4.33,39.12,-6.28,0.78,0.09,4.15,-0.51,0.00
-1,0,0,-56,-431,3901,-0.01,-0.01,0.01,-0.56,-4.31,39.01,-6.29,0.79,0.09,4.17,-0.52,0.00
-1,0,0,-57,-431,3907,-0.01,-0.01,0.01,-0.57,-4.31,39.07,-6.29,0.81,0.09,4.18,-0.53,0.00
-1,0,0,-56,-419,3895,-0.02,-0.01,0.01,-0.56,-4.19,38.95,-6.27,0.81,0.09,4.17,-0.53,0.00
0,-1,0,-54,-431,3900,-0.02,-0.01,0.01,-0.54,-4.31,39.00,-6.29,0.80,0.09,4.16,-0.51,-0.00
0,0,-1,-49,-426,3913,-0.01,-0.01,0.00,-0.49,-4.26,39.13,-6.28,0.79,0.09,4.15,-0.52,0.08
1,0,-1,-57,-422,3913,-0.01,-0.01,-0.01,-0.57,-4.22,39.13,-6.26,0.79,0.09,4.11,-0.52,0.07
0,0,0,-52,-428,3904,-0.01,-0.01,-0.01,-0.52,-4.28,39.04,-6.26,0.78,0.09,4.13,-0.51,-0.01
0,-1,0,-54,-426,3909,-0.01,-0.01,-0.00,-0.54,-4.26,39.09,-6.24,0.78,0.09,4.12,-0.49,-0.01
0,0,0,-51,-425,3905,-0.00,-0.01,-0.00,-0.51,-4.25,39.05,-6.23,0.77,0.09,4.11,-0.50,-0.01
1,0,0,-47,-423,3912,0.00,-0.01,-0.00,-0.47,-4.23,39.12,-6.22,0.75,0.09,4.08,-0.49,-0.01
-1,0,0,-48,-425,3909,-0.00,-0.01,-0.00,-0.48,-4.25,39.09,-6.21,0.73,0.09,4.12,-0.48,-0.01
-1,0,0,-56,-421,3910,-0.01,-0.01,-0.00,-0.56,-4.21,39.10,-6.20,0.75,0.09,4.12,-0.49,-0.01
-1,0,0,-65,-431,3906,-0.02,-0.01,-0.00,-0.65,-4.31,39.06,-6.21,0.76,0.09,4.12,-0.50,-0.01
-1,0,0,-66,-424,3906,-0.02,-0.01,-0.00,-0.66,-4.24,39.06,-6.21,0.78,0.09,4.12,-0.51,-0.01
0,0,-1,-57,-430,3902,-0.02,-0.01,-0.01,-0.57,-4.30,39.02,-6.22,0.79,0.09,4.11,-0.52,0.07
0,0,0,-61,-425,3898,-0.02,-0.01,-0.01,-0.61,-4.25,38.98,-6.22,0.81,0.09,4.11,-0.53,-0.02
0,0,0,-54,-422,3906,-0.01,-0.01,-0.01,-0.54,-4.22,39.06,-6.21,0.80,0.09,4.10,-0.53,-0.01
0,0,0,-53,-425,3903,-0.01,-0.00,-0.01,-0.53,-4.25,39.03,-6.21,0.79,0.09,4.10,-0.52,-0.01
0,0,0,-58,-422,3907,-0.01,-0.00,-0.01,-0.58,-4.22,39.07,-6.20,0.80,0.09,4.10,-0.53,-0.01
0,0,0,-58,-426,3912,-0.01,-0.00,-0.00,-0.58,-4.26,39.12,-6.21,0.82,0.09,4.10,-0.54,-0.01
-1,1,0,-60,-427,3906,-0.02,0.00,-0.00,-0.60,-4.27,39.06,-6.22,0.83,0.09,4.13,-0.57,-0.01
-1,1,0,-57,-429,3897,-0.02,0.01,-0.00,-0.57,-4.29,38.97,-6.23,0.83,0.09,4.14,-0.57,-0.01
0,0,0,-54,-421,3903,-0.02,0.01,-0.00,-0.54,-4.21,39.03,-6.22,0.82,0.09,4.11,-0.55,-0.01
-1,-1,0,-52,-409,3914,-0.02,0.00,-0.00,-0.52,-4.09,39.14,-6.20,0.82,0.09,4.12,-0.52,-0.01
0,-1,0,-53,-421,3908,-0.02,-0.01,-0.00,-0.53,-4.21,39.08,-6.19,0.81,0.09,4.09,-0.51,-0.01
1,0,-1,-55,-422,3914,-0.01,-0.00,-0.01,-0.55,-4.22,39.14,-6.17,0.80,0.09,4.05,-0.53,0.07
1,-1,0,-54,-418,3914,-0.00,-0.01,-0.01,-0.54,-4.18,39.14,-6.15,0.80,0.09,4.04,-0.50,-0.02
1,-1,0,-60,-423,3905,0.00,-0.02,-0.01,-0.60,-4.23,39.05,-6.16,0.82,0.09,4.04,-0.51,-0.02
0,0,0,-49,-427,3901,0.00,-0.01,-0.01,-0.49,-4.27,39.01,-6.17,0.80,0.09,4.07,-0.53,-0.01
0,0,-1,-50,-427,3906,0.00,-0.01,-0.01,-0.50,-4.27,39.06,-6.18,0.79,0.09,4.08,-0.52,0.06
1,-1,-1,-52,-431,3910,0.01,-0.02,-0.02,-0.52,-4.31,39.10,-6.20,0.78,0.09,4.07,-0.49,0.06
2,0,-1,-57,-424,3909,0.02,-0.02,-0.02,-0.57,-4.24,39.09,-6.20,0.80,0.09,4.04,-0.52,0.05
1,0,-1,-54,-416,3910,0.02,-0.01,-0.03,-0.54,-4.16,39.10,-6.18,0.80,0.09,4.05,-0.52,0.05
1,-1,-1,-64,-425,3907,0.03,-0.02,-0.03,-0.64,-4.25,39.07,-6.18,0.82,0.09,4.05,-0.51,0.05
1,-1,0,-59,-419,3906,0.03,-0.02,-0.03,-0.59,-4.19,39.06,-6.17,0.83,0.09,4.04,-0.52,-0.04
1,-1,0,-59,-418,3905,0.03,-0.03,-0.02,-0.59,-4.18,39.05,-6.15,0.84,0.09,4.03,-0.52,-0.03
1,0,0,-55,-429,3901,0.04,-0.02,-0.02,-0.55,-4.29,39.01,-6.17,0.83,0.09,4.04,-0.54,-0.03
0,0,0,-55,-428,3893,0.03,-0.02,-0.02,-0.55,-4.28,38.93,-6.19,0.83,0.09,4.07,-0.54,-0.03
0,0,1,-58,-427,3910,0.03,-0.02,-0.01,-0.58,-4.27,39.10,-6.20,0.83,0.09,4.09,-0.54,-0.10
0,-1,1,-53,-428,3912,0.03,-0.02,-0.00,-0.53,-4.28,39.12,-6.21,0.82,0.09,4.09,-0.51,-0.10
-1,0,1,-65,-437,3910,0.02,-0.02,0.00,-0.65,-4.37,39.10,-6.23,0.83,0.09,4.13,-0.54,-0.09
-1,1,0,-56,-440,3912,0.01,-0.01,0.00,-0.56,-4.40,39.12,-6.25,0.83,0.09,4.14,-0.56,-0.01
-1,0,1,-57,-431,3908,0.00,-0.01,0.01,-0.57,-4.31,39.08,-6.26,0.83,0.09,4.15,-0.54,-0.08
-1,0,0,-47,-423,3901,-0.00,-0.01,0.01,-0.47,-4.23,39.01,-6.26,0.81,0.09,4.15,-0.53,0.00
-1,0,1,-52,-428,3911,-0.01,-0.01,0.01,-0.52,-4.28,39.11,-6.25,0.79,0.09,4.15,-0.52,-0.08
0,1,1,-50,-423,3907,-0.01,-0.00,0.02,-0.50,-4.23,39.07,-6.24,0.78,0.09,4.12,-0.54,-0.07
0,0,0,-49,-430,3915,-0.01,-0.00,0.02,-0.49,-4.30,39.15,-6.25,0.77,0.09,4.12,-0.50,0.01
0,0,0,-50,-419,3907,-0.01,-0.00,0.01,-0.50,-4.19,39.07,-6.23,0.76,0.09,4.11,-0.50,0.01
0,0,0,-48,-429,3906,-0.01,-0.00,0.01,-0.48,-4.29,39.06,-6.24,0.75,0.09,4.12,-0.49,0.01
0,0,1,-51,-429,3908,-0.01,-0.00,0.02,-0.51,-4.29,39.08,-6.26,0.74,0.09,4.13,-0.49,-0.07
0,0,0,-49,-420,3911,-0.01,-0.00,0.02,-0.49,-4.20,39.11,-6.24,0.74,0.09,4.12,-0.49,0.01
0,0,0,-46,-419,3913,-0.00,-0.00,0.01,-0.46,-4.19,39.13,-6.22,0.73,0.09,4.11,-0.48,0.01
0,0,0,-52,-413,3892,-0.00,-0.00,0.01,-0.52,-4.13,38.92,-6.20,0.73,0.09,4.10,-0.48,0.01
0,0,0,-51,-422,3904,-0.00,-0.00,0.01,-0.51,-4.22,39.04,-6.19,0.74,0.09,4.08,-0.49,0.00
-1,-1,0,-59,-424,3895,-0.01,-0.01,0.01,-0.59,-4.24,38.95,-6.19,0.76,0.09,4.11,-0.48,0.00
0,0,0,-59,-425,3899,-0.01,-0.01,0.01,-0.59,-4.25,38.99,-6.20,0.77,0.09,4.09,-0.51,0.00
-1,0,0,-54,-425,3909,-0.01,-0.01,0.01,-0.54,-4.25,39.09,-6.21,0.79,0.09,4.12,-0.52,0.00
-1,0,1,-55,-423,3904,-0.02,-0.01,0.01,-0.55,-4.23,39.04,-6.19,0.80,0.09,4.11,-0.53,-0.08
0,0,0,-64,-427,3900,-0.02,-0.00,0.01,-0.64,-4.27,39.00,-6.20,0.82,0.09,4.10,-0.54,0.01
0,0,0,-64,-424,3904,-0.01,-0.00,0.01,-0.64,-4.24,39.04,-6.20,0.83,0.09,4.09,-0.55,0.00
1,0,0,-57,-425,3901,-0.01,-0.00,0.01,-0.57,-4.25,39.01,-6.22,0.83,0.09,4.08,-0.55,0.00
1,0,0,-59,-429,3897,-0.00,-0.00,0.01,-0.59,-4.29,38.97,-6.23,0.84,0.09,4.09,-0.55,0.00
0,-1,1,-54,-425,3906,-0.00,-0.01,0.01,-0.54,-4.25,39.06,-6.23,0.82,0.09,4.11,-0.52,-0.08
0,-1,0,-61,-421,3906,-0.00,-0.01,0.01,-0.61,-4.21,39.06,-6.21,0.84,0.09,4.10,-0.53,0.01
0,0,0,-56,-419,3892,-0.00,-0.01,0.01,-0.56,-4.19,38.92,-6.19,0.83,0.09,4.09,-0.55,0.00
1,-1,0,-55,-422,3904,0.01,-0.02,0.01,-0.55,-4.22,39.04,-6.18,0.82,0.09,4.06,-0.51,0.00
1,0,1,-56,-423,3902,0.01,-0.02,0.02,-0.56,-4.23,39.02,-6.20,0.82,0.09,4.07,-0.54,-0.08
1,-1,1,-60,-431,3897,0.02,-0.02,0.02,-0.60,-4.31,38.97,-6.22,0.83,0.09,4.08,-0.52,-0.07
0,0,0,-63,-430,3891,0.01,-0.02,0.02,-0.63,-4.30,38.91,-6.23,0.84,0.09,4.11,-0.55,0.01
0,0,0,-59,-422,3901,0.01,-0.02,0.02,-0.59,-4.22,39.01,-6.21,0.85,0.09,4.10,-0.55,0.01
0,0,0,-55,-426,3917,0.01,-0.01,0.01,-0.55,-4.26,39.17,-6.21,0.83,0.09,4.10,-0.54,0.01
0,0,0,-55,-430,3909,0.01,-0.01,0.01,-0.55,-4.30,39.09,-6.23,0.82,0.09,4.11,-0.54,0.01
-1,0,0,-59,-428,3904,0.00,-0.01,0.01,-0.59,-4.28,39.04,-6.24,0.84,0.09,4.14,-0.55,0.00
-1,0,0,-55,-425,3905,-0.00,-0.01,0.01,-0.55,-4.25,39.05,-6.23,0.82,0.09,4.13,-0.54,0.00
-1,-1,1,-59,-428,3903,-0.01,-0.02,0.02,-0.59,-4.28,39.03,-6.24,0.84,0.09,4.14,-0.53,-0.08
-1,0,1,-54,-424,3918,-0.01,-0.01,0.02,-0.54,-4.24,39.18,-6.22,0.82,0.09,4.13,-0.54,-0.07
-1,0,0,-57,-424,3904,-0.02,-0.01,0.02,-0.57,-4.24,39.04,-6.21,0.83,0.08,4.12,-0.54,0.01
-1,0,0,-58,-420,3907,-0.02,-0.01,0.02,-0.58,-4.20,39.07,-6.19,0.83,0.08,4.11,-0.55,0.01
-1,-1,0,-57,-419,3903,-0.03,-0.02,0.01,-0.57,-4.19,39.03,-6.17,0.83,0.08,4.10,-0.52,0.01
0,-1,0,-56,-422,3896,-0.02,-0.02,0.01,-0.56,-4.22,38.96,-6.18,0.82,0.08,4.09,-0.51,0.01
-1,0,1,-50,-433,3920,-0.03,-0.02,0.02,-0.50,-4.33,39.20,-6.20,0.81,0.08,4.12,-0.53,-0.07
0,0,0,-39,-448,3886,-0.02,-0.02,0.02,-0.39,-4.48,38.86,-6.21,0.80,0.08,4.11,-0.52,0.01
1,-1,0,-45,-436,3891,-0.02,-0.02,0.01,-0.45,-4.36,38.91,-6.23,0.79,0.08,4.09,-0.49,0.01
2,0,1,-64,-413,3914,-0.00,-0.02,0.02,-0.64,-4.13,39.14,-6.21,0.80,0.08,4.06,-0.52,-0.07
2,0,0,-62,-412,3906,0.01,-0.02,0.02,-0.62,-4.12,39.06,-6.20,0.81,0.08,4.05,-0.53,0.01
1,0,0,-56,-416,3904,0.02,-0.02,0.02,-0.56,-4.16,39.04,-6.18,0.81,0.08,4.05,-0.53,0.01
0,0,0,-59,-422,3902,0.01,-0.01,0.01,-0.59,-4.22,39.02,-6.18,0.83,0.08,4.07,-0.54,0.01
-1,0,1,-61,-412,3901,0.01,-0.01,0.02,-0.61,-4.12,39.01,-6.16,0.83,0.08,4.08,-0.55,-0.07
1,0,1,-52,-423,3890,0.01,-0.01,0.02,-0.52,-4.23,38.90,-6.17,0.82,0.08,4.05,-0.54,-0.07
1,0,1,-46,-436,3894,0.02,-0.01,0.03,-0.46,-4.36,38.94,-6.18,0.81,0.08,4.06,-0.53,-0.06
-1,0,0,-36,-437,3901,0.01,-0.01,0.02,-0.36,-4.37,39.01,-6.20,0.79,0.08,4.11,-0.52,0.02
-1,-1,-1,-49,-430,3894,0.00,-0.01,0.02,-0.49,-4.30,38.94,-6.21,0.78,0.08,4.12,-0.49,0.09
0,-1,0,-65,-432,3905,0.00,-0.02,0.01,-0.65,-4.32,39.05,-6.22,0.80,0.08,4.10,-0.50,0.01
0,-1,0,-64,-425,3902,0.00,-0.02,0.01,-0.64,-4.25,39.02,-6.22,0.82,0.08,4.10,-0.51,0.01
0,0,0,-56,-414,3896,0.00,-0.02,0.01,-0.56,-4.14,38.96,-6.20,0.82,0.08,4.09,-0.53,0.00
1,0,0,-57,-408,3897,0.01,-0.02,0.01,-0.57,-4.08,38.97,-6.18,0.82,0.08,4.06,-0.53,0.00
1,0,0,-58,-421,3915,0.01,-0.02,0.01,-0.58,-4.21,39.15,-6.17,0.83,0.08,4.05,-0.54,0.00
0,0,0,-57,-429,3910,0.01,-0.02,0.01,-0.57,-4.29,39.10,-6.19,0.83,0.08,4.08,-0.54,0.00
0,-1,0,-41,-439,3908,0.01,-0.02,0.01,-0.41,-4.39,39.08,-6.20,0.81,0.08,4.09,-0.51,0.00
0,-1,1,-47,-431,3908,0.01,-0.02,0.01,-0.47,-4.31,39.08,-6.21,0.80,0.08,4.10,-0.50,-0.08
0,1,0,-59,-426,3908,0.01,-0.02,0.01,-0.59,-4.26,39.08,-6.21,0.82,0.08,4.10,-0.56,0.00
0,1,1,-59,-426,3899,0.01,-0.01,0.02,-0.59,-4.26,38.99,-6.22,0.83,0.08,4.10,-0.57,-0.07
0,0,0,-62,-421,3901,0.01,-0.01,0.01,-0.62,-4.21,39.01,-6.21,0.85,0.08,4.10,-0.56,0.01
0,0,-1,-61,-412,3909,0.01,-0.01,0.01,-0.61,-4.12,39.09,-6.19,0.85,0.08,4.08,-0.56,0.08
-1,1,0,-46,-424,3909,-0.00,0.00,0.01,-0.46,-4.24,39.09,-6.19,0.83,0.08,4.11,-0.57,-0.00
-1,1,0,-54,-427,3905,-0.01,0.01,0.01,-0.54,-4.27,39.05,-6.20,0.82,0.08,4.12,-0.56,-0.00
0,0,1,-53,-437,3896,-0.01,0.01,0.01,-0.53,-4.37,38.96,-6.22,0.82,0.08,4.11,-0.54,-0.08
0,0,0,-51,-436,3897,-0.01,0.01,0.01,-0.51,-4.36,38.97,-6.24,0.81,0.08,4.12,-0.54,0.00
-1,-1,0,-57,-428,3912,-0.01,-0.00,0.01,-0.57,-4.28,39.12,-6.24,0.83,0.08,4.14,-0.53,0.00
0,0,1,-58,-417,3913,-0.01,-0.00,0.01,-0.58,-4.17,39.13,-6.23,0.83,0.08,4.11,-0.55,-0.08
-1,1,0,-60,-426,3895,-0.01,0.00,0.01,-0.60,-4.26,38.95,-6.23,0.85,0.08,4.14,-0.58,0.01
-1,0,0,-63,-423,3913,-0.02,0.00,0.01,-0.63,-4.23,39.13,-6.22,0.86,0.08,4.13,-0.57,0.00
0,0,0,-53,-420,3900,-0.02,0.00,0.01,-0.53,-4.20,39.00,-6.21,0.85,0.08,4.10,-0.56,0.00
-1,-1,0,-56,-420,3905,-0.02,-0.00,0.01,-0.56,-4.20,39.05,-6.19,0.84,0.08,4.11,-0.53,0.00
-1,-1,0,-52,-421,3894,-0.03,-0.01,0.01,-0.52,-4.21,38.94,-6.19,0.82,0.08,4.11,-0.52,0.00
-1,0,0,-49,-422,3904,-0.03,-0.01,0.01,-0.49,-4.22,39.04,-6.18,0.80,0.08,4.11,-0.53,0.00
-1,0,0,-52,-423,3913,-0.03,-0.01,0.01,-0.52,-4.23,39.13,-6.18,0.79,0.08,4.11,-0.52,-0.00
0,0,0,-56,-427,3918,-0.03,-0.01,0.01,-0.56,-4.27,39.18,-6.19,0.80,0.08,4.10,-0.52,-0.00
0,0,0,-52,-422,3909,-0.03,-0.01,0.01,-0.52,-4.22,39.09,-6.18,0.78,0.08,4.09,-0.51,-0.00
0,-1,0,-50,-426,3919,-0.02,-0.01,0.01,-0.50,-4.26,39.19,-6.19,0.76,0.08,4.09,-0.48,-0.00
0,0,0,-58,-427,3903,-0.02,-0.01,0.00,-0.58,-4.27,39.03,-6.20,0.78,0.08,4.10,-0.51,-0.00
0,0,0,-63,-425,3904,-0.02,-0.01,0.00,-0.63,-4.25,39.04,-6.20,0.80,0.08,4.10,-0.52,-0.00
1,0,1,-46,-418,3896,-0.01,-0.01,0.01,-0.46,-4.18,38.96,-6.19,0.78,0.08,4.07,-0.51,-0.08
1,0,2,-54,-427,3911,-0.00,-0.01,0.02,-0.54,-4.27,39.11,-6.21,0.78,0.08,4.08,-0.52,-0.15
2,0,0,-47,-420,3899,0.01,-0.01,0.02,-0.47,-4.20,38.99,-6.20,0.77,0.08,4.05,-0.51,0.01
1,0,1,-44,-426,3912,0.01,-0.01,0.02,-0.44,-4.26,39.12,-6.20,0.75,0.08,4.07,-0.49,-0.07
1,0,1,-51,-422,3910,0.02,-0.01,0.03,-0.51,-4.22,39.10,-6.18,0.75,0.08,4.06,-0.49,-0.06
1,0,1,-47,-422,3912,0.02,-0.00,0.03,-0.47,-4.22,39.12,-6.18,0.73,0.08,4.05,-0.48,-0.06
1,0,0,-44,-423,3907,0.03,-0.00,0.03,-0.44,-4.23,39.07,-6.18,0.71,0.08,4.05,-0.47,0.02
1,0,0,-46,-427,3902,0.03,-0.00,0.02,-0.46,-4.27,39.02,-6.19,0.70,0.08,4.06,-0.46,0.02
0,0,0,-56,-425,3905,0.03,-0.00,0.02,-0.56,-4.25,39.05,-6.20,0.72,0.08,4.08,-0.47,0.02
-1,0,0,-64,-423,3910,0.02,-0.00,0.02,-0.64,-4.23,39.10,-6.19,0.74,0.08,4.10,-0.49,0.01
1,0,-1,-62,-418,3910,0.02,-0.00,0.01,-0.62,-4.18,39.10,-6.18,0.76,0.08,4.06,-0.50,0.09
0,0,0,-56,-415,3903,0.02,-0.00,0.01,-0.56,-4.15,39.03,-6.17,0.76,0.08,4.07,-0.50,0.00
0,0,0,-50,-407,3912,0.02,-0.00,0.01,-0.50,-4.07,39.12,-6.15,0.76,0.08,4.05,-0.50,0.00
-1,0,0,-49,-421,3910,0.01,-0.00,0.01,-0.49,-4.21,39.10,-6.15,0.74,0.08,4.08,-0.49,0.00
-1,1,0,-47,-424,3902,0.00,0.00,0.01,-0.47,-4.24,39.02,-6.16,0.73,0.08,4.09,-0.50,0.00
-2,0,0,-46,-431,3898,-0.01,0.00,0.01,-0.46,-4.31,38.98,-6.18,0.72,0.08,4.12,-0.48,0.00
-4,1,0,-56,-433,3913,-0.03,0.01,0.01,-0.56,-4.33,39.13,-6.19,0.73,0.08,4.18,-0.51,-0.00
-3,1,0,-58,-430,3916,-0.05,0.01,0.01,-0.58,-4.30,39.16,-6.20,0.75,0.08,4.17,-0.52,-0.00
-3,2,0,-58,-430,3908,-0.06,0.03,0.01,-0.58,-4.30,39.08,-6.22,0.76,0.08,4.18,-0.55,-0.00
-3,1,-1,-58,-430,3904,-0.07,0.03,-0.00,-0.58,-4.30,39.04,-6.23,0.78,0.08,4.19,-0.54,0.08
-6,1,-1,-55,-430,3904,-0.10,0.03,-0.01,-0.55,-4.30,39.04,-6.24,0.78,0.08,4.27,-0.55,0.07
-7,1,-1,-54,-434,3920,-0.14,0.04,-0.01,-0.54,-4.34,39.20,-6.26,0.78,0.08,4.31,-0.55,0.06
-10,2,-2,-64,-444,3921,-0.18,0.04,-0.02,-0.64,-4.44,39.21,-6.28,0.80,0.08,4.40,-0.58,0.14
-10,2,-1,-64,-452,3922,-0.23,0.05,-0.03,-0.64,-4.52,39.22,-6.30,0.80,0.08,4.42,-0.58,0.05
-12,3,-2,-62,-440,3915,-0.28,0.06,-0.04,-0.62,-4.40,39.15,-6.31,0.82,0.08,4.48,-0.62,0.12
-14,3,-2,-69,-436,3907,-0.33,0.08,-0.05,-0.69,-4.36,39.07,-6.32,0.83,0.08,4.55,-0.63,0.11
-12,1,-1,-47,-415,3874,-0.37,0.07,-0.05,-0.47,-4.15,38.74,-6.30,0.82,0.08,4.51,-0.58,0.03
-10,1,-1,-42,-406,3867,-0.40,0.07,-0.05,-0.42,-4.06,38.67,-6.29,0.81,0.08,4.46,-0.58,0.03
-4,-1,-1,-29,-382,3886,-0.38,0.06,-0.05,-0.29,-3.82,38.86,-6.28,0.80,0.08,4.33,-0.53,0.02
-3,0,-1,-30,-390,3892,-0.36,0.05,-0.05,-0.30,-3.90,38.92,-6.26,0.79,0.08,4.29,-0.54,0.02
0,0,0,-52,-412,3888,-0.33,0.05,-0.05,-0.52,-4.12,38.88,-6.25,0.79,0.08,4.21,-0.54,-0.06
1,1,2,-64,-418,3900,-0.29,0.05,-0.03,-0.64,-4.18,39.00,-6.23,0.81,0.08,4.17,-0.57,-0.21
0,1,0,-75,-448,3916,-0.26,0.05,-0.03,-0.75,-4.48,39.16,-6.25,0.82,0.08,4.19,-0.57,-0.04
0,0,0,-73,-457,3900,-0.23,0.05,-0.02,-0.73,-4.57,39.00,-6.27,0.83,0.08,4.20,-0.56,-0.03
0,0,1,-54,-455,3907,-0.21,0.04,-0.01,-0.54,-4.55,39.07,-6.28,0.83,0.08,4.20,-0.56,-0.11
-1,-1,1,-55,-448,3903,-0.19,0.03,-0.01,-0.55,-4.48,39.03,-6.30,0.82,0.08,4.23,-0.53,-0.10
-2,-1,1,-49,-430,3899,-0.19,0.02,-0.00,-0.49,-4.30,38.99,-6.30,0.81,0.08,4.25,-0.52,-0.09
-1,-1,1,-46,-429,3897,-0.17,0.01,0.01,-0.46,-4.29,38.97,-6.30,0.79,0.08,4.23,-0.50,-0.09
0,0,0,-57,-412,3909,-0.16,0.01,0.01,-0.57,-4.12,39.09,-6.28,0.79,0.08,4.19,-0.53,-0.00
-1,0,0,-55,-405,3915,-0.15,0.01,0.00,-0.55,-4.05,39.15,-6.27,0.79,0.08,4.20,-0.53,-0.00
0,0,0,-60,-405,3915,-0.13,0.01,0.00,-0.60,-4.05,39.15,-6.25,0.80,0.08,4.16,-0.53,-0.00
1,1,0,-50,-412,3909,-0.11,0.02,0.00,-0.50,-4.12,39.09,-6.23,0.79,0.08,4.12,-0.55,-0.00
0,1,0,-48,-431,3906,-0.10,0.02,0.00,-0.48,-4.31,39.06,-6.24,0.78,0.08,4.15,-0.54,-0.00
1,0,1,-53,-436,3901,-0.09,0.02,0.01,-0.53,-4.36,39.01,-6.26,0.78,0.08,4.14,-0.52,-0.08
1,1,0,-74,-455,3904,-0.07,0.02,0.01,-0.74,-4.55,39.04,-6.28,0.79,0.08,4.14,-0.55,0.00
1,0,-1,-74,-456,3909,-0.06,0.02,0.00,-0.74,-4.56,39.09,-6.29,0.80,0.08,4.15,-0.53,0.08
-1,0,-1,-66,-436,3904,-0.06,0.02,-0.00,-0.66,-4.36,39.04,-6.30,0.81,0.08,4.19,-0.54,0.07
-1,0,0,-65,-427,3903,-0.06,0.02,-0.00,-0.65,-4.27,39.03,-6.29,0.83,0.08,4.19,-0.55,-0.01
-1,0,0,-49,-404,3901,-0.06,0.01,-0.00,-0.49,-4.04,39.01,-6.27,0.83,0.08,4.18,-0.55,-0.01
-1,-1,0,-38,-403,3906,-0.06,0.01,-0.00,-0.38,-4.03,39.06,-6.26,0.82,0.08,4.17,-0.52,-0.01
1,0,1,-37,-412,3895,-0.05,0.01,0.00,-0.37,-4.12,38.95,-6.25,0.80,0.08,4.12,-0.53,-0.09
0,1,1,-46,-422,3910,-0.04,0.01,0.01,-0.46,-4.22,39.10,-6.24,0.79,0.08,4.13,-0.54,-0.08
0,0,0,-53,-438,3916,-0.04,0.01,0.01,-0.53,-4.38,39.16,-6.26,0.78,0.08,4.14,-0.52,0.00
0,0,1,-64,-445,3903,-0.03,0.01,0.01,-0.64,-4.45,39.03,-6.27,0.79,0.08,4.15,-0.53,-0.08
0,0,0,-66,-442,3909,-0.03,0.01,0.01,-0.66,-4.42,39.09,-6.29,0.81,0.08,4.16,-0.53,0.00
0,0,0,-62,-433,3903,-0.03,0.01,0.01,-0.62,-4.33,39.03,-6.29,0.82,0.08,4.16,-0.55,0.00
0,-1,0,-56,-424,3907,-0.02,0.00,0.01,-0.56,-4.24,39.07,-6.28,0.82,0.08,4.15,-0.52,0.00
-1,-1,0,-55,-428,3912,-0.03,-0.01,0.01,-0.55,-4.28,39.12,-6.26,0.81,0.08,4.16,-0.51,0.00
0,0,0,-52,-417,3909,-0.03,-0.00,0.01,-0.52,-4.17,39.09,-6.24,0.81,0.08,4.13,-0.53,0.00
0,0,0,-50,-420,3916,-0.02,-0.00,0.01,-0.50,-4.20,39.16,-6.23,0.80,0.08,4.12,-0.52,-0.00
1,-1,0,-52,-424,3905,-0.01,-0.01,0.01,-0.52,-4.24,39.05,-6.22,0.78,0.08,4.09,-0.49,-0.00
1,0,0,-53,-417,3906,-0.01,-0.01,0.01,-0.53,-4.17,39.06,-6.20,0.78,0.08,4.07,-0.51,-0.00
1,0,0,-64,-434,3910,-0.00,-0.01,0.01,-0.64,-4.34,39.10,-6.21,0.79,0.08,4.08,-0.52,-0.00
0,0,0,-61,-441,3906,-0.00,-0.01,0.00,-0.61,-4.41,39.06,-6.23,0.80,0.08,4.11,-0.53,-0.00
0,0,0,-57,-435,3907,-0.00,-0.01,0.00,-0.57,-4.35,39.07,-6.25,0.81,0.08,4.12,-0.53,-0.00
0,0,0,-61,-439,3924,-0.00,-0.01,0.00,-0.61,-4.39,39.24,-6.26,0.81,0.08,4.13,-0.54,-0.00
0,0,0,-63,-438,3911,-0.00,-0.01,0.00,-0.63,-4.38,39.11,-6.28,0.83,0.08,4.14,-0.54,-0.00
1,0,0,-61,-442,3907,0.01,-0.00,0.00,-0.61,-4.42,39.07,-6.29,0.83,0.08,4.13,-0.55,-0.00
-1,-1,0,-57,-434,3900,-0.00,-0.01,0.00,-0.57,-4.34,39.00,-6.31,0.83,0.08,4.19,-0.53,-0.00
-2,0,0,-60,-432,3908,-0.01,-0.01,0.00,-0.60,-4.32,39.08,-6.31,0.85,0.08,4.21,-0.56,-0.00
-1,0,0,-45,-411,3905,-0.02,-0.01,0.00,-0.45,-4.11,39.05,-6.29,0.84,0.08,4.18,-0.55,-0.01
0,0,1,-46,-418,3901,-0.02,-0.01,0.01,-0.46,-4.18,39.01,-6.28,0.83,0.08,4.15,-0.54,-0.08
0,0,0,-52,-423,3886,-0.01,-0.01,0.01,-0.52,-4.23,38.86,-6.27,0.82,0.08,4.14,-0.54,0.00
0,0,1,-51,-418,3901,-0.01,-0.01,0.01,-0.51,-4.18,39.01,-6.25,0.81,0.08,4.13,-0.53,-0.08
0,0,0,-61,-420,3904,-0.01,-0.01,0.01,-0.61,-4.20,39.04,-6.24,0.82,0.08,4.12,-0.54,0.00
0,-1,0,-60,-434,3899,-0.01,-0.01,0.01,-0.60,-4.34,38.99,-6.25,0.83,0.08,4.13,-0.52,0.00
0,0,0,-57,-433,3900,-0.01,-0.01,0.01,-0.57,-4.33,39.00,-6.27,0.83,0.08,4.14,-0.54,0.00
-1,0,0,-50,-434,3894,-0.01,-0.01,0.01,-0.50,-4.34,38.94,-6.28,0.81,0.08,4.17,-0.53,0.00
0,0,1,-52,-433,3892,-0.01,-0.01,0.01,-0.52,-4.33,38.92,-6.30,0.80,0.08,4.16,-0.53,-0.08
-1,-1,1,-50,-428,3902,-0.02,-0.01,0.02,-0.50,-4.28,39.02,-6.29,0.79,0.08,4.18,-0.49,-0.07
0,-1,1,-51,-417,3892,-0.02,-0.02,0.02,-0.51,-4.17,38.92,-6.27,0.78,0.08,4.14,-0.49,-0.07
0,0,0,-55,-415,3898,-0.01,-0.02,0.02,-0.55,-4.15,38.98,-6.25,0.78,0.08,4.13,-0.51,0.01
0,1,0,-55,-421,3894,-0.01,-0.01,0.02,-0.55,-4.21,38.94,-6.24,0.79,0.08,4.12,-0.54,0.01
0,1,0,-53,-423,3896,-0.01,-0.00,0.02,-0.53,-4.23,38.96,-6.22,0.78,0.08,4.11,-0.54,0.01
0,0,1,-66,-429,3907,-0.01,-0.00,0.02,-0.66,-4.29,39.07,-6.22,0.80,0.08,4.11,-0.53,-0.07
1,0,1,-60,-431,3916,-0.00,-0.00,0.02,-0.60,-4.31,39.16,-6.23,0.81,0.08,4.10,-0.54,-0.07
0,-1,0,-60,-423,3917,-0.00,-0.01,0.02,-0.60,-4.23,39.17,-6.22,0.83,0.08,4.11,-0.52,0.02
0,0,0,-57,-431,3904,-0.00,-0.01,0.02,-0.57,-4.31,39.04,-6.24,0.83,0.08,4.12,-0.54,0.01
0,-1,1,-59,-433,3904,-0.00,-0.01,0.02,-0.59,-4.33,39.04,-6.26,0.83,0.08,4.13,-0.53,-0.07
0,0,1,-60,-432,3914,-0.00,-0.01,0.03,-0.60,-4.32,39.14,-6.27,0.85,0.08,4.14,-0.56,-0.06
0,0,0,-51,-430,3903,-0.00,-0.01,0.03,-0.51,-4.30,39.03,-6.27,0.83,0.08,4.14,-0.54,0.02
0,0,0,-54,-434,3906,-0.00,-0.01,0.02,-0.54,-4.34,39.06,-6.29,0.82,0.08,4.15,-0.54,0.02
1,-1,0,-50,-429,3907,0.00,-0.01,0.02,-0.50,-4.29,39.07,-6.28,0.80,0.08,4.13,-0.50,0.01
0,0,0,-54,-426,3897,0.00,-0.01,0.02,-0.54,-4.26,38.97,-6.27,0.80,0.08,4.13,-0.52,0.01
-1,-1,0,-56,-430,3905,-0.00,-0.02,0.02,-0.56,-4.30,39.05,-6.28,0.81,0.08,4.16,-0.51,0.01
-1,0,-1,-52,-428,3909,-0.01,-0.02,0.01,-0.52,-4.28,39.09,-6.27,0.79,0.08,4.16,-0.52,0.09
1,0,0,-47,-431,3919,-0.00,-0.01,0.01,-0.47,-4.31,39.19,-6.27,0.78,0.08,4.12,-0.51,0.00
0,0,0,-49,-428,3909,-0.00,-0.01,0.01,-0.49,-4.28,39.09,-6.26,0.76,0.08,4.13,-0.50,0.00
0,0,0,-54,-429,3907,-0.00,-0.01,0.01,-0.54,-4.29,39.07,-6.27,0.78,0.08,4.14,-0.51,-0.00
0,0,0,-56,-431,3907,-0.00,-0.01,0.01,-0.56,-4.31,39.07,-6.28,0.79,0.08,4.14,-0.52,-0.00
-1,0,1,-63,-422,3904,-0.01,-0.01,0.01,-0.63,-4.22,39.04,-6.26,0.81,0.08,4.16,-0.53,-0.08
-1,0,0,-59,-427,3909,-0.01,-0.01,0.01,-0.59,-4.27,39.09,-6.26,0.82,0.08,4.15,-0.54,0.00
0,-1,0,-56,-431,3906,-0.01,-0.01,0.01,-0.56,-4.31,39.06,-6.27,0.82,0.08,4.14,-0.52,0.00
0,0,0,-60,-422,3909,-0.01,-0.01,0.01,-0.60,-4.22,39.09,-6.26,0.83,0.08,4.13,-0.54,0.00
0,0,0,-59,-422,3906,-0.01,-0.01,0.01,-0.59,-4.22,39.06,-6.24,0.83,0.08,4.12,-0.55,0.00
0,0,-1,-63,-423,3907,-0.01,-0.01,0.00,-0.63,-4.23,39.07,-6.23,0.85,0.08,4.11,-0.56,0.08
0,-1,0,-61,-424,3891,-0.01,-0.02,0.00,-0.61,-4.24,38.91,-6.23,0.87,0.08,4.11,-0.55,-0.01
0,0,0,-53,-425,3901,-0.01,-0.01,0.00,-0.53,-4.25,39.01,-6.22,0.85,0.08,4.11,-0.56,-0.01
0,0,1,-64,-425,3901,-0.01,-0.01,0.01,-0.64,-4.25,39.01,-6.22,0.87,0.08,4.11,-0.57,-0.09
0,0,0,-55,-429,3902,-0.01,-0.01,0.01,-0.55,-4.29,39.02,-6.23,0.85,0.08,4.12,-0.56,-0.00
0,0,1,-58,-427,3907,-0.00,-0.01,0.01,-0.58,-4.27,39.07,-6.24,0.83,0.08,4.12,-0.55,-0.08
-1,0,1,-57,-423,3905,-0.01,-0.01,0.02,-0.57,-4.23,39.05,-6.22,0.83,0.08,4.13,-0.55,-0.07
-1,0,0,-47,-432,3912,-0.02,-0.01,0.01,-0.47,-4.32,39.12,-6.23,0.82,0.08,4.14,-0.54,0.01
0,0,0,-48,-430,3903,-0.01,-0.01,0.01,-0.48,-4.30,39.03,-6.24,0.80,0.08,4.12,-0.53,0.01
0,0,0,-63,-429,3910,-0.01,-0.01,0.01,-0.63,-4.29,39.10,-6.24,0.82,0.08,4.12,-0.54,0.01
0,0,0,-61,-431,3904,-0.01,-0.01,0.01,-0.61,-4.31,39.04,-6.26,0.83,0.08,4.13,-0.55,0.00
0,0,0,-55,-428,3908,-0.01,-0.01,0.01,-0.55,-4.28,39.08,-6.25,0.82,0.08,4.13,-0.54,0.00
0,0,0,-56,-424,3895,-0.01,-0.00,0.01,-0.56,-4.24,38.95,-6.23,0.82,0.08,4.12,-0.54,0.00
-1,0,0,-52,-427,3896,-0.01,-0.00,0.01,-0.52,-4.27,38.96,-6.24,0.80,0.08,4.14,-0.53,0.00
-1,0,0,-51,-423,3902,-0.02,-0.00,0.01,-0.51,-4.23,39.02,-6.23,0.79,0.08,4.14,-0.52,0.00
0,-1,-1,-55,-427,3913,-0.02,-0.01,0.00,-0.55,-4.27,39.13,-6.23,0.80,0.08,4.11,-0.51,0.08
0,1,0,-54,-427,3915,-0.02,-0.00,0.00,-0.54,-4.27,39.15,-6.22,0.79,0.08,4.11,-0.54,-0.01
0,0,1,-49,-432,3908,-0.01,-0.00,0.01,-0.49,-4.32,39.08,-6.24,0.77,0.08,4.12,-0.51,-0.09
0,0,0,-52,-429,3903,-0.01,-0.00,0.01,-0.52,-4.29,39.03,-6.26,0.77,0.08,4.13,-0.51,-0.00
1,-1,0,-58,-437,3892,-0.01,-0.01,0.01,-0.58,-4.37,38.92,-6.27,0.78,0.08,4.12,-0.49,-0.00
0,0,0,-58,-431,3905,-0.00,-0.01,0.00,-0.58,-4.31,39.05,-6.28,0.79,0.08,4.14,-0.52,-0.00
-1,-1,1,-62,-426,3914,-0.01,-0.01,0.01,-0.62,-4.26,39.14,-6.27,0.81,0.08,4.16,-0.51,-0.08
0,0,1,-57,-422,3902,-0.01,-0.01,0.02,-0.57,-4.22,39.02,-6.25,0.81,0.08,4.13,-0.53,-0.08
-1,0,1,-50,-422,3898,-0.01,-0.01,0.02,-0.50,-4.22,38.98,-6.24,0.80,0.08,4.14,-0.52,-0.07
0,0,1,-48,-427,3899,-0.01,-0.01,0.02,-0.48,-4.27,38.99,-6.24,0.78,0.08,4.12,-0.51,-0.07
0,-1,1,-51,-430,3911,-0.01,-0.01,0.03,-0.51,-4.30,39.11,-6.25,0.77,0.08,4.13,-0.48,-0.06
0,-1,1,-53,-432,3907,-0.01,-0.02,0.03,-0.53,-4.32,39.07,-6.27,0.77,0.08,4.14,-0.48,-0.06
-1,0,0,-51,-427,3904,-0.02,-0.02,0.03,-0.51,-4.27,39.04,-6.26,0.76,0.08,4.15,-0.49,0.02
-1,0,0,-50,-422,3902,-0.02,-0.02,0.03,-0.50,-4.22,39.02,-6.24,0.75,0.08,4.14,-0.49,0.02
0,0,0,-57,-435,3900,-0.02,-0.01,0.02,-0.57,-4.35,39.00,-6.26,0.76,0.08,4.13,-0.50,0.02
0,0,0,-54,-434,3921,-0.02,-0.01,0.02,-0.54,-4.34,39.21,-6.27,0.77,0.08,4.14,-0.50,0.01
0,0,1,-55,-432,3911,-0.01,-0.01,0.02,-0.55,-4.32,39.11,-6.28,0.78,0.08,4.15,-0.51,-0.07
0,0,1,-61,-426,3900,-0.01,-0.01,0.03,-0.61,-4.26,39.00,-6.28,0.80,0.08,4.15,-0.52,-0.06
-1,0,0,-50,-424,3909,-0.02,-0.01,0.03,-0.50,-4.24,39.09,-6.26,0.79,0.08,4.16,-0.52,0.02
0,0,0,-51,-435,3907,-0.02,-0.01,0.02,-0.51,-4.35,39.07,-6.28,0.78,0.08,4.15,-0.51,0.02
0,-1,0,-48,-438,3903,-0.01,-0.01,0.02,-0.48,-4.38,39.03,-6.30,0.77,0.08,4.16,-0.48,0.01
0,0,0,-50,-429,3906,-0.01,-0.01,0.02,-0.50,-4.29,39.06,-6.28,0.75,0.08,4.15,-0.49,0.01
0,0,0,-50,-433,3893,-0.01,-0.01,0.02,-0.50,-4.33,38.93,-6.30,0.75,0.08,4.16,-0.49,0.01
-1,-1,1,-54,-445,3892,-0.02,-0.02,0.02,-0.54,-4.45,38.92,-6.32,0.75,0.08,4.20,-0.47,-0.07
0,-1,1,-61,-425,3904,-0.02,-0.02,0.03,-0.61,-4.25,39.04,-6.31,0.77,0.08,4.17,-0.48,-0.07
-1,0,1,-62,-423,3906,-0.02,-0.02,0.03,-0.62,-4.23,39.06,-6.30,0.78,0.08,4.18,-0.51,-0.06
0,0,0,-53,-429,3898,-0.02,-0.02,0.03,-0.53,-4.29,38.98,-6.28,0.77,0.08,4.15,-0.51,0.02
0,1,0,-50,-424,3905,-0.02,-0.01,0.02,-0.50,-4.24,39.05,-6.26,0.77,0.08,4.14,-0.52,0.02
-1,0,0,-49,-426,3915,-0.02,-0.01,0.02,-0.49,-4.26,39.15,-6.25,0.75,0.08,4.15,-0.49,0.02
0,0,0,-55,-431,3909,-0.02,-0.01,0.02,-0.55,-4.31,39.09,-6.26,0.77,0.08,4.14,-0.50,0.01
0,0,0,-51,-432,3907,-0.02,-0.01,0.02,-0.51,-4.32,39.07,-6.28,0.76,0.08,4.15,-0.50,0.01
0,1,1,-52,-432,3907,-0.01,0.00,0.02,-0.52,-4.32,39.07,-6.30,0.76,0.08,4.16,-0.52,-0.07
0,0,0,-51,-432,3912,-0.01,0.00,0.02,-0.51,-4.32,39.12,-6.30,0.74,0.08,4.16,-0.49,0.01
0,0,1,-50,-426,3899,-0.01,0.00,0.02,-0.50,-4.26,38.99,-6.28,0.74,0.08,4.15,-0.49,-0.07
1,-1,1,-54,-426,3902,-0.00,-0.01,0.03,-0.54,-4.26,39.02,-6.27,0.75,0.08,4.12,-0.47,-0.06
1,-1,1,-61,-431,3901,0.00,-0.01,0.03,-0.61,-4.31,39.01,-6.28,0.77,0.08,4.12,-0.48,-0.06
1,0,0,-58,-432,3902,0.01,-0.01,0.03,-0.58,-4.32,39.02,-6.28,0.78,0.08,4.12,-0.51,0.02
0,-1,0,-60,-426,3909,0.01,-0.02,0.02,-0.60,-4.26,39.09,-6.27,0.80,0.08,4.14,-0.50,0.02
0,0,0,-54,-428,3897,0.01,-0.01,0.02,-0.54,-4.28,38.97,-6.26,0.78,0.08,4.13,-0.51,0.02
0,0,0,-52,-426,3908,0.01,-0.01,0.02,-0.52,-4.26,39.08,-6.25,0.77,0.08,4.12,-0.51,0.01
0,0,0,-49,-426,3913,0.01,-0.01,0.02,-0.49,-4.26,39.13,-6.24,0.76,0.08,4.12,-0.50,0.01
0,0,0,-50,-430,3904,0.00,-0.01,0.02,-0.50,-4.30,39.04,-6.25,0.75,0.08,4.13,-0.49,0.01
0,0,0,-58,-426,3904,0.00,-0.01,0.01,-0.58,-4.26,39.04,-6.25,0.77,0.08,4.12,-0.50,0.01
0,0,1,-55,-426,3898,0.00,-0.01,0.02,-0.55,-4.26,38.98,-6.24,0.78,0.08,4.12,-0.51,-0.07
0,0,0,-55,-429,3905,0.00,-0.01,0.02,-0.55,-4.29,39.05,-6.26,0.79,0.08,4.13,-0.52,0.01
0,0,0,-56,-426,3909,0.00,-0.01,0.02,-0.56,-4.26,39.09,-6.24,0.80,0.08,4.12,-0.53,0.01
0,0,0,-54,-423,3908,0.00,-0.01,0.01,-0.54,-4.23,39.08,-6.22,0.80,0.08,4.11,-0.53,0.01
0,-1,0,-53,-431,3909,0.00,-0.01,0.01,-0.53,-4.31,39.09,-6.24,0.79,0.08,4.12,-0.50,0.01
0,0,1,-58,-434,3897,0.00,-0.01,0.02,-0.58,-4.34,38.97,-6.26,0.80,0.08,4.13,-0.53,-0.07
-1,0,1,-55,-431,3910,-0.00,-0.01,0.02,-0.55,-4.31,39.10,-6.28,0.80,0.08,4.16,-0.53,-0.07
0,-1,1,-59,-426,3915,-0.00,-0.01,0.03,-0.59,-4.26,39.15,-6.26,0.81,0.08,4.13,-0.51,-0.06
0,0,1,-52,-435,3908,-0.00,-0.01,0.03,-0.52,-4.35,39.08,-6.28,0.80,0.08,4.14,-0.53,-0.06
-1,0,1,-51,-436,3904,-0.01,-0.01,0.03,-0.51,-4.36,39.04,-6.29,0.79,0.08,4.18,-0.52,-0.06
0,-1,2,-60,-432,3908,-0.01,-0.02,0.04,-0.60,-4.32,39.08,-6.30,0.81,0.08,4.16,-0.51,-0.13
-1,0,1,-61,-435,3911,-0.01,-0.01,0.04,-0.61,-4.35,39.11,-6.31,0.83,0.08,4.19,-0.54,-0.05
0,0,1,-58,-437,3908,-0.01,-0.01,0.05,-0.58,-4.37,39.08,-6.32,0.83,0.08,4.18,-0.54,-0.04
0,0,0,-48,-438,3894,-0.01,-0.01,0.04,-0.48,-4.38,38.94,-6.34,0.82,0.08,4.18,-0.54,0.04
-1,0,0,-50,-438,3898,-0.02,-0.01,0.04,-0.50,-4.38,38.98,-6.35,0.80,0.08,4.21,-0.53,0.03
-1,-1,0,-53,-432,3905,-0.02,-0.02,0.03,-0.53,-4.32,39.05,-6.33,0.79,0.08,4.21,-0.50,0.03
0,0,0,-62,-426,3907,-0.02,-0.01,0.03,-0.62,-4.26,39.07,-6.32,0.80,0.08,4.18,-0.53,0.02
0,1,0,-63,-427,3909,-0.02,-0.01,0.03,-0.63,-4.27,39.09,-6.31,0.82,0.08,4.17,-0.56,0.02
0,0,0,-56,-422,3900,-0.01,-0.01,0.02,-0.56,-4.22,39.00,-6.29,0.82,0.08,4.16,-0.54,0.02
-1,0,0,-60,-417,3904,-0.02,-0.01,0.02,-0.60,-4.17,39.04,-6.27,0.82,0.07,4.17,-0.54,0.02
0,0,0,-49,-425,3896,-0.02,-0.00,0.02,-0.49,-4.25,38.96,-6.27,0.81,0.07,4.14,-0.53,0.01
0,1,0,-50,-429,3912,-0.02,0.00,0.02,-0.50,-4.29,39.12,-6.26,0.79,0.07,4.14,-0.54,0.01
0,0,0,-46,-430,3896,-0.01,0.00,0.02,-0.46,-4.30,38.96,-6.27,0.77,0.07,4.14,-0.51,0.01
0,0,1,-60,-432,3897,-0.01,0.00,0.02,-0.60,-4.32,38.97,-6.28,0.79,0.07,4.15,-0.52,-0.07
-1,0,1,-65,-414,3902,-0.02,0.00,0.02,-0.65,-4.14,39.02,-6.26,0.80,0.07,4.16,-0.53,-0.07
-1,0,1,-66,-426,3901,-0.02,0.00,0.03,-0.66,-4.26,39.01,-6.26,0.82,0.07,4.16,-0.54,-0.06
-1,0,0,-59,-427,3905,-0.03,0.00,0.03,-0.59,-4.27,39.05,-6.25,0.83,0.07,4.15,-0.55,0.02
0,0,0,-46,-434,3901,-0.02,0.00,0.02,-0.46,-4.34,39.01,-6.26,0.82,0.07,4.14,-0.54,0.02
1,-1,0,-54,-425,3907,-0.01,-0.01,0.02,-0.54,-4.25,39.07,-6.25,0.81,0.07,4.11,-0.51,0.01
1,0,1,-55,-431,3901,-0.01,-0.00,0.02,-0.55,-4.31,39.01,-6.26,0.81,0.07,4.12,-0.53,-0.07
0,-1,0,-51,-437,3908,-0.01,-0.01,0.02,-0.51,-4.37,39.08,-6.28,0.80,0.07,4.15,-0.50,0.02
0,-1,1,-54,-427,3898,-0.01,-0.02,0.03,-0.54,-4.27,38.98,-6.26,0.79,0.07,4.14,-0.50,-0.06
0,0,0,-53,-425,3905,-0.01,-0.01,0.02,-0.53,-4.25,39.05,-6.25,0.79,0.07,4.12,-0.51,0.02
0,0,0,-48,-427,3909,-0.00,-0.01,0.02,-0.48,-4.27,39.09,-6.24,0.77,0.07,4.12,-0.50,0.02
0,0,0,-46,-428,3913,-0.00,-0.01,0.02,-0.46,-4.28,39.13,-6.24,0.75,0.07,4.12,-0.49,0.01
1,0,1,-59,-427,3906,0.00,-0.01,0.02,-0.59,-4.27,39.06,-6.24,0.77,0.07,4.10,-0.50,-0.07
0,1,0,-57,-434,3900,0.00,-0.00,0.02,-0.57,-4.34,39.00,-6.26,0.78,0.07,4.13,-0.53,0.02
0,0,0,-60,-430,3896,0.00,-0.00,0.02,-0.60,-4.30,38.96,-6.27,0.79,0.07,4.13,-0.52,0.01
0,0,0,-58,-429,3891,0.00,-0.00,0.02,-0.58,-4.29,38.91,-6.27,0.81,0.07,4.14,-0.53,0.01
0,0,0,-60,-424,3894,0.00,-0.00,0.02,-0.60,-4.24,38.94,-6.26,0.82,0.07,4.13,-0.54,0.01
0,0,0,-62,-425,3906,0.00,-0.00,0.01,-0.62,-4.25,39.06,-6.25,0.84,0.07,4.13,-0.55,0.01
0,0,0,-53,-431,3905,0.00,-0.00,0.01,-0.53,-4.31,39.05,-6.26,0.82,0.07,4.13,-0.54,0.01
1,0,0,-51,-432,3907,0.01,-0.00,0.01,-0.51,-4.32,39.07,-6.27,0.81,0.07,4.12,-0.53,0.01
0,0,0,-53,-423,3899,0.01,-0.00,0.01,-0.53,-4.23,38.99,-6.25,0.80,0.07,4.13,-0.53,0.00
0,0,0,-54,-427,3902,0.01,-0.00,0.01,-0.54,-4.27,39.02,-6.24,0.79,0.07,4.12,-0.52,0.00
0,0,0,-50,-428,3905,0.01,-0.00,0.01,-0.50,-4.28,39.05,-6.25,0.77,0.07,4.12,-0.51,0.00
0,0,0,-54,-425,3904,0.00,-0.00,0.01,-0.54,-4.25,39.04,-6.23,0.78,0.07,4.11,-0.51,0.00
0,0,1,-54,-420,3899,0.00,-0.00,0.01,-0.54,-4.20,38.99,-6.21,0.78,0.07,4.10,-0.51,-0.08
0,0,0,-53,-426,3904,0.00,-0.00,0.01,-0.53,-4.26,39.04,-6.23,0.77,0.07,4.11,-0.51,0.01
0,0,0,-52,-423,3902,0.00,-0.00,0.01,-0.52,-4.23,39.02,-6.21,0.77,0.07,4.10,-0.51,0.00
0,0,0,-52,-427,3903,0.00,-0.00,0.01,-0.52,-4.27,39.03,-6.23,0.76,0.07,4.11,-0.50,0.00
1,0,1,-56,-430,3897,0.01,-0.00,0.01,-0.56,-4.30,38.97,-6.24,0.77,0.07,4.10,-0.51,-0.08
0,0,0,-59,-430,3890,0.01,-0.00,0.01,-0.59,-4.30,38.90,-6.25,0.79,0.07,4.13,-0.52,0.01
0,0,0,-52,-428,3890,0.01,-0.00,0.01,-0.52,-4.28,38.90,-6.27,0.78,0.07,4.13,-0.51,0.01
0,0,0,-54,-430,3902,0.01,-0.00,0.01,-0.54,-4.30,39.02,-6.28,0.78,0.07,4.14,-0.52,0.00
-1,0,0,-56,-433,3910,-0.00,-0.00,0.01,-0.56,-4.33,39.10,-6.30,0.80,0.07,4.18,-0.53,0.00
0,0,1,-61,-432,3907,-0.00,-0.00,0.01,-0.61,-4.32,39.07,-6.30,0.81,0.07,4.16,-0.54,-0.08
0,0,1,-58,-426,3905,-0.00,-0.00,0.02,-0.58,-4.26,39.05,-6.28,0.82,0.07,4.15,-0.54,-0.07
0,-1,1,-56,-418,3906,-0.00,-0.01,0.02,-0.56,-4.18,39.06,-6.26,0.82,0.07,4.13,-0.52,-0.07
0,-1,0,-54,-428,3908,-0.00,-0.01,0.02,-0.54,-4.28,39.08,-6.26,0.80,0.07,4.13,-0.51,0.02
-1,0,0,-58,-434,3911,-0.01,-0.01,0.02,-0.58,-4.34,39.11,-6.27,0.81,0.07,4.16,-0.53,0.01
0,0,0,-55,-431,3916,-0.01,-0.01,0.02,-0.55,-4.31,39.16,-6.28,0.80,0.07,4.15,-0.52,0.01
0,0,1,-55,-430,3904,-0.01,-0.01,0.02,-0.55,-4.30,39.04,-6.29,0.81,0.07,4.15,-0.53,-0.07
0,-1,0,-55,-431,3899,-0.00,-0.01,0.02,-0.55,-4.31,38.99,-6.31,0.80,0.07,4.16,-0.51,0.01
0,0,1,-58,-427,3906,-0.00,-0.01,0.02,-0.58,-4.27,39.06,-6.29,0.81,0.07,4.15,-0.53,-0.07
0,0,0,-51,-426,3911,-0.00,-0.01,0.02,-0.51,-4.26,39.11,-6.28,0.80,0.07,4.14,-0.53,0.02
0,0,0,-53,-430,3910,-0.00,-0.01,0.02,-0.53,-4.30,39.10,-6.28,0.78,0.07,4.14,-0.51,0.01
-1,0,0,-54,-431,3910,-0.01,-0.01,0.02,-0.54,-4.31,39.10,-6.29,0.79,0.07,4.18,-0.52,0.01
0,0,0,-56,-429,3895,-0.01,-0.01,0.02,-0.56,-4.29,38.95,-6.29,0.81,0.07,4.15,-0.53,0.01
1,0,0,-54,-433,3898,-0.00,-0.01,0.01,-0.54,-4.33,38.98,-6.31,0.80,0.07,4.14,-0.53,0.01
0,0,0,-51,-429,3895,-0.00,-0.01,0.01,-0.51,-4.29,38.95,-6.30,0.78,0.07,4.16,-0.51,0.01
0,0,1,-45,-428,3899,-0.00,-0.01,0.02,-0.45,-4.28,38.99,-6.29,0.76,0.07,4.15,-0.50,-0.07
0,-1,1,-44,-426,3903,-0.00,-0.01,0.02,-0.44,-4.26,39.03,-6.29,0.75,0.07,4.15,-0.47,-0.07
-1,0,0,-58,-425,3900,-0.01,-0.01,0.02,-0.58,-4.25,39.00,-6.28,0.76,0.07,4.16,-0.50,0.01
-1,-1,0,-60,-423,3896,-0.01,-0.02,0.02,-0.60,-4.23,38.96,-6.27,0.78,0.07,4.16,-0.49,0.01
-1,0,0,-55,-427,3911,-0.02,-0.01,0.02,-0.55,-4.27,39.11,-6.25,0.79,0.07,4.15,-0.52,0.01
0,0,0,-55,-431,3902,-0.02,-0.01,0.01,-0.55,-4.31,39.02,-6.27,0.79,0.07,4.14,-0.52,0.01
1,0,0,-56,-424,3909,-0.01,-0.01,0.01,-0.56,-4.24,39.09,-6.25,0.80,0.07,4.11,-0.52,0.01
1,-1,1,-59,-427,3903,-0.00,-0.02,0.02,-0.59,-4.27,39.03,-6.25,0.82,0.07,4.10,-0.51,-0.07
1,1,0,-55,-427,3897,0.01,-0.01,0.02,-0.55,-4.27,38.97,-6.25,0.80,0.07,4.11,-0.55,0.01
1,0,0,-52,-429,3895,0.01,-0.01,0.01,-0.52,-4.29,38.95,-6.27,0.78,0.07,4.11,-0.52,0.01
0,0,0,-60,-424,3904,0.01,-0.01,0.01,-0.60,-4.24,39.04,-6.25,0.80,0.07,4.13,-0.53,0.01
-1,0,0,-64,-435,3893,0.00,-0.01,0.01,-0.64,-4.35,38.93,-6.27,0.81,0.07,4.16,-0.53,0.01
0,0,-1,-59,-428,3899,0.00,-0.01,0.00,-0.59,-4.28,38.99,-6.27,0.83,0.07,4.13,-0.55,0.08
0,0,-1,-52,-430,3895,0.00,-0.01,-0.00,-0.52,-4.30,38.95,-6.27,0.81,0.07,4.14,-0.54,0.08
0,0,1,-48,-431,3898,0.00,-0.00,0.00,-0.48,-4.31,38.98,-6.28,0.80,0.07,4.14,-0.53,-0.09
0,0,0,-50,-429,3906,0.00,-0.00,0.00,-0.50,-4.29,39.06,-6.28,0.78,0.07,4.14,-0.51,-0.00
1,0,1,-60,-425,3904,0.01,-0.00,0.01,-0.60,-4.25,39.04,-6.27,0.79,0.07,4.11,-0.52,-0.08
1,0,0,-59,-431,3905,0.01,-0.00,0.01,-0.59,-4.31,39.05,-6.27,0.81,0.07,4.12,-0.53,0.00
1,-1,-1,-57,-427,3909,0.02,-0.01,0.00,-0.57,-4.27,39.09,-6.26,0.82,0.07,4.10,-0.52,0.08
0,0,0,-57,-424,3915,0.02,-0.01,0.00,-0.57,-4.24,39.15,-6.24,0.82,0.07,4.11,-0.54,-0.00
0,-1,0,-55,-431,3914,0.01,-0.01,0.00,-0.55,-4.31,39.14,-6.26,0.81,0.07,4.12,-0.51,-0.00
0,-1,0,-55,-429,3899,0.01,-0.02,0.00,-0.55,-4.29,38.99,-6.27,0.81,0.07,4.14,-0.51,-0.01
0,0,0,-58,-431,3890,0.01,-0.02,0.00,-0.58,-4.31,38.90,-6.29,0.82,0.07,4.15,-0.54,-0.01
0,0,0,-57,-435,3893,0.01,-0.01,0.00,-0.57,-4.35,38.93,-6.30,0.82,0.07,4.16,-0.54,-0.01
0,1,1,-62,-426,3913,0.01,-0.01,0.01,-0.62,-4.26,39.13,-6.29,0.83,0.07,4.15,-0.57,-0.08
0,0,1,-65,-426,3913,0.01,-0.01,0.01,-0.65,-4.26,39.13,-6.28,0.85,0.07,4.14,-0.56,-0.08
0,0,2,-60,-429,3906,0.01,-0.01,0.02,-0.60,-4.29,39.06,-6.27,0.86,0.07,4.14,-0.57,-0.15
0,0,1,-55,-432,3899,0.01,-0.01,0.03,-0.55,-4.32,38.99,-6.28,0.85,0.07,4.15,-0.56,-0.06
0,0,1,-57,-438,3897,0.01,-0.00,0.03,-0.57,-4.38,38.97,-6.30,0.85,0.07,4.16,-0.56,-0.06
-1,-1,-1,-55,-440,3897,-0.00,-0.01,0.02,-0.55,-4.40,38.97,-6.32,0.84,0.07,4.19,-0.53,0.10
0,1,1,-54,-426,3908,-0.00,-0.00,0.03,-0.54,-4.26,39.08,-6.30,0.83,0.07,4.16,-0.57,-0.06
0,0,0,-60,-424,3900,-0.00,-0.00,0.02,-0.60,-4.24,39.00,-6.29,0.84,0.07,4.15,-0.55,0.02
0,0,-1,-56,-436,3902,-0.00,-0.00,0.01,-0.56,-4.36,39.02,-6.30,0.84,0.07,4.16,-0.55,0.09
0,0,0,-55,-435,3914,-0.00,-0.00,0.01,-0.55,-4.35,39.14,-6.32,0.82,0.07,4.17,-0.54,0.01
0,0,0,-56,-428,3905,-0.00,-0.00,0.01,-0.56,-4.28,39.05,-6.30,0.82,0.07,4.16,-0.54,0.01
0,1,0,-54,-429,3898,-0.00,0.00,0.01,-0.54,-4.29,38.98,-6.29,0.81,0.07,4.15,-0.55,0.00
0,0,0,-57,-428,3910,-0.00,0.00,0.01,-0.57,-4.28,39.10,-6.27,0.81,0.07,4.14,-0.54,0.00
0,0,0,-52,-424,3907,-0.00,0.00,0.01,-0.52,-4.24,39.07,-6.26,0.80,0.07,4.13,-0.53,0.00
0,0,0,-56,-428,3895,-0.00,0.00,0.01,-0.56,-4.28,38.95,-6.27,0.82,0.07,4.14,-0.54,0.00
0,0,0,-54,-429,3914,-0.00,0.00,0.01,-0.54,-4.29,39.14,-6.26,0.80,0.07,4.13,-0.53,0.00
-1,-1,1,-53,-422,3905,-0.01,-0.00,0.01,-0.53,-4.22,39.05,-6.25,0.80,0.07,4.14,-0.50,-0.08
0,-1,0,-53,-417,3899,-0.01,-0.01,0.01,-0.53,-4.17,38.99,-6.23,0.79,0.07,4.11,-0.50,0.01
0,-1,1,-51,-420,3903,-0.01,-0.01,0.02,-0.51,-4.20,39.03,-6.21,0.78,0.07,4.10,-0.49,-0.07
1,-1,0,-54,-424,3896,0.00,-0.02,0.01,-0.54,-4.24,38.96,-6.21,0.80,0.07,4.08,-0.50,0.01
1,0,0,-57,-435,3892,0.01,-0.02,0.01,-0.57,-4.35,38.92,-6.23,0.81,0.07,4.09,-0.53,0.01
0,-1,0,-59,-430,3889,0.01,-0.02,0.01,-0.59,-4.30,38.89,-6.24,0.82,0.07,4.12,-0.51,0.01
-1,-1,0,-55,-421,3891,-0.00,-0.03,0.01,-0.55,-4.21,38.91,-6.22,0.81,0.07,4.13,-0.51,0.01
0,-1,0,-55,-423,3898,-0.00,-0.03,0.01,-0.55,-4.23,38.98,-6.21,0.81,0.07,4.10,-0.50,0.00
0,0,0,-46,-436,3900,-0.00,-0.03,0.01,-0.46,-4.36,39.00,-6.22,0.80,0.07,4.11,-0.52,0.00
-1,0,1,-54,-431,3899,-0.01,-0.02,0.01,-0.54,-4.31,38.99,-6.24,0.79,0.07,4.14,-0.52,-0.08
0,0,1,-58,-430,3910,-0.01,-0.02,0.02,-0.58,-4.30,39.10,-6.25,0.81,0.07,4.13,-0.53,-0.07
0,-1,1,-60,-437,3906,-0.00,-0.03,0.02,-0.60,-4.37,39.06,-6.27,0.82,0.07,4.14,-0.51,-0.07
-1,0,1,-60,-436,3909,-0.01,-0.02,0.03,-0.60,-4.36,39.09,-6.28,0.83,0.07,4.17,-0.54,-0.06
-1,0,0,-53,-428,3917,-0.02,-0.02,0.02,-0.53,-4.28,39.17,-6.27,0.81,0.07,4.16,-0.53,0.02
0,-1,0,-60,-431,3912,-0.01,-0.02,0.02,-0.60,-4.31,39.12,-6.28,0.83,0.07,4.15,-0.52,0.02
0,0,0,-63,-422,3907,-0.01,-0.02,0.02,-0.63,-4.22,39.07,-6.26,0.84,0.07,4.14,-0.55,0.01
0,0,0,-65,-418,3914,-0.01,-0.02,0.02,-0.65,-4.18,39.14,-6.25,0.85,0.07,4.13,-0.56,0.01
-1,-1,1,-57,-431,3913,-0.02,-0.02,0.02,-0.57,-4.31,39.13,-6.26,0.84,0.07,4.16,-0.53,-0.07
-1,-1,0,-58,-422,3905,-0.02,-0.03,0.02,-0.58,-4.22,39.05,-6.24,0.84,0.07,4.15,-0.53,0.01
0,0,0,-61,-426,3906,-0.02,-0.02,0.02,-0.61,-4.26,39.06,-6.24,0.86,0.07,4.12,-0.56,0.01
1,1,0,-56,-431,3910,-0.01,-0.02,0.02,-0.56,-4.31,39.10,-6.25,0.85,0.07,4.11,-0.58,0.01
0,0,0,-56,-427,3906,-0.01,-0.01,0.01,-0.56,-4.27,39.06,-6.24,0.83,0.07,4.12,-0.54,0.01
-1,-1,0,-63,-422,3900,-0.01,-0.02,0.01,-0.63,-4.22,39.00,-6.23,0.85,0.07,4.14,-0.53,0.01
-1,-1,0,-59,-424,3908,-0.02,-0.02,0.01,-0.59,-4.24,39.08,-6.22,0.85,0.07,4.13,-0.54,0.01
-1,0,0,-58,-426,3914,-0.02,-0.02,0.01,-0.58,-4.26,39.14,-6.21,0.84,0.07,4.12,-0.55,0.01
-1,-1,0,-56,-430,3907,-0.03,-0.03,0.01,-0.56,-4.30,39.07,-6.22,0.83,0.07,4.14,-0.52,0.00
0,0,-1,-57,-430,3911,-0.02,-0.02,0.00,-0.57,-4.30,39.11,-6.24,0.83,0.07,4.13,-0.54,0.08
1,0,0,-51,-425,3903,-0.02,-0.02,0.00,-0.51,-4.25,39.03,-6.24,0.81,0.07,4.10,-0.53,-0.00
0,-1,1,-64,-430,3910,-0.01,-0.02,0.01,-0.64,-4.30,39.10,-6.24,0.83,0.07,4.12,-0.52,-0.08
-1,-1,0,-59,-436,3903,-0.02,-0.03,0.01,-0.59,-4.36,39.03,-6.26,0.83,0.07,4.16,-0.52,0.00
0,-1,-1,-59,-425,3908,-0.02,-0.03,0.00,-0.59,-4.25,39.08,-6.24,0.84,0.07,4.13,-0.53,0.08
0,-1,0,-67,-424,3906,-0.02,-0.03,0.00,-0.67,-4.24,39.06,-6.24,0.86,0.07,4.12,-0.54,-0.01
1,1,0,-57,-442,3909,-0.01,-0.02,0.00,-0.57,-4.42,39.09,-6.26,0.86,0.07,4.11,-0.58,-0.01
1,1,0,-51,-438,3911,-0.00,-0.02,0.00,-0.51,-4.38,39.11,-6.27,0.84,0.07,4.12,-0.57,-0.01
0,0,1,-53,-427,3906,-0.00,-0.01,0.01,-0.53,-4.27,39.06,-6.26,0.83,0.07,4.13,-0.54,-0.08
0,-1,0,-54,-421,3906,-0.00,-0.02,0.01,-0.54,-4.21,39.06,-6.25,0.82,0.07,4.12,-0.52,0.00
0,-1,1,-61,-426,3904,-0.00,-0.02,0.01,-0.61,-4.26,39.04,-6.24,0.84,0.07,4.12,-0.53,-0.08
0,-1,1,-53,-432,3899,-0.00,-0.03,0.02,-0.53,-4.32,38.99,-6.26,0.83,0.07,4.13,-0.52,-0.07
0,-1,0,-62,-434,3900,-0.00,-0.03,0.01,-0.62,-4.34,39.00,-6.27,0.84,0.07,4.14,-0.53,0.01
1,0,0,-63,-438,3905,0.01,-0.03,0.01,-0.63,-4.38,39.05,-6.28,0.85,0.07,4.13,-0.55,0.01
0,-1,0,-60,-429,3913,0.01,-0.03,0.01,-0.60,-4.29,39.13,-6.27,0.86,0.07,4.14,-0.54,0.01
0,-1,0,-55,-428,3905,0.00,-0.03,0.01,-0.55,-4.28,39.05,-6.27,0.84,0.07,4.13,-0.53,0.01
0,-1,0,-55,-431,3901,0.00,-0.04,0.01,-0.55,-4.31,39.01,-6.28,0.83,0.07,4.14,-0.52,0.00
1,-1,0,-60,-425,3914,0.01,-0.04,0.01,-0.60,-4.25,39.14,-6.26,0.84,0.07,4.11,-0.52,0.00
0,0,1,-56,-436,3916,0.01,-0.04,0.01,-0.56,-4.36,39.16,-6.28,0.83,0.07,4.14,-0.54,-0.08
0,0,0,-57,-438,3911,0.01,-0.03,0.01,-0.57,-4.38,39.11,-6.30,0.83,0.07,4.15,-0.54,0.01
-1,0,0,-58,-427,3897,0.00,-0.03,0.01,-0.58,-4.27,38.97,-6.28,0.84,0.07,4.17,-0.55,0.01
-1,0,0,-57,-423,3893,-0.01,-0.03,0.01,-0.57,-4.23,38.93,-6.26,0.84,0.07,4.16,-0.55,0.00
0,0,0,-57,-433,3888,-0.00,-0.02,0.01,-0.57,-4.33,38.88,-6.28,0.84,0.07,4.15,-0.55,0.00
0,0,0,-60,-429,3895,-0.00,-0.02,0.01,-0.60,-4.29,38.95,-6.28,0.85,0.07,4.15,-0.56,0.00
0,0,1,-67,-424,3907,-0.00,-0.02,0.01,-0.67,-4.24,39.07,-6.27,0.87,0.07,4.14,-0.57,-0.08
0,0,1,-64,-424,3910,-0.00,-0.02,0.02,-0.64,-4.24,39.10,-6.26,0.88,0.07,4.13,-0.58,-0.07
-1,1,0,-54,-422,3912,-0.01,-0.01,0.02,-0.54,-4.22,39.12,-6.24,0.87,0.07,4.14,-0.59,0.01
0,1,1,-58,-427,3908,-0.01,-0.00,0.02,-0.58,-4.27,39.08,-6.24,0.85,0.07,4.12,-0.58,-0.07
1,0,1,-60,-433,3898,-0.00,-0.00,0.02,-0.60,-4.33,38.98,-6.26,0.86,0.07,4.11,-0.56,-0.06
0,0,1,-62,-429,3903,-0.00,-0.00,0.03,-0.62,-4.29,39.03,-6.26,0.87,0.07,4.13,-0.58,-0.06
0,0,1,-52,-424,3909,-0.00,-0.00,0.03,-0.52,-4.24,39.09,-6.25,0.86,0.07,4.13,-0.57,-0.06
1,-1,1,-50,-424,3897,0.01,-0.01,0.03,-0.50,-4.24,38.97,-6.25,0.84,0.07,4.10,-0.53,-0.05
0,0,1,-53,-427,3914,0.00,-0.01,0.04,-0.53,-4.27,39.14,-6.24,0.82,0.06,4.12,-0.54,-0.05
0,0,0,-54,-423,3909,0.00,-0.01,0.03,-0.54,-4.23,39.09,-6.22,0.81,0.06,4.11,-0.54,0.03
1,-1,0,-61,-430,3909,0.01,-0.01,0.03,-0.61,-4.30,39.09,-6.24,0.83,0.06,4.09,-0.52,0.03
0,0,1,-55,-427,3903,0.01,-0.01,0.03,-0.55,-4.27,39.03,-6.24,0.81,0.06,4.12,-0.53,-0.06
0,0,1,-57,-427,3909,0.01,-0.01,0.04,-0.57,-4.27,39.09,-6.23,0.83,0.06,4.11,-0.54,-0.05
0,0,1,-57,-430,3912,0.01,-0.01,0.04,-0.57,-4.30,39.12,-6.25,0.83,0.06,4.12,-0.54,-0.05
0,0,1,-50,-427,3901,0.01,-0.01,0.04,-0.50,-4.27,39.01,-6.25,0.81,0.06,4.12,-0.53,-0.05
-1,-1,0,-60,-426,3899,-0.00,-0.01,0.04,-0.60,-4.26,38.99,-6.25,0.83,0.06,4.14,-0.52,0.03
0,-1,0,-62,-425,3908,-0.00,-0.02,0.03,-0.62,-4.25,39.08,-6.24,0.84,0.06,4.12,-0.53,0.03
0,0,0,-53,-427,3908,-0.00,-0.02,0.03,-0.53,-4.27,39.08,-6.24,0.83,0.06,4.12,-0.54,0.03
0,0,0,-55,-430,3903,-0.00,-0.01,0.03,-0.55,-4.30,39.03,-6.25,0.82,0.06,4.13,-0.54,0.02
0,0,0,-60,-429,3913,-0.00,-0.01,0.02,-0.60,-4.29,39.13,-6.26,0.84,0.06,4.13,-0.55,0.02
0,0,0,-57,-432,3899,-0.00,-0.01,0.02,-0.57,-4.32,38.99,-6.27,0.84,0.06,4.14,-0.55,0.02
0,0,0,-61,-434,3902,-0.00,-0.01,0.02,-0.61,-4.34,39.02,-6.29,0.85,0.06,4.15,-0.56,0.01
1,0,1,-57,-434,3905,0.01,-0.01,0.02,-0.57,-4.34,39.05,-6.31,0.84,0.06,4.14,-0.55,-0.07
0,0,1,-56,-427,3913,0.01,-0.01,0.03,-0.56,-4.27,39.13,-6.29,0.84,0.06,4.15,-0.55,-0.06
0,-1,0,-56,-419,3910,0.00,-0.01,0.02,-0.56,-4.19,39.10,-6.27,0.83,0.06,4.14,-0.53,0.02
0,-1,0,-52,-421,3901,0.00,-0.02,0.02,-0.52,-4.21,39.01,-6.25,0.82,0.06,4.13,-0.52,0.02
1,0,0,-54,-434,3901,0.01,-0.02,0.02,-0.54,-4.34,39.01,-6.27,0.82,0.06,4.12,-0.53,0.02
0,-1,0,-57,-434,3907,0.01,-0.02,0.02,-0.57,-4.34,39.07,-6.29,0.82,0.06,4.15,-0.52,0.01
0,-1,0,-51,-434,3900,0.01,-0.03,0.02,-0.51,-4.34,39.00,-6.30,0.81,0.06,4.16,-0.50,0.01
0,-1,1,-60,-430,3910,0.01,-0.03,0.02,-0.60,-4.30,39.10,-6.29,0.82,0.06,4.15,-0.52,-0.07
1,0,0,-66,-430,3906,0.01,-0.03,0.02,-0.66,-4.30,39.06,-6.29,0.84,0.06,4.13,-0.55,0.01
0,0,0,-60,-423,3912,0.01,-0.02,0.02,-0.60,-4.23,39.12,-6.28,0.85,0.06,4.14,-0.55,0.01
0,-1,0,-58,-431,3911,0.01,-0.03,0.02,-0.58,-4.31,39.11,-6.29,0.84,0.06,4.15,-0.53,0.01
0,0,1,-53,-427,3901,0.01,-0.02,0.02,-0.53,-4.27,39.01,-6.28,0.83,0.06,4.14,-0.54,-0.07
0,0,1,-53,-424,3899,0.01,-0.02,0.02,-0.53,-4.24,38.99,-6.27,0.82,0.06,4.13,-0.53,-0.07
0,-1,1,-52,-434,3887,0.01,-0.03,0.03,-0.52,-4.34,38.87,-6.28,0.81,0.06,4.15,-0.51,-0.06
0,-1,0,-62,-429,3901,0.01,-0.03,0.02,-0.62,-4.29,39.01,-6.28,0.83,0.06,4.14,-0.52,0.02
