gyroADC_X,gyroADC_Y,gyroADC_Z,accADC_X,accADC_Y,accADC_Z,GyroX,GyroY,GyroZ,AccX,AccY,AccZ,roll_IMU,pitch_IMU,yaw_IMU,roll_PID,pitch_PID,yaw_PID
-44,0,29,171,-371,3803,0.56,0.51,-0.66,1.71,-3.71,38.03,-4.35,-2.07,-6.27,3.61,1.23,-2.59
-40,-4,73,123,-347,3761,0.26,0.43,-0.15,1.23,-3.47,37.61,-4.36,-2.07,-6.27,3.62,1.33,-5.78
15,29,86,100,-331,3776,0.33,0.56,0.39,1.00,-3.31,37.76,-4.37,-2.05,-6.27,2.49,0.61,-6.31
37,43,85,104,-330,3780,0.52,0.77,0.87,1.04,-3.30,37.80,-4.39,-2.04,-6.27,2.00,0.26,-5.72
94,89,74,124,-308,3854,1.04,1.24,1.23,1.24,-3.08,38.54,-4.40,-2.02,-6.28,0.71,-0.81,-4.40
101,97,70,114,-299,3870,1.55,1.70,1.54,1.14,-2.99,38.70,-4.39,-1.99,-6.28,0.42,-1.12,-3.74
102,96,65,120,-268,3880,2.02,2.12,1.78,1.20,-2.68,38.80,-4.37,-1.98,-6.29,0.26,-1.23,-3.06
61,57,70,132,-208,3885,2.19,2.25,2.03,1.32,-2.08,38.85,-4.34,-1.97,-6.30,1.03,-0.48,-3.21
45,45,71,129,-204,3891,2.25,2.30,2.26,1.29,-2.04,38.91,-4.31,-1.96,-6.30,1.32,-0.25,-3.06
-5,25,64,118,-201,3882,1.99,2.23,2.42,1.18,-2.01,38.82,-4.29,-1.94,-6.31,2.39,0.17,-2.29
-16,29,60,109,-202,3885,1.69,2.18,2.55,1.09,-2.02,38.85,-4.26,-1.93,-6.32,2.68,0.09,-1.82
-56,53,49,97,-189,3898,1.18,2.29,2.59,0.97,-1.89,38.98,-4.24,-1.91,-6.33,3.62,-0.44,-0.84
-64,60,49,107,-172,3900,0.68,2.42,2.63,1.07,-1.72,39.00,-4.22,-1.90,-6.34,3.90,-0.63,-0.79
-72,65,47,97,-173,3931,0.17,2.58,2.66,0.97,-1.73,39.31,-4.20,-1.88,-6.35,4.19,-0.78,-0.60
-65,62,43,84,-180,3947,-0.25,2.70,2.65,0.84,-1.80,39.47,-4.19,-1.86,-6.36,4.15,-0.77,-0.26
-17,48,23,89,-185,4002,-0.32,2.72,2.53,0.89,-1.85,40.02,-4.17,-1.85,-6.37,3.19,-0.50,1.30
12,33,14,86,-185,3991,-0.22,2.65,2.36,0.86,-1.85,39.91,-4.16,-1.83,-6.37,2.56,-0.19,1.89
59,1,5,87,-168,3978,0.16,2.39,2.15,0.87,-1.68,39.78,-4.14,-1.81,-6.38,1.49,0.52,2.43
65,-6,4,88,-172,3960,0.54,2.12,1.96,0.88,-1.72,39.60,-4.12,-1.80,-6.39,1.25,0.73,2.31
69,-10,-2,84,-193,3945,0.91,1.84,1.75,0.84,-1.93,39.45,-4.10,-1.78,-6.39,1.05,0.88,2.60
62,-8,-6,86,-208,3939,1.20,1.61,1.54,0.86,-2.08,39.39,-4.08,-1.77,-6.40,1.10,0.89,2.72
33,-5,-18,82,-241,3925,1.28,1.42,1.28,0.82,-2.41,39.25,-4.06,-1.75,-6.40,1.66,0.87,3.46
22,-5,-18,87,-246,3928,1.29,1.25,1.04,0.87,-2.46,39.28,-4.04,-1.73,-6.41,1.87,0.90,3.20
-16,-7,-7,107,-277,3950,1.06,1.08,0.89,1.07,-2.77,39.50,-4.03,-1.71,-6.41,2.70,0.98,2.12
-28,-10,-2,108,-279,3946,0.78,0.91,0.79,1.08,-2.79,39.46,-4.03,-1.69,-6.41,3.02,1.07,1.59
-66,-25,28,106,-269,3929,0.30,0.67,0.88,1.06,-2.69,39.29,-4.02,-1.67,-6.42,3.91,1.43,-0.86
-83,-36,47,90,-256,3902,-0.24,0.38,1.08,0.90,-2.56,39.02,-4.01,-1.65,-6.42,4.40,1.72,-2.26
-104,-45,70,90,-243,3883,-0.85,0.07,1.40,0.90,-2.43,38.83,-4.00,-1.64,-6.43,4.98,1.98,-3.87
-105,-40,69,88,-237,3886,-1.40,-0.18,1.68,0.88,-2.37,38.86,-3.99,-1.63,-6.43,5.15,1.94,-3.49
-93,-12,48,95,-250,3885,-1.83,-0.24,1.81,0.95,-2.50,38.85,-3.98,-1.62,-6.44,5.02,1.38,-1.57
-87,-7,37,96,-246,3873,-2.18,-0.26,1.85,0.96,-2.46,38.73,-3.98,-1.61,-6.45,4.99,1.28,-0.59
-55,-12,3,105,-226,3860,-2.29,-0.30,1.68,1.05,-2.26,38.60,-3.97,-1.61,-6.45,4.36,1.39,2.11
-47,-15,-4,116,-212,3859,-2.35,-0.37,1.49,1.16,-2.12,38.59,-3.96,-1.61,-6.46,4.21,1.47,2.50
-11,-14,-11,132,-194,3884,-2.18,-0.41,1.28,1.32,-1.94,38.84,-3.95,-1.62,-6.46,3.43,1.47,2.86
0,-11,-15,120,-195,3890,-1.97,-0.44,1.06,1.20,-1.95,38.90,-3.94,-1.62,-6.47,3.14,1.42,2.97
52,9,-38,115,-233,3932,-1.45,-0.34,0.72,1.15,-2.33,39.32,-3.93,-1.63,-6.47,1.93,0.98,4.56
75,15,-57,113,-255,3950,-0.85,-0.22,0.30,1.13,-2.55,39.50,-3.91,-1.63,-6.47,1.29,0.83,5.73
106,16,-70,134,-277,3966,-0.12,-0.10,-0.16,1.34,-2.77,39.66,-3.92,-1.65,-6.47,0.46,0.79,6.35
106,13,-64,136,-276,3967,0.54,-0.01,-0.53,1.36,-2.76,39.67,-3.92,-1.66,-6.47,0.28,0.84,5.44
75,8,-19,121,-276,3973,0.94,0.04,-0.59,1.21,-2.76,39.73,-3.93,-1.68,-6.46,0.81,0.93,1.56
58,6,-7,127,-281,3980,1.20,0.07,-0.58,1.27,-2.81,39.80,-3.93,-1.69,-6.46,1.09,0.98,0.56
-5,3,21,117,-259,3979,1.05,0.09,-0.39,1.17,-2.59,39.79,-3.91,-1.69,-6.46,2.40,1.03,-1.61
-23,3,26,117,-260,3974,0.81,0.10,-0.19,1.17,-2.60,39.74,-3.89,-1.69,-6.46,2.81,1.03,-1.83
-54,-12,33,107,-259,3935,0.40,0.01,0.03,1.07,-2.59,39.35,-3.87,-1.68,-6.46,3.55,1.35,-2.19
-56,-18,32,98,-269,3932,0.02,-0.10,0.22,0.98,-2.69,39.32,-3.88,-1.66,-6.46,3.69,1.49,-1.90
-31,-23,28,104,-263,3918,-0.17,-0.23,0.37,1.04,-2.63,39.18,-3.87,-1.64,-6.46,3.23,1.61,-1.40
-3,-23,28,105,-277,3898,-0.18,-0.35,0.50,1.05,-2.77,38.98,-3.89,-1.64,-6.46,2.68,1.64,-1.26
74,-25,26,86,-294,3857,0.29,-0.46,0.61,0.86,-2.94,38.57,-3.90,-1.63,-6.47,0.99,1.71,-0.97
93,-24,26,85,-282,3845,0.83,-0.56,0.71,0.85,-2.82,38.45,-3.91,-1.61,-6.47,0.46,1.71,-0.87
132,-5,23,84,-286,3826,1.55,-0.54,0.78,0.84,-2.86,38.26,-3.92,-1.60,-6.47,-0.52,1.31,-0.54
134,3,19,80,-282,3835,2.22,-0.47,0.82,0.80,-2.82,38.35,-3.92,-1.59,-6.48,-0.74,1.11,-0.16
114,19,9,99,-257,3835,2.69,-0.30,0.79,0.99,-2.57,38.35,-3.90,-1.58,-6.48,-0.48,0.74,0.66
104,19,9,102,-253,3842,3.05,-0.16,0.76,1.02,-2.53,38.42,-3.87,-1.57,-6.48,-0.39,0.69,0.63
59,9,16,93,-264,3866,3.11,-0.09,0.79,0.93,-2.64,38.66,-3.86,-1.55,-6.49,0.50,0.86,0.06
45,6,19,99,-263,3870,3.07,-0.04,0.82,0.99,-2.63,38.70,-3.85,-1.53,-6.49,0.79,0.90,-0.15
10,-5,38,111,-260,3869,2.83,-0.07,0.97,1.11,-2.60,38.69,-3.84,-1.55,-6.49,1.56,1.14,-1.60
2,-10,47,103,-264,3877,2.56,-0.12,1.16,1.03,-2.64,38.77,-3.85,-1.54,-6.50,1.80,1.25,-2.17
1,1,62,109,-252,3901,2.31,-0.10,1.42,1.09,-2.52,39.01,-3.82,-1.55,-6.50,1.87,1.03,-3.16
1,7,65,113,-246,3904,2.08,-0.05,1.68,1.13,-2.46,39.04,-3.80,-1.56,-6.51,1.92,0.90,-3.14
-10,14,75,104,-193,3924,1.81,0.04,1.97,1.04,-1.93,39.24,-3.77,-1.55,-6.52,2.20,0.73,-3.68
-18,6,77,111,-182,3926,1.52,0.07,2.24,1.11,-1.82,39.26,-3.75,-1.55,-6.53,2.42,0.88,-3.56
-44,-26,66,105,-179,3920,1.10,-0.09,2.42,1.05,-1.79,39.20,-3.72,-1.55,-6.54,3.05,1.58,-2.44
-51,-33,57,101,-177,3916,0.68,-0.29,2.53,1.01,-1.77,39.16,-3.70,-1.55,-6.55,3.30,1.77,-1.57
-55,-38,26,97,-192,3870,0.28,-0.49,2.43,0.97,-1.92,38.70,-3.68,-1.55,-6.55,3.47,1.93,0.96
-51,-38,18,97,-203,3840,-0.06,-0.67,2.30,0.97,-2.03,38.40,-3.67,-1.55,-6.56,3.47,1.98,1.50
-24,-26,11,108,-208,3786,-0.20,-0.76,2.14,1.08,-2.08,37.86,-3.65,-1.56,-6.57,2.95,1.76,1.92
-5,-10,22,137,-186,3789,-0.21,-0.75,2.06,1.37,-1.86,37.89,-3.64,-1.57,-6.58,2.56,1.44,0.91
31,37,50,136,-133,3836,-0.00,-0.45,2.16,1.36,-1.33,38.36,-3.62,-1.57,-6.59,1.76,0.41,-1.36
36,46,51,136,-124,3841,0.22,-0.12,2.25,1.36,-1.24,38.41,-3.60,-1.58,-6.60,1.58,0.14,-1.34
32,52,24,117,-119,3901,0.39,0.21,2.17,1.17,-1.19,39.01,-3.58,-1.58,-6.60,1.61,-0.07,0.86
24,41,9,98,-134,3887,0.50,0.44,2.01,0.98,-1.34,38.87,-3.56,-1.58,-6.61,1.73,0.09,1.96
0,-10,-54,84,-174,3882,0.45,0.33,1.48,0.84,-1.74,38.82,-3.54,-1.57,-6.62,2.21,1.15,6.74
-6,-21,-71,86,-202,3892,0.37,0.17,0.90,0.86,-2.02,38.92,-3.52,-1.56,-6.62,2.35,1.41,7.56
3,-12,-98,106,-271,3893,0.35,0.08,0.21,1.06,-2.71,38.93,-3.54,-1.56,-6.62,2.18,1.25,9.12
9,-2,-95,113,-290,3897,0.37,0.06,-0.39,1.13,-2.90,38.97,-3.56,-1.56,-6.62,2.06,1.05,8.23
33,37,-59,98,-338,3913,0.53,0.28,-0.71,0.98,-3.38,39.13,-3.57,-1.56,-6.62,1.54,0.20,4.84
34,43,-38,88,-357,3946,0.69,0.51,-0.87,0.88,-3.57,39.46,-3.59,-1.55,-6.62,1.49,0.01,2.89
19,34,9,30,-368,4013,0.73,0.67,-0.73,0.30,-3.68,40.13,-3.60,-1.54,-6.61,1.79,0.14,-0.94
11,23,20,22,-364,4011,0.73,0.74,-0.53,0.22,-3.64,40.11,-3.61,-1.53,-6.61,1.96,0.34,-1.67
-6,-26,53,29,-344,3992,0.62,0.51,-0.16,0.29,-3.44,39.92,-3.62,-1.51,-6.61,2.34,1.39,-4.06
-5,-40,61,29,-321,3968,0.53,0.22,0.23,0.29,-3.21,39.68,-3.63,-1.50,-6.61,2.36,1.74,-4.33
27,-50,76,60,-269,3910,0.64,-0.11,0.67,0.60,-2.69,39.10,-3.64,-1.48,-6.61,1.68,2.02,-5.13
42,-38,77,72,-248,3893,0.83,-0.33,1.07,0.72,-2.48,38.93,-3.64,-1.46,-6.62,1.32,1.83,-4.79
73,22,74,104,-178,3889,1.19,-0.16,1.42,1.04,-1.78,38.89,-3.61,-1.47,-6.62,0.58,0.56,-4.17
75,40,72,117,-148,3895,1.53,0.10,1.71,1.17,-1.48,38.95,-3.59,-1.47,-6.63,0.43,0.13,-3.69
60,36,67,141,-68,3872,1.74,0.31,1.95,1.41,-0.68,38.72,-3.56,-1.47,-6.64,0.66,0.16,-3.01
48,14,60,146,-54,3877,1.86,0.36,2.12,1.46,-0.54,38.77,-3.54,-1.47,-6.65,0.85,0.59,-2.24
40,-11,27,171,-64,3886,1.92,0.26,2.08,1.71,-0.64,38.86,-3.52,-1.48,-6.65,0.98,1.13,0.51
43,-14,17,164,-77,3892,1.99,0.15,1.97,1.64,-0.77,38.92,-3.49,-1.48,-6.66,0.89,1.22,1.25
66,-21,-17,159,-89,3870,2.19,0.00,1.67,1.59,-0.89,38.70,-3.46,-1.49,-6.67,0.35,1.41,3.81
74,-24,-25,148,-99,3869,2.43,-0.14,1.35,1.48,-0.99,38.69,-3.44,-1.50,-6.67,0.10,1.51,4.15
99,-39,-46,141,-171,3856,2.79,-0.37,0.94,1.41,-1.71,38.56,-3.41,-1.51,-6.68,-0.52,1.89,5.49
102,-42,-51,147,-187,3845,3.13,-0.59,0.53,1.47,-1.87,38.45,-3.39,-1.52,-6.68,-0.69,2.02,5.48
88,-49,-48,142,-238,3798,3.35,-0.83,0.18,1.42,-2.38,37.98,-3.38,-1.54,-6.68,-0.47,2.24,4.86
77,-51,-40,153,-262,3785,3.49,-1.05,-0.08,1.53,-2.62,37.85,-3.38,-1.56,-6.68,-0.29,2.36,3.91
12,-31,-1,162,-305,3777,3.21,-1.14,-0.08,1.62,-3.05,37.77,-3.38,-1.58,-6.68,1.11,1.98,0.61
-25,-15,27,158,-325,3764,2.74,-1.12,0.10,1.58,-3.25,37.64,-3.38,-1.59,-6.68,1.99,1.66,-1.58
-75,32,91,133,-312,3833,2.01,-0.81,0.64,1.33,-3.12,38.33,-3.39,-1.60,-6.68,3.22,0.63,-6.43
-83,46,109,129,-306,3845,1.30,-0.45,1.24,1.29,-3.06,38.45,-3.41,-1.61,-6.69,3.58,0.25,-7.32
-73,57,164,72,-219,3842,0.73,-0.06,2.12,0.72,-2.19,38.42,-3.40,-1.59,-6.70,3.53,-0.10,-11.05
-62,45,169,38,-180,3844,0.27,0.22,2.94,0.38,-1.80,38.44,-3.39,-1.57,-6.71,3.42,0.06,-10.60
-6,17,117,47,-159,3832,0.21,0.31,3.36,0.47,-1.59,38.32,-3.37,-1.56,-6.72,2.29,0.60,-5.75
11,17,87,44,-129,3825,0.26,0.38,3.55,0.44,-1.29,38.25,-3.36,-1.55,-6.74,1.92,0.57,-3.00
67,63,-12,35,-87,3837,0.64,0.73,3.12,0.35,-0.87,38.37,-3.34,-1.53,-6.75,0.67,-0.47,4.93
73,87,-41,41,-105,3871,1.02,1.18,2.56,0.41,-1.05,38.71,-3.32,-1.52,-6.76,0.43,-1.09,6.79
78,167,-121,48,-166,3968,1.39,2.08,1.57,0.48,-1.66,39.68,-3.30,-1.50,-6.76,0.21,-2.97,12.52
67,172,-140,51,-200,4026,1.66,2.92,0.56,0.51,-2.00,40.26,-3.28,-1.47,-6.76,0.35,-3.32,13.06
37,98,-126,74,-229,4081,1.72,3.23,-0.27,0.74,-2.29,40.81,-3.27,-1.44,-6.76,0.94,-1.92,11.00
30,62,-112,63,-253,4085,1.73,3.29,-0.92,0.63,-2.53,40.85,-3.27,-1.41,-6.76,1.08,-1.23,9.12
25,-51,-50,72,-302,4078,1.71,2.65,-1.14,0.72,-3.02,40.78,-3.28,-1.39,-6.75,1.19,1.24,3.64
26,-72,-28,69,-311,4047,1.70,1.94,-1.19,0.69,-3.11,40.47,-3.29,-1.38,-6.75,1.18,1.85,1.72
28,-105,44,74,-275,3928,1.70,1.11,-0.81,0.74,-2.75,39.28,-3.30,-1.37,-6.74,1.15,2.74,-3.97
26,-105,63,70,-245,3894,1.69,0.36,-0.34,0.70,-2.45,38.94,-3.31,-1.35,-6.74,1.19,2.93,-5.09
12,-70,121,80,-155,3818,1.59,-0.11,0.43,0.80,-1.55,38.18,-3.28,-1.35,-6.74,1.49,2.34,-9.19
8,-51,126,78,-131,3824,1.48,-0.41,1.16,0.78,-1.31,38.24,-3.26,-1.35,-6.75,1.59,2.04,-8.84
6,21,111,97,-37,3854,1.37,-0.24,1.72,0.97,-0.37,38.54,-3.24,-1.35,-6.76,1.64,0.53,-6.98
15,43,77,90,-39,3877,1.33,0.05,2.02,0.90,-0.39,38.77,-3.21,-1.35,-6.76,1.45,0.00,-3.78
52,33,-19,60,-50,3878,1.51,0.24,1.70,0.60,-0.50,38.78,-3.19,-1.35,-6.77,0.64,0.15,4.02
60,23,-45,70,-72,3891,1.73,0.36,1.25,0.70,-0.72,38.91,-3.16,-1.34,-6.77,0.40,0.32,5.75
68,8,-104,85,-158,3895,1.97,0.37,0.49,0.85,-1.58,38.95,-3.14,-1.34,-6.78,0.15,0.62,9.94
63,13,-109,98,-179,3899,2.16,0.42,-0.22,0.98,-1.79,38.99,-3.11,-1.34,-6.77,0.19,0.51,9.61
24,37,-87,126,-220,3905,2.09,0.60,-0.73,1.26,-2.20,39.05,-3.11,-1.35,-6.77,0.99,-0.02,7.21
8,37,-71,125,-229,3916,1.93,0.76,-1.09,1.25,-2.29,39.16,-3.11,-1.37,-6.77,1.36,-0.06,5.47
-45,10,-7,120,-257,3929,1.46,0.75,-1.02,1.20,-2.57,39.29,-3.12,-1.38,-6.76,2.58,0.50,0.12
-57,-1,10,117,-262,3942,0.97,0.67,-0.86,1.17,-2.62,39.42,-3.13,-1.38,-6.76,2.96,0.75,-1.15
-91,-34,51,90,-267,3940,0.31,0.39,-0.46,0.90,-2.67,39.40,-3.15,-1.38,-6.76,3.84,1.49,-4.20
-102,-44,58,85,-271,3920,-0.34,0.09,-0.06,0.85,-2.71,39.20,-3.17,-1.37,-6.76,4.26,1.78,-4.37
-130,-65,59,84,-221,3886,-1.10,-0.32,0.30,0.84,-2.21,38.86,-3.18,-1.36,-6.76,5.04,2.31,-4.07
-142,-75,60,72,-217,3882,-1.86,-0.74,0.64,0.72,-2.17,38.82,-3.19,-1.34,-6.76,5.50,2.61,-3.80
-184,-107,49,100,-212,3843,-2.79,-1.32,0.87,1.00,-2.12,38.43,-3.20,-1.37,-6.77,6.61,3.44,-2.62
-193,-104,47,113,-198,3859,-3.69,-1.82,1.07,1.13,-1.98,38.59,-3.20,-1.39,-6.77,7.04,3.53,-2.24
-168,-67,31,126,-217,3882,-4.35,-2.05,1.16,1.26,-2.17,38.82,-3.22,-1.41,-6.78,6.72,2.85,-0.79
-141,-60,21,117,-223,3872,-4.77,-2.21,1.17,1.17,-2.23,38.72,-3.24,-1.44,-6.78,6.31,2.77,0.07
-5,-88,-24,56,-243,3765,-4.32,-2.53,0.90,0.56,-2.43,37.65,-3.27,-1.44,-6.79,3.44,3.43,3.60
36,-100,-37,62,-245,3745,-3.67,-2.88,0.59,0.62,-2.45,37.45,-3.30,-1.43,-6.79,2.45,3.77,4.37
138,-70,-68,115,-232,3784,-2.46,-3.02,0.11,1.15,-2.32,37.84,-3.32,-1.46,-6.79,0.06,3.21,6.49
147,-8,-72,140,-226,3842,-1.32,-2.77,-0.34,1.40,-2.26,38.42,-3.32,-1.49,-6.79,-0.43,1.90,6.36
71,115,-53,163,-225,3990,-0.76,-1.79,-0.63,1.63,-2.25,39.90,-3.33,-1.52,-6.79,0.96,-0.85,4.44
30,130,-44,166,-225,4038,-0.50,-0.82,-0.83,1.66,-2.25,40.38,-3.32,-1.54,-6.78,1.72,-1.41,3.46
-138,85,-8,171,-210,4145,-1.29,-0.22,-0.80,1.71,-2.10,41.45,-3.32,-1.55,-6.78,5.35,-0.64,0.44
-181,44,5,161,-208,4152,-2.26,0.07,-0.69,1.61,-2.08,41.52,-3.32,-1.57,-6.78,6.49,0.12,-0.54
-258,-132,31,118,-254,4097,-3.61,-0.74,-0.43,1.18,-2.54,40.97,-3.35,-1.58,-6.78,8.44,3.93,-2.47
-260,-175,34,107,-244,4065,-4.84,-1.73,-0.18,1.07,-2.44,40.65,-3.38,-1.57,-6.78,8.84,5.07,-2.46
-231,-239,50,131,-212,3900,-5.76,-3.02,0.14,1.31,-2.12,39.00,-3.40,-1.60,-6.78,8.51,6.74,-3.47
-218,-236,56,120,-213,3843,-6.52,-4.16,0.47,1.20,-2.13,38.43,-3.41,-1.63,-6.78,8.46,7.01,-3.64
-179,-177,62,86,-237,3739,-6.96,-4.82,0.80,0.86,-2.37,37.39,-3.45,-1.63,-6.78,7.81,5.99,-3.79
-173,-120,55,119,-220,3707,-7.32,-5.07,1.06,1.19,-2.20,37.07,-3.47,-1.67,-6.79,7.80,4.92,-2.93
-177,-4,31,103,-241,3737,-7.66,-4.59,1.14,1.03,-2.41,37.37,-3.52,-1.68,-6.80,8.01,2.44,-0.81
-182,21,24,118,-251,3756,-8.01,-4.00,1.17,1.18,-2.51,37.56,-3.57,-1.70,-6.80,8.24,1.79,-0.18
-214,72,-7,144,-311,3947,-8.51,-3.16,1.01,1.44,-3.11,39.47,-3.62,-1.72,-6.81,9.06,0.53,2.28
-227,76,-15,148,-330,4008,-9.05,-2.38,0.82,1.48,-3.30,40.08,-3.67,-1.74,-6.81,9.51,0.25,2.75
-279,28,-27,137,-361,4152,-9.84,-1.97,0.57,1.37,-3.61,41.52,-3.73,-1.75,-6.82,10.82,1.12,3.51
-299,-3,-23,138,-370,4166,-10.68,-1.79,0.38,1.38,-3.70,41.66,-3.79,-1.76,-6.82,11.50,1.71,2.96
-369,-154,13,144,-404,4124,-11.87,-2.55,0.42,1.44,-4.04,41.24,-3.86,-1.77,-6.82,13.28,5.00,-0.05
-386,-198,29,146,-406,4099,-13.03,-3.51,0.55,1.46,-4.06,40.99,-3.93,-1.79,-6.82,13.99,6.16,-1.26
-404,-281,89,150,-445,4033,-14.19,-4.87,1.04,1.50,-4.45,40.33,-4.00,-1.81,-6.83,14.73,8.23,-5.82
-381,-289,123,107,-441,3974,-15.10,-6.15,1.69,1.07,-4.41,39.74,-4.08,-1.83,-6.84,14.56,8.76,-8.02
-274,-279,190,83,-380,3835,-15.26,-7.23,2.68,0.83,-3.80,38.35,-4.16,-1.85,-6.85,12.48,8.87,-12.65
-236,-268,205,79,-352,3786,-15.17,-8.14,3.66,0.79,-3.52,37.86,-4.24,-1.87,-6.87,11.73,8.91,-12.87
-73,-199,206,107,-331,3697,-14.10,-8.54,4.55,1.07,-3.31,36.97,-4.31,-1.90,-6.89,8.18,7.63,-12.01
-26,-163,189,145,-317,3716,-12.85,-8.68,5.25,1.45,-3.17,37.16,-4.38,-1.94,-6.92,6.92,6.96,-9.83
55,-28,98,188,-307,3816,-11.23,-7.99,5.32,1.88,-3.07,38.16,-4.43,-1.99,-6.94,4.87,4.06,-2.04
55,2,73,205,-287,3860,-9.77,-7.18,5.23,2.05,-2.87,38.60,-4.47,-2.04,-6.96,4.49,3.26,-0.02
-85,33,26,284,-224,4035,-9.31,-6.26,4.87,2.84,-2.24,40.35,-4.50,-2.08,-6.98,7.23,2.40,3.58
-158,5,22,267,-233,4068,-9.35,-5.60,4.52,2.67,-2.33,40.68,-4.52,-2.11,-7.00,8.75,2.82,3.55
-446,-157,29,344,-241,4140,-11.13,-6.00,4.24,3.44,-2.41,41.40,-4.56,-2.15,-7.02,15.11,6.25,2.67
-570,-243,37,342,-285,4111,-13.50,-6.88,4.04,3.42,-2.85,41.11,-4.61,-2.19,-7.04,18.31,8.27,1.78
-698,-386,51,270,-356,3952,-16.40,-8.55,3.95,2.70,-3.56,39.52,-4.68,-2.24,-7.06,20.00,11.66,0.50
-701,-406,49,279,-387,3885,-19.04,-10.17,3.85,2.79,-3.87,38.85,-4.77,-2.30,-7.08,20.00,12.55,0.57
-632,-407,26,201,-482,3653,-20.99,-11.63,3.63,2.01,-4.82,36.53,-4.87,-2.35,-7.10,20.00,13.00,2.28
-582,-382,18,178,-503,3551,-22.44,-12.80,3.37,1.78,-5.03,35.51,-4.98,-2.40,-7.12,20.00,12.84,2.69
-292,-162,-17,238,-574,3428,-21.98,-12.51,2.93,2.38,-5.74,34.28,-5.09,-2.46,-7.13,15.29,8.33,5.19
-196,-78,-29,244,-591,3462,-20.98,-11.73,2.46,2.44,-5.91,34.62,-5.19,-2.51,-7.15,13.13,6.44,5.71
-111,91,-61,302,-614,3765,-19.56,-10.01,1.84,3.02,-6.14,37.65,-5.28,-2.56,-7.16,11.08,2.57,7.77
-155,99,-68,331,-624,3844,-18.55,-8.40,1.25,3.31,-6.24,38.44,-5.37,-2.60,-7.17,11.75,1.99,7.72
-339,75,-64,354,-628,4043,-18.76,-7.10,0.73,3.54,-6.28,40.43,-5.46,-2.64,-7.17,15.61,2.15,6.84
-213,181,-43,414,-571,3885,-18.18,-5.29,0.40,4.14,-5.71,38.85,-5.55,-2.67,-7.18,12.95,-0.47,4.71
-78,63,3,303,-529,4001,-16.84,-4.38,0.37,3.03,-5.29,40.01,-5.63,-2.70,-7.18,9.89,1.69,0.79
-95,-15,8,323,-542,4011,-15.74,-4.03,0.39,3.23,-5.42,40.11,-5.71,-2.73,-7.19,9.99,3.20,0.38
-217,-202,-11,325,-611,3938,-15.49,-4.86,0.28,3.25,-6.11,39.38,-5.78,-2.76,-7.19,12.45,7.25,1.88
-257,-229,-18,315,-623,3899,-15.50,-5.77,0.14,3.15,-6.23,38.99,-5.86,-2.79,-7.19,13.32,8.07,2.32
-365,-229,-25,306,-704,3710,-16.18,-6.59,-0.02,3.06,-7.04,37.10,-5.94,-2.82,-7.20,15.76,8.32,2.74
-391,-197,-24,300,-749,3667,-16.95,-7.13,-0.17,3.00,-7.49,36.67,-6.03,-2.86,-7.20,16.55,7.84,2.50
-419,-40,-14,310,-854,3694,-17.81,-6.66,-0.24,3.10,-8.54,36.94,-6.12,-2.89,-7.20,17.41,4.54,1.58
-413,8,-9,314,-870,3750,-18.55,-5.95,-0.27,3.14,-8.70,37.50,-6.21,-2.92,-7.21,17.55,3.38,1.13
-380,97,9,295,-915,3847,-19.01,-4.76,-0.19,2.95,-9.15,38.47,-6.30,-2.94,-7.21,17.07,1.27,-0.31
-384,77,20,291,-897,3916,-19.45,-3.82,-0.05,2.91,-8.97,39.16,-6.40,-2.96,-7.21,17.34,1.43,-1.09
-507,-26,42,376,-837,3969,-20.60,-3.59,0.21,3.76,-8.37,39.69,-6.50,-2.98,-7.21,20.00,3.47,-2.68
-565,-53,47,388,-813,3960,-21.99,-3.56,0.48,3.88,-8.13,39.60,-6.60,-3.00,-7.22,20.00,4.03,-2.82
-775,-127,70,303,-795,3837,-24.51,-3.98,0.86,3.03,-7.95,38.37,-6.72,-3.02,-7.22,20.00,5.66,-4.37
-850,-147,81,311,-784,3758,-27.25,-4.48,1.27,3.11,-7.84,37.58,-6.85,-3.04,-7.23,20.00,6.22,-4.87
-985,-120,86,288,-875,3634,-30.53,-4.76,1.67,2.88,-8.75,36.34,-6.99,-3.06,-7.24,20.00,5.76,-4.87
-997,-88,76,273,-910,3632,-33.56,-4.82,1.96,2.73,-9.10,36.32,-7.14,-3.09,-7.25,20.00,5.14,-3.71
-939,91,-8,258,-1009,3649,-35.93,-3.78,1.72,2.58,-10.09,36.49,-7.30,-3.10,-7.26,20.00,1.23,3.15
-911,136,-31,249,-1011,3683,-37.90,-2.58,1.36,2.49,-10.11,36.83,-7.47,-3.11,-7.27,20.00,-0.01,4.72
-820,239,-90,288,-1046,3819,-39.11,-0.86,0.67,2.88,-10.46,38.19,-7.65,-3.12,-7.27,20.00,-2.57,8.99
-801,246,-93,303,-1039,3880,-40.08,0.73,0.04,3.03,-10.39,38.80,-7.82,-3.12,-7.28,20.00,-3.14,8.57
-809,182,-52,302,-1069,3945,-41.01,1.76,-0.28,3.02,-10.69,39.45,-8.01,-3.11,-7.27,20.00,-2.13,4.76
-817,151,-41,300,-1092,3948,-41.89,2.51,-0.51,3.00,-10.92,39.48,-8.19,-3.11,-7.27,20.00,-1.70,3.59
-847,61,-14,300,-1157,3876,-42.87,2.63,-0.54,3.00,-11.57,38.76,-8.38,-3.10,-7.27,20.00,0.09,1.27
-849,53,-12,302,-1176,3866,-43.76,2.69,-0.56,3.02,-11.76,38.66,-8.57,-3.09,-7.27,20.00,0.23,1.08
-849,80,-6,329,-1196,3824,-44.56,2.91,-0.54,3.29,-11.96,38.24,-8.77,-3.08,-7.26,20.00,-0.38,0.59
-845,90,-3,302,-1213,3807,-45.26,3.17,-0.50,3.02,-12.13,38.07,-8.97,-3.07,-7.26,20.00,-0.66,0.37
-828,92,-3,270,-1235,3779,-45.79,3.41,-0.47,2.70,-12.35,37.79,-9.17,-3.06,-7.26,20.00,-0.78,0.41
-819,87,-3,276,-1231,3761,-46.20,3.60,-0.44,2.76,-12.31,37.61,-9.37,-3.05,-7.25,20.00,-0.74,0.44
-762,79,-18,260,-1313,3769,-46.23,3.72,-0.51,2.60,-13.13,37.69,-9.57,-3.04,-7.25,20.00,-0.62,1.64
-724,88,-31,261,-1322,3757,-46.03,3.89,-0.65,2.61,-13.22,37.57,-9.78,-3.02,-7.25,20.00,-0.85,2.59
-584,110,-71,226,-1418,3736,-44.99,4.17,-1.02,2.26,-14.18,37.36,-9.97,-3.01,-7.24,20.00,-1.39,5.59
-539,114,-81,227,-1436,3719,-43.77,4.45,-1.41,2.27,-14.36,37.19,-10.17,-2.99,-7.23,20.00,-1.56,6.02
-389,139,-99,240,-1548,3743,-41.77,4.85,-1.87,2.40,-15.48,37.43,-10.35,-2.98,-7.22,20.00,-2.18,7.06
-359,146,-97,245,-1566,3761,-39.78,5.26,-2.28,2.45,-15.66,37.61,-10.53,-2.96,-7.21,20.00,-2.45,6.46
-294,156,-49,242,-1546,3795,-37.60,5.68,-2.35,2.42,-15.46,37.95,-10.70,-2.94,-7.20,20.00,-2.78,2.31
-288,151,-32,229,-1552,3823,-35.60,6.04,-2.31,2.29,-15.52,38.23,-10.86,-2.92,-7.19,20.00,-2.79,0.91
-305,108,14,227,-1511,3854,-33.90,6.09,-1.99,2.27,-15.11,38.54,-11.01,-2.89,-7.17,20.00,-1.95,-2.65
-317,90,20,230,-1507,3849,-32.44,6.03,-1.67,2.30,-15.07,38.49,-11.16,-2.87,-7.16,20.00,-1.58,-2.82
-379,18,10,219,-1474,3867,-31.51,5.54,-1.44,2.19,-14.74,38.67,-11.30,-2.85,-7.15,20.00,0.01,-1.73
-410,-9,-5,231,-1482,3835,-30.86,4.93,-1.33,2.31,-14.82,38.35,-11.44,-2.84,-7.15,20.00,0.71,-0.34
-472,-72,-54,200,-1585,3752,-30.65,4.00,-1.53,2.00,-15.85,37.52,-11.58,-2.82,-7.14,20.00,2.24,3.60
-488,-80,-67,218,-1616,3745,-30.56,3.11,-1.78,2.18,-16.16,37.45,-11.72,-2.81,-7.13,20.00,2.63,4.43
-557,-78,-79,211,-1676,3599,-30.90,2.32,-2.09,2.11,-16.76,35.99,-11.86,-2.80,-7.12,20.00,2.80,5.13
-578,-68,-72,218,-1688,3604,-31.34,1.68,-2.32,2.18,-16.88,36.04,-12.00,-2.80,-7.11,20.00,2.77,4.29
-671,4,-36,222,-1710,3598,-32.30,1.53,-2.30,2.22,-17.10,35.98,-12.15,-2.80,-7.10,20.00,1.35,1.25
-693,22,-29,221,-1716,3603,-33.30,1.51,-2.25,2.21,-17.16,36.03,-12.30,-2.79,-7.09,20.00,0.98,0.71
-742,45,-21,247,-1742,3674,-34.49,1.64,-2.15,2.47,-17.42,36.74,-12.46,-2.79,-7.08,20.00,0.48,0.14
-744,39,-20,251,-1746,3670,-35.58,1.71,-2.06,2.51,-17.46,36.70,-12.62,-2.79,-7.07,20.00,0.58,0.15
-684,-26,-9,237,-1813,3694,-36.20,1.38,-1.91,2.37,-18.13,36.94,-12.78,-2.78,-7.07,20.00,1.99,-0.62
-648,-50,-7,267,-1855,3695,-36.53,0.94,-1.76,2.67,-18.55,36.95,-12.94,-2.78,-7.06,20.00,2.60,-0.64
-575,-105,14,209,-1924,3573,-36.38,0.20,-1.50,2.09,-19.24,35.73,-13.11,-2.78,-7.05,20.00,3.92,-2.14
-565,-116,23,207,-1943,3575,-36.19,-0.52,-1.21,2.07,-19.43,35.75,-13.27,-2.79,-7.05,20.00,4.34,-2.59
-557,-108,64,210,-1918,3491,-35.97,-1.13,-0.70,2.10,-19.18,34.91,-13.43,-2.79,-7.05,20.00,4.35,-5.53
-557,-92,71,204,-1935,3501,-35.77,-1.58,-0.19,2.04,-19.35,35.01,-13.59,-2.80,-7.05,20.00,4.15,-5.59
-570,-31,57,220,-1974,3507,-35.67,-1.61,0.17,2.20,-19.74,35.07,-13.75,-2.80,-7.06,20.00,2.92,-4.01
-577,-24,47,217,-1985,3476,-35.62,-1.60,0.44,2.17,-19.85,34.76,-13.91,-2.81,-7.06,20.00,2.78,-2.88
-627,-29,4,231,-1999,3462,-35.89,-1.61,0.42,2.31,-19.99,34.62,-14.07,-2.82,-7.06,20.00,2.89,0.74
-643,-23,-1,244,-1997,3455,-36.22,-1.59,0.37,2.44,-19.97,34.55,-14.24,-2.82,-7.07,20.00,2.77,1.12
-708,11,5,300,-1980,3478,-36.92,-1.37,0.37,3.00,-19.80,34.78,-14.40,-2.83,-7.07,20.00,2.02,0.60
-740,21,15,286,-2010,3474,-37.74,-1.10,0.42,2.86,-20.10,34.74,-14.57,-2.84,-7.07,20.00,1.75,-0.19
-786,3,32,244,-2079,3521,-38.76,-0.97,0.57,2.44,-20.79,35.21,-14.74,-2.84,-7.08,20.00,2.08,-1.47
-782,-6,34,244,-2108,3537,-39.65,-0.91,0.72,2.44,-21.08,35.37,-14.92,-2.84,-7.08,20.00,2.25,-1.48
-700,-39,-3,206,-2206,3593,-39.96,-1.06,0.63,2.06,-22.06,35.93,-15.10,-2.85,-7.09,20.00,2.96,1.56
-658,-48,-22,191,-2215,3610,-39.98,-1.25,0.44,1.91,-22.15,36.10,-15.28,-2.85,-7.09,20.00,3.20,2.96
-434,-83,3,264,-2343,3618,-38.63,-1.63,0.41,2.64,-23.43,36.18,-15.45,-2.86,-7.10,20.00,4.02,0.82
-346,-100,12,286,-2362,3632,-36.87,-2.07,0.44,2.86,-23.62,36.32,-15.61,-2.87,-7.10,20.00,4.49,0.09
-55,-179,27,175,-2222,3634,-33.52,-2.96,0.56,1.75,-22.22,36.34,-15.77,-2.88,-7.11,20.00,6.35,-1.05
27,-204,30,187,-2176,3623,-30.01,-3.91,0.69,1.87,-21.76,36.23,-15.90,-2.89,-7.11,18.13,7.12,-1.17
294,-259,-17,230,-2177,3530,-25.21,-5.10,0.52,2.30,-21.77,35.30,-16.02,-2.91,-7.12,11.47,8.58,2.63
427,-255,-66,225,-2201,3461,-20.09,-6.14,0.06,2.25,-22.01,34.61,-16.12,-2.93,-7.13,7.43,8.80,6.30
651,-191,-156,239,-2217,3306,-14.11,-6.69,-0.89,2.39,-22.17,33.06,-16.20,-2.96,-7.14,1.30,7.66,12.91
686,-162,-172,257,-2235,3292,-8.51,-7.01,-1.85,2.57,-22.35,32.92,-16.25,-2.99,-7.14,-0.90,7.18,13.25
653,-42,-222,338,-2238,3319,-3.68,-6.57,-3.02,3.38,-22.38,33.19,-16.28,-3.02,-7.13,-1.53,4.64,16.25
596,-20,-229,349,-2210,3330,0.33,-6.03,-4.12,3.49,-22.10,33.30,-16.30,-3.05,-7.13,-1.45,4.07,15.68
170,-9,-210,404,-2037,3364,1.33,-5.48,-4.99,4.04,-20.37,33.64,-16.31,-3.08,-7.11,6.94,3.71,13.15
-45,-20,-193,413,-2000,3375,0.92,-5.06,-5.67,4.13,-20.00,33.75,-16.32,-3.11,-7.10,11.43,3.84,10.99
-777,-33,-135,371,-2085,3440,-3.91,-4.75,-5.92,3.71,-20.85,34.40,-16.35,-3.14,-7.08,20.00,4.04,5.80
-961,-31,-125,364,-2145,3430,-9.38,-4.47,-6.09,3.64,-21.45,34.30,-16.41,-3.17,-7.07,20.00,3.94,4.77
-1482,-40,-97,310,-2326,3302,-17.48,-4.26,-6.08,3.10,-23.26,33.02,-16.49,-3.19,-7.05,20.00,4.08,2.42
-1609,-46,-82,316,-2367,3275,-25.55,-4.12,-5.97,3.16,-23.67,32.75,-16.61,-3.21,-7.03,20.00,4.18,1.26
-1751,-34,-22,318,-2289,3114,-33.67,-3.91,-5.51,3.18,-22.89,31.14,-16.76,-3.24,-7.01,20.00,3.90,-3.33
-1749,-24,2,315,-2262,3093,-40.98,-3.67,-4.94,3.15,-22.62,30.93,-16.94,-3.26,-7.00,20.00,3.64,-4.77
-1649,50,70,301,-2292,3092,-46.94,-3.00,-4.02,3.01,-22.92,30.92,-17.15,-3.28,-6.99,20.00,1.96,-9.56
-1576,86,76,315,-2320,3082,-51.86,-2.17,-3.16,3.15,-23.20,30.82,-17.37,-3.29,-6.98,20.00,1.01,-9.15
-1276,171,47,286,-2380,3120,-54.46,-0.91,-2.55,2.86,-23.80,31.20,-17.61,-3.30,-6.97,20.00,-1.05,-6.06
-1179,187,29,303,-2416,3155,-56.20,0.32,-2.12,3.03,-24.16,31.55,-17.85,-3.30,-6.97,20.00,-1.71,-4.08
-799,212,-25,265,-2513,3245,-55.46,1.58,-2.06,2.65,-25.13,32.45,-18.09,-3.30,-6.96,20.00,-2.57,0.56
-703,201,-34,261,-2556,3294,-54.20,2.65,-2.06,2.61,-25.56,32.94,-18.32,-3.29,-6.95,20.00,-2.64,1.32
-411,111,-52,231,-2646,3281,-51.29,3.06,-2.17,2.31,-26.46,32.81,-18.54,-3.28,-6.94,20.00,-0.93,2.73
-309,47,-47,246,-2661,3258,-48.04,3.04,-2.24,2.46,-26.61,32.58,-18.75,-3.27,-6.93,20.00,0.37,2.23
-250,-29,-20,252,-2657,3159,-44.76,2.56,-2.14,2.52,-26.57,31.59,-18.95,-3.27,-6.91,20.00,2.05,0.05
-264,-38,-13,242,-2632,3137,-41.90,2.07,-2.01,2.42,-26.32,31.37,-19.13,-3.26,-6.91,20.00,2.36,-0.40
-373,-38,12,260,-2521,3143,-39.98,1.63,-1.73,2.60,-25.21,31.43,-19.31,-3.26,-6.90,20.00,2.48,-2.23
-432,-28,22,244,-2517,3136,-38.62,1.30,-1.42,2.44,-25.17,31.36,-19.48,-3.25,-6.89,20.00,2.36,-2.75
-570,-18,24,220,-2622,3049,-38.23,1.06,-1.14,2.20,-26.22,30.49,-19.65,-3.25,-6.89,20.00,2.22,-2.62
-607,-21,16,216,-2676,3039,-38.11,0.83,-0.92,2.16,-26.76,30.39,-19.82,-3.25,-6.88,20.00,2.35,-1.72
-639,-8,-24,183,-2808,2932,-38.20,0.69,-0.98,1.83,-28.08,29.32,-19.99,-3.25,-6.88,20.00,2.12,1.62
-625,-7,-37,180,-2831,2898,-38.19,0.58,-1.11,1.80,-28.31,28.98,-20.16,-3.25,-6.88,20.00,2.13,2.58
-520,22,-50,207,-2839,2877,-37.55,0.66,-1.30,2.07,-28.39,28.77,-20.33,-3.25,-6.87,20.00,1.52,3.48
-457,49,-45,216,-2893,2878,-36.58,0.89,-1.45,2.16,-28.93,28.78,-20.49,-3.25,-6.87,20.00,0.90,2.90
-366,110,-20,234,-2919,2929,-35.15,1.47,-1.42,2.34,-29.19,29.29,-20.65,-3.24,-6.86,20.00,-0.50,0.81
-363,121,-10,225,-2928,2936,-33.85,2.06,-1.34,2.25,-29.28,29.36,-20.80,-3.24,-6.85,20.00,-0.89,0.04
-423,141,20,210,-2951,3011,-33.05,2.72,-1.09,2.10,-29.51,30.11,-20.95,-3.23,-6.84,20.00,-1.48,-2.23
-469,152,29,212,-2944,3041,-32.60,3.37,-0.80,2.12,-29.44,30.41,-21.10,-3.22,-6.84,20.00,-1.89,-2.69
-624,165,49,226,-2915,3018,-33.15,4.04,-0.42,2.26,-29.15,30.18,-21.25,-3.20,-6.83,20.00,-2.34,-3.98
-665,157,57,242,-2890,3026,-33.89,4.60,-0.03,2.42,-28.90,30.26,-21.40,-3.19,-6.83,20.00,-2.34,-4.25
-797,101,84,220,-2877,3004,-35.36,4.75,0.48,2.20,-28.77,30.04,-21.56,-3.17,-6.82,20.00,-1.26,-5.99
-818,85,88,215,-2877,3006,-36.82,4.80,0.97,2.15,-28.77,30.06,-21.72,-3.15,-6.82,20.00,-0.96,-5.81
-850,38,73,183,-2935,2915,-38.32,4.55,1.32,1.83,-29.35,29.15,-21.89,-3.13,-6.82,20.00,0.05,-4.17
-827,32,43,160,-2978,2869,-39.53,4.29,1.45,1.60,-29.78,28.69,-22.07,-3.11,-6.82,20.00,0.23,-1.49
-748,72,-37,189,-3054,2858,-40.14,4.30,1.08,1.89,-30.54,28.58,-22.25,-3.09,-6.82,20.00,-0.60,4.89
-725,88,-53,193,-3078,2841,-40.55,4.41,0.65,1.93,-30.78,28.41,-22.43,-3.08,-6.81,20.00,-0.96,5.79
-660,116,-80,227,-3185,2872,-40.52,4.67,0.10,2.27,-31.85,28.72,-22.60,-3.06,-6.81,20.00,-1.61,7.49
-650,117,-78,238,-3191,2860,-40.43,4.92,-0.39,2.38,-31.91,28.60,-22.78,-3.04,-6.80,20.00,-1.71,6.81
-623,103,-33,208,-3217,2868,-40.19,5.06,-0.55,2.08,-32.17,28.68,-22.96,-3.02,-6.79,20.00,-1.48,2.82
-622,101,-14,225,-3206,2880,-39.97,5.17,-0.58,2.25,-32.06,28.80,-23.14,-3.00,-6.78,20.00,-1.48,1.18
-634,100,38,192,-3208,2818,-39.84,5.26,-0.29,1.92,-32.08,28.18,-23.31,-2.99,-6.77,20.00,-1.50,-2.92
-640,93,45,174,-3216,2811,-39.76,5.30,0.01,1.74,-32.16,28.11,-23.49,-2.97,-6.76,20.00,-1.38,-3.19
-674,57,30,154,-3182,2707,-39.89,5.12,0.19,1.54,-31.82,27.07,-23.66,-2.95,-6.76,20.00,-0.61,-1.73
-693,53,10,143,-3183,2672,-40.13,4.93,0.24,1.43,-31.83,26.72,-23.84,-2.93,-6.75,20.00,-0.49,0.01
-744,130,-44,183,-3212,2802,-40.66,5.23,-0.06,1.83,-32.12,28.02,-24.02,-2.91,-6.74,20.00,-2.15,4.27
-766,155,-60,195,-3217,2808,-41.26,5.65,-0.42,1.95,-32.17,28.08,-24.20,-2.89,-6.73,20.00,-2.79,5.25
-858,143,-76,231,-3243,2845,-42.37,5.96,-0.84,2.31,-32.43,28.45,-24.39,-2.87,-6.72,20.00,-2.64,6.16
-881,115,-70,229,-3260,2841,-43.51,6.06,-1.18,2.29,-32.60,28.41,-24.58,-2.85,-6.71,20.00,-2.11,5.28
-900,-9,-33,192,-3393,2764,-44.65,5.40,-1.27,1.92,-33.93,27.64,-24.77,-2.83,-6.70,20.00,0.58,2.06
-887,-41,-24,195,-3436,2717,-45.59,4.61,-1.29,1.95,-34.36,27.17,-24.97,-2.82,-6.68,20.00,1.43,1.27
-841,-111,5,142,-3481,2458,-46.16,3.47,-1.13,1.42,-34.81,24.58,-25.17,-2.81,-6.68,20.00,3.16,-1.02
-840,-114,12,152,-3472,2430,-46.67,2.43,-0.94,1.52,-34.72,24.30,-25.38,-2.80,-6.67,20.00,3.50,-1.41
-930,-21,32,174,-3355,2379,-47.68,2.06,-0.65,1.74,-33.55,23.79,-25.59,-2.79,-6.66,20.00,1.71,-2.80
-1004,51,30,160,-3346,2379,-49.03,2.17,-0.40,1.60,-33.46,23.79,-25.80,-2.78,-6.66,20.00,0.21,-2.37
-1145,164,-8,156,-3392,2459,-51.12,2.95,-0.41,1.56,-33.92,24.59,-26.02,-2.77,-6.65,20.00,-2.31,0.84
-1161,171,-23,142,-3428,2481,-53.09,3.70,-0.51,1.42,-34.28,24.81,-26.25,-2.76,-6.65,20.00,-2.66,2.01
-1110,114,-92,95,-3613,2499,-54.55,4.02,-1.02,0.95,-36.13,24.99,-26.48,-2.75,-6.64,20.00,-1.60,7.31
-1074,90,-108,114,-3647,2461,-55.64,4.17,-1.58,1.14,-36.47,24.61,-26.72,-2.74,-6.62,20.00,-1.16,8.08
-946,3,-111,143,-3660,2283,-55.85,3.77,-2.10,1.43,-36.60,22.83,-26.96,-2.73,-6.61,20.00,0.71,7.78
-919,-6,-91,164,-3632,2261,-55.87,3.36,-2.44,1.64,-36.32,22.61,-27.20,-2.72,-6.60,20.00,1.00,5.72
-885,21,3,161,-3673,2216,-55.68,3.15,-2.18,1.61,-36.73,22.16,-27.44,-2.71,-6.58,20.00,0.50,-1.97
-882,35,20,156,-3701,2218,-55.49,3.05,-1.84,1.56,-37.01,22.18,-27.68,-2.70,-6.57,20.00,0.24,-3.05
-923,37,48,154,-3750,2190,-55.58,2.97,-1.36,1.54,-37.50,21.90,-27.92,-2.70,-6.56,20.00,0.22,-4.92
-965,11,55,117,-3778,2115,-55.90,2.74,-0.89,1.17,-37.78,21.15,-28.16,-2.69,-6.55,20.00,0.80,-5.01
-1112,-53,59,111,-3797,2008,-57.10,2.14,-0.44,1.11,-37.97,20.08,-28.40,-2.68,-6.55,20.00,2.26,-4.88
-1145,-58,60,106,-3789,2000,-58.37,1.57,-0.03,1.06,-37.89,20.00,-28.65,-2.67,-6.55,20.00,2.52,-4.53
-1185,-54,47,101,-3888,1914,-59.76,1.09,0.26,1.01,-38.88,19.14,-28.91,-2.67,-6.55,20.00,2.56,-3.12
-1179,-49,37,125,-3891,1894,-60.98,0.68,0.46,1.25,-38.91,18.94,-29.17,-2.67,-6.55,20.00,2.57,-2.06
-1107,-38,18,115,-3890,1807,-61.63,0.38,0.52,1.15,-38.90,18.07,-29.43,-2.66,-6.55,20.00,2.43,-0.38
-1083,-38,14,152,-3881,1798,-62.08,0.11,0.56,1.52,-38.81,17.98,-29.70,-2.66,-6.55,20.00,2.50,-0.01
-936,9,1,167,-3852,1837,-61.58,0.15,0.51,1.67,-38.52,18.37,-29.96,-2.66,-6.55,20.00,1.53,1.04
-875,17,-5,155,-3862,1826,-60.76,0.24,0.42,1.55,-38.62,18.26,-30.22,-2.66,-6.56,20.00,1.34,1.46
-564,2,-28,142,-3906,1762,-58.12,0.23,0.21,1.42,-39.06,17.62,-30.47,-2.66,-6.56,20.00,1.65,3.19
-373,-28,-31,123,-3913,1733,-54.59,0.04,0.00,1.23,-39.13,17.33,-30.70,-2.66,-6.56,20.00,2.31,3.22
-53,-69,-13,160,-3906,1762,-49.45,-0.39,-0.08,1.60,-39.06,17.62,-30.92,-2.66,-6.56,20.00,3.26,1.61
-6,-74,-9,161,-3939,1750,-44.54,-0.80,-0.13,1.61,-39.39,17.50,-31.11,-2.66,-6.56,20.00,3.48,1.22
-23,-109,-31,182,-4011,1786,-40.23,-1.39,-0.30,1.82,-40.11,17.86,-31.29,-2.67,-6.56,20.00,4.35,2.90
-77,-129,-38,193,-3999,1769,-36.68,-2.03,-0.50,1.93,-39.99,17.69,-31.45,-2.67,-6.57,20.00,4.94,3.28
-373,-226,-45,183,-3957,1688,-35.28,-3.21,-0.73,1.83,-39.57,16.88,-31.61,-2.69,-6.57,20.00,7.24,3.63
-471,-255,-48,180,-3953,1673,-34.63,-4.44,-0.95,1.80,-39.53,16.73,-31.77,-2.70,-6.58,20.00,8.18,3.66
-798,-339,-81,150,-3902,1599,-36.03,-6.07,-1.35,1.50,-39.02,15.99,-31.93,-2.73,-6.59,20.00,10.35,6.03
-852,-357,-95,135,-3910,1579,-37.63,-7.64,-1.79,1.35,-39.10,15.79,-32.10,-2.76,-6.60,20.00,11.16,6.75
-901,-269,-133,173,-3929,1599,-39.36,-8.52,-2.42,1.73,-39.29,15.99,-32.27,-2.79,-6.61,20.00,9.63,9.30
-895,-199,-139,160,-4011,1417,-40.88,-8.88,-3.03,1.60,-40.11,14.17,-32.45,-2.83,-6.62,20.00,8.33,9.16
-802,-18,-113,161,-4025,1334,-41.69,-8.10,-3.42,1.61,-40.25,13.34,-32.63,-2.86,-6.63,20.00,4.46,6.55
-777,36,-93,150,-4029,1334,-42.26,-7.07,-3.64,1.50,-40.29,13.34,-32.82,-2.89,-6.63,20.00,3.11,4.62
-671,161,-42,137,-4030,1393,-42.13,-5.38,-3.53,1.37,-40.30,13.93,-33.01,-2.92,-6.63,20.00,0.12,0.41
-626,182,-31,153,-4030,1455,-41.73,-3.73,-3.37,1.53,-40.30,14.55,-33.19,-2.94,-6.63,20.00,-0.74,-0.34
-459,196,-26,169,-4013,1582,-40.36,-2.16,-3.19,1.69,-40.13,15.82,-33.37,-2.95,-6.62,20.00,-1.45,-0.58
-388,174,-31,181,-3994,1654,-38.69,-0.89,-3.06,1.81,-39.94,16.54,-33.54,-2.96,-6.62,20.00,-1.34,-0.02
-172,46,-38,177,-4019,1661,-35.87,-0.52,-2.99,1.77,-40.19,16.61,-33.70,-2.97,-6.61,20.00,1.17,0.65
-119,-4,-38,163,-4052,1655,-33.01,-0.49,-2.92,1.63,-40.52,16.55,-33.84,-2.98,-6.60,20.00,2.18,0.72
61,-170,-39,125,-4196,1532,-29.34,-1.48,-2.87,1.25,-41.96,15.32,-33.98,-2.99,-6.59,20.00,5.83,0.86
136,-235,-34,110,-4213,1423,-25.57,-2.76,-2.79,1.10,-42.13,14.23,-34.10,-3.01,-6.59,20.00,7.52,0.52
159,-262,7,107,-4174,1294,-22.05,-4.09,-2.47,1.07,-41.74,12.94,-34.20,-3.02,-6.59,20.00,8.44,-2.61
118,-238,17,109,-4174,1255,-19.12,-5.13,-2.11,1.09,-41.74,12.55,-34.29,-3.05,-6.60,20.00,8.25,-3.09
-162,-93,32,104,-4156,1172,-18.20,-5.18,-1.71,1.04,-41.56,11.72,-34.38,-3.07,-6.61,20.00,5.33,-3.93
-267,-43,29,111,-4154,1163,-18.01,-4.93,-1.36,1.11,-41.54,11.63,-34.47,-3.08,-6.61,20.00,4.25,-3.30
-602,107,7,136,-4104,1239,-19.88,-3.78,-1.18,1.36,-41.04,12.39,-34.57,-3.10,-6.62,20.00,0.90,-1.25
-677,136,3,149,-4094,1298,-22.02,-2.57,-1.05,1.49,-40.94,12.98,-34.67,-3.11,-6.62,20.00,-0.01,-0.76
-872,158,-13,161,-4139,1436,-25.14,-1.35,-1.02,1.61,-41.39,14.36,-34.79,-3.12,-6.62,20.00,-0.79,0.62
-903,129,-13,159,-4157,1433,-28.13,-0.43,-1.00,1.59,-41.57,14.33,-34.92,-3.12,-6.62,20.00,-0.45,0.64
-955,-16,1,162,-4187,1385,-31.14,-0.49,-0.89,1.62,-41.87,13.85,-35.06,-3.12,-6.62,20.00,2.52,-0.43
-960,-83,17,152,-4211,1289,-33.89,-0.94,-0.70,1.52,-42.11,12.89,-35.21,-3.13,-6.62,20.00,4.01,-1.58
-963,-128,66,161,-4179,1086,-36.37,-1.63,-0.23,1.61,-41.79,10.86,-35.37,-3.13,-6.63,20.00,5.12,-5.23
-962,-117,79,150,-4173,1048,-38.60,-2.18,0.28,1.50,-41.73,10.48,-35.54,-3.14,-6.63,20.00,5.05,-5.80
-942,-15,92,147,-4170,963,-40.49,-2.05,0.81,1.47,-41.70,9.63,-35.72,-3.14,-6.64,20.00,2.94,-6.34
-924,16,82,138,-4169,923,-42.08,-1.75,1.23,1.38,-41.69,9.23,-35.91,-3.15,-6.65,20.00,2.23,-5.05
-776,99,18,112,-4171,962,-42.60,-0.97,1.22,1.12,-41.71,9.62,-36.10,-3.15,-6.66,20.00,0.33,0.36
-710,114,-4,130,-4172,991,-42.67,-0.18,1.07,1.30,-41.72,9.91,-36.28,-3.15,-6.66,20.00,-0.19,2.07
-383,119,-66,119,-4191,1063,-40.74,0.56,0.56,1.19,-41.91,10.63,-36.46,-3.14,-6.66,20.00,-0.50,6.79
-274,103,-75,129,-4198,1098,-38.34,1.14,0.05,1.29,-41.98,10.98,-36.63,-3.14,-6.66,20.00,-0.33,7.00
58,2,-76,133,-4252,1088,-34.15,1.04,-0.42,1.33,-42.52,10.88,-36.78,-3.13,-6.66,20.00,1.75,6.59
171,-53,-61,142,-4272,1068,-29.69,0.61,-0.75,1.42,-42.72,10.68,-36.92,-3.13,-6.66,20.00,2.98,4.97
233,-97,-17,162,-4268,1007,-25.30,-0.04,-0.78,1.62,-42.68,10.07,-37.04,-3.14,-6.65,20.00,4.05,1.21
223,-89,-4,165,-4264,989,-21.41,-0.58,-0.73,1.65,-42.64,9.89,-37.14,-3.14,-6.65,20.00,4.04,0.17
161,-43,31,160,-4256,980,-18.29,-0.79,-0.46,1.60,-42.56,9.80,-37.23,-3.14,-6.66,20.00,3.16,-2.52
140,-24,36,156,-4259,949,-15.61,-0.85,-0.20,1.56,-42.59,9.49,-37.31,-3.15,-6.66,20.00,2.80,-2.66
108,6,36,137,-4216,1008,-13.39,-0.73,0.04,1.37,-42.16,10.08,-37.38,-3.15,-6.66,20.00,2.16,-2.41
104,12,34,140,-4205,1023,-11.41,-0.59,0.24,1.40,-42.05,10.23,-37.44,-3.15,-6.66,20.00,1.99,-2.02
98,17,19,137,-4188,1113,-9.67,-0.42,0.34,1.37,-41.88,11.13,-37.49,-3.15,-6.67,20.00,1.85,-0.65
94,14,16,153,-4173,1156,-8.13,-0.30,0.40,1.53,-41.73,11.56,-37.54,-3.15,-6.67,20.00,1.87,-0.33
32,-32,14,161,-4167,1179,-7.12,-0.46,0.45,1.61,-41.67,11.79,-37.59,-3.15,-6.67,20.00,2.86,-0.11
-14,-83,17,168,-4155,1140,-6.50,-0.92,0.50,1.68,-41.55,11.40,-37.63,-3.15,-6.68,20.00,4.02,-0.30
-79,-167,17,142,-4254,1057,-6.33,-1.85,0.56,1.42,-42.54,10.57,-37.67,-3.16,-6.69,20.00,5.98,-0.25
-83,-177,15,127,-4263,998,-6.20,-2.74,0.59,1.27,-42.63,9.98,-37.71,-3.16,-6.69,20.00,6.43,-0.04
-61,-149,3,150,-4263,876,-5.95,-3.38,0.55,1.50,-42.63,8.76,-37.75,-3.17,-6.71,20.00,6.04,0.93
-57,-127,0,141,-4247,850,-5.71,-3.81,0.50,1.41,-42.47,8.50,-37.79,-3.18,-6.72,20.00,5.72,1.13
-48,-18,1,146,-4221,867,-5.43,-3.54,0.45,1.46,-42.21,8.67,-37.83,-3.19,-6.73,20.00,3.44,1.00
-53,13,-2,160,-4222,893,-5.21,-3.11,0.40,1.60,-42.22,8.93,-37.87,-3.20,-6.74,20.00,2.70,1.20
-109,58,-19,148,-4214,880,-5.35,-2.44,0.24,1.48,-42.14,8.80,-37.91,-3.21,-6.75,20.00,1.60,2.47
-135,50,-23,146,-4207,898,-5.64,-1.90,0.08,1.46,-42.07,8.98,-37.95,-3.21,-6.75,20.00,1.62,2.64
-247,14,-30,160,-4221,919,-6.58,-1.62,-0.11,1.60,-42.21,9.19,-37.99,-3.22,-6.76,20.00,2.28,3.03
-292,11,-37,148,-4257,930,-7.71,-1.39,-0.33,1.48,-42.57,9.30,-38.03,-3.22,-6.76,20.00,2.28,3.40
-353,42,-43,159,-4304,916,-9.09,-1.00,-0.56,1.59,-43.04,9.16,-38.09,-3.23,-6.76,20.00,1.55,3.66
-366,50,-43,150,-4316,930,-10.41,-0.59,-0.76,1.50,-43.16,9.30,-38.15,-3.23,-6.76,20.00,1.28,3.44
-418,63,-36,147,-4329,896,-11.92,-0.15,-0.91,1.47,-43.29,8.96,-38.21,-3.23,-6.76,20.00,0.89,2.70
-423,65,-31,138,-4326,893,-13.31,0.26,-1.01,1.38,-43.26,8.93,-38.28,-3.23,-6.76,20.00,0.74,2.17
-399,70,-6,168,-4293,920,-14.41,0.66,-0.94,1.68,-42.93,9.20,-38.35,-3.23,-6.75,20.00,0.53,0.12
-373,72,-2,167,-4289,901,-15.25,1.04,-0.86,1.67,-42.89,9.01,-38.43,-3.23,-6.75,20.00,0.39,-0.13
-212,56,6,156,-4296,886,-15.02,1.27,-0.74,1.56,-42.96,8.86,-38.50,-3.23,-6.74,20.00,0.65,-0.68
-152,49,6,158,-4299,882,-14.44,1.45,-0.63,1.58,-42.99,8.82,-38.58,-3.23,-6.74,20.00,0.74,-0.57
67,32,-3,145,-4290,892,-12.59,1.50,-0.58,1.45,-42.90,8.92,-38.64,-3.22,-6.73,20.00,1.07,0.24
153,31,-3,154,-4268,911,-10.40,1.54,-0.54,1.54,-42.68,9.11,-38.70,-3.22,-6.73,20.00,1.08,0.29
262,32,-7,144,-4255,967,-7.76,1.58,-0.53,1.44,-42.55,9.67,-38.75,-3.22,-6.73,20.00,1.04,0.64
278,28,-10,147,-4253,979,-5.29,1.59,-0.54,1.47,-42.53,9.79,-38.79,-3.21,-6.72,20.00,1.12,0.88
293,-8,-29,131,-4285,956,-2.97,1.38,-0.66,1.31,-42.85,9.56,-38.81,-3.21,-6.72,20.00,1.90,2.36
293,-23,-31,114,-4289,939,-0.89,1.10,-0.78,1.14,-42.89,9.39,-38.83,-3.21,-6.71,19.91,2.28,2.40
278,-53,-26,125,-4306,901,0.90,0.67,-0.87,1.25,-43.06,9.01,-38.84,-3.21,-6.71,19.74,3.01,1.89
271,-49,-23,122,-4300,882,2.46,0.30,-0.92,1.22,-43.00,8.82,-38.85,-3.21,-6.71,19.46,3.03,1.58
226,-3,-5,119,-4263,907,3.59,0.26,-0.86,1.19,-42.63,9.07,-38.85,-3.21,-6.70,20.00,2.11,0.12
207,14,-3,115,-4253,909,4.50,0.32,-0.79,1.15,-42.53,9.09,-38.85,-3.21,-6.70,20.00,1.75,0.02
104,59,-6,116,-4122,1011,4.68,0.64,-0.75,1.16,-41.22,10.11,-38.85,-3.21,-6.70,20.00,0.74,0.32
21,61,-10,123,-4106,1008,4.34,0.95,-0.73,1.23,-41.06,10.08,-38.85,-3.21,-6.69,20.00,0.62,0.67
-151,17,-42,124,-4166,1044,2.99,0.96,-0.92,1.24,-41.66,10.44,-38.85,-3.21,-6.69,20.00,1.51,3.19
-186,6,-55,130,-4193,1044,1.55,0.90,-1.16,1.30,-41.93,10.44,-38.86,-3.21,-6.68,20.00,1.75,4.03
-238,2,-91,127,-4231,1003,-0.05,0.82,-1.60,1.27,-42.31,10.03,-38.88,-3.21,-6.68,20.00,1.85,6.62
-234,16,-94,135,-4225,1004,-1.48,0.84,-2.01,1.35,-42.25,10.04,-38.90,-3.21,-6.67,20.00,1.56,6.43
-223,56,-87,127,-4223,865,-2.69,1.10,-2.34,1.27,-42.23,8.65,-38.92,-3.21,-6.66,20.00,0.68,5.49
-212,68,-82,122,-4228,894,-3.71,1.40,-2.61,1.22,-42.28,8.94,-38.95,-3.21,-6.65,20.00,0.36,4.78
-165,83,-71,116,-4280,928,-4.35,1.77,-2.78,1.16,-42.80,9.28,-38.99,-3.22,-6.64,20.00,-0.05,3.67
-140,86,-73,107,-4286,938,-4.77,2.12,-2.95,1.07,-42.86,9.38,-39.02,-3.22,-6.63,20.00,-0.20,3.66
-39,58,-87,89,-4308,961,-4.53,2.26,-3.18,0.89,-43.08,9.61,-39.05,-3.22,-6.61,20.00,0.33,4.59
19,35,-93,97,-4280,933,-3.96,2.25,-3.43,0.97,-42.80,9.33,-39.08,-3.22,-6.59,20.00,0.80,4.84
109,-3,-75,74,-4260,920,-2.90,2.00,-3.55,0.74,-42.60,9.20,-39.11,-3.22,-6.58,20.00,1.64,3.19
132,-1,-70,76,-4285,922,-1.80,1.80,-3.62,0.76,-42.85,9.22,-39.13,-3.22,-6.56,20.00,1.66,2.69
161,21,-69,50,-4332,900,-0.64,1.74,-3.68,0.50,-43.32,9.00,-39.15,-3.22,-6.55,20.00,1.23,2.54
165,26,-69,44,-4334,890,0.43,1.73,-3.73,0.44,-43.34,8.90,-39.16,-3.23,-6.53,20.00,1.13,2.48
166,24,-69,63,-4359,893,1.40,1.70,-3.78,0.63,-43.59,8.93,-39.17,-3.23,-6.52,20.00,1.18,2.43
163,26,-68,70,-4365,927,2.25,1.69,-3.82,0.70,-43.65,9.27,-39.18,-3.24,-6.50,20.00,1.15,2.31
82,40,-48,113,-4342,962,2.53,1.77,-3.73,1.13,-43.42,9.62,-39.19,-3.24,-6.49,20.00,0.84,0.70
42,35,-42,113,-4323,953,2.53,1.80,-3.61,1.13,-43.23,9.53,-39.19,-3.24,-6.47,20.00,0.94,0.32
-148,-7,-8,92,-4281,930,1.38,1.58,-3.30,0.92,-42.81,9.30,-39.20,-3.24,-6.46,20.00,1.85,-2.23
-241,-16,0,89,-4303,923,-0.23,1.32,-2.97,0.89,-43.03,9.23,-39.22,-3.25,-6.45,20.00,2.11,-2.56
-352,-9,-14,68,-4311,867,-2.36,1.14,-2.76,0.68,-43.11,8.67,-39.24,-3.25,-6.44,20.00,2.02,-1.15
-359,-2,-20,70,-4310,868,-4.31,1.01,-2.60,0.70,-43.10,8.68,-39.27,-3.25,-6.43,20.00,1.91,-0.48
-327,29,-34,77,-4301,865,-5.87,1.09,-2.55,0.77,-43.01,8.65,-39.31,-3.26,-6.42,20.00,1.26,0.76
-316,35,-36,78,-4310,845,-7.21,1.19,-2.51,0.78,-43.10,8.45,-39.36,-3.26,-6.41,20.00,1.11,0.96
-303,42,-36,74,-4316,836,-8.34,1.33,-2.48,0.74,-43.16,8.36,-39.41,-3.26,-6.40,20.00,0.93,1.00
-310,48,-34,77,-4323,842,-9.40,1.49,-2.44,0.77,-43.23,8.42,-39.46,-3.26,-6.39,20.00,0.77,0.87
-318,65,-24,65,-4345,837,-10.40,1.74,-2.34,0.65,-43.45,8.37,-39.52,-3.26,-6.38,20.00,0.36,0.12
-306,66,-19,52,-4347,838,-11.22,1.97,-2.23,0.52,-43.47,8.38,-39.58,-3.26,-6.37,20.00,0.27,-0.17
-182,64,-2,35,-4353,829,-11.21,2.16,-2.02,0.35,-43.53,8.29,-39.64,-3.26,-6.36,20.00,0.26,-1.39
-81,59,9,50,-4329,862,-10.59,2.30,-1.76,0.50,-43.29,8.62,-39.69,-3.25,-6.35,20.00,0.32,-2.05
87,50,44,82,-4218,867,-9.00,2.38,-1.31,0.82,-42.18,8.67,-39.75,-3.25,-6.34,20.00,0.48,-4.55
106,44,55,80,-4189,868,-7.45,2.41,-0.85,0.80,-41.89,8.68,-39.79,-3.24,-6.33,20.00,0.59,-4.99
68,17,57,57,-4172,800,-6.29,2.27,-0.42,0.57,-41.72,8.00,-39.83,-3.24,-6.32,20.00,1.17,-4.70
37,12,45,52,-4178,799,-5.44,2.12,-0.10,0.52,-41.78,7.99,-39.87,-3.23,-6.32,20.00,1.31,-3.35
-93,20,-23,49,-4212,758,-5.46,2.03,-0.23,0.49,-42.12,7.58,-39.91,-3.22,-6.31,20.00,1.17,2.27
-121,28,-40,59,-4223,780,-5.65,2.00,-0.45,0.59,-42.23,7.80,-39.95,-3.22,-6.31,20.00,1.01,3.48
-187,68,-73,62,-4270,830,-6.23,2.21,-0.85,0.62,-42.70,8.30,-39.99,-3.21,-6.30,20.00,0.13,5.85
-194,80,-73,57,-4282,860,-6.79,2.48,-1.21,0.57,-42.82,8.60,-40.03,-3.21,-6.29,20.00,-0.19,5.47
-193,88,-58,57,-4350,903,-7.29,2.77,-1.44,0.57,-43.50,9.03,-40.07,-3.20,-6.28,20.00,-0.43,3.95
-168,68,-46,42,-4360,902,-7.58,2.90,-1.58,0.42,-43.60,9.02,-40.12,-3.19,-6.27,20.00,-0.07,2.79
-72,24,-18,52,-4322,862,-7.26,2.76,-1.53,0.52,-43.22,8.62,-40.16,-3.19,-6.26,20.00,0.86,0.47
-30,10,-9,48,-4322,839,-6.72,2.55,-1.43,0.48,-43.22,8.39,-40.21,-3.18,-6.25,20.00,1.20,-0.19
158,-12,9,48,-4344,856,-5.08,2.22,-1.24,0.48,-43.44,8.56,-40.24,-3.18,-6.24,20.00,1.74,-1.51
215,-19,9,38,-4335,838,-3.26,1.88,-1.06,0.38,-43.35,8.38,-40.27,-3.18,-6.23,20.00,1.97,-1.32
407,-35,5,26,-4302,838,-0.46,1.48,-0.92,0.26,-43.02,8.38,-40.29,-3.17,-6.23,18.44,2.40,-0.84
444,-35,1,31,-4285,853,2.30,1.12,-0.82,0.31,-42.85,8.53,-40.29,-3.17,-6.22,16.94,2.50,-0.40
510,-26,-15,39,-4288,816,5.18,0.85,-0.83,0.39,-42.88,8.16,-40.29,-3.17,-6.22,14.81,2.39,0.95
509,-24,-23,53,-4289,830,7.77,0.62,-0.89,0.53,-42.89,8.30,-40.27,-3.17,-6.21,14.11,2.41,1.57
455,5,-48,54,-4306,881,9.77,0.58,-1.09,0.54,-43.06,8.81,-40.25,-3.17,-6.21,14.65,1.83,3.47
414,29,-62,68,-4345,910,11.31,0.70,-1.36,0.68,-43.45,9.10,-40.22,-3.17,-6.21,15.04,1.31,4.37
328,43,-73,79,-4366,968,12.18,0.90,-1.67,0.79,-43.66,9.68,-40.19,-3.17,-6.20,16.53,0.97,4.97
308,40,-63,86,-4345,988,12.84,1.05,-1.89,0.86,-43.45,9.88,-40.15,-3.17,-6.19,16.74,0.99,3.90
245,16,-4,99,-4317,1068,13.05,1.04,-1.72,0.99,-43.17,10.68,-40.12,-3.17,-6.18,17.93,1.48,-0.93
230,5,13,88,-4307,1060,13.15,0.97,-1.47,0.88,-43.07,10.60,-40.08,-3.17,-6.18,18.19,1.73,-2.10
187,-60,61,64,-4308,1039,12.98,0.51,-0.95,0.64,-43.08,10.39,-40.04,-3.17,-6.17,19.09,3.18,-5.62
178,-73,66,52,-4299,1026,12.77,0.01,-0.45,0.52,-42.99,10.26,-40.01,-3.17,-6.17,19.30,3.58,-5.52
155,-85,61,46,-4262,958,12.43,-0.51,-0.04,0.46,-42.62,9.58,-39.97,-3.17,-6.18,19.84,3.96,-4.65
153,-78,53,47,-4252,953,12.12,-0.93,0.29,0.47,-42.52,9.53,-39.94,-3.17,-6.18,19.94,3.94,-3.63
170,-31,16,38,-4280,977,11.95,-1.03,0.36,0.38,-42.80,9.77,-39.91,-3.18,-6.18,19.63,3.01,-0.42
187,-17,0,27,-4301,950,11.89,-1.03,0.32,0.27,-43.01,9.50,-39.88,-3.18,-6.19,19.27,2.72,0.90
249,-37,-11,25,-4268,897,12.22,-1.15,0.22,0.25,-42.68,8.97,-39.85,-3.18,-6.19,17.90,3.17,1.73
266,-44,-5,34,-4243,890,12.62,-1.31,0.17,0.34,-42.43,8.90,-39.81,-3.18,-6.20,17.42,3.35,1.16
325,-18,24,56,-4163,898,13.34,-1.29,0.30,0.56,-41.63,8.98,-39.77,-3.18,-6.20,16.00,2.82,-1.16
331,9,28,70,-4138,918,14.03,-1.10,0.44,0.70,-41.38,9.18,-39.73,-3.19,-6.21,15.67,2.22,-1.35
295,114,14,46,-4056,924,14.43,-0.30,0.48,0.46,-40.56,9.24,-39.69,-3.19,-6.21,16.27,-0.14,-0.12
264,138,3,50,-4034,986,14.59,0.57,0.45,0.50,-40.34,9.86,-39.65,-3.18,-6.21,16.82,-0.86,0.78
101,208,-60,89,-4076,1170,13.75,1.79,0.04,0.89,-40.76,11.70,-39.61,-3.17,-6.21,20.00,-2.62,5.69
49,212,-84,86,-4114,1195,12.67,2.90,-0.48,0.86,-41.14,11.95,-39.58,-3.17,-6.20,20.00,-3.01,7.17
-106,126,-141,76,-4242,1240,10.76,3.38,-1.29,0.76,-42.42,12.40,-39.55,-3.16,-6.19,20.00,-1.40,11.14
-141,58,-138,69,-4297,1239,8.82,3.40,-2.00,0.69,-42.97,12.39,-39.53,-3.15,-6.18,20.00,-0.02,10.13
-88,-50,-69,61,-4419,1187,7.40,2.75,-2.22,0.61,-44.19,11.87,-39.51,-3.15,-6.16,20.00,2.34,4.05
-49,-59,-43,56,-4415,1181,6.37,2.12,-2.26,0.56,-44.15,11.81,-39.50,-3.15,-6.15,20.00,2.70,1.80
116,-49,52,33,-4404,1142,6.44,1.61,-1.72,0.33,-44.04,11.42,-39.49,-3.15,-6.14,20.00,2.63,-5.67
164,-44,72,28,-4368,1143,6.79,1.18,-1.11,0.28,-43.68,11.43,-39.48,-3.14,-6.14,20.00,2.65,-6.72
306,-46,114,24,-4259,1158,7.98,0.78,-0.30,0.24,-42.59,11.58,-39.47,-3.14,-6.13,17.65,2.80,-9.43
335,-55,111,26,-4237,1150,9.23,0.36,0.41,0.26,-42.37,11.50,-39.44,-3.14,-6.14,16.71,3.09,-8.42
416,-96,80,4,-4163,1139,10.84,-0.26,0.85,0.04,-41.63,11.39,-39.42,-3.13,-6.14,14.60,4.09,-5.32
432,-104,68,3,-4172,1134,12.39,-0.87,1.18,0.03,-41.72,11.34,-39.38,-3.13,-6.15,13.83,4.42,-3.96
471,-113,28,25,-4184,1058,14.03,-1.47,1.24,0.25,-41.84,10.58,-39.34,-3.13,-6.16,12.57,4.77,-0.51
466,-105,19,33,-4184,1058,15.47,-1.96,1.23,0.33,-41.84,10.58,-39.30,-3.14,-6.17,12.24,4.74,0.25
406,-39,16,42,-4230,1092,16.40,-2.00,1.20,0.42,-42.30,10.92,-39.25,-3.14,-6.17,13.18,3.41,0.47
377,-21,19,45,-4223,1104,17.06,-1.93,1.20,0.45,-42.23,11.04,-39.20,-3.14,-6.18,13.55,3.03,0.22
271,29,50,68,-4191,1192,17.00,-1.56,1.38,0.68,-41.91,11.92,-39.15,-3.14,-6.19,15.69,1.91,-2.21
241,36,59,62,-4192,1226,16.77,-1.19,1.60,0.62,-41.92,12.26,-39.10,-3.14,-6.20,16.33,1.66,-2.74
174,23,73,43,-4166,1256,16.16,-0.93,1.89,0.43,-41.66,12.56,-39.05,-3.14,-6.21,17.83,1.86,-3.62
168,7,77,45,-4142,1263,15.57,-0.79,2.17,0.45,-41.42,12.63,-39.00,-3.13,-6.22,18.08,2.14,-3.67
196,-45,75,72,-4114,1284,15.21,-0.99,2.41,0.72,-41.14,12.84,-38.96,-3.13,-6.23,17.58,3.25,-3.24
214,-50,69,83,-4117,1297,14.99,-1.19,2.59,0.83,-41.17,12.97,-38.91,-3.12,-6.24,17.24,3.40,-2.54
302,-48,39,83,-4128,1322,15.33,-1.37,2.57,0.83,-41.28,13.22,-38.87,-3.12,-6.26,15.33,3.41,-0.02
337,-48,20,91,-4153,1371,15.86,-1.52,2.43,0.91,-41.53,13.71,-38.82,-3.12,-6.27,14.45,3.45,1.45
354,-94,-5,99,-4157,1322,16.43,-1.94,2.16,0.99,-41.57,13.22,-38.77,-3.12,-6.28,13.91,4.50,3.28
342,-119,-3,93,-4168,1302,16.87,-2.48,1.93,0.93,-41.68,13.02,-38.72,-3.12,-6.29,14.00,5.16,2.86
281,-187,21,74,-4242,1207,16.90,-3.37,1.86,0.74,-42.42,12.07,-38.67,-3.13,-6.31,15.20,6.78,0.76
260,-191,33,76,-4248,1168,16.80,-4.20,1.88,0.76,-42.48,11.68,-38.62,-3.13,-6.33,15.62,7.10,-0.24
192,-125,88,70,-4220,1042,16.29,-4.54,2.23,0.70,-42.20,10.42,-38.57,-3.14,-6.35,17.11,5.85,-4.53
173,-90,102,78,-4206,1043,15.71,-4.63,2.63,0.78,-42.06,10.43,-38.53,-3.15,-6.37,17.63,5.17,-5.29
114,72,138,73,-4116,1079,14.84,-3.73,3.20,0.73,-41.16,10.79,-38.49,-3.15,-6.39,19.04,1.63,-7.72
104,105,143,74,-4101,1085,13.99,-2.72,3.76,0.74,-41.01,10.85,-38.45,-3.15,-6.41,19.45,0.69,-7.56
89,170,153,61,-4022,1164,13.13,-1.41,4.31,0.61,-40.22,11.64,-38.41,-3.14,-6.42,19.96,-1.00,-7.82
81,189,144,74,-4012,1217,12.31,-0.12,4.76,0.74,-40.12,12.17,-38.38,-3.13,-6.44,20.00,-1.74,-6.58
38,242,65,140,-3971,1472,11.31,1.37,4.68,1.40,-39.71,14.72,-38.35,-3.12,-6.45,20.00,-3.24,0.03
21,246,33,142,-3961,1507,10.31,2.74,4.41,1.42,-39.61,15.07,-38.33,-3.10,-6.46,20.00,-3.70,2.46
-7,173,-65,116,-3981,1577,9.24,3.52,3.58,1.16,-39.81,15.77,-38.31,-3.08,-6.46,20.00,-2.45,9.88
-1,136,-88,131,-4020,1592,8.31,4.00,2.68,1.31,-40.20,15.92,-38.29,-3.06,-6.46,20.00,-1.84,10.88
80,21,-139,149,-4162,1562,7.96,3.72,1.57,1.49,-41.62,15.62,-38.27,-3.04,-6.46,20.00,0.56,14.02
114,-3,-135,154,-4175,1548,7.86,3.33,0.59,1.54,-41.75,15.48,-38.26,-3.03,-6.45,20.00,1.15,12.64
228,-36,-61,160,-4236,1464,8.47,2.78,0.16,1.60,-42.36,14.64,-38.24,-3.02,-6.45,18.29,1.97,5.91
254,-33,-30,149,-4246,1465,9.17,2.30,-0.04,1.49,-42.46,14.65,-38.22,-3.01,-6.44,17.56,2.03,3.08
318,0,69,144,-4218,1485,10.19,2.07,0.38,1.44,-42.18,14.85,-38.19,-3.00,-6.44,15.96,1.42,-4.86
348,6,93,126,-4187,1501,11.30,1.90,0.91,1.26,-41.87,15.01,-38.16,-2.99,-6.44,15.03,1.34,-6.33
426,-17,91,95,-4083,1527,12.77,1.61,1.38,0.95,-40.83,15.27,-38.13,-2.98,-6.44,13.02,1.88,-5.67
451,-24,82,104,-4065,1537,14.24,1.30,1.74,1.04,-40.65,15.37,-38.09,-2.98,-6.44,12.08,2.10,-4.53
544,-42,37,134,-4008,1590,16.13,0.91,1.79,1.34,-40.08,15.90,-38.04,-2.97,-6.45,9.64,2.56,-0.66
565,-50,28,121,-4006,1588,17.97,0.52,1.78,1.21,-40.06,15.88,-37.98,-2.96,-6.45,8.68,2.83,0.10
602,-93,8,123,-4009,1572,19.84,-0.10,1.65,1.23,-40.09,15.72,-37.92,-2.96,-6.46,7.38,3.87,1.65
602,-103,5,122,-4026,1579,21.53,-0.72,1.52,1.22,-40.26,15.79,-37.85,-2.96,-6.47,6.87,4.24,1.77
571,-121,-7,116,-4075,1550,22.86,-1.39,1.32,1.16,-40.75,15.50,-37.78,-2.96,-6.48,7.09,4.79,2.58
557,-121,-9,108,-4080,1553,23.97,-1.99,1.14,1.08,-40.80,15.53,-37.70,-2.96,-6.48,7.02,4.95,2.55
478,-105,-2,106,-4090,1527,24.49,-2.43,1.01,1.06,-40.90,15.27,-37.61,-2.96,-6.49,8.43,4.75,1.82
443,-98,12,103,-4083,1508,24.74,-2.78,0.98,1.03,-40.83,15.08,-37.53,-2.97,-6.51,9.02,4.71,0.61
406,-81,68,131,-4004,1513,24.75,-3.00,1.30,1.31,-40.04,15.13,-37.45,-2.98,-6.52,9.71,4.43,-3.80
411,-73,83,120,-4002,1530,24.78,-3.14,1.68,1.20,-40.02,15.30,-37.37,-2.98,-6.53,9.55,4.31,-4.67
477,-60,102,111,-3946,1527,25.21,-3.20,2.13,1.11,-39.46,15.27,-37.28,-2.99,-6.55,8.03,4.06,-5.80
504,-62,101,98,-3920,1521,25.76,-3.25,2.53,0.98,-39.20,15.21,-37.20,-2.99,-6.56,7.28,4.12,-5.28
595,-57,74,96,-3913,1573,26.82,-3.28,2.73,0.96,-39.13,15.73,-37.11,-2.99,-6.58,5.08,4.03,-2.79
613,-46,59,111,-3899,1601,27.87,-3.23,2.82,1.11,-38.99,16.01,-37.01,-2.99,-6.60,4.36,3.79,-1.42
632,-5,14,133,-3837,1622,28.94,-2.94,2.62,1.33,-38.37,16.22,-36.91,-3.00,-6.61,3.62,2.88,2.19
629,0,5,137,-3844,1626,29.89,-2.64,2.39,1.37,-38.44,16.26,-36.81,-3.00,-6.63,3.36,2.70,2.70
598,5,-22,140,-3870,1699,30.54,-2.35,2.02,1.40,-38.70,16.99,-36.71,-3.00,-6.64,3.74,2.52,4.60
580,8,-25,138,-3901,1742,31.03,-2.06,1.66,1.38,-39.01,17.42,-36.60,-3.00,-6.65,3.90,2.38,4.48
543,23,-28,158,-3937,1865,31.24,-1.72,1.33,1.58,-39.37,18.65,-36.49,-3.01,-6.66,4.52,1.98,4.38
529,23,-25,164,-3928,1877,31.34,-1.41,1.04,1.64,-39.28,18.77,-36.38,-3.01,-6.67,4.71,1.90,3.82
461,-12,-2,175,-3879,1914,31.02,-1.34,0.92,1.75,-38.79,19.14,-36.27,-3.01,-6.68,6.11,2.60,1.75
439,-28,6,174,-3874,1928,30.59,-1.38,0.87,1.74,-38.74,19.28,-36.17,-3.01,-6.68,6.60,2.93,1.01
372,-78,14,152,-3814,1934,29.80,-1.71,0.87,1.52,-38.14,19.34,-36.06,-3.02,-6.69,8.11,4.04,0.33
356,-88,13,145,-3806,1922,29.00,-2.08,0.86,1.45,-38.06,19.22,-35.97,-3.02,-6.70,8.59,4.35,0.41
317,-81,5,169,-3765,1907,28.03,-2.37,0.80,1.69,-37.65,19.07,-35.87,-3.03,-6.71,9.59,4.29,1.03
315,-72,4,174,-3763,1911,27.15,-2.57,0.75,1.74,-37.63,19.11,-35.78,-3.03,-6.72,9.81,4.16,1.06
355,-24,4,178,-3751,1929,26.60,-2.46,0.70,1.78,-37.51,19.29,-35.69,-3.04,-6.73,9.08,3.16,1.01
393,-11,7,161,-3767,1947,26.34,-2.28,0.67,1.61,-37.67,19.47,-35.60,-3.04,-6.74,8.32,2.85,0.72
487,-11,-7,144,-3807,2008,26.67,-2.12,0.56,1.44,-38.07,20.08,-35.51,-3.05,-6.74,6.26,2.81,1.79
516,-19,-13,145,-3805,2007,27.15,-2.02,0.43,1.45,-38.05,20.07,-35.42,-3.05,-6.75,5.48,2.95,2.16
612,-49,-23,165,-3787,2067,28.17,-2.12,0.24,1.65,-37.87,20.67,-35.32,-3.06,-6.76,3.19,3.59,2.81
633,-53,-20,169,-3775,2079,29.22,-2.23,0.10,1.69,-37.75,20.79,-35.22,-3.07,-6.76,2.41,3.71,2.41
662,-77,6,171,-3732,2042,30.33,-2.48,0.12,1.71,-37.32,20.42,-35.12,-3.07,-6.77,1.45,4.27,0.23
655,-83,12,180,-3737,2056,31.29,-2.74,0.18,1.80,-37.37,20.56,-35.01,-3.08,-6.78,1.25,4.47,-0.21
611,-78,24,166,-3736,2085,31.89,-2.94,0.31,1.66,-37.36,20.85,-34.90,-3.09,-6.79,1.91,4.43,-1.09
600,-69,24,166,-3722,2101,32.36,-3.06,0.43,1.66,-37.22,21.01,-34.78,-3.10,-6.80,1.93,4.28,-0.97
591,-28,20,181,-3674,2195,32.73,-2.93,0.51,1.81,-36.74,21.95,-34.67,-3.11,-6.81,1.94,3.42,-0.55
611,-14,15,176,-3667,2224,33.19,-2.72,0.55,1.76,-36.67,22.24,-34.55,-3.11,-6.81,1.33,3.08,-0.08
677,-37,-3,182,-3647,2300,34.00,-2.68,0.47,1.82,-36.47,23.00,-34.43,-3.12,-6.82,-0.31,3.54,1.37
694,-53,-1,183,-3645,2298,34.83,-2.73,0.42,1.83,-36.45,22.98,-34.31,-3.13,-6.83,-0.96,3.89,1.15
715,-127,24,177,-3686,2267,35.71,-3.23,0.53,1.77,-36.86,22.67,-34.18,-3.14,-6.84,-1.71,5.54,-0.86
704,-144,34,177,-3672,2258,36.43,-3.79,0.68,1.77,-36.72,22.58,-34.06,-3.15,-6.85,-1.77,6.04,-1.54
615,-160,70,210,-3602,2214,36.54,-4.38,1.04,2.10,-36.02,22.14,-33.93,-3.16,-6.87,-0.08,6.54,-4.21
589,-151,77,194,-3582,2209,36.48,-4.87,1.40,1.94,-35.82,22.09,-33.80,-3.17,-6.88,0.38,6.49,-4.42
527,-97,84,229,-3470,2183,36.05,-4.97,1.78,2.29,-34.70,21.83,-33.67,-3.19,-6.90,1.68,5.43,-4.61
520,-75,82,230,-3442,2187,35.61,-4.93,2.10,2.30,-34.42,21.87,-33.55,-3.20,-6.92,1.86,4.98,-4.10
553,-16,50,214,-3403,2226,35.43,-4.54,2.19,2.14,-34.03,22.26,-33.42,-3.21,-6.94,1.15,3.68,-1.29
598,-2,24,224,-3398,2245,35.53,-4.10,2.12,2.24,-33.98,22.45,-33.30,-3.22,-6.96,0.13,3.28,0.84
727,-2,-25,201,-3411,2279,36.41,-3.70,1.76,2.01,-34.11,22.79,-33.17,-3.23,-6.97,-2.82,3.18,4.61
767,-7,-35,195,-3431,2290,37.45,-3.37,1.37,1.95,-34.31,22.90,-33.04,-3.24,-6.98,-4.00,3.20,5.04
872,-20,-44,191,-3456,2302,39.02,-3.16,0.96,1.91,-34.56,23.02,-32.90,-3.24,-6.99,-6.66,3.41,5.38
888,-21,-37,187,-3464,2295,40.54,-2.97,0.64,1.87,-34.64,22.95,-32.75,-3.25,-7.00,-7.49,3.38,4.44
873,-3,-7,156,-3539,2309,41.81,-2.69,0.53,1.56,-35.39,23.09,-32.60,-3.26,-7.01,-7.63,2.95,1.79
848,14,1,157,-3541,2323,42.80,-2.34,0.49,1.57,-35.41,23.23,-32.45,-3.27,-7.02,-7.50,2.51,1.06
702,107,42,177,-3449,2366,42.80,-1.45,0.69,1.77,-34.49,23.66,-32.29,-3.27,-7.03,-4.63,0.38,-2.19
655,139,53,193,-3422,2406,42.52,-0.46,0.95,1.93,-34.22,24.06,-32.14,-3.27,-7.03,-3.70,-0.55,-2.85
526,251,59,216,-3293,2630,41.48,1.12,1.21,2.16,-32.93,26.30,-31.99,-3.26,-7.03,-0.89,-3.26,-3.08
498,300,46,262,-3212,2760,40.37,2.84,1.37,2.62,-32.12,27.60,-31.84,-3.25,-7.03,-0.12,-4.73,-1.81
498,364,-3,270,-3136,2855,39.37,4.77,1.22,2.70,-31.36,28.55,-31.70,-3.23,-7.03,0.06,-6.57,2.18
506,365,-22,274,-3119,2867,38.52,6.52,0.96,2.74,-31.19,28.67,-31.56,-3.21,-7.02,0.04,-7.08,3.51
556,306,-76,234,-3113,2889,38.06,7.74,0.40,2.34,-31.13,28.89,-31.43,-3.18,-7.01,-0.94,-6.23,7.49
577,271,-89,209,-3136,2884,37.77,8.62,-0.18,2.09,-31.36,28.84,-31.29,-3.15,-6.99,-1.38,-5.78,7.98
659,85,-137,146,-3197,2832,38.01,8.27,-1.00,1.46,-31.97,28.32,-31.15,-3.12,-6.97,-3.20,-1.92,11.18
679,33,-143,144,-3198,2847,38.35,7.65,-1.77,1.44,-31.98,28.47,-31.02,-3.10,-6.95,-3.79,-0.71,10.86
724,-83,-129,97,-3260,2838,38.94,6.38,-2.38,0.97,-32.60,28.38,-30.88,-3.08,-6.93,-4.96,1.98,9.03
733,-93,-117,108,-3268,2833,39.51,5.17,-2.86,1.08,-32.68,28.33,-30.73,-3.07,-6.91,-5.39,2.51,7.51
763,-74,-58,87,-3297,2829,40.22,4.20,-2.93,0.87,-32.97,28.29,-30.59,-3.06,-6.89,-6.29,2.38,2.44
783,-67,-29,61,-3306,2805,40.97,3.37,-2.81,0.61,-33.06,28.05,-30.44,-3.05,-6.87,-7.00,2.46,0.10
800,-64,5,83,-3218,2857,41.75,2.65,-2.50,0.83,-32.18,28.57,-30.29,-3.04,-6.86,-7.66,2.59,-2.45
798,-64,10,77,-3201,2861,42.45,1.99,-2.19,0.77,-32.01,28.61,-30.13,-3.04,-6.85,-7.91,2.77,-2.55
769,-74,13,134,-3100,2862,42.89,1.34,-1.89,1.34,-31.00,28.62,-29.98,-3.04,-6.84,-7.55,3.14,-2.49
757,-72,16,160,-3052,2877,43.22,0.77,-1.60,1.60,-30.52,28.77,-29.82,-3.04,-6.84,-7.49,3.26,-2.44
722,-58,36,170,-3009,2919,43.30,0.34,-1.22,1.70,-30.09,29.19,-29.67,-3.04,-6.83,-6.91,3.09,-3.73
723,-56,43,160,-3006,2912,43.38,-0.04,-0.84,1.60,-30.06,29.12,-29.51,-3.04,-6.83,-7.05,3.16,-3.92
756,-71,60,146,-3006,2902,43.66,-0.47,-0.39,1.46,-30.06,29.02,-29.35,-3.04,-6.83,-7.90,3.58,-4.88
774,-73,64,146,-3016,2909,44.01,-0.87,0.04,1.46,-30.16,29.09,-29.19,-3.04,-6.83,-8.47,3.73,-4.76
834,-57,76,150,-3026,2981,44.70,-1.13,0.50,1.50,-30.26,29.81,-29.03,-3.05,-6.84,-9.99,3.48,-5.29
843,-39,81,155,-3003,3025,45.37,-1.25,0.94,1.55,-30.03,30.25,-28.86,-3.05,-6.84,-10.46,3.15,-5.25
782,-46,100,157,-2917,3043,45.60,-1.41,1.46,1.57,-29.17,30.43,-28.70,-3.05,-6.85,-9.39,3.33,-6.31
752,-61,107,174,-2876,3044,45.63,-1.64,1.97,1.74,-28.76,30.44,-28.53,-3.05,-6.86,-8.90,3.70,-6.37
649,-117,137,182,-2787,3030,45.03,-2.19,2.61,1.82,-27.87,30.30,-28.37,-3.05,-6.88,-6.75,4.99,-8.23
634,-120,142,183,-2782,3034,44.39,-2.70,3.21,1.83,-27.82,30.34,-28.21,-3.05,-6.90,-6.38,5.19,-8.01
644,-86,139,181,-2757,3020,43.88,-2.96,3.74,1.81,-27.57,30.20,-28.05,-3.06,-6.91,-6.54,4.57,-7.20
661,-66,134,178,-2746,3033,43.52,-3.06,4.18,1.78,-27.46,30.33,-27.90,-3.06,-6.94,-6.90,4.20,-6.30
729,1,101,192,-2720,3099,43.62,-2.75,4.38,1.92,-27.20,30.99,-27.74,-3.06,-6.96,-8.41,2.75,-3.29
744,15,93,196,-2701,3124,43.80,-2.38,4.51,1.96,-27.01,31.24,-27.58,-3.06,-6.98,-8.86,2.37,-2.48
773,28,91,200,-2689,3192,44.13,-1.98,4.61,2.00,-26.89,31.92,-27.42,-3.06,-7.00,-9.65,1.99,-2.19
786,9,96,175,-2688,3196,44.51,-1.72,4.74,1.75,-26.88,31.96,-27.26,-3.06,-7.02,-10.12,2.30,-2.49
806,-35,109,174,-2661,3209,44.98,-1.76,4.93,1.74,-26.61,32.09,-27.10,-3.05,-7.04,-10.77,3.21,-3.38
808,-40,109,169,-2636,3236,45.41,-1.83,5.10,1.69,-26.36,32.36,-26.94,-3.05,-7.07,-11.03,3.32,-3.20
786,-22,98,204,-2574,3267,45.66,-1.78,5.19,2.04,-25.74,32.67,-26.77,-3.05,-7.09,-10.76,2.94,-2.17
773,-14,95,217,-2539,3269,45.81,-1.69,5.25,2.17,-25.39,32.69,-26.61,-3.04,-7.11,-10.65,2.75,-1.85
725,-7,94,228,-2475,3279,45.65,-1.56,5.30,2.28,-24.75,32.79,-26.44,-3.04,-7.13,-9.74,2.57,-1.71
713,-7,93,239,-2453,3307,45.44,-1.45,5.34,2.39,-24.53,33.07,-26.28,-3.03,-7.16,-9.54,2.54,-1.59
664,-13,100,267,-2380,3353,44.94,-1.38,5.41,2.67,-23.80,33.53,-26.12,-3.03,-7.18,-8.52,2.64,-2.10
648,-17,102,261,-2378,3363,44.40,-1.35,5.49,2.61,-23.78,33.63,-25.96,-3.03,-7.20,-8.15,2.71,-2.18
579,-47,90,232,-2339,3352,43.49,-1.50,5.49,2.32,-23.39,33.52,-25.80,-3.02,-7.22,-6.60,3.36,-1.16
553,-68,72,221,-2317,3323,42.52,-1.77,5.38,2.21,-23.17,33.23,-25.65,-3.02,-7.25,-5.91,3.86,0.25
557,-93,11,207,-2335,3288,41.66,-2.16,4.91,2.07,-23.35,32.88,-25.50,-3.02,-7.27,-5.85,4.47,4.92
573,-90,-7,209,-2335,3272,40.99,-2.49,4.38,2.09,-23.35,32.72,-25.36,-3.02,-7.29,-6.09,4.50,5.88
657,-43,-47,222,-2360,3238,40.90,-2.50,3.65,2.22,-23.60,32.38,-25.21,-3.03,-7.31,-7.87,3.55,8.51
684,-22,-51,233,-2352,3252,40.98,-2.39,2.98,2.33,-23.52,32.52,-25.06,-3.03,-7.33,-8.54,3.10,8.13
748,53,-41,254,-2339,3296,41.45,-1.83,2.43,2.54,-23.39,32.96,-24.92,-3.03,-7.34,-10.07,1.42,6.71
754,69,-36,256,-2344,3324,41.90,-1.22,1.97,2.56,-23.44,33.24,-24.77,-3.04,-7.35,-10.41,0.93,5.79
730,93,1,241,-2306,3362,42.17,-0.53,1.78,2.41,-23.06,33.62,-24.61,-3.03,-7.36,-10.09,0.26,2.46
714,87,18,233,-2279,3341,42.30,0.05,1.71,2.33,-22.79,33.41,-24.46,-3.03,-7.36,-9.91,0.22,0.95
651,63,63,255,-2179,3377,42.04,0.43,1.92,2.55,-21.79,33.77,-24.31,-3.03,-7.37,-8.66,0.60,-2.64
617,67,72,239,-2108,3363,41.60,0.80,2.17,2.39,-21.08,33.63,-24.16,-3.02,-7.38,-7.94,0.42,-3.14
574,100,55,232,-2023,3414,40.94,1.33,2.29,2.32,-20.23,34.14,-24.02,-3.02,-7.39,-6.98,-0.40,-1.57
566,112,40,237,-2006,3424,40.30,1.88,2.30,2.37,-20.06,34.24,-23.87,-3.01,-7.39,-6.74,-0.81,-0.29
548,155,-19,235,-1999,3489,39.62,2.64,1.96,2.35,-19.99,34.89,-23.73,-2.99,-7.40,-6.28,-1.89,4.35
542,161,-35,233,-2015,3511,38.96,3.35,1.55,2.33,-20.15,35.11,-23.59,-2.98,-7.40,-6.07,-2.22,5.27
526,148,-59,250,-2038,3547,38.27,3.92,1.03,2.50,-20.38,35.47,-23.46,-2.97,-7.40,-5.65,-2.12,6.76
522,135,-53,263,-2041,3561,37.63,4.35,0.61,2.63,-20.41,35.61,-23.32,-2.95,-7.39,-5.48,-1.98,5.80
534,82,9,252,-2063,3587,37.12,4.42,0.60,2.52,-20.63,35.87,-23.19,-2.94,-7.39,-5.67,-0.93,0.54
547,67,31,263,-2043,3584,36.75,4.38,0.73,2.63,-20.43,35.84,-23.06,-2.92,-7.38,-5.92,-0.63,-1.19
640,27,102,230,-2016,3575,36.98,4.11,1.28,2.30,-20.16,35.75,-22.93,-2.90,-7.38,-7.96,0.25,-6.62
708,18,117,211,-2025,3563,37.60,3.81,1.86,2.11,-20.25,35.63,-22.80,-2.89,-7.39,-9.60,0.50,-7.27
832,37,131,211,-1950,3600,38.91,3.65,2.48,2.11,-19.50,36.00,-22.66,-2.87,-7.39,-12.57,0.15,-7.81
856,46,135,213,-1935,3622,40.24,3.57,3.05,2.13,-19.35,36.22,-22.51,-2.85,-7.40,-13.52,-0.03,-7.54
874,53,150,216,-1859,3699,41.55,3.54,3.66,2.16,-18.59,36.99,-22.37,-2.83,-7.41,-14.34,-0.17,-8.16
860,48,156,224,-1822,3714,42.64,3.47,4.25,2.24,-18.22,37.14,-22.21,-2.82,-7.42,-14.45,-0.06,-8.05
763,5,163,206,-1773,3747,43.03,3.16,4.82,2.06,-17.73,37.47,-22.06,-2.80,-7.43,-12.69,0.88,-8.04
733,-9,159,199,-1774,3756,43.20,2.79,5.31,1.99,-17.74,37.56,-21.90,-2.78,-7.45,-12.23,1.26,-7.18
627,-61,136,206,-1763,3741,42.70,2.14,5.60,2.06,-17.63,37.41,-21.75,-2.76,-7.47,-10.04,2.48,-4.92
606,-67,132,209,-1766,3742,42.13,1.51,5.85,2.09,-17.66,37.42,-21.60,-2.75,-7.49,-9.55,2.76,-4.32
578,-50,138,201,-1769,3742,41.44,1.06,6.11,2.01,-17.69,37.42,-21.45,-2.74,-7.51,-8.89,2.53,-4.55
589,-28,151,205,-1759,3725,40.89,0.78,6.42,2.05,-17.59,37.25,-21.31,-2.72,-7.53,-9.06,2.15,-5.32
700,28,209,214,-1686,3642,41.07,0.87,7.05,2.14,-16.86,36.42,-21.16,-2.71,-7.56,-11.47,0.98,-9.56
753,45,222,195,-1662,3622,41.56,1.06,7.70,1.95,-16.62,36.22,-21.01,-2.70,-7.59,-12.77,0.58,-9.97
1016,142,243,197,-1490,3581,43.60,1.82,8.41,1.97,-14.90,35.81,-20.86,-2.68,-7.61,-18.78,-1.61,-11.00
1106,179,243,207,-1444,3580,45.99,2.73,9.05,2.07,-14.44,35.80,-20.69,-2.66,-7.65,-20.00,-2.63,-10.31
1292,261,211,249,-1381,3675,49.27,4.05,9.43,2.49,-13.81,36.75,-20.49,-2.65,-7.68,-20.00,-4.66,-7.20
1334,294,191,286,-1340,3641,52.48,5.44,9.66,2.86,-13.40,36.41,-20.28,-2.64,-7.70,-20.00,-5.72,-5.26
1374,297,144,236,-1250,3676,55.61,6.71,9.57,2.36,-12.50,36.76,-20.05,-2.61,-7.73,-20.00,-6.15,-1.37
1345,271,132,246,-1265,3712,58.26,7.69,9.42,2.46,-12.65,37.12,-19.80,-2.58,-7.75,-20.00,-5.91,-0.51
1135,167,93,228,-1207,3828,59.35,7.94,9.04,2.28,-12.07,38.28,-19.55,-2.54,-7.78,-20.00,-3.88,2.40
994,117,84,203,-1205,3848,59.48,7.86,8.65,2.03,-12.05,38.48,-19.29,-2.50,-7.80,-20.00,-2.87,2.75
682,34,77,178,-1170,3778,57.69,7.28,8.26,1.78,-11.70,37.78,-19.05,-2.46,-7.82,-17.03,-1.05,2.92
600,22,81,178,-1150,3777,55.58,6.69,7.92,1.78,-11.50,37.77,-18.81,-2.43,-7.84,-14.94,-0.67,2.23
377,16,81,178,-1094,3738,52.33,6.12,7.63,1.78,-10.94,37.38,-18.58,-2.40,-7.86,-9.67,-0.41,1.92
333,16,77,179,-1080,3743,49.12,5.60,7.33,1.79,-10.80,37.43,-18.37,-2.37,-7.88,-8.04,-0.29,1.95
258,21,57,223,-1050,3714,45.79,5.17,6.95,2.23,-10.50,37.14,-18.17,-2.35,-7.90,-5.74,-0.29,3.24
255,17,55,219,-1053,3719,42.76,4.76,6.59,2.19,-10.53,37.19,-17.98,-2.33,-7.92,-4.98,-0.11,3.03
290,11,62,214,-1045,3764,40.26,4.35,6.31,2.14,-10.45,37.64,-17.80,-2.31,-7.94,-5.12,0.11,2.14
300,12,64,202,-1040,3783,38.06,3.99,6.07,2.02,-10.40,37.83,-17.64,-2.29,-7.95,-4.84,0.18,1.72
323,16,60,170,-1042,3843,36.22,3.68,5.83,1.70,-10.42,38.43,-17.47,-2.27,-7.97,-4.91,0.17,1.80
314,-4,48,159,-1037,3801,34.52,3.29,5.54,1.59,-10.37,38.01,-17.32,-2.25,-7.99,-4.37,0.67,2.51
283,-43,29,167,-991,3818,32.79,2.70,5.16,1.67,-9.91,38.18,-17.17,-2.24,-8.00,-3.36,1.61,3.73
273,-41,23,171,-1001,3824,31.18,2.18,4.78,1.71,-10.01,38.24,-17.03,-2.22,-8.02,-2.81,1.71,3.84
265,-9,6,170,-988,3820,29.68,1.91,4.34,1.70,-9.88,38.20,-16.89,-2.21,-8.03,-2.33,1.12,4.81
269,-2,5,180,-975,3830,28.35,1.70,3.94,1.80,-9.75,38.30,-16.76,-2.21,-8.04,-2.14,1.03,4.47
309,9,1,173,-999,3858,27.40,1.59,3.55,1.73,-9.99,38.58,-16.64,-2.20,-8.05,-2.77,0.83,4.40
324,9,-3,172,-1002,3877,26.64,1.48,3.18,1.72,-10.02,38.77,-16.51,-2.19,-8.06,-2.95,0.86,4.34
383,3,-5,197,-1012,3887,26.31,1.35,2.83,1.97,-10.12,38.87,-16.39,-2.19,-8.07,-4.14,1.01,4.15
400,-2,-2,192,-1029,3876,26.12,1.21,2.53,1.92,-10.29,38.76,-16.27,-2.19,-8.08,-4.52,1.15,3.58
446,-10,22,201,-1015,3833,26.23,1.03,2.41,2.01,-10.15,38.33,-16.15,-2.19,-8.09,-5.56,1.37,1.42
460,0,46,180,-1034,3810,26.41,0.92,2.45,1.80,-10.34,38.10,-16.03,-2.19,-8.10,-5.98,1.19,-0.57
458,45,87,187,-1021,3775,26.56,1.11,2.74,1.87,-10.21,37.75,-15.91,-2.19,-8.11,-6.06,0.23,-3.74
445,68,109,196,-986,3777,26.62,1.41,3.13,1.96,-9.86,37.77,-15.79,-2.19,-8.12,-5.89,-0.32,-5.19
386,124,173,187,-898,3773,26.31,2.02,3.87,1.87,-8.98,37.73,-15.66,-2.18,-8.13,-4.69,-1.63,-9.82
369,133,184,188,-857,3787,25.93,2.63,4.61,1.88,-8.57,37.87,-15.54,-2.17,-8.14,-4.32,-1.99,-9.98
322,156,195,160,-785,3876,25.30,3.32,5.34,1.60,-7.85,38.76,-15.42,-2.15,-8.16,-3.27,-2.66,-10.14
312,159,192,161,-773,3908,24.68,3.96,5.97,1.61,-7.73,39.08,-15.31,-2.13,-8.18,-2.97,-2.91,-9.21
280,139,172,151,-698,3940,23.92,4.41,6.43,1.51,-6.98,39.40,-15.20,-2.11,-8.20,-2.19,-2.64,-7.03
273,126,167,155,-678,3953,23.19,4.74,6.80,1.55,-6.78,39.53,-15.09,-2.08,-8.22,-1.92,-2.48,-6.21
256,80,138,153,-641,3939,22.43,4.75,6.96,1.53,-6.41,39.39,-14.98,-2.06,-8.24,-1.44,-1.56,-3.58
268,57,122,148,-640,3919,21.82,4.63,7.01,1.48,-6.40,39.19,-14.88,-2.03,-8.26,-1.58,-1.08,-2.17
328,38,93,151,-641,3949,21.64,4.39,6.88,1.51,-6.41,39.49,-14.77,-2.01,-8.28,-2.82,-0.64,0.15
353,39,87,142,-632,3955,21.63,4.19,6.72,1.42,-6.32,39.55,-14.67,-1.99,-8.30,-3.39,-0.63,0.49
440,33,65,143,-628,3946,22.15,3.98,6.44,1.43,-6.28,39.46,-14.56,-1.96,-8.32,-5.38,-0.46,2.07
460,30,58,139,-631,3947,22.74,3.76,6.15,1.39,-6.31,39.47,-14.45,-1.94,-8.34,-6.01,-0.35,2.35
497,14,38,151,-610,3968,23.50,3.47,5.77,1.51,-6.10,39.68,-14.34,-1.93,-8.36,-7.05,0.04,3.64
495,5,36,145,-603,3966,24.17,3.15,5.41,1.45,-6.03,39.66,-14.23,-1.91,-8.38,-7.26,0.30,3.44
454,-40,34,147,-569,3923,24.52,2.59,5.08,1.47,-5.69,39.23,-14.11,-1.89,-8.39,-6.60,1.36,3.25
434,-53,36,146,-553,3916,24.72,2.01,4.79,1.46,-5.53,39.16,-14.00,-1.88,-8.41,-6.33,1.77,2.78
362,-68,31,143,-574,3893,24.45,1.40,4.50,1.43,-5.74,38.93,-13.88,-1.87,-8.43,-4.87,2.24,2.90
339,-71,20,123,-597,3834,24.08,0.82,4.17,1.23,-5.97,38.34,-13.77,-1.87,-8.44,-4.37,2.45,3.48
349,-64,6,124,-630,3842,23.80,0.35,3.79,1.24,-6.30,38.42,-13.66,-1.86,-8.45,-4.57,2.43,4.27
365,-49,3,129,-653,3847,23.64,0.02,3.43,1.29,-6.53,38.47,-13.54,-1.86,-8.47,-4.93,2.22,4.14
427,-9,13,129,-621,3823,23.88,-0.04,3.17,1.29,-6.21,38.23,-13.43,-1.85,-8.48,-6.33,1.42,3.02
445,-4,22,143,-602,3845,24.21,-0.06,2.98,1.43,-6.02,38.45,-13.32,-1.85,-8.49,-6.86,1.32,2.06
483,-1,38,146,-574,3876,24.74,-0.06,2.92,1.46,-5.74,38.76,-13.20,-1.85,-8.50,-7.85,1.26,0.64
489,-11,41,153,-550,3858,25.25,-0.12,2.88,1.53,-5.50,38.58,-13.08,-1.85,-8.51,-8.19,1.48,0.34
519,-53,50,164,-550,3836,25.89,-0.43,2.89,1.64,-5.50,38.36,-12.96,-1.85,-8.52,-9.06,2.42,-0.40
530,-57,51,164,-547,3825,26.53,-0.74,2.92,1.64,-5.47,38.25,-12.84,-1.85,-8.53,-9.54,2.58,-0.47
577,-47,65,185,-484,3823,27.40,-0.95,3.02,1.85,-4.84,38.23,-12.71,-1.86,-8.55,-10.81,2.44,-1.54
592,-43,74,175,-472,3804,28.27,-1.12,3.17,1.75,-4.72,38.04,-12.58,-1.86,-8.56,-11.44,2.41,-2.14
569,-37,85,182,-427,3791,28.91,-1.23,3.37,1.82,-4.27,37.91,-12.45,-1.87,-8.57,-11.24,2.32,-2.86
548,-32,90,186,-384,3797,29.36,-1.30,3.58,1.86,-3.84,37.97,-12.31,-1.87,-8.59,-11.02,2.24,-3.06
440,4,116,181,-320,3839,29.11,-1.15,3.93,1.81,-3.20,38.39,-12.18,-1.87,-8.60,-8.85,1.47,-4.89
401,19,123,179,-319,3847,28.65,-0.92,4.29,1.79,-3.19,38.47,-12.05,-1.88,-8.62,-8.01,1.10,-5.10
272,58,149,173,-270,3859,27.44,-0.47,4.77,1.73,-2.70,38.59,-11.92,-1.88,-8.64,-5.15,0.19,-6.80
240,63,157,185,-276,3868,26.16,-0.04,5.25,1.85,-2.76,38.68,-11.80,-1.87,-8.66,-4.23,-0.03,-6.96
140,71,172,167,-319,3888,24.40,0.40,5.77,1.67,-3.19,38.88,-11.68,-1.87,-8.68,-1.79,-0.32,-7.68
122,69,176,162,-304,3891,22.70,0.78,6.27,1.62,-3.04,38.91,-11.58,-1.86,-8.70,-1.03,-0.39,-7.49
93,54,188,147,-307,3896,21.00,1.03,6.79,1.47,-3.07,38.96,-11.47,-1.85,-8.73,-0.04,-0.16,-7.95
88,49,186,163,-275,3903,19.44,1.23,7.25,1.63,-2.75,39.03,-11.38,-1.84,-8.76,0.42,-0.11,-7.30
78,49,177,141,-239,3918,17.97,1.40,7.60,1.41,-2.39,39.18,-11.29,-1.83,-8.78,0.97,-0.17,-6.16
81,45,170,148,-239,3923,16.67,1.54,7.88,1.48,-2.39,39.23,-11.21,-1.82,-8.81,1.21,-0.13,-5.27
106,40,141,162,-197,3973,15.65,1.63,7.95,1.62,-1.97,39.73,-11.13,-1.81,-8.84,0.92,-0.06,-2.73
122,40,130,155,-201,3974,14.83,1.71,7.95,1.55,-2.01,39.74,-11.05,-1.80,-8.87,0.77,-0.09,-1.80
223,17,89,132,-257,3943,14.70,1.64,7.70,1.32,-2.57,39.43,-10.98,-1.79,-8.90,-1.30,0.39,1.41
262,12,79,143,-255,3970,14.83,1.55,7.41,1.43,-2.55,39.70,-10.90,-1.78,-8.93,-2.18,0.51,1.96
397,13,69,128,-258,3996,15.77,1.47,7.09,1.28,-2.58,39.96,-10.82,-1.76,-8.95,-5.23,0.50,2.47
431,15,70,140,-266,4000,16.82,1.42,6.81,1.40,-2.66,40.00,-10.73,-1.75,-8.98,-6.27,0.47,2.09
515,-13,89,144,-221,3949,18.28,1.20,6.67,1.44,-2.21,39.49,-10.64,-1.75,-9.00,-8.43,1.09,0.33
545,-27,107,163,-207,3988,19.78,0.91,6.65,1.63,-2.07,39.88,-10.55,-1.74,-9.03,-9.51,1.45,-1.21
587,-33,137,133,-177,3926,21.38,0.62,6.82,1.33,-1.77,39.26,-10.44,-1.73,-9.05,-10.87,1.65,-3.57
603,-30,146,138,-137,3945,22.92,0.38,7.03,1.38,-1.37,39.45,-10.34,-1.73,-9.08,-11.69,1.65,-4.10
650,-18,175,155,-36,3960,24.59,0.23,7.40,1.55,-0.36,39.60,-10.22,-1.72,-9.11,-13.18,1.44,-6.17
665,-21,181,167,-11,3941,26.19,0.08,7.76,1.67,-0.11,39.41,-10.10,-1.72,-9.14,-14.00,1.54,-6.29
698,-61,192,188,136,3959,27.83,-0.30,8.16,1.88,1.36,39.59,-9.97,-1.71,-9.17,-15.20,2.45,-6.80
706,-74,198,192,169,3969,29.35,-0.72,8.55,1.92,1.69,39.69,-9.84,-1.71,-9.20,-15.87,2.83,-6.89
744,-138,207,198,229,3854,30.96,-1.49,8.96,1.98,2.29,38.54,-9.69,-1.71,-9.24,-17.17,4.34,-7.22
762,-154,205,191,239,3815,32.51,-2.28,9.31,1.91,2.39,38.15,-9.55,-1.72,-9.28,-18.06,4.89,-6.67
860,-163,190,201,181,3719,34.50,-3.05,9.54,2.01,1.81,37.19,-9.39,-1.73,-9.32,-20.00,5.28,-5.16
907,-134,173,218,160,3680,36.59,-3.56,9.64,2.18,1.60,36.80,-9.23,-1.74,-9.36,-20.00,4.84,-3.61
949,-49,126,213,138,3615,38.72,-3.50,9.45,2.13,1.38,36.15,-9.06,-1.75,-9.40,-20.00,3.10,0.17
935,-24,112,211,131,3605,40.55,-3.30,9.18,2.11,1.31,36.05,-8.88,-1.76,-9.43,-20.00,2.55,1.08
775,47,92,194,142,3615,41.22,-2.68,8.83,1.94,1.42,36.15,-8.70,-1.76,-9.47,-20.00,0.94,2.40
703,60,95,187,121,3640,41.39,-2.05,8.52,1.87,1.21,36.40,-8.52,-1.77,-9.50,-19.96,0.51,1.83
397,96,148,157,194,3774,39.67,-1.26,8.57,1.57,1.94,37.74,-8.34,-1.77,-9.54,-13.39,-0.44,-2.60
312,105,176,163,275,3845,37.61,-0.49,8.79,1.63,2.75,38.45,-8.17,-1.77,-9.57,-11.20,-0.83,-4.74
97,108,254,131,419,4028,34.44,0.22,9.46,1.31,4.19,40.28,-8.02,-1.76,-9.61,-6.07,-1.09,-10.64
72,96,261,119,435,4041,31.43,0.78,10.11,1.19,4.35,40.41,-7.87,-1.75,-9.65,-4.84,-1.01,-10.54
125,5,246,95,449,4068,29.05,0.73,10.60,0.95,4.49,40.68,-7.74,-1.74,-9.69,-5.35,0.85,-8.75
237,-37,229,81,440,4067,27.59,0.43,10.93,0.81,4.40,40.67,-7.61,-1.74,-9.73,-7.32,1.78,-6.95
639,-38,186,95,407,4020,28.73,0.16,10.98,0.95,4.07,40.20,-7.48,-1.73,-9.78,-15.89,1.87,-3.26
754,-40,166,95,440,4034,30.46,-0.10,10.89,0.95,4.40,40.34,-7.34,-1.72,-9.82,-18.79,1.98,-1.65
1025,-66,97,132,529,4098,33.66,-0.49,10.39,1.32,5.29,40.98,-7.19,-1.72,-9.86,-20.00,2.61,3.67
1056,-80,75,141,532,4117,36.74,-0.93,9.81,1.41,5.32,41.17,-7.03,-1.72,-9.90,-20.00,3.02,4.93
1098,-135,21,156,555,3941,39.76,-1.66,8.96,1.56,5.55,39.41,-6.85,-1.72,-9.93,-20.00,4.34,8.60
1158,-127,22,167,606,3886,42.85,-2.27,8.20,1.67,6.06,38.86,-6.66,-1.73,-9.97,-20.00,4.34,7.71
1468,-79,37,156,455,3766,47.52,-2.53,7.60,1.56,4.55,37.66,-6.46,-1.74,-10.00,-20.00,3.44,5.82
1523,-70,56,202,535,3764,52.06,-2.70,7.18,2.02,5.35,37.64,-6.23,-1.75,-10.03,-20.00,3.31,3.76
1508,-128,126,208,627,3717,56.05,-3.21,7.23,2.08,6.27,37.17,-5.99,-1.76,-10.06,-20.00,4.64,-2.11
1447,-139,153,198,661,3672,59.27,-3.74,7.44,1.98,6.61,36.72,-5.73,-1.77,-10.09,-20.00,5.01,-4.17
1175,-141,209,197,808,3589,60.51,-4.22,7.97,1.97,8.08,35.89,-5.48,-1.79,-10.12,-20.00,5.20,-8.35
1098,-122,216,187,830,3587,61.16,-4.55,8.49,1.87,8.30,35.87,-5.21,-1.80,-10.16,-20.00,4.91,-8.39
841,-66,200,160,906,3525,60.17,-4.49,8.87,1.60,9.06,35.25,-4.96,-1.82,-10.19,-20.00,3.77,-6.64
782,-55,192,154,934,3519,58.93,-4.38,9.15,1.54,9.34,35.19,-4.70,-1.83,-10.23,-20.00,3.52,-5.66
600,-13,156,161,968,3579,56.69,-4.02,9.19,1.61,9.68,35.79,-4.46,-1.85,-10.27,-20.00,2.58,-2.57
544,18,136,155,992,3613,54.34,-3.51,9.10,1.55,9.92,36.13,-4.22,-1.86,-10.30,-20.00,1.82,-0.96
419,51,69,132,1185,3676,51.46,-2.85,8.61,1.32,11.85,36.76,-4.00,-1.87,-10.34,-19.91,0.97,4.20
408,44,12,123,1252,3665,48.81,-2.29,7.82,1.23,12.52,36.65,-3.79,-1.87,-10.37,-19.10,0.97,8.20
397,-19,18,224,1022,3677,46.35,-2.18,7.15,2.24,10.22,36.77,-3.59,-1.88,-10.40,-18.34,2.22,6.98
434,-34,48,153,1057,3611,44.36,-2.17,6.73,1.53,10.57,36.11,-3.39,-1.89,-10.42,-18.68,2.53,3.99
581,-12,58,135,1161,3701,43.47,-2.03,6.41,1.35,11.61,37.01,-3.20,-1.90,-10.45,-20.00,2.05,2.81
602,-18,49,152,1194,3687,42.79,-1.93,6.07,1.52,11.94,36.87,-3.01,-1.90,-10.47,-20.00,2.15,3.21
663,-44,-3,152,1222,3686,42.56,-2.01,5.44,1.52,12.22,36.86,-2.82,-1.91,-10.50,-20.00,2.70,6.96
678,-56,-23,145,1198,3640,42.44,-2.15,4.76,1.45,11.98,36.40,-2.64,-1.92,-10.51,-20.00,2.99,7.93
803,-54,-63,173,1088,3525,43.09,-2.26,3.90,1.73,10.88,35.25,-2.45,-1.93,-10.53,-20.00,2.99,10.41
835,-57,-54,179,1072,3490,43.88,-2.39,3.18,1.79,10.72,34.90,-2.25,-1.94,-10.54,-20.00,3.09,8.89
831,-29,26,217,1095,3553,44.56,-2.32,3.02,2.17,10.95,35.53,-2.06,-1.95,-10.55,-20.00,2.51,1.94
793,-28,66,214,1128,3533,44.94,-2.26,3.12,2.14,11.28,35.33,-1.86,-1.96,-10.57,-20.00,2.48,-1.34
661,-36,123,204,1254,3559,44.48,-2.26,3.56,2.04,12.54,35.59,-1.66,-1.97,-10.58,-20.00,2.65,-5.70
569,-57,117,209,1359,3482,43.50,-2.38,3.92,2.09,13.59,34.82,-1.47,-1.98,-10.59,-20.00,3.11,-4.81
370,-97,82,176,1475,3381,41.41,-2.73,4.02,1.76,14.75,33.81,-1.29,-1.99,-10.61,-17.96,4.03,-1.73
329,-88,69,187,1485,3358,39.27,-3.00,4.04,1.87,14.85,33.58,-1.11,-2.00,-10.63,-16.66,3.93,-0.61
321,18,30,173,1525,3376,37.30,-2.59,3.82,1.73,15.25,33.76,-0.95,-2.01,-10.64,-16.07,1.67,2.46
348,57,18,159,1517,3402,35.70,-1.98,3.55,1.59,15.17,34.02,-0.79,-2.02,-10.66,-16.29,0.71,3.19
363,74,-30,177,1440,3592,34.34,-1.33,3.01,1.77,14.40,35.92,-0.63,-2.03,-10.67,-16.33,0.20,6.69
363,64,-43,162,1427,3600,33.12,-0.81,2.45,1.62,14.27,36.00,-0.48,-2.03,-10.68,-16.10,0.26,7.20
450,33,-50,169,1380,3595,32.55,-0.52,1.90,1.69,13.80,35.95,-0.33,-2.03,-10.68,-17.81,0.81,7.21
493,21,-47,167,1358,3609,32.31,-0.34,1.42,1.67,13.58,36.09,-0.18,-2.03,-10.69,-18.71,1.01,6.45
598,-1,-13,186,1428,3542,32.72,-0.32,1.20,1.86,14.28,35.42,-0.04,-2.04,-10.69,-20.00,1.45,3.33
574,-22,16,190,1451,3520,32.95,-0.42,1.18,1.90,14.51,35.20,0.11,-2.04,-10.70,-20.00,1.91,0.85
429,-40,52,179,1507,3431,32.27,-0.62,1.38,1.79,15.07,34.31,0.26,-2.04,-10.70,-17.70,2.33,-1.98
380,-43,54,169,1520,3393,31.36,-0.82,1.57,1.69,15.20,33.93,0.41,-2.05,-10.71,-16.55,2.45,-1.95
238,-30,53,197,1582,3392,29.68,-0.92,1.74,1.97,15.82,33.92,0.54,-2.05,-10.71,-13.29,2.21,-1.69
207,-17,53,199,1616,3381,27.97,-0.93,1.88,1.99,16.16,33.81,0.67,-2.06,-10.72,-12.28,1.96,-1.53
155,6,65,205,1618,3389,26.12,-0.80,2.09,2.05,16.18,33.89,0.79,-2.06,-10.73,-10.80,1.46,-2.33
150,4,66,216,1603,3391,24.43,-0.70,2.29,2.16,16.03,33.91,0.91,-2.06,-10.74,-10.31,1.47,-2.20
167,13,80,189,1577,3428,23.00,-0.55,2.55,1.89,15.77,34.28,1.02,-2.07,-10.75,-10.34,1.25,-3.12
184,21,87,189,1581,3471,21.82,-0.37,2.82,1.89,15.81,34.71,1.13,-2.07,-10.76,-10.43,1.04,-3.41
240,7,83,167,1588,3454,21.11,-0.29,3.05,1.67,15.88,34.54,1.23,-2.07,-10.77,-11.44,1.30,-2.84
299,-16,75,162,1623,3461,20.82,-0.36,3.20,1.62,16.23,34.61,1.33,-2.07,-10.78,-12.63,1.79,-2.00
407,-35,64,164,1649,3486,21.22,-0.53,3.27,1.64,16.49,34.86,1.43,-2.08,-10.79,-15.01,2.23,-0.99
397,-52,63,165,1674,3451,21.52,-0.80,3.33,1.65,16.74,34.51,1.54,-2.08,-10.80,-14.95,2.65,-0.84
490,-22,76,140,1766,3372,22.36,-0.85,3.46,1.40,17.66,33.72,1.64,-2.08,-10.82,-17.14,2.06,-1.80
518,-6,76,152,1760,3439,23.28,-0.80,3.58,1.52,17.60,34.39,1.75,-2.09,-10.83,-18.04,1.72,-1.68
528,-8,36,152,1755,3452,24.17,-0.77,3.44,1.52,17.55,34.52,1.87,-2.09,-10.84,-18.56,1.75,1.57
533,-18,24,159,1753,3470,25.01,-0.80,3.24,1.59,17.53,34.70,1.99,-2.10,-10.86,-18.97,1.97,2.37
638,-35,-6,146,1697,3399,26.40,-0.94,2.88,1.46,16.97,33.99,2.11,-2.10,-10.87,-20.00,2.35,4.54
679,-38,-9,149,1688,3424,27.90,-1.08,2.54,1.49,16.88,34.24,2.24,-2.11,-10.88,-20.00,2.46,4.43
747,-51,12,171,1714,3447,29.67,-1.28,2.36,1.71,17.14,34.47,2.38,-2.11,-10.88,-20.00,2.78,2.46
769,-60,27,177,1725,3400,31.39,-1.52,2.29,1.77,17.25,34.00,2.52,-2.12,-10.89,-20.00,3.03,1.11
765,-98,31,174,1764,3367,32.92,-1.96,2.25,1.74,17.64,33.67,2.67,-2.13,-10.90,-20.00,3.93,0.73
756,-101,31,172,1760,3345,34.24,-2.38,2.21,1.72,17.60,33.45,2.82,-2.14,-10.91,-20.00,4.11,0.70
706,-97,42,188,1775,3205,35.12,-2.74,2.25,1.88,17.75,32.05,2.98,-2.15,-10.92,-20.00,4.14,-0.20
692,-90,55,184,1793,3175,35.83,-3.01,2.36,1.84,17.93,31.75,3.14,-2.16,-10.92,-20.00,4.08,-1.18
664,-45,110,176,1838,3146,36.30,-2.99,2.79,1.76,18.38,31.46,3.31,-2.18,-10.93,-20.00,3.17,-5.38
666,-30,124,179,1886,3129,36.73,-2.87,3.27,1.79,18.86,31.29,3.47,-2.19,-10.95,-20.00,2.84,-6.06
765,27,167,171,2072,3206,37.72,-2.42,3.96,1.71,20.72,32.06,3.64,-2.20,-10.96,-20.00,1.56,-8.97
798,30,168,162,2108,3244,38.82,-1.99,4.59,1.62,21.08,32.44,3.81,-2.21,-10.98,-20.00,1.39,-8.39
880,-15,48,199,2111,3320,40.31,-1.89,4.42,1.99,21.11,33.20,3.99,-2.22,-10.99,-20.00,2.28,1.61
962,-39,82,128,2037,3325,42.14,-1.93,4.48,1.28,20.37,33.25,4.18,-2.23,-11.01,-20.00,2.79,-1.21
1056,-125,7,141,2116,3188,44.37,-2.50,4.08,1.41,21.16,31.88,4.37,-2.24,-11.03,-20.00,4.70,4.72
1064,-135,-13,151,2136,3145,46.42,-3.08,3.59,1.51,21.36,31.45,4.58,-2.25,-11.04,-20.00,5.07,5.90
1011,-124,-38,147,2064,3027,47.95,-3.53,3.00,1.47,20.64,30.27,4.79,-2.27,-11.05,-20.00,4.98,7.39
1016,-88,-35,161,2059,2957,49.35,-3.71,2.48,1.61,20.59,29.57,5.00,-2.28,-11.06,-20.00,4.31,6.59
987,-39,39,209,2161,3012,50.44,-3.58,2.47,2.09,21.61,30.12,5.22,-2.30,-11.06,-20.00,3.29,0.31
967,-37,59,206,2172,3013,51.29,-3.44,2.59,2.06,21.72,30.13,5.44,-2.32,-11.07,-20.00,3.22,-1.26
917,-100,84,184,2255,3004,51.76,-3.71,2.84,1.84,22.55,30.04,5.67,-2.33,-11.08,-20.00,4.58,-3.11
920,-120,83,192,2299,3009,52.19,-4.07,3.06,1.92,22.99,30.09,5.90,-2.35,-11.09,-20.00,5.10,-2.79
949,-171,60,194,2300,2873,52.76,-4.71,3.12,1.94,23.00,28.73,6.12,-2.37,-11.10,-20.00,6.32,-0.78
974,-185,45,183,2281,2764,53.43,-5.37,3.08,1.83,22.81,27.64,6.36,-2.39,-11.11,-20.00,6.80,0.45
1114,-112,76,214,2314,2647,54.88,-5.51,3.24,2.14,23.14,26.47,6.59,-2.42,-11.12,-20.00,5.38,-2.01
1116,-91,97,211,2338,2660,56.20,-5.52,3.51,2.11,23.38,26.60,6.84,-2.44,-11.13,-20.00,4.97,-3.50
1007,-51,150,218,2452,2723,56.72,-5.28,4.07,2.18,24.52,27.23,7.08,-2.47,-11.14,-20.00,4.10,-7.39
960,-51,150,214,2480,2714,56.91,-5.06,4.58,2.14,24.80,27.14,7.33,-2.49,-11.16,-20.00,4.06,-6.85
890,-48,97,217,2581,2634,56.64,-4.85,4.71,2.17,25.81,26.34,7.57,-2.51,-11.17,-20.00,3.95,-2.22
925,-29,80,205,2592,2632,56.62,-4.54,4.73,2.05,25.92,26.32,7.81,-2.53,-11.19,-20.00,3.50,-0.76
932,-51,44,234,2602,2691,56.65,-4.40,4.53,2.34,26.02,26.91,8.06,-2.55,-11.20,-20.00,3.92,2.07
900,-80,51,217,2589,2673,56.47,-4.44,4.38,2.17,25.89,26.73,8.30,-2.57,-11.22,-20.00,4.54,1.33
808,-156,102,220,2578,2602,55.75,-4.95,4.57,2.20,25.78,26.02,8.54,-2.60,-11.23,-20.00,6.24,-2.79
763,-174,130,180,2590,2521,54.83,-5.52,4.90,1.80,25.90,25.21,8.78,-2.62,-11.25,-20.00,6.77,-4.81
770,-94,155,173,2697,2474,54.05,-5.54,5.36,1.73,26.97,24.74,9.01,-2.65,-11.26,-20.00,5.17,-6.44
743,-77,146,172,2709,2485,53.17,-5.45,5.71,1.72,27.09,24.85,9.24,-2.67,-11.28,-20.00,4.82,-5.30
610,-38,81,170,2707,2356,51.58,-5.14,5.64,1.70,27.07,23.56,9.47,-2.70,-11.30,-20.00,3.95,0.12
606,-32,73,171,2710,2343,50.12,-4.82,5.52,1.71,27.10,23.43,9.68,-2.72,-11.32,-20.00,3.76,0.68
556,17,79,220,2744,2440,48.50,-4.24,5.45,2.20,27.44,24.40,9.89,-2.74,-11.34,-20.00,2.62,0.10
528,11,94,213,2759,2444,46.87,-3.75,5.48,2.13,27.59,24.44,10.10,-2.76,-11.35,-20.00,2.62,-1.14
441,-10,110,221,2821,2501,44.87,-3.43,5.60,2.21,28.21,25.01,10.30,-2.78,-11.37,-20.00,2.97,-2.37
397,-32,99,183,2798,2490,42.81,-3.28,5.64,1.83,27.98,24.90,10.48,-2.80,-11.39,-20.00,3.39,-1.39
332,-82,52,182,2850,2401,40.55,-3.46,5.40,1.82,28.50,24.01,10.66,-2.81,-11.41,-20.00,4.47,2.34
354,-70,57,183,2858,2366,38.65,-3.54,5.20,1.83,28.58,23.66,10.84,-2.83,-11.43,-20.00,4.26,1.71
510,-28,49,168,2809,2347,37.90,-3.35,4.98,1.68,28.09,23.47,11.00,-2.85,-11.44,-20.00,3.36,2.16
568,-21,53,179,2801,2357,37.57,-3.15,4.81,1.79,28.01,23.57,11.17,-2.87,-11.46,-20.00,3.18,1.63
570,-37,92,201,2845,2460,37.29,-3.06,4.89,2.01,28.45,24.60,11.34,-2.88,-11.47,-20.00,3.49,-1.59
527,-56,105,208,2871,2448,36.78,-3.09,5.04,2.08,28.71,24.48,11.50,-2.90,-11.49,-20.00,3.89,-2.52
391,-87,109,157,2957,2313,35.49,-3.32,5.20,1.57,29.57,23.13,11.66,-2.92,-11.51,-20.00,4.60,-2.69
340,-98,92,130,2972,2247,34.01,-3.58,5.24,1.30,29.72,22.47,11.81,-2.93,-11.52,-20.00,4.91,-1.21
368,-28,43,121,3014,2158,32.86,-3.39,4.98,1.21,30.14,21.58,11.96,-2.95,-11.54,-20.00,3.44,2.67
386,0,37,125,3009,2201,31.92,-3.05,4.71,1.25,30.09,22.01,12.11,-2.97,-11.55,-20.00,2.79,2.89
410,41,35,140,2991,2284,31.23,-2.50,4.45,1.40,29.91,22.84,12.25,-2.98,-11.57,-20.00,1.81,2.79
392,11,42,153,2977,2384,30.50,-2.18,4.26,1.53,29.77,23.84,12.39,-2.99,-11.58,-20.00,2.35,2.00
288,-85,41,143,2992,2365,29.21,-2.48,4.09,1.43,29.92,23.65,12.52,-3.01,-11.60,-20.00,4.39,1.90
247,-118,38,132,3020,2327,27.79,-2.95,3.91,1.32,30.20,23.27,12.65,-3.02,-11.61,-20.00,5.20,1.96
182,-146,8,111,3041,2134,26.12,-3.55,3.57,1.11,30.41,21.34,12.77,-3.04,-11.62,-19.25,5.94,4.14
195,-132,-6,113,3028,2076,24.70,-4.00,3.17,1.13,30.28,20.76,12.89,-3.06,-11.63,-19.21,5.79,4.92
264,-49,-15,130,3007,2086,23.84,-3.90,2.76,1.30,30.07,20.86,13.00,-3.07,-11.63,-20.00,4.09,5.25
264,-21,-2,131,2998,2118,23.07,-3.64,2.48,1.31,29.98,21.18,13.11,-3.09,-11.64,-20.00,3.46,3.84
174,-13,17,141,2992,2204,21.82,-3.35,2.33,1.41,29.92,22.04,13.22,-3.10,-11.64,-18.21,3.23,2.08
157,-16,14,129,3002,2199,20.60,-3.11,2.18,1.29,30.02,21.99,13.32,-3.12,-11.65,-17.60,3.23,2.18
180,-28,-12,148,2980,2165,19.64,-2.97,1.89,1.48,29.80,21.65,13.41,-3.13,-11.65,-17.87,3.45,4.07
219,-17,-17,170,2998,2155,19.01,-2.78,1.60,1.70,29.98,21.55,13.51,-3.14,-11.65,-18.55,3.18,4.18
164,-31,6,165,3014,2152,18.11,-2.69,1.48,1.65,30.14,21.52,13.60,-3.16,-11.66,-17.25,3.45,2.10
135,-39,11,161,3023,2105,17.12,-2.66,1.40,1.61,30.23,21.05,13.68,-3.17,-11.66,-16.44,3.61,1.60
233,18,20,137,3089,2000,16.83,-2.28,1.38,1.37,30.89,20.00,13.77,-3.18,-11.66,-18.41,2.35,0.81
251,29,21,146,3101,2047,16.68,-1.88,1.37,1.46,31.01,20.47,13.85,-3.19,-11.66,-18.79,2.03,0.72
243,33,12,150,3159,2136,16.49,-1.49,1.30,1.50,31.59,21.36,13.94,-3.19,-11.67,-18.64,1.84,1.41
240,35,2,143,3146,2171,16.31,-1.13,1.19,1.43,31.46,21.71,14.02,-3.20,-11.67,-18.58,1.71,2.14
244,5,-41,154,3088,2148,16.16,-0.98,0.82,1.54,30.88,21.48,14.10,-3.20,-11.67,-18.68,2.28,5.39
277,7,-46,161,3088,2152,16.24,-0.84,0.46,1.61,30.88,21.52,14.19,-3.21,-11.67,-19.42,2.20,5.43
267,-7,-35,168,3074,2183,16.24,-0.80,0.20,1.68,30.74,21.83,14.27,-3.21,-11.67,-19.27,2.48,4.22
226,-10,-35,157,3109,2205,16.00,-0.78,-0.04,1.57,31.09,22.05,14.35,-3.21,-11.67,-18.43,2.54,3.98
102,20,-72,90,3017,1929,15.02,-0.58,-0.47,0.90,30.17,19.29,14.43,-3.21,-11.66,-15.69,1.87,6.65
43,-3,-88,73,3017,1926,13.78,-0.54,-0.96,0.73,30.17,19.26,14.50,-3.21,-11.66,-14.20,2.33,7.49
222,88,-39,147,3029,1998,13.76,0.05,-1.10,1.47,30.29,19.98,14.57,-3.21,-11.65,-17.88,0.32,3.18
330,132,-12,123,3082,2038,14.39,0.85,-1.07,1.23,30.82,20.38,14.65,-3.21,-11.65,-20.00,-0.80,0.94
243,162,-14,176,3094,2327,14.44,1.75,-1.05,1.76,30.94,23.27,14.73,-3.20,-11.64,-18.60,-1.66,1.13
164,142,-30,188,3072,2311,13.99,2.44,-1.12,1.88,30.72,23.11,14.80,-3.19,-11.64,-16.92,-1.45,2.40
49,44,-85,200,2979,2187,12.89,2.47,-1.53,2.00,29.79,21.87,14.87,-3.18,-11.64,-14.33,0.53,6.63
8,27,-92,206,2954,2098,11.65,2.39,-1.94,2.06,29.54,20.98,14.93,-3.17,-11.63,-13.20,0.89,6.79
-85,29,-87,217,2963,1957,9.97,2.32,-2.27,2.17,29.63,19.57,14.99,-3.16,-11.62,-10.88,0.86,6.01
82,96,-78,167,3013,1876,9.47,2.68,-2.52,1.67,30.13,18.76,15.05,-3.15,-11.62,-14.18,-0.61,4.98
30,54,-33,200,3153,2155,8.71,2.74,-2.47,2.00,31.53,21.55,15.10,-3.13,-11.61,-12.95,0.22,1.22
-7,27,-20,194,3156,2180,7.79,2.63,-2.35,1.94,31.56,21.80,15.15,-3.12,-11.60,-11.98,0.79,0.25
-9,-30,-8,158,3092,2081,6.96,2.18,-2.16,1.58,30.92,20.81,15.20,-3.11,-11.59,-11.74,2.07,-0.57
13,-7,-10,157,3071,1988,6.34,1.92,-2.01,1.57,30.71,19.88,15.24,-3.10,-11.59,-12.05,1.66,-0.23
59,54,2,185,3014,2053,6.07,2.06,-1.79,1.85,30.14,20.53,15.28,-3.09,-11.58,-12.94,0.38,-1.03
65,59,8,193,3014,2072,5.86,2.21,-1.57,1.93,30.14,20.72,15.32,-3.08,-11.58,-13.03,0.23,-1.29
-8,31,31,196,3110,2100,5.22,2.18,-1.22,1.96,31.10,21.00,15.36,-3.07,-11.57,-11.40,0.80,-2.88
-34,30,30,180,3113,2069,4.49,2.15,-0.91,1.80,31.13,20.69,15.40,-3.06,-11.57,-10.70,0.83,-2.47
-74,5,-3,176,3075,1992,3.59,1.96,-0.84,1.76,30.75,19.92,15.43,-3.05,-11.57,-9.66,1.38,0.40
-49,9,-15,182,3058,1994,2.94,1.82,-0.85,1.82,30.58,19.94,15.46,-3.05,-11.57,-10.01,1.33,1.41
-73,-9,-17,166,3040,1962,2.20,1.58,-0.87,1.66,30.40,19.62,15.49,-3.04,-11.56,-9.34,1.76,1.56
-39,1,-12,156,3037,1972,1.74,1.43,-0.85,1.56,30.37,19.72,15.51,-3.03,-11.56,-9.92,1.59,1.15
169,71,21,132,3007,2116,2.60,1.72,-0.64,1.32,30.07,21.16,15.54,-3.03,-11.56,-14.40,0.08,-1.42
175,76,22,133,3028,2193,3.40,2.01,-0.44,1.33,30.28,21.93,15.57,-3.02,-11.56,-14.76,-0.10,-1.29
-20,10,-27,120,3037,2241,2.94,1.87,-0.56,1.20,30.37,22.41,15.60,-3.01,-11.56,-10.69,1.27,2.73
-76,-13,-55,119,3033,2208,2.18,1.61,-0.84,1.19,30.33,22.08,15.63,-3.00,-11.56,-9.36,1.81,4.81
-116,-31,-119,153,2972,1954,1.26,1.26,-1.48,1.53,29.72,19.54,15.65,-3.00,-11.55,-8.31,2.26,9.55
-45,10,-116,129,2925,1905,0.86,1.19,-2.04,1.29,29.25,19.05,15.67,-2.99,-11.54,-9.66,1.44,8.70
-11,11,-26,264,2819,2214,0.70,1.14,-2.00,2.64,28.19,22.14,15.69,-2.98,-11.54,-10.33,1.43,1.13
2,-36,44,256,2870,2251,0.65,0.81,-1.53,2.56,28.70,22.51,15.71,-2.98,-11.53,-10.59,2.48,-4.31
31,-128,146,229,3003,2144,0.77,-0.06,-0.49,2.29,30.03,21.44,15.73,-2.98,-11.53,-11.23,4.58,-11.85
26,-150,149,200,3026,2067,0.85,-0.96,0.47,2.00,30.26,20.67,15.76,-2.98,-11.53,-11.16,5.28,-11.09
94,-88,113,171,3138,1923,1.34,-1.41,1.11,1.71,31.38,19.23,15.78,-2.99,-11.53,-12.69,4.15,-7.36
96,-57,107,173,3162,1934,1.79,-1.61,1.66,1.73,31.62,19.34,15.80,-3.00,-11.53,-12.87,3.58,-6.27
-76,-7,81,198,3208,2011,1.15,-1.49,1.98,1.98,32.08,20.11,15.83,-3.01,-11.54,-9.21,2.53,-3.72
-144,-8,72,187,3223,2008,0.16,-1.39,2.22,1.87,32.23,20.08,15.84,-3.02,-11.54,-7.57,2.53,-2.71
-208,25,48,153,3293,2013,-1.13,-1.10,2.30,1.53,32.93,20.13,15.86,-3.02,-11.55,-5.93,1.79,-0.60
-177,32,37,152,3279,1984,-2.10,-0.80,2.29,1.52,32.79,19.84,15.87,-3.03,-11.56,-6.30,1.56,0.33
-29,11,5,179,3230,2100,-2.06,-0.65,2.09,1.79,32.30,21.00,15.87,-3.03,-11.56,-9.33,1.96,2.83
16,-7,11,168,3228,2127,-1.76,-0.63,1.95,1.68,32.28,21.27,15.89,-3.04,-11.57,-10.33,2.32,2.17
41,-46,21,149,3260,2123,-1.33,-0.84,1.88,1.49,32.60,21.23,15.90,-3.04,-11.57,-10.96,3.17,1.26
45,-53,5,126,3246,2098,-0.93,-1.08,1.73,1.26,32.46,20.98,15.91,-3.05,-11.58,-11.16,3.39,2.45
69,-36,-62,133,3132,2036,-0.41,-1.20,1.17,1.33,31.32,20.36,15.93,-3.05,-11.58,-11.80,3.07,7.54
77,-20,-67,136,3088,2043,0.10,-1.20,0.65,1.36,30.88,20.43,15.95,-3.06,-11.58,-12.12,2.75,7.41
47,13,-22,180,2988,2106,0.38,-1.00,0.45,1.80,29.88,21.06,15.96,-3.06,-11.58,-11.59,2.03,3.38
22,10,-3,170,2976,2124,0.47,-0.84,0.39,1.70,29.76,21.24,15.98,-3.07,-11.58,-11.13,2.05,1.71
32,9,41,162,3064,2143,0.62,-0.70,0.60,1.62,30.64,21.43,16.00,-3.07,-11.58,-11.38,2.03,-1.80
53,8,36,153,3074,2144,0.88,-0.58,0.76,1.53,30.74,21.44,16.03,-3.07,-11.58,-11.89,2.02,-1.21
111,-30,1,163,3061,2104,1.47,-0.71,0.69,1.63,30.61,21.04,16.05,-3.08,-11.58,-13.25,2.83,1.69
123,-43,6,172,3038,2132,2.07,-0.90,0.66,1.72,30.38,21.32,16.07,-3.08,-11.58,-13.68,3.15,1.23
182,-26,37,172,3026,2018,2.98,-0.97,0.82,1.72,30.26,20.18,16.10,-3.09,-11.59,-15.14,2.83,-1.23
222,-11,44,168,3033,2014,4.03,-0.94,1.00,1.68,30.33,20.14,16.14,-3.09,-11.59,-16.26,2.52,-1.62
344,22,64,177,3084,2043,5.73,-0.71,1.29,1.77,30.84,20.43,16.18,-3.10,-11.59,-19.23,1.79,-3.01
349,20,67,174,3100,2054,7.28,-0.52,1.57,1.74,31.00,20.54,16.23,-3.10,-11.60,-19.79,1.78,-2.97
327,-9,60,175,3124,2062,8.55,-0.52,1.78,1.75,31.24,20.62,16.28,-3.10,-11.60,-19.72,2.37,-2.15
311,-20,51,165,3102,2060,9.59,-0.59,1.91,1.65,31.02,20.60,16.33,-3.11,-11.61,-19.72,2.62,-1.25
267,-53,37,158,3061,1933,10.26,-0.85,1.95,1.58,30.61,19.33,16.39,-3.11,-11.61,-19.05,3.37,-0.03
283,-41,49,166,3068,1917,10.96,-1.02,2.05,1.66,30.68,19.17,16.45,-3.12,-11.62,-19.60,3.17,-0.93
283,-2,97,163,3109,1950,11.59,-0.93,2.44,1.63,31.09,19.50,16.52,-3.13,-11.62,-19.82,2.36,-4.59
220,-11,105,156,3158,1974,11.78,-0.90,2.84,1.56,31.58,19.74,16.58,-3.13,-11.63,-18.63,2.54,-4.85
256,27,73,108,3220,1907,12.16,-0.65,3.00,1.08,32.20,19.07,16.65,-3.14,-11.64,-19.51,1.70,-1.96
258,11,57,108,3217,1919,12.52,-0.52,3.05,1.08,32.17,19.19,16.71,-3.14,-11.65,-19.69,1.99,-0.56
218,-58,40,146,3250,1969,12.60,-0.82,2.98,1.46,32.50,19.69,16.78,-3.15,-11.66,-18.94,3.48,0.82
221,-56,48,146,3260,1907,12.68,-1.08,2.98,1.46,32.60,19.07,16.85,-3.16,-11.67,-19.07,3.52,0.14
297,-19,48,102,3293,1838,13.23,-1.09,2.97,1.02,32.93,18.38,16.92,-3.17,-11.68,-20.00,2.77,0.13
330,0,43,105,3312,1839,13.92,-0.98,2.94,1.05,33.12,18.39,16.99,-3.17,-11.69,-20.00,2.36,0.52
338,20,2,108,3323,1966,14.59,-0.76,2.66,1.08,33.23,19.66,17.07,-3.18,-11.70,-20.00,1.90,3.70
298,3,-14,103,3324,1979,14.95,-0.66,2.31,1.03,33.24,19.79,17.14,-3.18,-11.71,-20.00,2.22,4.68
213,-29,-64,103,3264,1971,14.75,-0.77,1.69,1.03,32.64,19.71,17.22,-3.19,-11.71,-19.72,2.90,8.26
187,-46,-85,116,3192,1915,14.42,-0.98,1.00,1.16,31.92,19.15,17.30,-3.19,-11.71,-19.15,3.31,9.31
208,-66,-45,149,3122,1774,14.24,-1.28,0.62,1.49,31.22,17.74,17.37,-3.20,-11.71,-19.58,3.80,5.53
252,-50,-25,139,3095,1734,14.36,-1.46,0.41,1.39,30.95,17.34,17.45,-3.20,-11.71,-20.00,3.53,3.60
391,19,34,160,3130,1803,15.31,-1.20,0.58,1.60,31.30,18.03,17.52,-3.21,-11.71,-20.00,2.06,-1.22
385,23,46,164,3155,1820,16.12,-0.94,0.80,1.64,31.55,18.20,17.61,-3.21,-11.71,-20.00,1.91,-2.00
321,0,63,158,3243,1797,16.47,-0.84,1.10,1.58,32.43,17.97,17.69,-3.22,-11.71,-20.00,2.35,-3.12
331,2,61,146,3258,1786,16.84,-0.75,1.36,1.46,32.58,17.86,17.77,-3.22,-11.72,-20.00,2.29,-2.67
348,-20,46,145,3354,1843,17.28,-0.79,1.51,1.45,33.54,18.43,17.86,-3.23,-11.72,-20.00,2.75,-1.24
337,-32,40,138,3366,1841,17.61,-0.91,1.60,1.38,33.66,18.41,17.95,-3.23,-11.72,-20.00,3.03,-0.64
303,-90,6,108,3310,1744,17.70,-1.37,1.48,1.08,33.10,17.44,18.04,-3.24,-11.73,-20.00,4.34,2.11
308,-94,-3,113,3274,1699,17.80,-1.80,1.31,1.13,32.74,16.99,18.13,-3.25,-11.73,-20.00,4.55,2.70
288,-65,24,131,3261,1658,17.78,-2.02,1.33,1.31,32.61,16.58,18.21,-3.26,-11.73,-20.00,4.02,0.43
262,-56,43,120,3289,1640,17.60,-2.16,1.46,1.20,32.89,16.40,18.30,-3.27,-11.73,-20.00,3.88,-1.04
304,15,50,98,3379,1641,17.70,-1.85,1.62,0.98,33.79,16.41,18.39,-3.28,-11.74,-20.00,2.36,-1.47
309,20,32,107,3385,1662,17.81,-1.55,1.65,1.07,33.85,16.62,18.48,-3.28,-11.74,-20.00,2.18,0.09
282,7,-45,131,3382,1677,17.75,-1.35,1.21,1.31,33.82,16.77,18.57,-3.29,-11.74,-20.00,2.40,6.15
270,7,-60,127,3355,1667,17.62,-1.17,0.72,1.27,33.55,16.67,18.66,-3.30,-11.74,-20.00,2.35,6.91
207,2,-86,127,3241,1634,17.12,-1.04,0.13,1.27,32.41,16.34,18.74,-3.30,-11.74,-20.00,2.42,8.48
203,16,-79,135,3222,1622,16.65,-0.84,-0.37,1.35,32.22,16.22,18.83,-3.30,-11.74,-20.00,2.08,7.36
227,46,-26,125,3245,1637,16.37,-0.48,-0.49,1.25,32.45,16.37,18.91,-3.30,-11.73,-20.00,1.37,2.74
292,56,2,130,3335,1660,16.51,-0.09,-0.43,1.30,33.35,16.60,18.99,-3.30,-11.73,-20.00,1.06,0.43
464,36,-9,125,3415,1764,17.69,0.14,-0.44,1.25,34.15,17.64,19.08,-3.30,-11.73,-20.00,1.41,1.35
492,17,-31,135,3409,1772,18.92,0.23,-0.59,1.35,34.09,17.72,19.17,-3.30,-11.72,-20.00,1.77,3.06
490,-60,-94,166,3285,1702,20.02,-0.16,-1.10,1.66,32.85,17.02,19.27,-3.30,-11.72,-20.00,3.44,7.85
454,-84,-97,180,3243,1623,20.79,-0.65,-1.58,1.80,32.43,16.23,19.37,-3.30,-11.71,-20.00,4.06,7.60
390,-82,-38,163,3148,1331,21.09,-1.09,-1.66,1.63,31.48,13.31,19.48,-3.30,-11.70,-20.00,4.14,2.52
407,-57,-9,161,3134,1309,21.46,-1.33,-1.55,1.61,31.34,13.09,19.58,-3.30,-11.69,-20.00,3.70,0.18
328,45,87,179,3165,1460,21.32,-0.92,-0.86,1.79,31.65,14.60,19.68,-3.31,-11.69,-20.00,1.52,-7.23
299,67,111,170,3238,1459,21.01,-0.42,-0.10,1.70,32.38,14.59,19.78,-3.31,-11.69,-20.00,0.94,-8.45
239,84,147,170,3393,1614,20.37,0.13,0.81,1.70,33.93,16.14,19.88,-3.31,-11.69,-20.00,0.44,-10.54
233,45,128,154,3475,1600,19.75,0.40,1.51,1.54,34.75,16.00,19.98,-3.31,-11.69,-20.00,1.16,-8.19
382,-32,76,120,3578,1591,20.11,0.16,1.82,1.20,35.78,15.91,20.08,-3.31,-11.70,-20.00,2.79,-3.46
451,-39,56,100,3558,1557,20.85,-0.09,1.98,1.00,35.58,15.57,20.18,-3.31,-11.71,-20.00,3.01,-1.59
674,-39,-8,110,3449,1549,22.87,-0.32,1.73,1.10,34.49,15.49,20.29,-3.32,-11.71,-20.00,3.07,3.57
699,-37,-8,129,3408,1554,24.85,-0.52,1.51,1.29,34.08,15.54,20.40,-3.32,-11.72,-20.00,3.09,3.33
581,-102,30,152,3324,1475,25.91,-1.09,1.54,1.52,33.24,14.75,20.52,-3.33,-11.72,-20.00,4.57,0.15
561,-102,50,155,3350,1433,26.74,-1.60,1.69,1.55,33.50,14.33,20.65,-3.34,-11.72,-20.00,4.71,-1.39
503,-64,96,149,3440,1423,27.13,-1.83,2.11,1.49,34.40,14.23,20.77,-3.35,-11.73,-20.00,4.01,-4.84
456,-72,93,146,3473,1430,27.20,-2.09,2.47,1.46,34.73,14.30,20.90,-3.36,-11.73,-20.00,4.25,-4.21
295,-98,54,115,3556,1380,26.28,-2.48,2.55,1.15,35.56,13.80,21.02,-3.37,-11.74,-20.00,4.89,-0.82
281,-83,30,112,3556,1322,25.37,-2.73,2.48,1.12,35.56,13.22,21.14,-3.38,-11.74,-20.00,4.67,1.14
398,-74,-2,124,3503,1313,25.26,-2.91,2.22,1.24,35.03,13.13,21.26,-3.40,-11.74,-20.00,4.54,3.57
369,-83,0,129,3498,1305,24.98,-3.13,2.00,1.29,34.98,13.05,21.38,-3.41,-11.75,-20.00,4.79,3.17
263,-140,10,99,3434,1021,24.09,-3.67,1.86,0.99,34.34,10.21,21.49,-3.43,-11.75,-20.00,6.11,2.18
269,-141,20,111,3460,1025,23.32,-4.16,1.79,1.11,34.60,10.25,21.60,-3.45,-11.75,-20.00,6.28,1.26
420,-28,69,116,3484,1032,23.55,-3.92,2.04,1.16,34.84,10.32,21.71,-3.46,-11.75,-20.00,3.92,-2.63
457,-2,75,134,3501,1085,23.98,-3.54,2.29,1.34,35.01,10.85,21.82,-3.48,-11.75,-20.00,3.30,-2.87
535,48,78,144,3605,1226,24.85,-2.89,2.54,1.44,36.05,12.26,21.94,-3.49,-11.75,-20.00,2.12,-2.87
461,-3,71,142,3619,1358,25.18,-2.62,2.72,1.42,36.19,13.58,22.06,-3.51,-11.76,-20.00,3.09,-2.08
420,10,8,131,3602,1311,25.22,-2.30,2.49,1.31,36.02,13.11,22.18,-3.52,-11.76,-20.00,2.75,3.02
417,-2,-21,138,3552,1251,25.24,-2.08,2.12,1.38,35.52,12.51,22.29,-3.53,-11.77,-20.00,2.94,5.08
301,-54,-6,145,3501,1210,24.55,-2.20,1.87,1.45,35.01,12.10,22.41,-3.54,-11.77,-20.00,4.04,3.54
276,-53,13,135,3497,1155,23.78,-2.30,1.76,1.35,34.97,11.55,22.52,-3.55,-11.77,-20.00,4.05,1.82
333,19,66,111,3544,1008,23.44,-1.96,1.99,1.11,35.44,10.08,22.63,-3.56,-11.77,-20.00,2.50,-2.43
362,3,83,102,3584,988,23.30,-1.74,2.29,1.02,35.84,9.88,22.74,-3.57,-11.78,-20.00,2.77,-3.54
275,-39,119,96,3713,1200,22.65,-1.81,2.79,0.96,37.13,12.00,22.85,-3.58,-11.78,-20.00,3.65,-6.07
222,-66,105,87,3734,1127,21.74,-2.03,3.15,0.87,37.34,11.27,22.95,-3.60,-11.79,-20.00,4.27,-4.50
102,-104,18,53,3758,1054,20.19,-2.46,2.95,0.53,37.58,10.54,23.05,-3.61,-11.80,-20.00,5.17,2.66
84,-109,1,40,3743,965,18.68,-2.88,2.66,0.40,37.43,9.65,23.14,-3.62,-11.80,-20.00,5.39,3.79
198,-13,-20,63,3660,999,18.02,-2.67,2.27,0.63,36.60,9.99,23.23,-3.64,-11.80,-20.00,3.39,5.16
229,18,-19,80,3619,1025,17.61,-2.29,1.93,0.80,36.19,10.25,23.32,-3.65,-11.81,-20.00,2.67,4.71
178,6,-12,98,3615,1127,16.94,-2.03,1.66,0.98,36.15,11.27,23.41,-3.66,-11.81,-20.00,2.84,3.84
172,5,-14,71,3607,1105,16.29,-1.79,1.41,0.71,36.07,11.05,23.49,-3.66,-11.81,-20.00,2.81,3.74
217,16,-50,83,3549,1080,15.99,-1.52,0.96,0.83,35.49,10.80,23.57,-3.67,-11.81,-20.00,2.51,6.32
236,26,-58,92,3535,1076,15.83,-1.21,0.51,0.92,35.35,10.76,23.65,-3.68,-11.81,-20.00,2.23,6.52
166,2,-53,154,3413,1139,15.26,-1.07,0.14,1.54,34.13,11.39,23.73,-3.68,-11.81,-20.00,2.68,5.70
124,-19,-40,158,3406,1106,14.49,-1.08,-0.12,1.58,34.06,11.06,23.80,-3.68,-11.80,-20.00,3.11,4.33
123,-26,31,114,3444,1013,13.79,-1.13,0.08,1.14,34.44,10.13,23.88,-3.69,-11.80,-20.00,3.27,-1.48
138,-28,42,107,3467,996,13.25,-1.19,0.33,1.07,34.67,9.96,23.95,-3.69,-11.80,-20.00,3.33,-2.15
213,-19,47,118,3595,1060,13.23,-1.19,0.58,1.18,35.95,10.60,24.02,-3.70,-11.80,-20.00,3.15,-2.30
210,-34,30,120,3589,1059,13.19,-1.28,0.71,1.20,35.89,10.59,24.09,-3.70,-11.80,-20.00,3.48,-0.73
278,-56,-6,112,3541,1023,13.56,-1.49,0.60,1.12,35.41,10.23,24.16,-3.71,-11.80,-20.00,3.99,2.21
268,-74,-6,142,3507,1079,13.84,-1.79,0.50,1.42,35.07,10.79,24.23,-3.72,-11.79,-20.00,4.45,2.10
188,-160,9,118,3377,960,13.60,-2.59,0.51,1.18,33.77,9.60,24.30,-3.73,-11.79,-20.00,6.42,0.84
187,-158,30,130,3388,945,13.38,-3.29,0.64,1.30,33.88,9.45,24.37,-3.74,-11.79,-20.00,6.58,-0.80
207,-128,120,77,3490,852,13.31,-3.75,1.31,0.77,34.90,8.52,24.44,-3.76,-11.78,-20.00,6.10,-7.72
224,-119,136,58,3550,832,13.34,-4.10,2.01,0.58,35.50,8.32,24.51,-3.77,-11.78,-20.00,6.03,-8.34
358,-54,136,50,3708,895,14.19,-4.02,2.64,0.50,37.08,8.95,24.59,-3.79,-11.78,-20.00,4.70,-7.67
391,-36,115,48,3733,935,15.16,-3.83,3.07,0.48,37.33,9.35,24.67,-3.81,-11.79,-20.00,4.29,-5.43
293,-83,24,87,3794,991,15.43,-3.96,2.91,0.87,37.94,9.91,24.74,-3.83,-11.79,-20.00,5.29,2.11
237,-102,-15,68,3746,913,15.33,-4.18,2.53,0.68,37.46,9.13,24.82,-3.85,-11.79,-20.00,5.75,5.01
189,-125,-71,77,3620,809,14.95,-4.53,1.84,0.77,36.20,8.09,24.90,-3.87,-11.79,-20.00,6.33,9.03
207,-100,-64,96,3593,794,14.72,-4.69,1.27,0.96,35.93,7.94,24.98,-3.89,-11.79,-20.00,5.88,7.83
246,-55,35,108,3629,746,14.75,-4.55,1.36,1.08,36.29,7.46,25.05,-3.90,-11.78,-20.00,4.94,-0.47
287,-28,62,108,3670,745,15.02,-4.27,1.60,1.08,36.70,7.45,25.13,-3.92,-11.78,-20.00,4.32,-2.50
358,3,72,117,3746,851,15.71,-3.82,1.88,1.17,37.46,8.51,25.21,-3.94,-11.78,-20.00,3.58,-3.05
350,-6,53,117,3764,864,16.27,-3.48,2.01,1.17,37.64,8.64,25.29,-3.95,-11.78,-20.00,3.68,-1.30
286,-50,-19,102,3729,832,16.39,-3.43,1.70,1.02,37.29,8.32,25.37,-3.97,-11.78,-20.00,4.57,4.47
265,-66,-31,100,3716,787,16.37,-3.49,1.34,1.00,37.16,7.87,25.46,-3.98,-11.78,-20.00,4.92,5.10
347,-16,-17,87,3655,670,16.85,-3.24,1.10,0.87,36.55,6.70,25.54,-4.00,-11.77,-20.00,3.85,3.66
402,25,1,80,3599,696,17.61,-2.77,1.00,0.80,35.99,6.96,25.63,-4.01,-11.77,-20.00,2.89,2.03
373,51,51,106,3636,799,18.13,-2.18,1.21,1.06,36.36,7.99,25.72,-4.02,-11.77,-20.00,2.21,-1.98
354,53,63,99,3640,802,18.47,-1.64,1.47,0.99,36.40,8.02,25.81,-4.03,-11.77,-20.00,2.03,-2.72
323,15,65,94,3699,757,18.60,-1.38,1.72,0.94,36.99,7.57,25.90,-4.03,-11.77,-20.00,2.73,-2.63
326,2,67,97,3719,777,18.73,-1.23,1.96,0.97,37.19,7.77,25.99,-4.04,-11.78,-20.00,2.96,-2.54
292,-48,66,93,3761,738,18.63,-1.40,2.16,0.93,37.61,7.38,26.08,-4.05,-11.78,-20.00,4.03,-2.24
288,-58,60,90,3775,699,18.53,-1.61,2.31,0.90,37.75,6.99,26.18,-4.06,-11.79,-20.00,4.30,-1.57
253,-71,30,93,3776,678,18.22,-1.89,2.27,0.93,37.76,6.78,26.27,-4.07,-11.79,-20.00,4.64,0.92
224,-73,21,88,3772,663,17.76,-2.14,2.17,0.88,37.72,6.63,26.35,-4.08,-11.79,-20.00,4.76,1.58
145,-58,-12,77,3766,600,16.87,-2.28,1.88,0.77,37.66,6.00,26.44,-4.09,-11.79,-20.00,4.50,4.07
110,-51,-27,86,3726,599,15.85,-2.37,1.52,0.86,37.26,5.99,26.52,-4.10,-11.79,-20.00,4.39,4.96
37,-40,-44,98,3622,549,14.50,-2.37,1.10,0.98,36.22,5.49,26.59,-4.11,-11.79,-20.00,4.17,5.96
39,-27,-33,99,3601,562,13.28,-2.30,0.79,0.99,36.01,5.62,26.66,-4.12,-11.79,-20.00,3.90,4.70
46,8,29,114,3613,621,12.24,-2.02,0.89,1.14,36.13,6.21,26.73,-4.13,-11.79,-20.00,3.11,-0.45
50,15,40,114,3645,653,11.32,-1.73,1.04,1.14,36.45,6.53,26.79,-4.14,-11.79,-20.00,2.90,-1.22
16,-1,39,92,3727,724,10.28,-1.56,1.18,0.92,37.27,7.24,26.85,-4.15,-11.79,-20.00,3.18,-1.00
1,-16,24,80,3723,710,9.26,-1.50,1.21,0.80,37.23,7.10,26.90,-4.15,-11.79,-20.00,3.48,0.31
41,-25,-23,71,3703,656,8.58,-1.50,0.95,0.71,37.03,6.56,26.96,-4.16,-11.79,-20.00,3.66,4.01
58,-18,-25,69,3677,658,8.08,-1.46,0.70,0.69,36.77,6.58,27.00,-4.17,-11.79,-20.00,3.51,3.92
23,-22,-7,77,3623,682,7.41,-1.45,0.59,0.77,36.23,6.82,27.05,-4.17,-11.78,-20.00,3.60,2.27
-1,-17,14,84,3639,668,6.67,-1.41,0.61,0.84,36.39,6.68,27.10,-4.18,-11.78,-19.68,3.49,0.52
8,-20,34,80,3673,584,6.05,-1.39,0.76,0.80,36.73,5.84,27.14,-4.18,-11.78,-19.72,3.55,-1.02
34,-12,39,74,3695,585,5.65,-1.33,0.92,0.74,36.95,5.85,27.18,-4.19,-11.78,-20.00,3.37,-1.27
103,10,50,96,3737,649,5.71,-1.13,1.13,0.96,37.37,6.49,27.22,-4.19,-11.78,-20.00,2.87,-1.98
123,19,46,102,3736,656,5.89,-0.90,1.30,1.02,37.36,6.56,27.26,-4.20,-11.78,-20.00,2.63,-1.46
110,5,21,106,3739,747,5.97,-0.78,1.30,1.06,37.39,7.47,27.30,-4.20,-11.78,-20.00,2.89,0.66
90,-4,16,107,3761,732,5.93,-0.73,1.27,1.07,37.61,7.32,27.34,-4.21,-11.79,-20.00,3.06,1.05
31,-36,-5,86,3753,643,5.52,-0.87,1.11,0.86,37.53,6.43,27.38,-4.21,-11.79,-20.00,3.75,2.66
33,-38,-18,76,3743,607,5.17,-1.02,0.89,0.76,37.43,6.07,27.41,-4.22,-11.79,-20.00,3.83,3.53
75,-12,-33,92,3719,633,5.11,-0.99,0.60,0.92,37.19,6.33,27.45,-4.22,-11.79,-20.00,3.30,4.49
67,-7,-24,97,3705,661,5.01,-0.93,0.39,0.97,37.05,6.61,27.49,-4.23,-11.79,-20.00,3.19,3.51
30,-14,-6,83,3710,600,4.69,-0.93,0.32,0.83,37.10,6.00,27.52,-4.23,-11.78,-20.00,3.33,1.90
57,1,-4,76,3711,571,4.57,-0.83,0.26,0.76,37.11,5.71,27.56,-4.23,-11.78,-20.00,3.00,1.68
72,3,0,89,3720,615,4.55,-0.73,0.23,0.89,37.20,6.15,27.60,-4.24,-11.78,-20.00,2.93,1.31
64,0,3,88,3732,604,4.49,-0.65,0.23,0.88,37.32,6.04,27.63,-4.24,-11.78,-20.00,2.97,1.05
65,7,2,87,3767,601,4.44,-0.55,0.22,0.87,37.67,6.01,27.67,-4.24,-11.78,-20.00,2.80,1.12
63,9,-3,81,3784,603,4.38,-0.44,0.18,0.81,37.84,6.03,27.70,-4.24,-11.78,-20.00,2.73,1.50
19,-9,-33,77,3783,620,4.05,-0.45,-0.04,0.77,37.83,6.20,27.73,-4.24,-11.77,-19.80,3.10,3.81
11,-16,-47,76,3764,597,3.72,-0.50,-0.32,0.76,37.64,5.97,27.77,-4.24,-11.77,-19.56,3.26,4.70
17,-23,-67,67,3709,566,3.45,-0.59,-0.70,0.67,37.09,5.66,27.80,-4.24,-11.76,-19.63,3.43,5.99
4,-29,-62,76,3675,549,3.13,-0.71,-1.01,0.76,36.75,5.49,27.83,-4.24,-11.76,-19.30,3.58,5.24
-21,-13,-32,88,3636,510,2.69,-0.72,-1.10,0.88,36.36,5.10,27.85,-4.24,-11.75,-18.69,3.26,2.60
-24,-2,-17,88,3623,530,2.27,-0.66,-1.10,0.88,36.23,5.30,27.88,-4.24,-11.75,-18.53,3.02,1.34
-82,13,12,93,3615,569,1.54,-0.51,-0.91,0.93,36.15,5.69,27.90,-4.24,-11.74,-17.17,2.68,-0.93
-94,17,15,92,3642,558,0.82,-0.36,-0.73,0.92,36.42,5.58,27.92,-4.24,-11.74,-16.74,2.55,-0.99
-89,46,29,85,3786,621,0.19,-0.04,-0.48,0.85,37.86,6.21,27.94,-4.24,-11.73,-16.68,1.87,-1.91
-96,44,24,80,3801,637,-0.41,0.23,-0.29,0.80,38.01,6.37,27.96,-4.24,-11.73,-16.39,1.84,-1.28
-93,11,-51,79,3775,623,-0.94,0.28,-0.57,0.79,37.75,6.23,27.97,-4.24,-11.73,-16.31,2.50,4.77
-68,9,-64,70,3750,623,-1.26,0.30,-0.90,0.70,37.50,6.23,27.98,-4.23,-11.72,-16.74,2.53,5.52
-32,-14,-65,86,3658,621,-1.33,0.19,-1.21,0.86,36.58,6.21,28.00,-4.23,-11.72,-17.46,3.03,5.28
-40,-20,-47,98,3637,618,-1.44,0.05,-1.37,0.98,36.37,6.18,28.01,-4.23,-11.71,-17.28,3.18,3.58
-89,-12,-6,82,3666,606,-1.84,-0.03,-1.27,0.82,36.66,6.06,28.02,-4.22,-11.71,-16.18,3.04,0.21
-116,-14,-2,78,3680,591,-2.36,-0.11,-1.16,0.78,36.80,5.91,28.03,-4.22,-11.70,-15.49,3.10,-0.00
-139,10,-6,53,3728,651,-2.97,-0.04,-1.08,0.53,37.28,6.51,28.03,-4.22,-11.70,-14.86,2.59,0.42
-156,13,-8,55,3736,713,-3.63,0.04,-1.02,0.55,37.36,7.13,28.03,-4.22,-11.69,-14.34,2.51,0.65
-253,12,-22,19,3741,834,-4.81,0.11,-1.05,0.19,37.41,8.34,28.03,-4.21,-11.69,-12.05,2.51,1.80
-284,8,-29,23,3739,877,-6.06,0.15,-1.12,0.23,37.39,8.77,28.02,-4.21,-11.68,-11.07,2.57,2.32
-393,-21,-40,62,3754,956,-7.85,0.01,-1.26,0.62,37.54,9.56,28.01,-4.21,-11.68,-8.35,3.20,3.11
-418,-38,-47,67,3717,941,-9.62,-0.23,-1.42,0.67,37.17,9.41,27.99,-4.20,-11.67,-7.35,3.61,3.53
-435,-126,-63,144,3647,815,-11.31,-0.97,-1.66,1.44,36.47,8.15,27.96,-4.20,-11.66,-6.53,5.60,4.63
-394,-143,-38,142,3634,721,-12.58,-1.75,-1.73,1.42,36.34,7.21,27.93,-4.21,-11.65,-6.99,6.16,2.44
-231,-115,14,148,3636,604,-12.73,-2.27,-1.47,1.48,36.36,6.04,27.90,-4.21,-11.64,-10.24,5.74,-1.69
-191,-101,23,154,3654,603,-12.62,-2.66,-1.18,1.54,36.54,6.03,27.86,-4.22,-11.63,-11.06,5.56,-2.15
-136,-62,21,152,3663,606,-12.19,-2.77,-0.93,1.52,36.63,6.06,27.83,-4.23,-11.62,-12.28,4.81,-1.72
-161,-69,13,158,3672,579,-11.95,-2.92,-0.76,1.58,36.72,5.79,27.80,-4.24,-11.61,-11.82,4.99,-0.86
-237,-103,-3,156,3671,495,-12.20,-3.25,-0.70,1.56,36.71,4.95,27.77,-4.25,-11.60,-10.18,5.78,0.55
-217,-92,1,127,3665,490,-12.31,-3.49,-0.63,1.27,36.65,4.90,27.74,-4.26,-11.59,-10.54,5.63,0.29
-114,25,17,111,3646,678,-11.77,-2.99,-0.46,1.11,36.46,6.78,27.71,-4.27,-11.58,-12.76,3.12,-0.89
-87,63,14,109,3643,701,-11.13,-2.31,-0.33,1.09,36.43,7.01,27.68,-4.27,-11.57,-13.47,2.17,-0.49
-16,92,17,103,3686,801,-10.11,-1.51,-0.19,1.03,36.86,8.01,27.66,-4.28,-11.57,-15.17,1.37,-0.60
-19,66,12,99,3699,823,-9.22,-0.96,-0.10,0.99,36.99,8.23,27.64,-4.28,-11.57,-15.34,1.74,-0.08
-43,10,-27,78,3714,785,-8.56,-0.80,-0.25,0.78,37.14,7.85,27.62,-4.28,-11.56,-15.02,2.84,3.06
-41,9,-36,75,3720,771,-7.95,-0.67,-0.45,0.75,37.20,7.71,27.61,-4.28,-11.56,-15.22,2.83,3.61
5,78,-57,74,3679,670,-7.13,-0.13,-0.75,0.74,36.79,6.70,27.60,-4.28,-11.55,-16.37,1.27,5.07
18,94,-61,66,3641,632,-6.30,0.46,-1.05,0.66,36.41,6.32,27.59,-4.28,-11.55,-16.86,0.79,5.10
-106,91,-54,109,3575,778,-6.32,0.97,-1.27,1.09,35.75,7.78,27.58,-4.27,-11.55,-14.32,0.70,4.27
-172,83,-44,112,3550,789,-6.74,1.38,-1.41,1.12,35.50,7.89,27.57,-4.26,-11.54,-12.86,0.75,3.27
-367,42,-16,137,3548,820,-8.30,1.50,-1.37,1.37,35.48,8.20,27.55,-4.26,-11.54,-8.46,1.55,0.94
-407,30,-9,142,3569,820,-9.95,1.53,-1.29,1.42,35.69,8.20,27.53,-4.25,-11.54,-7.18,1.78,0.44
-447,36,3,114,3656,821,-11.69,1.60,-1.14,1.14,36.56,8.21,27.50,-4.24,-11.53,-5.88,1.63,-0.42
-434,44,-18,118,3655,834,-13.16,1.71,-1.14,1.18,36.55,8.34,27.47,-4.23,-11.53,-5.71,1.43,1.36
-463,33,-68,119,3633,905,-14.67,1.74,-1.44,1.19,36.33,9.05,27.43,-4.22,-11.53,-4.69,1.64,5.28
-482,25,-77,113,3612,903,-16.15,1.72,-1.76,1.13,36.12,9.03,27.38,-4.21,-11.52,-3.87,1.80,5.69
-457,40,-75,134,3538,942,-17.32,1.79,-2.04,1.34,35.38,9.42,27.33,-4.20,-11.52,-4.02,1.47,5.23
-443,44,-69,139,3520,967,-18.29,1.88,-2.26,1.39,35.20,9.67,27.27,-4.19,-11.51,-4.00,1.36,4.49
-444,20,-39,143,3529,1004,-19.17,1.81,-2.27,1.43,35.29,10.04,27.21,-4.18,-11.51,-3.70,1.86,1.93
-427,22,-30,143,3535,983,-19.86,1.76,-2.23,1.43,35.35,9.83,27.15,-4.17,-11.50,-3.82,1.82,1.22
-352,35,-24,135,3564,1015,-20.02,1.80,-2.15,1.35,35.64,10.15,27.09,-4.16,-11.50,-5.26,1.54,0.79
-353,33,-25,139,3589,1031,-20.17,1.82,-2.09,1.39,35.89,10.31,27.02,-4.15,-11.49,-5.16,1.57,0.94
-419,23,-32,138,3661,1050,-20.71,1.78,-2.08,1.38,36.61,10.50,26.96,-4.14,-11.48,-3.63,1.78,1.55
-461,19,-48,138,3704,1027,-21.45,1.72,-2.16,1.38,37.04,10.27,26.89,-4.13,-11.48,-2.52,1.87,2.81
-542,48,-98,129,3732,1063,-22.61,1.84,-2.54,1.29,37.32,10.63,26.82,-4.12,-11.47,-0.51,1.24,6.64
-594,53,-116,130,3729,1070,-23.97,1.98,-3.00,1.30,37.29,10.70,26.74,-4.10,-11.46,0.97,1.09,7.69
-824,41,-183,129,3682,1064,-26.60,2.03,-3.81,1.29,36.82,10.64,26.65,-4.09,-11.45,6.42,1.31,12.50
-889,28,-196,132,3662,1056,-29.36,2.00,-4.63,1.32,36.62,10.56,26.55,-4.07,-11.44,8.56,1.57,12.74
-1096,6,-218,172,3561,1149,-33.11,1.84,-5.49,1.72,35.61,11.49,26.44,-4.06,-11.42,13.87,2.05,13.68
-1138,10,-218,179,3558,1173,-36.74,1.71,-6.27,1.79,35.58,11.73,26.31,-4.04,-11.40,15.80,1.99,12.85
-1221,31,-211,186,3515,1269,-40.52,1.73,-6.93,1.86,35.15,12.69,26.16,-4.02,-11.38,18.61,1.55,11.56
-1231,34,-211,194,3509,1311,-43.98,1.77,-7.53,1.94,35.09,13.11,26.01,-4.00,-11.35,19.86,1.47,10.93
-1288,24,-227,184,3498,1441,-47.43,1.74,-8.16,1.84,34.98,14.41,25.84,-3.98,-11.32,20.00,1.67,11.61
-1305,19,-244,194,3460,1466,-50.65,1.68,-8.83,1.94,34.60,14.66,25.65,-3.96,-11.29,20.00,1.77,12.34
-1335,16,-286,198,3406,1539,-53.73,1.61,-9.69,1.98,34.06,15.39,25.46,-3.94,-11.26,20.00,1.83,14.98
-1357,15,-293,203,3386,1568,-56.63,1.54,-10.51,2.03,33.86,15.68,25.25,-3.91,-11.22,20.00,1.86,14.70
-1473,7,-305,231,3299,1613,-59.96,1.43,-11.32,2.31,32.99,16.13,25.03,-3.89,-11.18,20.00,2.03,14.86
-1511,4,-304,237,3279,1602,-63.18,1.31,-12.04,2.37,32.79,16.02,24.80,-3.86,-11.14,20.00,2.11,14.01
-1536,24,-274,243,3209,1628,-66.23,1.32,-12.51,2.43,32.09,16.28,24.55,-3.84,-11.10,20.00,1.68,10.97
-1495,49,-259,258,3209,1651,-68.73,1.49,-12.84,2.58,32.09,16.51,24.30,-3.81,-11.05,20.00,1.11,9.34
-1255,148,-197,268,3182,1824,-69.51,2.24,-12.76,2.68,31.82,18.24,24.04,-3.78,-11.01,20.00,-1.12,4.17
-1204,152,-187,280,3172,1873,-69.90,2.95,-12.62,2.80,31.72,18.73,23.78,-3.75,-10.96,20.00,-1.42,3.46
-1227,23,-172,303,3201,2038,-70.40,2.79,-12.41,3.03,32.01,20.38,23.52,-3.72,-10.92,20.00,1.23,2.42
-1147,13,-174,277,3171,1997,-70.35,2.59,-12.23,2.77,31.71,19.97,23.26,-3.69,-10.88,20.00,1.47,2.77
-862,25,-187,300,3106,2019,-68.58,2.49,-12.15,3.00,31.06,20.19,23.00,-3.67,-10.84,20.00,1.23,3.96
-805,30,-185,307,3078,2057,-66.63,2.42,-12.06,3.07,30.78,20.57,22.75,-3.64,-10.80,19.52,1.13,3.87
-656,23,-141,339,3060,2099,-63.97,2.32,-11.71,3.39,30.60,20.99,22.52,-3.62,-10.76,15.92,1.29,0.51
-642,17,-125,334,3065,2129,-61.49,2.19,-11.31,3.34,30.65,21.29,22.29,-3.59,-10.72,15.11,1.43,-0.42
-678,-33,-108,327,3001,2102,-59.47,1.77,-10.83,3.27,30.01,21.02,22.07,-3.57,-10.68,15.43,2.54,-1.36
-675,-34,-113,325,2987,2082,-57.64,1.39,-10.44,3.25,29.87,20.82,21.86,-3.55,-10.64,15.01,2.66,-0.52
-605,18,-110,315,2900,2044,-55.57,1.36,-10.07,3.15,29.00,20.44,21.66,-3.53,-10.60,13.16,1.59,-0.39
-524,74,-96,297,2886,2008,-53.21,1.67,-9.65,2.97,28.86,20.08,21.47,-3.51,-10.57,11.00,0.36,-1.13
-392,127,11,362,2871,2177,-50.28,2.28,-8.61,3.62,28.71,21.77,21.28,-3.49,-10.54,7.63,-0.90,-9.11
-387,116,55,345,2867,2213,-47.61,2.76,-7.42,3.45,28.67,22.13,21.11,-3.47,-10.51,6.92,-0.82,-11.57
-271,83,98,336,2865,2225,-44.50,2.99,-6.08,3.36,28.65,22.25,20.95,-3.45,-10.49,3.82,-0.22,-13.79
-226,76,103,333,2852,2249,-41.43,3.15,-4.84,3.33,28.52,22.49,20.81,-3.44,-10.48,2.16,-0.14,-12.91
-207,3,131,337,2895,2304,-38.55,2.86,-3.56,3.37,28.95,23.04,20.67,-3.42,-10.47,1.08,1.42,-13.92
-214,-15,144,326,2929,2267,-36.00,2.48,-2.32,3.26,29.29,22.67,20.54,-3.41,-10.46,0.61,1.88,-13.72
-132,-13,156,292,3010,2214,-33.21,2.15,-1.14,2.92,30.10,22.14,20.43,-3.40,-10.46,-1.74,1.92,-13.48
-121,-15,141,291,3030,2199,-30.62,1.85,-0.17,2.91,30.30,21.99,20.32,-3.40,-10.46,-2.60,2.04,-11.18
-163,-14,68,282,3128,2100,-28.56,1.58,0.27,2.82,31.28,21.00,20.23,-3.39,-10.46,-2.25,2.09,-4.54
-172,-7,51,260,3131,2078,-26.75,1.38,0.55,2.60,31.31,20.78,20.14,-3.39,-10.47,-2.50,2.00,-2.80
-279,34,-16,290,3110,2148,-25.78,1.45,0.40,2.90,31.10,21.48,20.05,-3.38,-10.47,-0.53,1.15,2.72
-317,50,-46,274,3056,2143,-25.13,1.61,0.08,2.74,30.56,21.43,19.97,-3.38,-10.47,0.12,0.78,4.92
-343,82,-89,295,2920,2331,-24.71,1.95,-0.47,2.95,29.20,23.31,19.89,-3.37,-10.47,0.59,0.03,7.98
-341,87,-87,301,2887,2370,-24.32,2.28,-0.96,3.01,28.87,23.70,19.81,-3.36,-10.47,0.49,-0.17,7.30
-332,61,-57,297,2811,2437,-23.91,2.43,-1.21,2.97,28.11,24.37,19.73,-3.35,-10.47,0.25,0.31,4.49
-319,51,-46,291,2811,2442,-23.47,2.49,-1.37,2.91,28.11,24.42,19.65,-3.34,-10.46,-0.08,0.49,3.39
-300,0,-22,296,2858,2445,-22.95,2.24,-1.37,2.96,28.58,24.45,19.58,-3.33,-10.46,-0.56,1.59,1.36
-284,-2,-23,286,2852,2418,-22.39,2.01,-1.37,2.86,28.52,24.18,19.50,-3.32,-10.46,-0.99,1.69,1.44
-276,-53,-28,344,2898,2432,-21.83,1.48,-1.40,3.44,28.98,24.32,19.43,-3.32,-10.45,-1.26,2.86,1.83
-295,-64,-32,315,2892,2367,-21.45,0.95,-1.46,3.15,28.92,23.67,19.37,-3.31,-10.45,-0.94,3.23,2.11
-332,-95,-48,334,2876,2382,-21.33,0.27,-1.61,3.34,28.76,23.82,19.30,-3.31,-10.44,-0.17,4.04,3.31
-331,-65,-51,311,2888,2305,-21.22,-0.15,-1.76,3.11,28.88,23.05,19.23,-3.31,-10.43,-0.18,3.55,3.40
-345,-24,-66,328,2850,2316,-21.20,-0.28,-1.98,3.28,28.50,23.16,19.17,-3.31,-10.42,0.15,2.75,4.43
-340,-4,-70,325,2859,2344,-21.15,-0.28,-2.21,3.25,28.59,23.44,19.10,-3.31,-10.41,0.08,2.34,4.53
-432,-16,-76,348,2842,2448,-21.67,-0.35,-2.45,3.48,28.42,24.48,19.03,-3.31,-10.40,2.13,2.61,4.78
-441,-6,-83,345,2837,2440,-22.20,-0.35,-2.71,3.45,28.37,24.40,18.96,-3.31,-10.39,2.51,2.40,5.09
-453,9,-101,387,2858,2474,-22.74,-0.26,-3.06,3.87,28.58,24.74,18.89,-3.31,-10.38,2.95,2.07,6.25
-491,-1,-101,396,2876,2497,-23.46,-0.24,-3.37,3.96,28.76,24.97,18.81,-3.31,-10.37,3.97,2.27,5.92
-577,-170,-71,396,2643,2664,-24.63,-1.25,-3.47,3.96,26.43,26.64,18.73,-3.31,-10.35,6.09,5.98,3.28
-506,-186,-50,340,2563,2630,-25.26,-2.26,-3.42,3.40,25.63,26.30,18.65,-3.32,-10.33,4.87,6.59,1.54
-455,-239,34,340,2561,2455,-25.51,-3.49,-2.87,3.40,25.61,24.55,18.56,-3.33,-10.32,3.95,8.01,-5.00
-504,-192,40,305,2656,2456,-26.03,-4.32,-2.34,3.05,26.56,24.56,18.48,-3.34,-10.30,5.15,7.29,-4.94
-441,-190,-36,327,2744,2516,-26.12,-5.04,-2.33,3.27,27.44,25.16,18.39,-3.36,-10.28,3.95,7.46,1.51
-441,-191,-63,332,2739,2550,-26.20,-5.70,-2.48,3.32,27.39,25.50,18.31,-3.38,-10.27,4.03,7.67,3.64
-466,-194,-119,344,2652,2470,-26.42,-6.32,-2.96,3.44,26.52,24.70,18.22,-3.40,-10.25,4.65,7.91,7.87
-421,-170,-118,371,2622,2523,-26.35,-6.72,-3.38,3.71,26.22,25.23,18.13,-3.42,-10.22,3.78,7.55,7.34
-254,-142,-59,397,2590,2546,-25.26,-6.92,-3.40,3.97,25.90,25.46,18.05,-3.45,-10.20,0.14,7.05,2.31
-218,-119,-38,422,2588,2591,-24.06,-6.95,-3.29,4.22,25.88,25.91,17.97,-3.47,-10.18,-0.87,6.61,0.65
-290,-113,-17,393,2946,2637,-23.43,-6.95,-3.07,3.93,29.46,26.37,17.90,-3.50,-10.16,0.47,6.50,-0.90
-620,-137,-54,431,2944,2456,-24.87,-7.09,-3.09,4.31,29.44,24.56,17.82,-3.52,-10.14,7.63,7.04,2.21
-1178,146,-262,286,2871,2028,-29.57,-5.49,-4.38,2.86,28.71,20.28,17.72,-3.54,-10.11,20.00,0.86,18.47
-1240,302,-354,356,2764,2236,-34.17,-3.10,-6.10,3.56,27.64,22.36,17.60,-3.54,-10.08,20.00,-2.96,20.00
-1793,380,-433,417,2511,2660,-41.69,-0.47,-8.13,4.17,25.11,26.60,17.45,-3.54,-10.05,20.00,-5.26,20.00
-1887,380,-424,376,2466,2567,-49.03,1.90,-9.91,3.76,24.66,25.67,17.28,-3.52,-10.01,20.00,-5.92,20.00
-2234,123,-354,466,2270,3008,-57.76,2.46,-11.07,4.66,22.70,30.08,17.07,-3.50,-9.97,20.00,-0.86,19.16
-2265,93,-341,434,2259,3066,-65.80,2.78,-12.05,4.34,22.59,30.66,16.82,-3.48,-9.93,20.00,-0.35,17.03
-2191,-20,-309,381,2164,3005,-72.58,2.38,-12.73,3.81,21.64,30.05,16.55,-3.46,-9.88,20.00,2.04,13.59
-2080,-11,-313,374,2159,2999,-78.01,2.07,-13.36,3.74,21.59,29.99,16.26,-3.44,-9.83,20.00,1.93,13.25
-1641,30,-323,386,2105,3026,-80.22,2.05,-14.00,3.86,21.05,30.26,15.96,-3.42,-9.78,20.00,1.09,13.42
-1604,8,-322,432,2060,3169,-81.98,1.89,-14.56,4.32,20.60,31.69,15.65,-3.40,-9.72,20.00,1.56,12.74
-1637,-54,-300,420,1945,3008,-83.77,1.37,-14.94,4.20,19.45,30.08,15.34,-3.38,-9.67,20.00,2.95,10.47
-1445,3,-268,434,1889,2966,-84.21,1.26,-15.08,4.34,18.89,29.66,15.02,-3.36,-9.61,20.00,1.82,7.61
-933,139,-188,463,1728,3009,-81.48,1.98,-14.72,4.63,17.28,30.09,14.72,-3.35,-9.55,20.00,-1.16,1.20
-779,186,-165,474,1712,3050,-78.08,2.91,-14.25,4.74,17.12,30.50,14.42,-3.33,-9.50,20.00,-2.38,-0.26
-211,285,-55,484,1701,3226,-71.56,4.36,-13.16,4.84,17.01,32.26,14.16,-3.30,-9.45,14.46,-4.81,-8.43
-97,270,-29,496,1705,3352,-65.00,5.57,-12.02,4.96,17.05,33.52,13.92,-3.27,-9.41,10.51,-4.85,-9.43
-19,150,14,485,1797,3468,-58.61,5.93,-10.73,4.85,17.97,34.68,13.70,-3.25,-9.37,7.33,-2.52,-11.71
-44,107,18,474,1825,3483,-53.02,5.99,-9.55,4.74,18.25,34.83,13.51,-3.22,-9.34,6.44,-1.68,-10.80
128,130,13,381,1886,3172,-46.94,6.18,-8.52,3.81,18.86,31.72,13.34,-3.19,-9.31,1.39,-2.22,-9.28
234,110,14,356,1886,3162,-40.82,6.24,-7.58,3.56,18.86,31.62,13.20,-3.16,-9.29,-2.34,-1.85,-8.38
227,66,3,447,1886,3433,-35.35,6.02,-6.80,4.47,18.86,34.33,13.07,-3.13,-9.27,-3.60,-0.91,-6.62
143,40,-2,448,1892,3343,-30.94,5.66,-6.14,4.48,18.92,33.43,12.97,-3.11,-9.25,-3.03,-0.30,-5.50
-157,-56,-52,436,1881,3343,-28.81,4.75,-5.84,4.36,18.81,33.43,12.87,-3.09,-9.23,2.55,1.88,-0.95
-242,-71,-69,428,1890,3320,-27.40,3.84,-5.68,4.28,18.90,33.20,12.78,-3.07,-9.21,3.96,2.43,0.66
-478,-104,-118,406,1832,3178,-27.58,2.82,-5.83,4.06,18.32,31.78,12.69,-3.06,-9.19,8.86,3.37,4.65
-499,-94,-128,413,1789,3164,-27.86,1.97,-6.03,4.13,17.89,31.64,12.60,-3.05,-9.16,9.43,3.39,5.29
-372,27,-121,434,1722,3217,-27.35,1.94,-6.16,4.34,17.22,32.17,12.50,-3.04,-9.14,6.77,0.93,4.55
-340,46,-111,439,1699,3251,-26.69,2.02,-6.22,4.39,16.99,32.51,12.42,-3.04,-9.12,5.99,0.52,3.64
-375,0,-95,474,1676,3398,-26.30,1.82,-6.18,4.74,16.76,33.98,12.33,-3.03,-9.09,6.66,1.50,2.32
-397,-21,-93,476,1684,3369,-26.10,1.51,-6.13,4.76,16.84,33.69,12.24,-3.02,-9.07,7.11,2.01,2.21
-449,-83,-96,482,1665,3258,-26.23,0.85,-6.10,4.82,16.65,32.58,12.16,-3.02,-9.04,8.26,3.45,2.49
-400,-71,-97,465,1635,3173,-26.04,0.33,-6.08,4.65,16.35,31.73,12.07,-3.02,-9.02,7.27,3.34,2.59
-238,9,-69,471,1552,3220,-24.89,0.36,-5.90,4.71,15.52,32.20,11.99,-3.02,-9.00,3.71,1.71,0.41
-207,32,-56,487,1540,3219,-23.66,0.52,-5.65,4.87,15.40,32.19,11.91,-3.02,-8.97,2.80,1.20,-0.43
-194,45,-10,493,1534,3322,-22.48,0.74,-5.14,4.93,15.34,33.22,11.84,-3.02,-8.95,2.26,0.87,-3.79
-206,40,-1,498,1557,3330,-21.49,0.91,-4.64,4.98,15.57,33.30,11.77,-3.02,-8.94,2.28,0.93,-4.02
-291,-3,13,490,1630,3324,-21.12,0.80,-4.09,4.90,16.30,33.24,11.71,-3.01,-8.92,3.95,1.83,-4.63
-310,-10,10,482,1648,3321,-20.90,0.66,-3.62,4.82,16.48,33.21,11.64,-3.01,-8.90,4.32,2.01,-3.88
-359,6,-17,487,1673,3347,-21.00,0.63,-3.36,4.87,16.73,33.47,11.57,-3.01,-8.89,5.39,1.70,-1.32
-362,16,-25,489,1674,3354,-21.10,0.66,-3.18,4.89,16.74,33.54,11.51,-3.01,-8.88,5.52,1.48,-0.45
-371,25,-53,476,1608,3397,-21.26,0.75,-3.19,4.76,16.08,33.97,11.44,-3.01,-8.86,5.79,1.28,1.92
-380,20,-60,482,1583,3420,-21.45,0.80,-3.23,4.82,15.83,34.20,11.37,-3.01,-8.85,6.07,1.37,2.46
-445,-9,-48,497,1559,3457,-22.02,0.66,-3.20,4.97,15.59,34.57,11.30,-3.02,-8.84,7.59,1.99,1.47
-466,-19,-42,496,1557,3466,-22.66,0.48,-3.14,4.96,15.57,34.66,11.23,-3.02,-8.83,8.24,2.25,1.03
-547,-54,-27,498,1595,3509,-23.73,0.10,-2.99,4.98,15.95,35.09,11.15,-3.02,-8.81,10.23,3.06,-0.08
-565,-65,-29,483,1590,3470,-24.80,-0.30,-2.87,4.83,15.90,34.70,11.07,-3.02,-8.80,10.94,3.40,0.21
-575,-92,-57,481,1519,3418,-25.83,-0.83,-2.93,4.81,15.19,34.18,10.98,-3.03,-8.79,11.48,4.10,2.52
-561,-79,-61,488,1524,3409,-26.67,-1.23,-3.01,4.88,15.24,34.09,10.90,-3.04,-8.77,11.49,3.95,2.77
-555,-37,-53,499,1489,3428,-27.39,-1.34,-3.03,4.99,14.89,34.28,10.80,-3.05,-8.76,11.62,3.13,2.07
-554,-25,-50,497,1476,3449,-28.03,-1.35,-3.03,4.97,14.76,34.49,10.71,-3.06,-8.75,11.84,2.90,1.81
-512,12,-49,490,1463,3457,-28.35,-1.15,-3.03,4.90,14.63,34.57,10.61,-3.07,-8.73,11.14,2.09,1.73
-487,8,-51,475,1442,3461,-28.49,-0.98,-3.04,4.75,14.42,34.61,10.52,-3.07,-8.72,10.73,2.13,1.89
-469,-4,-63,486,1388,3524,-28.50,-0.91,-3.12,4.86,13.88,35.24,10.42,-3.08,-8.71,10.43,2.36,2.82
-476,-8,-63,493,1382,3527,-28.55,-0.87,-3.19,4.93,13.82,35.27,10.32,-3.09,-8.69,10.65,2.44,2.74
-509,-16,-46,479,1371,3559,-28.80,-0.88,-3.15,4.79,13.71,35.59,10.23,-3.10,-8.68,11.45,2.61,1.34
-522,-17,-42,481,1368,3587,-29.11,-0.89,-3.09,4.81,13.68,35.87,10.13,-3.11,-8.66,11.87,2.64,1.06
-583,-39,-48,478,1395,3622,-29.75,-1.04,-3.08,4.78,13.95,36.22,10.03,-3.11,-8.65,13.35,3.13,1.59
-604,-58,-56,468,1386,3602,-30.46,-1.29,-3.11,4.68,13.86,36.02,9.92,-3.12,-8.64,14.04,3.59,2.23
-685,-123,-97,483,1319,3579,-31.59,-1.91,-3.39,4.83,13.19,35.79,9.81,-3.14,-8.62,16.07,5.09,5.40
-701,-126,-107,494,1315,3551,-32.71,-2.49,-3.70,4.94,13.15,35.51,9.70,-3.15,-8.60,16.77,5.32,5.92
-720,-94,-128,489,1269,3447,-33.83,-2.81,-4.11,4.89,12.69,34.47,9.58,-3.17,-8.58,17.54,4.77,7.26
-677,-50,-127,503,1249,3426,-34.58,-2.84,-4.48,5.03,12.49,34.26,9.46,-3.18,-8.56,16.95,3.89,6.79
-503,58,-110,530,1166,3487,-34.19,-2.20,-4.70,5.30,11.66,34.87,9.34,-3.20,-8.54,13.38,1.53,5.11
-466,74,-105,534,1156,3535,-33.61,-1.53,-4.87,5.34,11.56,35.35,9.22,-3.21,-8.52,12.55,1.03,4.50
-404,70,-88,536,1137,3655,-32.71,-0.95,-4.92,5.36,11.37,36.55,9.11,-3.22,-8.50,11.12,0.96,3.01
