gyroADC_X,gyroADC_Y,gyroADC_Z,accADC_X,accADC_Y,accADC_Z,GyroX,GyroY,GyroZ,AccX,AccY,AccZ,roll_IMU,pitch_IMU,yaw_IMU,roll_PID,pitch_PID,yaw_PID
0,4,-11,46,57,4111,-0.09,0.19,-0.59,0.46,0.57,41.11,0.70,-0.49,81.20,-0.43,0.19,-2.21
1,1,-13,39,49,4122,-0.08,0.18,-0.61,0.39,0.49,41.22,0.69,-0.50,81.20,-0.46,0.26,-2.01
3,2,-13,48,43,4123,-0.05,0.17,-0.63,0.48,0.43,41.23,0.68,-0.52,81.20,-0.50,0.25,-2.04
4,2,-15,48,46,4115,-0.02,0.17,-0.66,0.48,0.46,41.15,0.68,-0.54,81.21,-0.52,0.27,-1.86
2,0,-14,40,50,4116,-0.01,0.15,-0.68,0.40,0.50,41.16,0.69,-0.55,81.21,-0.49,0.32,-2.01
2,0,-13,35,52,4108,0.00,0.14,-0.69,0.35,0.52,41.08,0.70,-0.53,81.21,-0.50,0.31,-2.15
1,2,-14,28,58,4123,0.01,0.13,-0.70,0.28,0.58,41.23,0.71,-0.52,81.22,-0.49,0.26,-2.07
1,3,-14,26,58,4122,0.02,0.14,-0.72,0.26,0.58,41.22,0.72,-0.50,81.22,-0.50,0.23,-2.09
-2,1,-14,26,47,4099,0.00,0.13,-0.73,0.26,0.47,40.99,0.71,-0.48,81.22,-0.43,0.26,-2.12
-2,1,-14,31,46,4099,-0.01,0.12,-0.74,0.31,0.46,40.99,0.70,-0.47,81.22,-0.42,0.26,-2.14
-1,-1,-11,36,36,4110,-0.02,0.11,-0.74,0.36,0.36,41.10,0.68,-0.47,81.23,-0.42,0.30,-2.48
-2,-1,-11,31,35,4114,-0.03,0.09,-0.73,0.31,0.35,41.14,0.66,-0.47,81.23,-0.39,0.31,-2.47
-1,1,-11,44,46,4124,-0.03,0.09,-0.72,0.44,0.46,41.24,0.66,-0.49,81.23,-0.41,0.28,-2.46
-1,0,-11,41,59,4118,-0.03,0.08,-0.72,0.41,0.59,41.18,0.67,-0.50,81.24,-0.42,0.31,-2.45
-1,1,-12,37,53,4121,-0.04,0.08,-0.72,0.37,0.53,41.21,0.69,-0.50,81.24,-0.43,0.29,-2.34
-1,1,-12,35,51,4118,-0.04,0.07,-0.72,0.35,0.51,41.18,0.71,-0.49,81.24,-0.44,0.28,-2.34
-2,0,-13,39,47,4113,-0.05,0.07,-0.73,0.39,0.47,41.13,0.69,-0.50,81.24,-0.40,0.31,-2.23
-3,1,-13,33,56,4116,-0.06,0.07,-0.74,0.33,0.56,41.16,0.71,-0.49,81.25,-0.39,0.29,-2.24
-5,1,-11,43,39,4105,-0.08,0.07,-0.73,0.43,0.39,41.05,0.69,-0.50,81.25,-0.33,0.29,-2.47
-7,0,-11,43,45,4108,-0.12,0.06,-0.72,0.43,0.45,41.08,0.68,-0.52,81.25,-0.28,0.33,-2.46
-7,-2,-10,39,42,4109,-0.15,0.04,-0.71,0.39,0.42,41.09,0.66,-0.52,81.26,-0.26,0.37,-2.56
-8,-2,-10,39,42,4115,-0.18,0.02,-0.70,0.39,0.42,41.15,0.65,-0.53,81.26,-0.21,0.38,-2.54
-7,-4,-8,18,6,4106,-0.21,-0.00,-0.68,0.18,0.06,41.06,0.63,-0.52,81.26,-0.22,0.42,-2.74
1,-7,-3,1,-59,4065,-0.18,-0.04,-0.63,0.01,-0.59,40.65,0.61,-0.51,81.26,-0.37,0.49,-3.24
5,2,22,80,-48,4180,-0.13,-0.03,-0.43,0.80,-0.48,41.80,0.59,-0.52,81.27,-0.46,0.31,-5.84
1,6,22,51,-38,4113,-0.11,0.01,-0.26,0.51,-0.38,41.13,0.58,-0.52,81.27,-0.37,0.22,-5.52
-7,9,134,12,-3,4146,-0.14,0.07,0.59,0.12,-0.03,41.46,0.56,-0.51,81.26,-0.19,0.14,-17.25
0,-1,69,80,366,4105,-0.13,0.05,0.95,0.80,3.66,41.05,0.58,-0.52,81.26,-0.34,0.35,-8.88
-2,4,8,52,117,4097,-0.13,0.07,0.90,0.52,1.17,40.97,0.59,-0.52,81.26,-0.32,0.24,-1.73
-1,3,3,38,77,4116,-0.12,0.08,0.83,0.38,0.77,41.16,0.61,-0.52,81.25,-0.35,0.26,-1.27
0,4,-11,26,42,4114,-0.11,0.10,0.68,0.26,0.42,41.14,0.61,-0.50,81.25,-0.37,0.22,0.12
-1,4,-10,37,49,4105,-0.11,0.11,0.55,0.37,0.49,41.05,0.63,-0.50,81.25,-0.36,0.22,-0.24
-3,2,-14,40,39,4103,-0.11,0.11,0.41,0.40,0.39,41.03,0.61,-0.51,81.25,-0.31,0.27,-0.02
-3,2,-14,37,39,4113,-0.12,0.12,0.28,0.37,0.39,41.13,0.59,-0.51,81.25,-0.30,0.27,-0.25
-4,2,-14,36,43,4108,-0.13,0.12,0.17,0.36,0.43,41.08,0.60,-0.50,81.25,-0.28,0.26,-0.46
-4,2,-13,26,35,4098,-0.14,0.12,0.07,0.26,0.35,40.98,0.59,-0.48,81.24,-0.27,0.25,-0.76
-2,2,8,-26,-4,4125,-0.14,0.12,0.12,-0.26,-0.04,41.25,0.58,-0.47,81.24,-0.30,0.24,-3.17
1,-3,32,-81,-50,4108,-0.12,0.09,0.30,-0.81,-0.50,41.08,0.57,-0.45,81.24,-0.36,0.34,-5.68
-5,10,65,83,135,4113,-0.14,0.14,0.67,0.83,1.35,41.13,0.58,-0.46,81.24,-0.24,0.06,-8.93
-1,11,42,113,158,4115,-0.13,0.19,0.86,1.13,1.58,41.15,0.60,-0.47,81.24,-0.34,0.04,-5.85
-1,10,-7,116,77,4140,-0.12,0.23,0.73,1.16,0.77,41.40,0.60,-0.49,81.23,-0.34,0.06,-0.27
1,6,-11,112,81,4146,-0.11,0.25,0.59,1.12,0.81,41.46,0.61,-0.50,81.23,-0.39,0.14,-0.05
2,3,-11,31,68,4122,-0.08,0.24,0.46,0.31,0.68,41.22,0.63,-0.50,81.23,-0.43,0.20,-0.29
3,3,-11,28,54,4118,-0.06,0.24,0.35,0.28,0.54,41.18,0.64,-0.49,81.23,-0.47,0.20,-0.49
0,1,-10,18,33,4105,-0.05,0.22,0.25,0.18,0.33,41.05,0.63,-0.47,81.23,-0.40,0.23,-0.79
-1,0,-11,18,34,4112,-0.05,0.20,0.16,0.18,0.34,41.12,0.62,-0.45,81.23,-0.37,0.25,-0.84
-3,-1,-13,32,55,4095,-0.07,0.17,0.06,0.32,0.55,40.95,0.64,-0.45,81.23,-0.34,0.27,-0.78
-5,-1,-12,35,49,4099,-0.09,0.15,-0.01,0.35,0.49,40.99,0.65,-0.46,81.23,-0.30,0.29,-1.04
-6,-1,-11,27,50,4080,-0.12,0.13,-0.08,0.27,0.50,40.80,0.66,-0.45,81.23,-0.28,0.28,-1.28
-5,0,-9,23,20,4111,-0.14,0.11,-0.13,0.23,0.20,41.11,0.64,-0.44,81.23,-0.29,0.26,-1.60
0,-1,5,-12,34,4133,-0.12,0.10,-0.08,-0.12,0.34,41.33,0.64,-0.42,81.23,-0.39,0.27,-3.18
1,-1,6,9,28,4130,-0.10,0.08,-0.04,0.09,0.28,41.30,0.62,-0.41,81.23,-0.40,0.27,-3.22
-9,3,20,-39,4,4085,-0.15,0.09,0.09,-0.39,0.04,40.85,0.61,-0.39,81.23,-0.18,0.17,-4.65
-7,11,10,-58,4,4104,-0.18,0.15,0.14,-0.58,0.04,41.04,0.61,-0.38,81.23,-0.21,-0.02,-3.37
1,3,35,86,28,4128,-0.15,0.15,0.34,0.86,0.28,41.28,0.60,-0.39,81.23,-0.38,0.16,-5.97
3,-2,22,106,103,4119,-0.12,0.12,0.44,1.06,1.03,41.19,0.61,-0.41,81.22,-0.43,0.27,-4.24
-3,3,9,89,91,4111,-0.13,0.13,0.45,0.89,0.91,41.11,0.62,-0.42,81.22,-0.32,0.18,-2.68
-4,2,4,66,78,4122,-0.14,0.13,0.43,0.66,0.78,41.22,0.63,-0.43,81.22,-0.30,0.21,-2.12
2,3,-9,24,57,4119,-0.11,0.14,0.33,0.24,0.57,41.19,0.65,-0.42,81.22,-0.44,0.18,-0.76
3,3,-10,26,55,4121,-0.08,0.14,0.24,0.26,0.55,41.21,0.67,-0.41,81.22,-0.48,0.17,-0.81
4,4,-13,46,45,4114,-0.05,0.15,0.13,0.46,0.45,41.14,0.66,-0.43,81.22,-0.50,0.16,-0.65
4,4,-12,43,39,4119,-0.02,0.16,0.05,0.43,0.39,41.19,0.65,-0.45,81.22,-0.51,0.17,-0.93
2,3,-12,31,51,4122,-0.01,0.16,-0.03,0.31,0.51,41.22,0.67,-0.44,81.22,-0.48,0.19,-1.07
1,3,-12,33,53,4113,0.00,0.16,-0.10,0.33,0.53,41.13,0.69,-0.44,81.22,-0.47,0.19,-1.20
1,3,-13,32,52,4120,0.01,0.17,-0.17,0.32,0.52,41.20,0.70,-0.44,81.22,-0.49,0.19,-1.21
1,3,-14,23,52,4123,0.01,0.17,-0.24,0.23,0.52,41.23,0.71,-0.43,81.22,-0.49,0.17,-1.21
1,3,-14,31,52,4127,0.02,0.17,-0.30,0.31,0.52,41.27,0.72,-0.43,81.22,-0.50,0.18,-1.33
1,3,-13,29,53,4132,0.02,0.17,-0.35,0.29,0.53,41.32,0.73,-0.41,81.22,-0.51,0.16,-1.53
0,1,-9,26,50,4118,0.02,0.16,-0.37,0.26,0.50,41.18,0.72,-0.40,81.22,-0.48,0.20,-2.05
0,1,-9,26,43,4112,0.02,0.15,-0.39,0.26,0.43,41.12,0.70,-0.39,81.23,-0.47,0.20,-2.08
-1,0,-9,38,51,4092,0.01,0.13,-0.40,0.38,0.51,40.92,0.70,-0.41,81.23,-0.45,0.23,-2.11
-2,0,-9,33,43,4090,-0.00,0.12,-0.42,0.33,0.43,40.90,0.69,-0.42,81.23,-0.41,0.24,-2.14
-4,0,-10,29,44,4104,-0.03,0.11,-0.44,0.29,0.44,41.04,0.67,-0.41,81.23,-0.35,0.24,-2.05
-4,0,-10,26,46,4112,-0.05,0.10,-0.45,0.26,0.46,41.12,0.66,-0.40,81.23,-0.34,0.24,-2.08
-7,-1,-11,48,43,4123,-0.09,0.08,-0.48,0.48,0.43,41.23,0.66,-0.41,81.23,-0.27,0.27,-2.01
-6,-1,-8,37,42,4117,-0.11,0.07,-0.48,0.37,0.42,41.17,0.65,-0.43,81.24,-0.27,0.29,-2.36
-5,2,-10,38,51,4115,-0.13,0.07,-0.49,0.38,0.51,41.15,0.65,-0.44,81.24,-0.29,0.23,-2.15
-4,1,-9,38,53,4110,-0.14,0.07,-0.50,0.38,0.53,41.10,0.67,-0.46,81.24,-0.32,0.26,-2.28
-4,2,-8,31,48,4129,-0.15,0.08,-0.50,0.31,0.48,41.29,0.67,-0.44,81.24,-0.32,0.23,-2.40
-4,3,-7,38,49,4117,-0.16,0.09,-0.49,0.38,0.49,41.17,0.67,-0.46,81.24,-0.32,0.22,-2.50
-4,2,-5,40,50,4117,-0.17,0.09,-0.47,0.40,0.50,41.17,0.67,-0.47,81.25,-0.32,0.25,-2.71
-3,2,-5,37,49,4116,-0.17,0.09,-0.45,0.37,0.49,41.16,0.68,-0.49,81.25,-0.34,0.26,-2.68
-1,4,-4,50,26,4115,-0.16,0.11,-0.43,0.50,0.26,41.15,0.66,-0.50,81.25,-0.37,0.22,-2.76
-3,6,0,37,32,4117,-0.16,0.13,-0.39,0.37,0.32,41.17,0.64,-0.50,81.25,-0.32,0.17,-3.15
-2,3,18,20,-17,4099,-0.16,0.14,-0.24,0.20,-0.17,40.99,0.62,-0.50,81.25,-0.33,0.23,-5.01
-3,6,29,56,5,4109,-0.16,0.16,-0.04,0.56,0.05,41.09,0.61,-0.50,81.25,-0.29,0.17,-5.95
-3,4,8,6,85,4107,-0.16,0.17,0.01,0.06,0.85,41.07,0.62,-0.49,81.25,-0.30,0.20,-3.36
-3,4,4,28,54,4115,-0.17,0.18,0.04,0.28,0.54,41.15,0.63,-0.48,81.25,-0.31,0.19,-2.85
-3,2,6,17,37,4122,-0.17,0.17,0.07,0.17,0.37,41.22,0.62,-0.46,81.25,-0.31,0.22,-3.02
0,5,17,23,-8,4145,-0.15,0.19,0.17,0.23,-0.08,41.45,0.61,-0.46,81.25,-0.36,0.15,-4.15
0,3,23,21,22,4140,-0.14,0.19,0.29,0.21,0.22,41.40,0.59,-0.45,81.25,-0.35,0.19,-4.63
2,5,38,-22,27,4103,-0.11,0.20,0.49,-0.22,0.27,41.03,0.58,-0.43,81.25,-0.40,0.13,-6.04
2,5,47,-45,9,4105,-0.09,0.21,0.73,-0.45,0.09,41.05,0.58,-0.41,81.24,-0.40,0.11,-6.67
-1,0,61,63,102,4086,-0.08,0.19,1.03,0.63,1.02,40.86,0.59,-0.42,81.24,-0.35,0.23,-7.78
0,3,53,11,80,4090,-0.08,0.19,1.25,0.11,0.80,40.90,0.61,-0.41,81.24,-0.38,0.16,-6.43
-3,5,41,59,89,4106,-0.09,0.20,1.37,0.59,0.89,41.06,0.62,-0.42,81.23,-0.33,0.12,-4.78
-6,6,32,34,52,4124,-0.11,0.22,1.43,0.34,0.52,41.24,0.64,-0.43,81.22,-0.27,0.10,-3.60
-3,4,20,15,44,4102,-0.12,0.22,1.41,0.15,0.44,41.02,0.64,-0.41,81.22,-0.33,0.13,-2.22
-19,3,107,-128,122,4065,-0.23,0.21,1.92,-1.28,1.22,40.65,0.64,-0.39,81.21,0.02,0.14,-11.60
-11,-1,118,-161,92,4099,-0.27,0.19,2.45,-1.61,0.92,40.99,0.65,-0.37,81.20,-0.13,0.22,-11.94
-6,8,135,-42,-7,4115,-0.28,0.22,3.03,-0.42,-0.07,41.15,0.63,-0.36,81.19,-0.22,0.02,-12.89
-3,-7,154,-48,-18,4157,-0.27,0.15,3.67,-0.48,-0.18,41.57,0.62,-0.34,81.17,-0.28,0.33,-13.98
-14,9,173,187,132,4073,-0.33,0.19,4.35,1.87,1.32,40.73,0.63,-0.36,81.16,-0.04,0.00,-14.97
-11,3,148,112,150,4086,-0.36,0.19,4.82,1.12,1.50,40.86,0.64,-0.37,81.14,-0.10,0.13,-11.14
-3,4,31,166,76,4105,-0.34,0.20,4.53,1.66,0.76,41.05,0.64,-0.39,81.12,-0.27,0.12,2.20
-5,2,25,136,32,4112,-0.34,0.19,4.23,1.36,0.32,41.12,0.64,-0.41,81.10,-0.23,0.18,2.36
-3,4,4,50,55,4092,-0.32,0.19,3.83,0.50,0.55,40.92,0.65,-0.42,81.09,-0.28,0.14,4.12
-2,4,4,20,34,4106,-0.30,0.20,3.47,0.20,0.34,41.06,0.63,-0.41,81.07,-0.29,0.14,3.46
0,5,7,10,19,4114,-0.27,0.21,3.17,0.10,0.19,41.14,0.61,-0.40,81.06,-0.33,0.10,2.55
-1,10,14,36,64,4115,-0.25,0.25,2.94,0.36,0.64,41.15,0.63,-0.40,81.05,-0.33,-0.00,1.29
0,9,15,18,54,4122,-0.23,0.28,2.73,0.18,0.54,41.22,0.64,-0.39,81.04,-0.36,-0.00,0.80
-4,9,38,-25,28,4104,-0.23,0.31,2.69,-0.25,0.28,41.04,0.63,-0.37,81.03,-0.27,-0.02,-2.00
-6,11,42,-1,29,4111,-0.24,0.34,2.68,-0.01,0.29,41.11,0.62,-0.35,81.02,-0.22,-0.08,-2.50
8,1,39,-10,-27,4128,-0.17,0.32,2.65,-0.10,-0.27,41.28,0.61,-0.34,81.01,-0.52,0.12,-2.20
10,-1,42,-57,23,4116,-0.09,0.28,2.64,-0.57,0.23,41.16,0.60,-0.33,81.00,-0.58,0.16,-2.57
5,5,73,-51,75,4160,-0.05,0.28,2.82,-0.51,0.75,41.60,0.61,-0.31,80.98,-0.49,0.02,-5.91
9,-2,85,-46,-28,4220,0.01,0.24,3.06,-0.46,-0.28,42.20,0.59,-0.29,80.97,-0.58,0.17,-6.90
-12,10,166,60,-2,4093,-0.07,0.28,3.76,0.60,-0.02,40.93,0.58,-0.31,80.96,-0.12,-0.08,-15.21
-1,1,111,95,45,4007,-0.07,0.26,4.07,0.95,0.45,40.07,0.58,-0.32,80.94,-0.35,0.12,-8.14
1,1,110,129,60,4115,-0.05,0.24,4.33,1.29,0.60,41.15,0.58,-0.34,80.92,-0.39,0.14,-7.53
-21,2,107,141,181,4114,-0.18,0.22,4.55,1.41,1.81,41.14,0.60,-0.35,80.90,0.08,0.13,-6.77
-5,-8,82,86,207,4121,-0.19,0.15,4.59,0.86,2.07,41.21,0.61,-0.36,80.89,-0.25,0.36,-3.72
-7,-2,26,57,64,4106,-0.21,0.13,4.29,0.57,0.64,41.06,0.62,-0.37,80.87,-0.21,0.25,2.37
-5,-1,20,18,42,4115,-0.22,0.11,3.99,0.18,0.42,41.15,0.62,-0.35,80.85,-0.24,0.22,2.52
1,4,25,15,43,4110,-0.19,0.12,3.74,0.15,0.43,41.10,0.61,-0.34,80.84,-0.37,0.11,1.47
2,2,19,45,83,4099,-0.16,0.12,3.48,0.45,0.83,40.99,0.63,-0.34,80.82,-0.41,0.15,1.71
-2,1,7,51,61,4094,-0.16,0.11,3.18,0.51,0.61,40.94,0.64,-0.36,80.81,-0.34,0.19,2.57
-3,2,12,33,60,4104,-0.16,0.12,2.93,0.33,0.60,41.04,0.65,-0.37,80.80,-0.33,0.17,1.53
-3,3,12,24,38,4110,-0.16,0.12,2.71,0.24,0.38,41.10,0.63,-0.36,80.79,-0.31,0.14,1.13
1,1,17,-12,9,4142,-0.14,0.12,2.54,-0.12,0.09,41.42,0.62,-0.35,80.78,-0.39,0.18,0.23
1,1,21,17,0,4137,-0.12,0.11,2.42,0.17,0.00,41.37,0.60,-0.35,80.77,-0.39,0.18,-0.48
4,-6,29,32,-24,4128,-0.08,0.06,2.35,0.32,-0.24,41.28,0.58,-0.35,80.76,-0.44,0.33,-1.55
3,-7,43,42,-13,4133,-0.06,0.01,2.38,0.42,-0.13,41.33,0.57,-0.35,80.75,-0.42,0.37,-3.16
-2,-3,54,-4,98,4070,-0.06,-0.01,2.47,-0.04,0.98,40.70,0.58,-0.34,80.74,-0.33,0.29,-4.29
1,-4,38,18,132,4080,-0.05,-0.03,2.46,0.18,1.32,40.80,0.60,-0.34,80.73,-0.40,0.32,-2.42
-2,-3,49,-49,-29,4087,-0.06,-0.04,2.51,-0.49,-0.29,40.87,0.59,-0.33,80.72,-0.33,0.29,-3.63
-3,4,64,-24,11,4105,-0.07,-0.02,2.65,-0.24,0.11,41.05,0.58,-0.32,80.71,-0.30,0.13,-5.15
2,0,65,-35,-19,4116,-0.05,-0.01,2.78,-0.35,-0.19,41.16,0.56,-0.30,80.70,-0.40,0.20,-5.03
2,-8,108,-91,-167,4148,-0.03,-0.06,3.16,-0.91,-1.67,41.48,0.55,-0.29,80.69,-0.39,0.37,-9.43
-14,-1,134,-10,-88,4077,-0.12,-0.06,3.66,-0.10,-0.88,40.77,0.53,-0.29,80.67,-0.03,0.23,-11.60
-10,-2,214,-120,47,4167,-0.17,-0.07,4.60,-1.20,0.47,41.67,0.53,-0.27,80.65,-0.10,0.24,-19.36
3,-18,197,-32,159,4152,-0.13,-0.17,5.34,-0.32,1.59,41.52,0.55,-0.27,80.63,-0.39,0.59,-15.98
3,-3,196,-54,-36,4128,-0.10,-0.17,6.00,-0.54,-0.36,41.28,0.53,-0.25,80.61,-0.38,0.28,-14.65
3,-8,210,-84,-27,4097,-0.07,-0.20,6.69,-0.84,-0.27,40.97,0.52,-0.24,80.58,-0.39,0.38,-15.06
5,0,312,-112,185,4091,-0.03,-0.18,7.92,-1.12,1.85,40.91,0.54,-0.23,80.55,-0.45,0.20,-20.00
-7,-2,305,-16,253,4129,-0.07,-0.18,8.99,-0.16,2.53,41.29,0.55,-0.23,80.51,-0.20,0.24,-20.00
-2,5,141,156,10,4161,-0.08,-0.13,8.95,1.56,0.10,41.61,0.55,-0.25,80.48,-0.30,0.10,-2.72
-4,0,126,205,121,4141,-0.09,-0.12,8.82,2.05,1.21,41.41,0.56,-0.26,80.44,-0.26,0.21,-1.17
-9,-13,107,135,25,4134,-0.14,-0.18,8.59,1.35,0.25,41.34,0.55,-0.28,80.41,-0.14,0.50,0.66
-8,-10,109,71,7,4118,-0.17,-0.23,8.40,0.71,0.07,41.18,0.54,-0.30,80.37,-0.15,0.46,0.07
-8,-3,129,11,59,4076,-0.21,-0.22,8.35,0.11,0.59,40.76,0.56,-0.29,80.34,-0.15,0.31,-2.40
-1,-2,147,-83,-76,4056,-0.19,-0.21,8.41,-0.83,-0.76,40.56,0.54,-0.28,80.31,-0.29,0.28,-4.42
7,11,158,-92,104,4104,-0.13,-0.12,8.53,-0.92,1.04,41.04,0.55,-0.27,80.27,-0.47,-0.01,-5.50
6,8,109,-108,48,4080,-0.08,-0.06,8.34,-1.08,0.48,40.80,0.55,-0.25,80.24,-0.46,0.02,-0.03
-1,13,212,128,165,4133,-0.08,0.02,8.80,1.28,1.65,41.33,0.56,-0.26,80.20,-0.33,-0.10,-11.41
-3,11,193,369,286,4158,-0.09,0.09,9.10,3.69,2.86,41.58,0.57,-0.28,80.17,-0.29,-0.07,-8.61
-3,9,44,103,94,4149,-0.10,0.13,8.46,1.03,0.94,41.49,0.58,-0.29,80.13,-0.30,-0.03,7.89
-2,4,29,57,-11,4117,-0.10,0.14,7.79,0.57,-0.11,41.17,0.57,-0.30,80.10,-0.31,0.08,8.45
-7,10,86,-130,85,4096,-0.13,0.19,7.53,-1.30,0.85,40.96,0.57,-0.28,80.07,-0.20,-0.07,1.22
-3,12,113,-263,70,4090,-0.14,0.25,7.47,-2.63,0.70,40.90,0.57,-0.26,80.04,-0.28,-0.14,-2.10
-9,11,345,-135,270,4178,-0.18,0.29,8.83,-1.35,2.70,41.78,0.59,-0.25,80.01,-0.16,-0.14,-20.00
-4,-4,439,-102,164,4191,-0.19,0.23,10.62,-1.02,1.64,41.91,0.60,-0.24,79.97,-0.26,0.18,-20.00
2,9,520,-83,-156,4264,-0.15,0.27,12.73,-0.83,-1.56,42.64,0.58,-0.23,79.91,-0.38,-0.10,-20.00
-35,28,568,208,-29,4056,-0.35,0.41,14.92,2.08,-0.29,40.56,0.58,-0.25,79.85,0.43,-0.52,-20.00
1,17,590,185,92,4062,-0.31,0.47,17.03,1.85,0.92,40.62,0.58,-0.26,79.79,-0.32,-0.30,-20.00
2,19,540,157,147,4137,-0.27,0.54,18.62,1.57,1.47,41.37,0.59,-0.28,79.71,-0.36,-0.35,-20.00
-13,11,464,249,172,4101,-0.32,0.55,19.59,2.49,1.72,41.01,0.60,-0.29,79.63,-0.04,-0.18,-20.00
6,12,402,119,57,4126,-0.25,0.57,20.08,1.19,0.57,41.26,0.60,-0.31,79.55,-0.45,-0.20,-13.23
-9,-8,478,228,-47,4238,-0.28,0.47,20.99,2.28,-0.47,42.38,0.59,-0.32,79.47,-0.13,0.25,-20.00
-14,3,521,254,66,4204,-0.34,0.44,22.07,2.54,0.66,42.04,0.59,-0.34,79.38,-0.01,0.04,-20.00
-18,-15,605,25,39,4072,-0.41,0.30,23.55,0.25,0.39,40.72,0.57,-0.35,79.29,0.10,0.45,-20.00
-2,-12,632,52,200,4070,-0.39,0.20,25.05,0.52,2.00,40.70,0.58,-0.35,79.19,-0.24,0.42,-20.00
-11,-5,631,60,48,4090,-0.41,0.15,26.40,0.60,0.48,40.90,0.58,-0.37,79.08,-0.05,0.30,-20.00
-9,6,617,6,168,4137,-0.43,0.17,27.52,0.06,1.68,41.37,0.60,-0.36,78.97,-0.10,0.07,-20.00
-11,-3,479,-72,-46,4074,-0.45,0.14,27.69,-0.72,-0.46,40.74,0.59,-0.35,78.86,-0.04,0.26,-8.38
-19,5,461,6,2,4088,-0.52,0.15,27.73,0.06,0.02,40.88,0.57,-0.34,78.75,0.15,0.08,-6.17
-5,3,458,136,66,4033,-0.50,0.16,27.75,1.36,0.66,40.33,0.57,-0.36,78.64,-0.14,0.14,-5.77
47,1,564,30,211,4104,-0.16,0.15,28.42,0.30,2.11,41.04,0.58,-0.36,78.52,-1.30,0.18,-17.12
-2,-3,631,91,29,4142,-0.16,0.11,29.43,0.91,0.29,41.42,0.58,-0.38,78.41,-0.30,0.28,-20.00
5,15,654,-16,165,4073,-0.11,0.19,30.47,-0.16,1.65,40.73,0.60,-0.38,78.29,-0.46,-0.11,-20.00
-4,-20,569,94,126,4121,-0.13,0.05,30.90,0.94,1.26,41.21,0.61,-0.39,78.16,-0.29,0.65,-13.16
-9,-3,585,-18,57,4071,-0.17,0.03,31.38,-0.18,0.57,40.71,0.61,-0.37,78.04,-0.18,0.30,-14.17
-19,0,666,60,22,4129,-0.27,0.03,32.30,0.60,0.22,41.29,0.60,-0.39,77.91,0.06,0.25,-20.00
-2,11,686,90,50,4093,-0.25,0.09,33.26,0.90,0.50,40.93,0.60,-0.41,77.77,-0.29,0.02,-20.00
-10,10,762,21,46,4108,-0.29,0.14,34.58,0.21,0.46,41.08,0.60,-0.39,77.64,-0.12,0.02,-20.00
10,10,751,-113,205,4137,-0.20,0.19,35.70,-1.13,2.05,41.37,0.62,-0.38,77.49,-0.56,-0.00,-20.00
2,6,669,-37,41,4094,-0.17,0.21,36.21,-0.37,0.41,40.94,0.61,-0.36,77.35,-0.40,0.06,-15.24
-7,-2,653,-8,-21,4075,-0.19,0.17,36.57,-0.08,-0.21,40.75,0.60,-0.36,77.20,-0.20,0.23,-12.68
9,0,529,34,-19,4125,-0.12,0.16,36.14,0.34,-0.19,41.25,0.58,-0.36,77.06,-0.53,0.19,1.25
-13,13,501,43,-31,4072,-0.19,0.22,35.59,0.43,-0.31,40.72,0.56,-0.36,76.91,-0.05,-0.08,3.55
-20,16,422,7,53,4074,-0.29,0.30,34.60,0.07,0.53,40.74,0.57,-0.35,76.78,0.11,-0.18,11.12
0,13,425,-32,108,4121,-0.26,0.35,33.73,-0.32,1.08,41.21,0.58,-0.34,76.64,-0.31,-0.14,9.17
-10,8,372,16,14,4120,-0.30,0.36,32.63,0.16,0.14,41.20,0.56,-0.33,76.51,-0.08,-0.04,13.44
-11,11,375,59,73,4094,-0.33,0.39,31.65,0.59,0.73,40.94,0.57,-0.35,76.38,-0.06,-0.10,11.30
-6,2,458,72,61,4105,-0.34,0.36,31.28,0.72,0.61,41.05,0.57,-0.36,76.26,-0.17,0.10,0.77
-16,13,488,100,118,4008,-0.40,0.41,31.13,1.00,1.18,40.08,0.58,-0.37,76.13,0.05,-0.13,-3.06
-4,16,522,40,100,4099,-0.38,0.46,31.20,0.40,1.00,40.99,0.60,-0.38,76.01,-0.21,-0.20,-6.96
0,10,507,25,87,4160,-0.35,0.48,31.17,0.25,0.87,41.60,0.62,-0.38,75.89,-0.31,-0.09,-5.22
-1,4,420,39,107,4154,-0.32,0.45,30.62,0.39,1.07,41.54,0.63,-0.38,75.76,-0.31,0.04,4.08
-15,6,431,40,17,4114,-0.38,0.45,30.19,0.40,0.17,41.14,0.61,-0.39,75.64,0.00,0.01,1.98
-8,-9,363,108,21,4103,-0.39,0.35,29.38,1.08,0.21,41.03,0.61,-0.40,75.52,-0.13,0.35,8.58
0,1,370,77,46,4142,-0.35,0.32,28.70,0.77,0.46,41.42,0.60,-0.42,75.41,-0.30,0.17,6.50
-8,3,372,45,-50,4138,-0.36,0.30,28.10,0.45,-0.50,41.38,0.58,-0.42,75.30,-0.12,0.14,5.17
-4,15,371,76,-118,4114,-0.35,0.37,27.55,0.76,-1.18,41.14,0.56,-0.43,75.19,-0.20,-0.12,4.28
4,12,428,12,118,4157,-0.29,0.40,27.41,0.12,1.18,41.57,0.58,-0.42,75.08,-0.38,-0.07,-2.74
-1,4,432,66,27,4174,-0.27,0.39,27.30,0.66,0.27,41.74,0.57,-0.44,74.97,-0.28,0.10,-3.40
-4,5,358,100,35,4113,-0.27,0.38,26.76,1.00,0.35,41.13,0.57,-0.46,74.86,-0.22,0.10,4.37
-3,21,379,101,45,4107,-0.26,0.47,26.39,1.01,0.45,41.07,0.57,-0.48,74.76,-0.24,-0.24,1.22
3,5,383,35,131,4111,-0.21,0.45,26.09,0.35,1.31,41.11,0.58,-0.48,74.65,-0.39,0.09,0.19
2,3,398,55,65,4089,-0.18,0.43,25.91,0.55,0.65,40.89,0.60,-0.49,74.55,-0.38,0.14,-1.92
-8,10,399,-5,11,4134,-0.21,0.44,25.75,-0.05,0.11,41.34,0.58,-0.47,74.44,-0.16,-0.01,-2.32
-10,-6,398,75,-5,4072,-0.25,0.36,25.60,0.75,-0.05,40.72,0.57,-0.48,74.34,-0.10,0.34,-2.47
-8,-1,464,151,-100,4143,-0.27,0.32,25.87,1.51,-1.00,41.43,0.55,-0.50,74.24,-0.13,0.26,-9.80
-20,2,519,107,-135,4079,-0.37,0.30,26.45,1.07,-1.35,40.79,0.53,-0.50,74.13,0.16,0.21,-15.26
-11,10,641,39,197,4069,-0.40,0.33,27.72,0.39,1.97,40.69,0.55,-0.50,74.02,-0.03,0.04,-20.00
2,-3,640,-25,280,4081,-0.35,0.28,28.85,-0.25,2.80,40.81,0.56,-0.50,73.91,-0.32,0.31,-20.00
11,24,624,-73,223,4100,-0.25,0.40,29.77,-0.73,2.23,41.00,0.58,-0.49,73.79,-0.54,-0.27,-20.00
-10,11,506,163,-93,4118,-0.28,0.43,29.88,1.63,-0.93,41.18,0.56,-0.50,73.67,-0.09,-0.01,-7.41
-12,1,572,63,86,4150,-0.33,0.39,30.38,0.63,0.86,41.50,0.57,-0.51,73.55,-0.05,0.21,-14.32
-19,4,608,36,183,4145,-0.41,0.37,31.05,0.36,1.83,41.45,0.59,-0.51,73.42,0.11,0.15,-17.35
-18,-1,640,45,35,4086,-0.48,0.33,31.85,0.45,0.35,40.86,0.58,-0.52,73.29,0.12,0.27,-19.68
-2,7,624,3,65,4168,-0.44,0.34,32.47,0.03,0.65,41.68,0.58,-0.51,73.17,-0.22,0.10,-16.64
-4,-1,530,74,-38,4091,-0.42,0.30,32.46,0.74,-0.38,40.91,0.56,-0.52,73.04,-0.17,0.28,-5.51
1,6,502,69,26,4123,-0.37,0.31,32.27,0.69,0.26,41.23,0.55,-0.53,72.91,-0.28,0.15,-2.52
-17,-2,502,-119,21,4004,-0.44,0.26,32.11,-1.19,0.21,40.04,0.55,-0.51,72.78,0.10,0.31,-2.82
-6,-3,485,-41,33,4130,-0.43,0.22,31.86,-0.41,0.33,41.30,0.54,-0.50,72.65,-0.12,0.33,-1.27
-8,1,465,-37,-61,4150,-0.44,0.20,31.51,-0.37,-0.61,41.50,0.53,-0.49,72.52,-0.06,0.24,0.47
-1,16,483,-46,-155,4092,-0.40,0.28,31.30,-0.46,-1.55,40.92,0.51,-0.48,72.40,-0.20,-0.09,-2.04
24,36,672,31,-131,4204,-0.21,0.47,32.27,0.31,-1.31,42.04,0.49,-0.48,72.27,-0.75,-0.55,-20.00
-10,39,702,-26,-74,4079,-0.25,0.66,33.33,-0.26,-0.74,40.79,0.47,-0.47,72.14,-0.04,-0.67,-20.00
-14,34,908,-86,-10,4151,-0.31,0.80,35.53,-0.86,-0.10,41.51,0.46,-0.45,71.99,0.07,-0.62,-20.00
-6,31,959,-89,113,4077,-0.32,0.91,37.83,-0.89,1.13,40.77,0.47,-0.43,71.84,-0.10,-0.60,-20.00
-9,21,1037,96,63,4114,-0.34,0.95,40.37,0.96,0.63,41.14,0.47,-0.44,71.68,-0.03,-0.39,-20.00
-15,25,1022,101,44,4084,-0.40,1.01,42.57,1.01,0.44,40.84,0.47,-0.46,71.51,0.10,-0.48,-20.00
-5,20,949,239,157,4043,-0.39,1.03,44.10,2.39,1.57,40.43,0.48,-0.47,71.33,-0.11,-0.38,-20.00
-24,15,927,251,114,4146,-0.50,1.02,45.35,2.51,1.14,41.46,0.48,-0.49,71.15,0.31,-0.26,-20.00
-24,12,844,162,19,4161,-0.59,0.99,45.96,1.62,0.19,41.61,0.47,-0.50,70.97,0.34,-0.18,-17.93
-29,6,781,-9,156,4204,-0.71,0.93,46.13,-0.09,1.56,42.04,0.49,-0.49,70.78,0.46,-0.05,-10.14
7,25,743,5,-144,4193,-0.60,0.99,46.05,0.05,-1.44,41.93,0.46,-0.49,70.60,-0.29,-0.45,-5.77
-27,15,734,145,-186,4105,-0.70,0.98,45.92,1.45,-1.86,41.05,0.44,-0.49,70.42,0.45,-0.25,-4.94
-5,5,651,68,-1,4034,-0.66,0.91,45.30,0.68,-0.01,40.34,0.43,-0.51,70.24,0.00,-0.02,3.78
-42,10,624,145,-4,4028,-0.85,0.88,44.58,1.45,-0.04,40.28,0.42,-0.52,70.06,0.81,-0.10,5.66
-29,20,620,74,141,4077,-0.94,0.92,43.90,0.74,1.41,40.77,0.43,-0.52,69.88,0.56,-0.31,4.90
12,8,624,-25,155,3988,-0.78,0.87,43.32,-0.25,1.55,39.88,0.44,-0.51,69.71,-0.32,-0.06,3.36
-23,28,613,-44,101,4182,-0.84,0.96,42.72,-0.44,1.01,41.82,0.45,-0.50,69.54,0.40,-0.50,3.58
-5,12,615,54,133,4092,-0.79,0.93,42.20,0.54,1.33,40.92,0.46,-0.50,69.37,0.01,-0.17,2.39
-11,13,484,-56,95,4082,-0.77,0.92,40.94,-0.56,0.95,40.82,0.47,-0.48,69.20,0.13,-0.20,15.61
9,25,421,-182,134,4117,-0.64,0.98,39.41,-1.82,1.34,41.17,0.47,-0.46,69.05,-0.32,-0.47,20.00
-8,6,432,64,195,4064,-0.63,0.92,38.10,0.64,1.95,40.64,0.48,-0.46,68.89,0.01,-0.07,16.59
-14,17,431,60,-67,4167,-0.65,0.93,36.92,0.60,-0.67,41.67,0.46,-0.46,68.75,0.16,-0.29,14.55
-6,1,268,-292,276,3952,-0.62,0.84,34.87,-2.92,2.76,39.52,0.47,-0.45,68.61,-0.02,0.05,20.00
-12,6,237,-287,175,4084,-0.63,0.80,32.82,-2.87,1.75,40.84,0.47,-0.43,68.48,0.10,-0.06,20.00
41,49,355,-298,318,4087,-0.32,1.02,31.71,-2.98,3.18,40.87,0.48,-0.41,68.35,-1.07,-1.00,14.01
9,21,479,-269,311,4160,-0.23,1.04,31.46,-2.69,3.11,41.60,0.49,-0.40,68.22,-0.45,-0.45,-1.15
-10,25,731,82,-138,4306,-0.27,1.09,32.77,0.82,-1.38,43.06,0.48,-0.40,68.09,-0.04,-0.54,-20.00
37,19,741,32,32,4126,-0.02,1.10,34.01,0.32,0.32,41.26,0.46,-0.41,67.96,-1.05,-0.42,-20.00
-40,-9,855,214,-24,4073,-0.26,0.93,35.83,2.14,-0.24,40.73,0.46,-0.42,67.81,0.58,0.21,-20.00
-9,-6,834,223,-87,4065,-0.29,0.80,37.33,2.23,-0.87,40.65,0.44,-0.44,67.66,-0.03,0.19,-20.00
22,14,893,19,285,4053,-0.13,0.81,39.05,0.19,2.85,40.53,0.46,-0.44,67.51,-0.72,-0.22,-20.00
-31,-23,939,-3,203,4037,-0.30,0.59,40.87,-0.03,2.03,40.37,0.48,-0.43,67.34,0.40,0.59,-20.00
-4,14,952,-4,168,4250,-0.30,0.61,42.59,-0.04,1.68,42.50,0.49,-0.42,67.17,-0.16,-0.17,-20.00
11,24,919,-77,142,4029,-0.20,0.70,43.94,-0.77,1.42,40.29,0.50,-0.41,67.00,-0.50,-0.41,-20.00
4,21,733,51,-60,4130,-0.16,0.76,44.02,0.51,-0.60,41.30,0.48,-0.41,66.82,-0.36,-0.36,-8.20
12,23,701,57,69,4152,-0.07,0.82,43.89,0.57,0.69,41.52,0.50,-0.42,66.65,-0.55,-0.41,-4.63
8,14,569,47,-18,4102,-0.01,0.82,42.97,0.47,-0.18,41.02,0.48,-0.43,66.47,-0.47,-0.23,9.34
-3,6,529,14,112,4104,-0.03,0.78,41.90,0.14,1.12,41.04,0.49,-0.42,66.31,-0.26,-0.06,12.13
8,3,467,6,65,4084,0.02,0.72,40.56,0.06,0.65,40.84,0.51,-0.41,66.14,-0.50,0.01,17.03
8,6,466,18,-4,4077,0.07,0.68,39.35,0.18,-0.04,40.77,0.49,-0.40,65.99,-0.50,-0.04,14.93
-17,0,471,17,-37,4073,-0.04,0.62,38.28,0.17,-0.37,40.73,0.47,-0.40,65.83,0.05,0.09,12.39
-5,1,438,-22,-36,4094,-0.07,0.56,37.13,-0.22,-0.36,40.94,0.45,-0.39,65.69,-0.18,0.08,14.19
-15,13,451,24,-53,4056,-0.15,0.58,36.17,0.24,-0.53,40.56,0.43,-0.38,65.54,0.06,-0.17,10.89
-4,2,537,11,-120,4093,-0.16,0.54,35.83,0.11,-1.20,40.93,0.41,-0.38,65.40,-0.15,0.06,0.06
-3,-1,562,16,-42,4085,-0.16,0.48,35.67,0.16,-0.42,40.85,0.39,-0.38,65.25,-0.15,0.14,-3.18
-23,-5,635,-5,-131,4111,-0.29,0.40,35.98,-0.05,-1.31,41.11,0.37,-0.37,65.11,0.30,0.24,-11.27
3,11,632,13,-89,4145,-0.24,0.43,36.24,0.13,-0.89,41.45,0.35,-0.37,64.97,-0.23,-0.10,-10.44
-26,12,688,-55,-50,4136,-0.37,0.46,36.81,-0.55,-0.50,41.36,0.34,-0.36,64.82,0.41,-0.13,-16.03
26,23,710,-74,40,4074,-0.18,0.55,37.46,-0.74,0.40,40.74,0.34,-0.34,64.67,-0.70,-0.40,-17.44
-10,5,720,23,-27,4081,-0.22,0.53,38.10,0.23,-0.27,40.81,0.32,-0.33,64.52,0.05,-0.02,-17.43
-1,17,686,-42,-2,4183,-0.21,0.58,38.48,-0.42,-0.02,41.83,0.31,-0.32,64.36,-0.13,-0.29,-12.71
-27,8,698,16,-89,4029,-0.35,0.57,38.89,0.16,-0.89,40.29,0.29,-0.31,64.21,0.45,-0.11,-13.38
2,19,705,-52,-5,4120,-0.30,0.63,39.30,-0.52,-0.05,41.20,0.28,-0.29,64.05,-0.14,-0.36,-13.45
-9,13,730,-86,-59,4049,-0.33,0.64,39.82,-0.86,-0.59,40.49,0.27,-0.28,63.89,0.09,-0.26,-15.45
-5,18,767,70,78,4127,-0.33,0.69,40.52,0.70,0.78,41.27,0.28,-0.29,63.73,0.00,-0.36,-18.56
-2,6,775,11,64,4065,-0.30,0.66,41.20,0.11,0.64,40.65,0.30,-0.28,63.56,-0.07,-0.12,-18.26
-4,11,733,28,109,4155,-0.30,0.66,41.55,0.28,1.09,41.55,0.31,-0.28,63.40,-0.04,-0.22,-12.63
5,19,715,44,164,4128,-0.24,0.71,41.75,0.44,1.64,41.28,0.33,-0.28,63.23,-0.25,-0.39,-10.11
-20,5,644,243,-15,4110,-0.34,0.67,41.51,2.43,-0.15,41.10,0.32,-0.30,63.06,0.28,-0.09,-2.14
-47,-14,648,-2,80,4031,-0.59,0.52,41.31,-0.02,0.80,40.31,0.34,-0.29,62.90,0.89,0.34,-2.97
-5,-1,611,22,74,4097,-0.56,0.46,40.91,0.22,0.74,40.97,0.35,-0.29,62.73,0.02,0.09,0.68
-2,13,571,17,-29,4140,-0.52,0.49,40.30,0.17,-0.29,41.40,0.33,-0.29,62.57,-0.04,-0.21,4.32
-20,7,503,66,-69,4109,-0.59,0.49,39.34,0.66,-0.69,41.09,0.31,-0.30,62.42,0.36,-0.08,10.63
-5,15,509,-23,-56,4101,-0.56,0.53,38.51,-0.23,-0.56,41.01,0.29,-0.29,62.26,0.06,-0.26,8.40
3,9,601,-69,-83,4079,-0.49,0.53,38.32,-0.69,-0.83,40.79,0.28,-0.27,62.11,-0.11,-0.15,-2.85
-5,10,647,-6,-35,4133,-0.47,0.54,38.44,-0.06,-0.35,41.33,0.26,-0.26,61.95,0.06,-0.18,-8.09
-19,17,772,-24,-30,4126,-0.54,0.59,39.30,-0.24,-0.30,41.26,0.24,-0.25,61.80,0.37,-0.34,-20.00
-24,15,814,-1,-69,4091,-0.63,0.62,40.34,-0.01,-0.69,40.91,0.22,-0.24,61.64,0.51,-0.31,-20.00
-14,25,964,-256,26,4069,-0.65,0.71,42.18,-2.56,0.26,40.69,0.22,-0.22,61.47,0.32,-0.56,-20.00
-25,20,1055,-223,3,4141,-0.74,0.76,44.40,-2.23,0.03,41.41,0.21,-0.20,61.29,0.57,-0.48,-20.00
-9,34,1219,-61,-18,4085,-0.72,0.89,47.40,-0.61,-0.18,40.85,0.20,-0.18,61.10,0.25,-0.81,-20.00
-18,44,1255,11,-138,4105,-0.76,1.07,50.31,0.11,-1.38,41.05,0.18,-0.18,60.90,0.45,-1.07,-20.00
-6,34,1369,-4,-131,4152,-0.72,1.17,53.63,-0.04,-1.31,41.52,0.16,-0.17,60.68,0.21,-0.90,-20.00
-24,23,1384,59,-112,4045,-0.79,1.20,56.71,0.59,-1.12,40.45,0.14,-0.17,60.46,0.61,-0.68,-20.00
-10,19,1385,6,14,4055,-0.77,1.19,59.49,0.06,0.14,40.55,0.14,-0.16,60.22,0.32,-0.61,-20.00
-39,17,1362,19,52,4103,-0.94,1.18,61.85,0.19,0.52,41.03,0.16,-0.15,59.97,0.94,-0.56,-20.00
-27,13,1228,125,12,4099,-1.01,1.14,63.15,1.25,0.12,40.99,0.15,-0.17,59.72,0.72,-0.46,-20.00
-10,21,1185,138,90,4087,-0.97,1.15,64.07,1.38,0.90,40.87,0.16,-0.18,59.46,0.36,-0.62,-20.00
-5,13,1082,94,74,4033,-0.90,1.12,64.26,0.94,0.74,40.33,0.17,-0.19,59.21,0.24,-0.44,-12.23
-23,10,1036,90,5,4074,-0.95,1.07,64.15,0.90,0.05,40.74,0.16,-0.21,58.95,0.62,-0.36,-6.96
-32,9,930,83,99,4103,-1.05,1.01,63.41,0.83,0.99,41.03,0.17,-0.21,58.70,0.83,-0.32,4.26
-7,23,916,31,-4,4132,-0.99,1.05,62.66,0.31,-0.04,41.32,0.15,-0.22,58.44,0.31,-0.61,4.54
-11,15,968,-93,-46,4064,-0.96,1.04,62.30,-0.93,-0.46,40.64,0.14,-0.20,58.20,0.39,-0.45,-2.28
-15,20,987,-72,-85,4089,-0.95,1.06,62.09,-0.72,-0.85,40.89,0.12,-0.19,57.95,0.49,-0.57,-4.91
0,27,970,-5,5,4098,-0.86,1.12,61.80,-0.05,0.05,40.98,0.11,-0.17,57.70,0.16,-0.74,-3.42
-11,23,966,-63,-40,4154,-0.84,1.14,61.51,-0.63,-0.40,41.54,0.10,-0.15,57.45,0.39,-0.68,-3.47
-20,16,963,43,36,4114,-0.88,1.13,61.23,0.43,0.36,41.14,0.11,-0.16,57.21,0.58,-0.53,-3.61
-7,27,966,22,32,4125,-0.83,1.18,61.00,0.22,0.32,41.25,0.12,-0.16,56.97,0.29,-0.77,-4.38
-23,17,957,7,191,4142,-0.89,1.17,60.74,0.07,1.91,41.42,0.13,-0.15,56.72,0.62,-0.56,-3.79
-17,15,954,-54,80,4197,-0.90,1.14,60.49,-0.54,0.80,41.97,0.14,-0.14,56.48,0.50,-0.53,-3.89
14,44,920,-112,186,4153,-0.73,1.29,60.05,-1.12,1.86,41.53,0.15,-0.12,56.24,-0.19,-1.17,-0.65
-12,13,897,-55,76,4052,-0.73,1.24,59.52,-0.55,0.76,40.52,0.16,-0.11,56.00,0.34,-0.53,1.10
-9,17,841,51,139,4107,-0.71,1.22,58.69,0.51,1.39,41.07,0.18,-0.11,55.77,0.26,-0.61,6.25
-23,12,830,79,124,4109,-0.78,1.17,57.89,0.79,1.24,41.09,0.19,-0.11,55.54,0.56,-0.49,6.08
-53,-4,771,60,80,4098,-1.03,1.03,56.80,0.60,0.80,40.98,0.20,-0.12,55.31,1.23,-0.12,11.09
27,19,758,157,170,4119,-0.76,1.05,55.75,1.57,1.70,41.19,0.21,-0.13,55.09,-0.48,-0.59,10.70
10,17,813,128,282,4110,-0.62,1.04,55.13,1.28,2.82,41.10,0.22,-0.13,54.87,-0.18,-0.54,3.06
-10,9,846,125,234,4058,-0.62,1.00,54.78,1.25,2.34,40.58,0.24,-0.14,54.65,0.22,-0.36,-1.50
-20,7,929,151,122,4048,-0.68,0.94,54.97,1.51,1.22,40.48,0.24,-0.15,54.43,0.43,-0.30,-10.99
-4,11,969,49,156,4089,-0.64,0.91,55.38,0.49,1.56,40.89,0.26,-0.15,54.20,0.08,-0.37,-14.97
13,17,907,31,45,4167,-0.49,0.92,55.38,0.31,0.45,41.67,0.27,-0.16,53.98,-0.31,-0.49,-7.62
-28,-4,881,167,-33,4050,-0.61,0.81,55.21,1.67,-0.33,40.50,0.26,-0.18,53.76,0.57,-0.02,-4.83
-17,-4,789,53,81,4097,-0.66,0.70,54.50,0.53,0.81,40.97,0.27,-0.19,53.54,0.34,0.01,4.79
-32,7,743,-21,-115,4118,-0.79,0.67,53.59,-0.21,-1.15,41.18,0.25,-0.18,53.33,0.70,-0.21,8.57
-7,11,661,-134,42,4075,-0.75,0.67,52.26,-1.34,0.42,40.75,0.25,-0.16,53.12,0.18,-0.30,15.87
12,7,656,-72,111,4115,-0.60,0.65,51.04,-0.72,1.11,41.15,0.26,-0.15,52.92,-0.25,-0.22,14.22
-4,17,732,22,141,4048,-0.57,0.69,50.40,0.22,1.41,40.48,0.28,-0.15,52.72,0.05,-0.44,4.05
-34,12,766,-1,66,4085,-0.72,0.69,50.03,-0.01,0.66,40.85,0.29,-0.14,52.52,0.69,-0.34,-0.65
3,23,837,-83,43,4020,-0.63,0.76,50.13,-0.83,0.43,40.20,0.29,-0.12,52.31,-0.08,-0.60,-8.88
9,34,834,-103,-28,4195,-0.51,0.89,50.21,-1.03,-0.28,41.95,0.28,-0.10,52.11,-0.23,-0.87,-8.38
13,29,774,-77,-103,4178,-0.38,0.98,49.91,-0.77,-1.03,41.78,0.27,-0.09,51.91,-0.34,-0.80,-1.81
11,36,752,-58,-53,4087,-0.27,1.10,49.50,-0.58,-0.53,40.87,0.25,-0.07,51.72,-0.31,-0.99,0.06
26,15,707,-72,11,4086,-0.09,1.08,48.87,-0.72,0.11,40.86,0.25,-0.05,51.52,-0.67,-0.57,4.24
-22,1,685,42,0,4152,-0.21,0.98,48.16,0.42,0.00,41.52,0.24,-0.06,51.33,0.35,-0.25,5.55
5,4,491,-138,7,4183,-0.16,0.91,46.34,-1.38,0.07,41.83,0.24,-0.04,51.14,-0.21,-0.30,20.00
-15,21,430,-121,-96,4033,-0.24,0.95,44.33,-1.21,-0.96,40.33,0.22,-0.03,50.97,0.22,-0.67,20.00
-9,13,313,-53,-72,4091,-0.27,0.93,41.80,-0.53,-0.72,40.91,0.21,-0.01,50.80,0.12,-0.51,20.00
-3,19,305,-44,-71,4124,-0.26,0.95,39.48,-0.44,-0.71,41.24,0.19,-0.00,50.64,0.01,-0.65,20.00
-2,21,312,30,-20,4125,-0.25,0.99,37.44,0.30,-0.20,41.25,0.18,-0.01,50.49,-0.01,-0.69,20.00
9,10,283,-130,-45,4099,-0.17,0.95,35.42,-1.30,-0.45,40.99,0.17,0.01,50.35,-0.25,-0.47,20.00
-2,9,109,-14,-49,4114,-0.16,0.91,32.54,-0.14,-0.49,41.14,0.15,0.02,50.22,-0.01,-0.44,20.00
-2,13,98,0,-60,4117,-0.16,0.90,29.89,0.00,-0.60,41.17,0.13,0.02,50.10,-0.00,-0.52,20.00
-11,7,101,1,-30,4087,-0.21,0.85,27.51,0.01,-0.30,40.87,0.11,0.02,49.99,0.21,-0.39,20.00
-5,2,82,-54,-11,4011,-0.22,0.78,25.26,-0.54,-0.11,40.11,0.10,0.04,49.89,0.09,-0.28,20.00
8,10,56,-49,20,4109,-0.15,0.76,23.08,-0.49,0.20,41.09,0.11,0.06,49.80,-0.19,-0.45,20.00
-3,6,34,-26,60,4093,-0.15,0.72,20.98,-0.26,0.60,40.93,0.12,0.07,49.71,0.02,-0.37,20.00
0,1,-1,-9,31,4113,-0.14,0.66,18.87,-0.09,0.31,41.13,0.14,0.08,49.64,-0.06,-0.25,20.00
2,1,-5,-12,10,4098,-0.11,0.60,16.96,-0.12,0.10,40.98,0.14,0.10,49.57,-0.10,-0.25,20.00
1,1,-4,-16,-7,4100,-0.09,0.54,15.24,-0.16,-0.07,41.00,0.12,0.11,49.51,-0.08,-0.24,20.00
0,1,-3,-6,15,4095,-0.08,0.49,13.69,-0.06,0.15,40.95,0.14,0.11,49.45,-0.07,-0.23,20.00
1,6,1,-10,-6,4101,-0.07,0.48,12.33,-0.10,-0.06,41.01,0.12,0.11,49.40,-0.08,-0.33,20.00
-1,6,4,-6,-3,4094,-0.07,0.47,11.12,-0.06,-0.03,40.94,0.11,0.11,49.36,-0.03,-0.32,18.45
-3,1,4,1,-17,4098,-0.08,0.43,10.03,0.01,-0.17,40.98,0.09,0.11,49.32,0.02,-0.21,16.45
0,2,9,29,-23,4100,-0.07,0.40,9.09,0.29,-0.23,41.00,0.08,0.09,49.28,-0.03,-0.21,14.12
0,-5,29,16,-8,4099,-0.06,0.33,8.35,0.16,-0.08,40.99,0.07,0.08,49.25,-0.03,-0.04,10.41
5,0,30,52,-36,4097,-0.03,0.30,7.70,0.52,-0.36,40.97,0.06,0.06,49.22,-0.13,-0.12,9.09
0,-2,42,15,-20,4115,-0.03,0.25,7.19,0.15,-0.20,41.15,0.04,0.05,49.19,-0.02,-0.06,6.73
1,-1,48,2,-24,4113,-0.02,0.22,6.76,0.02,-0.24,41.13,0.02,0.05,49.16,-0.03,-0.07,5.24
-5,5,51,-55,37,4103,-0.05,0.23,6.40,-0.55,0.37,41.03,0.03,0.07,49.14,0.09,-0.21,4.21
-6,5,45,-32,30,4099,-0.08,0.24,6.03,-0.32,0.30,40.99,0.05,0.08,49.11,0.11,-0.22,4.25
-6,4,41,-15,13,4097,-0.11,0.24,5.68,-0.15,0.13,40.97,0.06,0.09,49.09,0.11,-0.21,4.08
-6,-5,68,80,-57,4100,-0.13,0.18,5.53,0.80,-0.57,41.00,0.05,0.08,49.07,0.13,-0.00,0.60
0,1,81,94,-71,4101,-0.12,0.17,5.47,0.94,-0.71,41.01,0.04,0.07,49.05,0.01,-0.11,-1.05
-6,-13,124,-48,24,4101,-0.14,0.08,5.68,-0.48,0.24,41.01,0.04,0.08,49.02,0.13,0.19,-5.76
-12,-17,113,-36,-21,4088,-0.20,-0.04,5.80,-0.36,-0.21,40.88,0.03,0.10,49.00,0.28,0.29,-4.24
-3,-2,88,-39,56,4085,-0.20,-0.04,5.76,-0.39,0.56,40.85,0.05,0.11,48.98,0.08,-0.02,-1.35
1,0,76,-58,33,4105,-0.17,-0.04,5.64,-0.58,0.33,41.05,0.06,0.12,48.95,-0.01,-0.07,-0.13
3,4,76,-46,24,4117,-0.14,-0.01,5.54,-0.46,0.24,41.17,0.06,0.14,48.93,-0.07,-0.17,-0.31
2,3,55,-97,62,4100,-0.11,0.01,5.32,-0.97,0.62,41.00,0.07,0.15,48.91,-0.06,-0.16,1.78
0,-3,32,-91,88,4101,-0.10,-0.01,4.99,-0.91,0.88,41.01,0.09,0.17,48.89,-0.03,-0.05,3.89
0,-2,41,-2,-22,4120,-0.09,-0.02,4.74,-0.02,-0.22,41.20,0.07,0.16,48.87,-0.02,-0.06,2.36
0,-4,53,5,-45,4126,-0.08,-0.04,4.59,0.05,-0.45,41.26,0.05,0.15,48.85,-0.01,-0.01,0.66
-5,-5,65,-18,20,4084,-0.10,-0.07,4.53,-0.18,0.20,40.84,0.07,0.16,48.84,0.09,0.02,-0.87
-5,-7,57,-17,30,4073,-0.12,-0.11,4.42,-0.17,0.30,40.73,0.09,0.16,48.82,0.08,0.06,-0.12
8,2,44,-76,-44,3933,-0.06,-0.08,4.25,-0.76,-0.44,39.33,0.07,0.18,48.80,-0.19,-0.14,1.11
21,30,63,-80,-36,4201,0.07,0.11,4.21,-0.80,-0.36,42.01,0.06,0.19,48.78,-0.49,-0.77,-1.22
-1,13,101,-56,-16,4122,0.06,0.18,4.40,-0.56,-0.16,41.22,0.06,0.21,48.77,-0.03,-0.45,-5.37
3,11,92,-44,-9,4117,0.07,0.23,4.52,-0.44,-0.09,41.17,0.05,0.23,48.75,-0.11,-0.44,-4.08
7,7,88,-41,-71,4093,0.11,0.25,4.61,-0.41,-0.71,40.93,0.03,0.24,48.73,-0.19,-0.36,-3.45
4,4,112,-51,-61,4113,0.12,0.25,4.83,-0.51,-0.61,41.13,0.02,0.25,48.71,-0.13,-0.31,-5.89
3,2,107,51,1,4143,0.13,0.23,5.00,0.51,0.01,41.43,0.02,0.23,48.69,-0.11,-0.25,-4.98
0,3,107,55,-5,4099,0.11,0.23,5.15,0.55,-0.05,40.99,0.02,0.21,48.67,-0.04,-0.26,-4.70
0,-2,94,4,69,4060,0.10,0.19,5.21,0.04,0.69,40.60,0.03,0.21,48.65,-0.05,-0.15,-3.05
-4,-1,87,-14,58,4061,0.07,0.17,5.22,-0.14,0.58,40.61,0.05,0.21,48.63,0.03,-0.16,-2.20
0,10,75,-67,-17,4053,0.06,0.21,5.16,-0.67,-0.17,40.53,0.05,0.22,48.61,-0.05,-0.41,-0.90
4,10,85,-61,-56,4099,0.08,0.25,5.16,-0.61,-0.56,40.99,0.03,0.24,48.59,-0.12,-0.43,-2.08
2,6,186,-8,-83,4151,0.08,0.26,5.78,-0.08,-0.83,41.51,0.01,0.24,48.56,-0.07,-0.35,-12.92
4,11,209,8,-40,4143,0.10,0.30,6.47,0.08,-0.40,41.43,-0.00,0.23,48.54,-0.11,-0.46,-14.37
-12,-2,175,55,-56,4085,0.02,0.26,6.89,0.55,-0.56,40.85,-0.01,0.21,48.51,0.25,-0.17,-9.56
-3,-3,158,-30,48,4082,-0.00,0.22,7.17,-0.30,0.48,40.82,0.01,0.22,48.48,0.06,-0.14,-7.04
3,2,149,-16,46,4136,0.02,0.21,7.36,-0.16,0.46,41.36,0.02,0.22,48.45,-0.08,-0.24,-5.62
-3,-1,132,2,62,4078,-0.00,0.18,7.43,0.02,0.62,40.78,0.04,0.22,48.42,0.03,-0.17,-3.48
1,10,149,-4,-83,4092,0.00,0.22,7.60,-0.04,-0.83,40.92,0.02,0.22,48.39,-0.04,-0.41,-5.19
-9,13,168,-7,-41,4052,-0.05,0.28,7.86,-0.07,-0.41,40.52,0.01,0.21,48.36,0.19,-0.48,-6.96
-4,10,182,-5,-89,4052,-0.07,0.31,8.19,-0.05,-0.89,40.52,-0.01,0.21,48.33,0.11,-0.43,-8.02
-3,9,192,-16,-55,4114,-0.08,0.34,8.54,-0.16,-0.55,41.14,-0.03,0.21,48.29,0.10,-0.42,-8.56
-5,3,176,23,31,4136,-0.11,0.32,8.76,0.23,0.31,41.36,-0.02,0.20,48.26,0.14,-0.28,-6.26
-8,4,175,208,-46,4121,-0.14,0.31,8.95,2.08,-0.46,41.21,-0.02,0.18,48.22,0.22,-0.29,-5.79
-4,7,214,22,-88,4039,-0.15,0.33,9.36,0.22,-0.88,40.39,-0.04,0.18,48.19,0.15,-0.35,-9.66
2,8,220,15,-53,4109,-0.13,0.34,9.77,0.15,-0.53,41.09,-0.06,0.17,48.15,0.03,-0.37,-9.62
7,15,214,32,148,4107,-0.07,0.40,10.09,0.32,1.48,41.07,-0.04,0.17,48.11,-0.10,-0.52,-8.31
0,9,227,61,70,4071,-0.06,0.41,10.47,0.61,0.70,40.71,-0.03,0.16,48.06,0.04,-0.40,-9.16
-5,10,227,-45,90,4128,-0.09,0.43,10.81,-0.45,0.90,41.28,-0.01,0.16,48.02,0.13,-0.43,-8.54
0,17,214,-164,12,4127,-0.08,0.49,11.03,-1.64,0.12,41.27,-0.01,0.18,47.98,0.03,-0.60,-6.58
-10,7,170,-149,19,4101,-0.13,0.49,10.97,-1.49,0.19,41.01,-0.01,0.20,47.93,0.24,-0.41,-1.49
-4,2,139,-138,71,4115,-0.14,0.45,10.72,-1.38,0.71,41.15,0.00,0.22,47.89,0.12,-0.31,1.74
-3,2,80,-85,55,4097,-0.15,0.42,10.13,-0.85,0.55,40.97,0.01,0.24,47.85,0.09,-0.31,7.67
-3,2,65,-52,60,4104,-0.15,0.39,9.52,-0.52,0.60,41.04,0.03,0.25,47.81,0.08,-0.31,8.31
-3,-1,59,-32,-20,4104,-0.15,0.34,8.92,-0.32,-0.20,41.04,0.01,0.26,47.78,0.09,-0.25,7.94
-2,12,58,-68,20,4125,-0.15,0.38,8.39,-0.68,0.20,41.25,0.02,0.28,47.74,0.07,-0.53,7.07
1,4,50,-6,-1,4058,-0.13,0.37,7.85,-0.06,-0.01,40.58,0.02,0.26,47.71,0.00,-0.36,7.04
-1,3,51,-10,3,4070,-0.12,0.35,7.38,-0.10,0.03,40.70,0.02,0.25,47.68,0.04,-0.32,6.06
-2,8,80,-15,-71,4101,-0.12,0.36,7.13,-0.15,-0.71,41.01,0.00,0.25,47.65,0.07,-0.42,2.16
1,12,101,-35,-88,4109,-0.10,0.40,7.03,-0.35,-0.88,41.09,-0.02,0.25,47.63,0.02,-0.52,-0.51
-9,7,161,-8,-73,4116,-0.15,0.40,7.31,-0.08,-0.73,41.16,-0.04,0.25,47.60,0.25,-0.42,-7.11
0,2,167,-30,-66,4117,-0.13,0.37,7.60,-0.30,-0.66,41.17,-0.05,0.26,47.57,0.07,-0.31,-7.30
5,3,217,-46,-43,4153,-0.09,0.36,8.16,-0.46,-0.43,41.53,-0.07,0.27,47.53,-0.03,-0.33,-12.19
-5,-5,226,-6,-39,4126,-0.11,0.29,8.72,-0.06,-0.39,41.26,-0.09,0.26,47.50,0.19,-0.15,-12.23
-1,-4,284,-6,-21,4162,-0.11,0.24,9.58,-0.06,-0.21,41.62,-0.10,0.25,47.46,0.12,-0.15,-17.53
-7,-6,251,97,50,4135,-0.14,0.18,10.16,0.97,0.50,41.35,-0.09,0.24,47.42,0.24,-0.08,-12.56
-4,-7,290,-106,47,4068,-0.15,0.12,10.91,-1.06,0.47,40.68,-0.08,0.25,47.38,0.18,-0.06,-15.80
1,13,316,-227,4,4121,-0.13,0.18,11.75,-2.27,0.04,41.21,-0.08,0.27,47.33,0.07,-0.49,-17.35
9,31,443,-133,49,4127,-0.06,0.35,13.27,-1.33,0.49,41.27,-0.08,0.29,47.28,-0.12,-0.92,-20.00
11,39,472,-178,102,4041,0.01,0.56,14.83,-1.78,1.02,40.41,-0.07,0.31,47.22,-0.18,-1.15,-20.00
0,41,634,-56,156,4175,0.01,0.75,17.21,-0.56,1.56,41.75,-0.05,0.31,47.15,0.03,-1.25,-20.00
-16,44,661,5,65,4059,-0.09,0.94,19.52,0.05,0.65,40.59,-0.03,0.31,47.07,0.37,-1.36,-20.00
-7,39,740,66,18,4194,-0.12,1.09,22.08,0.66,0.18,41.94,-0.03,0.30,46.98,0.19,-1.29,-20.00
-15,35,718,98,-46,4116,-0.20,1.19,24.26,0.98,-0.46,41.16,-0.03,0.28,46.88,0.38,-1.22,-20.00
-22,19,481,32,-75,4109,-0.31,1.19,24.76,0.32,-0.75,41.09,-0.05,0.28,46.78,0.56,-0.89,-13.03
-12,23,390,-20,32,4130,-0.36,1.21,24.67,-0.20,0.32,41.30,-0.03,0.28,46.69,0.36,-0.98,-2.41
-11,10,298,9,20,4095,-0.39,1.15,24.02,0.09,0.20,40.95,-0.02,0.27,46.59,0.34,-0.70,7.32
0,6,277,22,43,4115,-0.35,1.07,23.31,0.22,0.43,41.15,-0.01,0.27,46.50,0.10,-0.59,8.50
-7,1,306,29,138,4052,-0.36,0.97,22.84,0.29,1.38,40.52,0.01,0.26,46.41,0.23,-0.46,4.21
1,4,339,24,125,4154,-0.32,0.90,22.63,0.24,1.25,41.54,0.02,0.26,46.31,0.05,-0.50,-0.09
-6,-11,394,77,110,4071,-0.32,0.74,22.77,0.77,1.10,40.71,0.04,0.25,46.22,0.18,-0.14,-6.36
12,-2,398,-18,112,4240,-0.21,0.66,22.92,-0.18,1.12,42.40,0.06,0.25,46.13,-0.22,-0.31,-6.55
-8,-8,375,-21,8,4070,-0.24,0.54,22.91,-0.21,0.08,40.70,0.07,0.27,46.04,0.18,-0.16,-3.83
2,-4,359,-48,-47,4063,-0.21,0.46,22.81,-0.48,-0.47,40.63,0.05,0.28,45.95,-0.02,-0.23,-2.11
1,1,316,-74,-144,4128,-0.18,0.42,22.46,-0.74,-1.44,41.28,0.04,0.29,45.86,0.00,-0.32,2.34
-10,-5,236,24,-293,4088,-0.22,0.35,21.65,0.24,-2.93,40.88,0.02,0.28,45.77,0.25,-0.18,10.35
-7,-15,176,53,-175,4123,-0.24,0.22,20.56,0.53,-1.75,41.23,-0.00,0.28,45.69,0.21,0.06,15.47
-13,-13,195,18,-144,4047,-0.30,0.12,19.69,0.18,-1.44,40.47,-0.02,0.27,45.61,0.36,0.05,11.63
-7,-12,229,20,21,4110,-0.31,0.04,19.12,0.20,0.21,41.10,-0.01,0.26,45.54,0.23,0.06,6.55
-10,-10,238,1,41,4096,-0.34,-0.03,18.66,0.01,0.41,40.96,0.00,0.25,45.46,0.29,0.05,4.64
-9,0,254,39,65,4086,-0.36,-0.03,18.34,0.39,0.65,40.86,0.02,0.24,45.39,0.27,-0.15,2.16
-3,-9,240,56,55,4130,-0.34,-0.08,17.97,0.56,0.55,41.30,0.03,0.22,45.31,0.14,0.06,3.15
-5,-11,268,10,145,4124,-0.34,-0.14,17.81,0.10,1.45,41.24,0.04,0.22,45.24,0.17,0.12,-0.47
4,1,297,-57,93,4065,-0.28,-0.12,17.84,-0.57,0.93,40.65,0.06,0.23,45.17,-0.04,-0.14,-3.85
-1,0,258,-71,17,4105,-0.26,-0.11,17.63,-0.71,0.17,41.05,0.06,0.24,45.10,0.05,-0.13,0.39
1,-2,186,-72,10,4109,-0.23,-0.11,17.00,-0.72,0.10,41.09,0.06,0.26,45.03,-0.00,-0.10,7.78
-1,-2,150,8,-75,4133,-0.21,-0.11,16.22,0.08,-0.75,41.33,0.05,0.25,44.97,0.05,-0.10,10.61
3,-3,179,27,-50,4117,-0.17,-0.12,15.69,0.27,-0.50,41.17,0.03,0.24,44.91,-0.04,-0.07,6.20
2,-4,186,-38,-52,4119,-0.14,-0.13,15.25,-0.38,-0.52,41.19,0.01,0.25,44.85,-0.01,-0.05,4.57
-6,-13,168,29,-19,4058,-0.16,-0.20,14.75,0.29,-0.19,40.58,0.01,0.23,44.79,0.16,0.17,5.79
-1,3,191,71,-21,4135,-0.15,-0.16,14.44,0.71,-0.21,41.35,0.00,0.21,44.73,0.06,-0.16,2.50
2,7,211,57,32,4150,-0.13,-0.10,14.29,0.57,0.32,41.50,0.01,0.20,44.67,-0.01,-0.24,-0.16
-2,1,249,142,13,4127,-0.13,-0.08,14.38,1.42,0.13,41.27,0.01,0.18,44.61,0.07,-0.11,-4.50
2,0,266,69,47,4099,-0.10,-0.07,14.56,0.69,0.47,40.99,0.02,0.16,44.56,-0.03,-0.09,-6.18
-14,-17,230,-34,-128,4112,-0.18,-0.17,14.51,-0.34,-1.28,41.12,0.00,0.16,44.50,0.33,0.28,-2.00
-14,-17,212,-54,-6,4098,-0.24,-0.26,14.35,-0.54,-0.06,40.98,-0.00,0.18,44.44,0.35,0.30,-0.15
-1,-4,193,-49,40,4094,-0.23,-0.26,14.09,-0.49,0.40,40.94,0.01,0.19,44.38,0.08,0.03,1.63
-10,-1,197,1,-22,4069,-0.26,-0.24,13.89,0.01,-0.22,40.69,-0.01,0.18,44.33,0.28,-0.03,0.78
-1,8,243,-57,-45,4284,-0.24,-0.16,13.98,-0.57,-0.45,42.84,-0.02,0.19,44.27,0.10,-0.24,-4.51
6,15,229,-199,-65,4125,-0.18,-0.06,13.98,-1.99,-0.65,41.25,-0.03,0.21,44.22,-0.05,-0.43,-2.85
-3,5,209,43,-50,4139,-0.18,-0.02,13.85,0.43,-0.50,41.39,-0.04,0.20,44.16,0.14,-0.23,-0.70
-3,0,221,69,-42,4138,-0.18,-0.02,13.82,0.69,-0.42,41.38,-0.05,0.18,44.11,0.14,-0.11,-2.19
-6,11,253,23,-11,4110,-0.20,0.05,13.98,0.23,-0.11,41.10,-0.05,0.16,44.05,0.21,-0.34,-5.69
4,11,246,-105,36,4095,-0.16,0.11,14.08,-1.05,0.36,40.95,-0.04,0.18,43.99,-0.01,-0.37,-4.67
-3,3,157,-108,85,4052,-0.16,0.12,13.63,-1.08,0.85,40.52,-0.03,0.19,43.94,0.13,-0.22,5.07
-6,0,144,-11,43,4089,-0.18,0.11,13.15,-0.11,0.43,40.89,-0.01,0.19,43.89,0.18,-0.16,5.72
-1,4,202,166,-124,4157,-0.17,0.12,13.06,1.66,-1.24,41.57,-0.03,0.18,43.83,0.08,-0.23,-1.31
-3,11,240,155,-77,4165,-0.17,0.18,13.22,1.55,-0.77,41.65,-0.03,0.16,43.78,0.13,-0.38,-5.53
13,-1,324,117,-29,4115,-0.07,0.15,13.88,1.17,-0.29,41.15,-0.04,0.14,43.73,-0.22,-0.12,-14.29
-10,-5,317,16,-42,3997,-0.13,0.11,14.42,0.16,-0.42,39.97,-0.05,0.13,43.67,0.27,-0.02,-12.45
1,-4,276,37,-69,4120,-0.11,0.07,14.66,0.37,-0.69,41.20,-0.07,0.12,43.61,0.05,-0.02,-7.15
-2,12,290,82,-112,4081,-0.11,0.14,14.97,0.82,-1.12,40.81,-0.08,0.11,43.55,0.13,-0.36,-8.25
-7,9,290,-32,41,4084,-0.14,0.18,15.24,-0.32,0.41,40.84,-0.07,0.12,43.49,0.23,-0.31,-7.75
0,17,295,33,86,4034,-0.13,0.26,15.51,0.33,0.86,40.34,-0.05,0.12,43.43,0.07,-0.49,-7.83
5,0,232,-39,31,4101,-0.08,0.24,15.38,-0.39,0.31,41.01,-0.04,0.13,43.37,-0.05,-0.15,-0.61
1,3,212,-76,-22,4130,-0.07,0.23,15.13,-0.76,-0.22,41.30,-0.04,0.15,43.30,0.03,-0.22,1.32
5,8,116,29,-47,4136,-0.03,0.26,14.33,0.29,-0.47,41.36,-0.06,0.14,43.25,-0.06,-0.32,11.23
-4,-6,80,36,-17,4134,-0.05,0.20,13.38,0.36,-0.17,41.34,-0.06,0.12,43.19,0.14,-0.01,13.77
-1,-3,3,-128,-137,4017,-0.05,0.16,12.06,-1.28,-1.37,40.17,-0.07,0.13,43.15,0.08,-0.07,20.00
-1,-6,5,-55,-146,4111,-0.05,0.11,10.89,-0.55,-1.46,41.11,-0.09,0.14,43.10,0.10,0.00,18.09
0,-9,-57,-56,53,4061,-0.05,0.04,9.45,-0.56,0.53,40.61,-0.08,0.15,43.06,0.06,0.07,20.00
8,10,-39,-81,77,4095,0.00,0.10,8.27,-0.81,0.77,40.95,-0.06,0.16,43.03,-0.12,-0.34,18.50
1,-7,-26,-5,212,4121,0.01,0.04,7.28,-0.05,2.12,41.21,-0.05,0.16,43.00,0.01,0.02,15.15
-1,-5,-39,-3,249,4073,0.00,0.01,6.32,-0.03,2.49,40.73,-0.03,0.16,42.98,0.04,-0.01,14.92
1,-10,82,-109,47,4088,0.01,-0.05,6.18,-1.09,0.47,40.88,-0.02,0.18,42.95,-0.01,0.10,0.33
0,-9,90,-103,-12,4145,0.01,-0.10,6.12,-1.03,-0.12,41.45,-0.02,0.19,42.93,0.01,0.08,-0.74
-5,-11,91,37,-60,4136,-0.02,-0.16,6.06,0.37,-0.60,41.36,-0.03,0.18,42.90,0.13,0.15,-0.97
7,-5,77,12,-43,4101,0.02,-0.17,5.92,0.12,-0.43,41.01,-0.05,0.17,42.88,-0.12,0.04,0.45
-5,-11,90,-45,-121,4099,-0.01,-0.22,5.88,-0.45,-1.21,40.99,-0.07,0.18,42.86,0.15,0.17,-1.18
-13,-17,114,-59,-109,4150,-0.09,-0.30,5.99,-0.59,-1.09,41.50,-0.08,0.18,42.83,0.34,0.31,-3.82
-5,-35,180,80,-227,4119,-0.11,-0.49,6.49,0.80,-2.27,41.19,-0.10,0.17,42.81,0.20,0.73,-10.74
-3,-43,185,139,-239,4136,-0.12,-0.70,6.97,1.39,-2.39,41.36,-0.12,0.16,42.78,0.17,0.96,-10.45
13,8,156,85,26,4151,-0.03,-0.58,7.22,0.85,0.26,41.51,-0.11,0.14,42.75,-0.18,-0.10,-6.54
19,-11,173,17,63,4061,0.09,-0.59,7.55,0.17,0.63,40.61,-0.09,0.13,42.72,-0.35,0.30,-7.94
-2,23,216,-51,27,4093,0.07,-0.39,8.12,-0.51,0.27,40.93,-0.08,0.14,42.69,0.08,-0.46,-12.01
-1,10,241,-73,104,4077,0.06,-0.29,8.77,-0.73,1.04,40.77,-0.07,0.15,42.65,0.05,-0.22,-13.77
-4,1,311,-92,180,4106,0.03,-0.26,9.79,-0.92,1.80,41.06,-0.05,0.16,42.61,0.11,-0.06,-20.00
-14,-9,325,-114,188,4086,-0.06,-0.29,10.80,-1.14,1.88,40.86,-0.03,0.17,42.57,0.32,0.15,-20.00
-13,0,317,-120,34,4123,-0.13,-0.26,11.65,-1.20,0.34,41.23,-0.03,0.18,42.52,0.32,-0.05,-17.50
2,9,300,-93,-58,4178,-0.11,-0.18,12.32,-0.93,-0.58,41.78,-0.04,0.20,42.47,0.01,-0.27,-14.26
0,16,253,-58,-30,4088,-0.10,-0.06,12.63,-0.58,-0.30,40.88,-0.05,0.21,42.42,0.06,-0.45,-8.12
2,20,240,-26,10,4052,-0.08,0.07,12.83,-0.26,0.10,40.52,-0.03,0.22,42.37,0.00,-0.57,-6.20
0,7,178,-14,47,4088,-0.07,0.10,12.63,-0.14,0.47,40.88,-0.02,0.22,42.32,0.03,-0.32,0.79
1,15,161,-12,8,4059,-0.06,0.18,12.35,-0.12,0.08,40.59,0.00,0.22,42.27,-0.01,-0.50,2.29
0,14,128,-9,-36,4121,-0.05,0.25,11.90,-0.09,-0.36,41.21,-0.02,0.22,42.22,0.02,-0.50,5.37
-3,17,151,-77,-123,4090,-0.06,0.33,11.63,-0.77,-1.23,40.90,-0.03,0.23,42.18,0.10,-0.58,2.16
-2,10,161,-14,-70,4136,-0.07,0.36,11.45,-0.14,-0.70,41.36,-0.05,0.23,42.13,0.09,-0.45,0.64
-2,6,143,26,-25,4145,-0.07,0.36,11.17,0.26,-0.25,41.45,-0.06,0.21,42.09,0.10,-0.36,2.28
2,-1,47,6,42,4109,-0.05,0.32,10.34,0.06,0.42,41.09,-0.04,0.20,42.05,0.00,-0.20,12.14
2,1,39,13,15,4091,-0.04,0.29,9.55,0.13,0.15,40.91,-0.03,0.19,42.01,-0.01,-0.23,11.63
1,-1,34,0,4,4111,-0.03,0.26,8.80,0.00,0.04,41.11,-0.03,0.18,41.97,0.00,-0.17,10.85
-1,0,39,-8,-20,4095,-0.03,0.23,8.16,-0.08,-0.20,40.95,-0.04,0.17,41.94,0.06,-0.18,9.08
4,5,63,11,-7,4106,-0.00,0.24,7.73,0.11,-0.07,41.06,-0.05,0.15,41.91,-0.05,-0.27,5.44
3,6,75,10,2,4086,0.02,0.25,7.41,0.10,0.02,40.86,-0.04,0.14,41.88,-0.04,-0.28,3.44
-7,15,233,-95,-11,4106,-0.03,0.32,8.09,-0.95,-0.11,41.06,-0.04,0.16,41.85,0.18,-0.50,-14.05
-9,40,287,-11,-49,4058,-0.08,0.53,9.03,-0.11,-0.49,40.58,-0.06,0.16,41.81,0.25,-1.06,-18.72
-3,23,244,84,16,4166,-0.09,0.62,9.62,0.84,0.16,41.66,-0.06,0.14,41.77,0.12,-0.73,-12.55
0,16,209,63,34,4156,-0.08,0.65,9.93,0.63,0.34,41.56,-0.05,0.13,41.73,0.06,-0.59,-7.82
-4,4,98,-24,66,4095,-0.10,0.61,9.54,-0.24,0.66,40.95,-0.03,0.14,41.69,0.13,-0.34,4.62
1,7,119,31,122,4093,-0.08,0.59,9.31,0.31,1.22,40.93,-0.02,0.13,41.66,0.01,-0.39,1.71
-3,16,175,-62,-101,4101,-0.09,0.63,9.44,-0.62,-1.01,41.01,-0.03,0.14,41.62,0.11,-0.59,-4.68
4,14,176,-29,-66,4085,-0.06,0.65,9.57,-0.29,-0.66,40.85,-0.05,0.15,41.58,-0.03,-0.56,-4.56
-3,1,87,39,-99,4099,-0.07,0.59,9.15,0.39,-0.99,40.99,-0.07,0.15,41.54,0.12,-0.28,5.21
-5,-4,55,30,-41,4100,-0.09,0.51,8.57,0.30,-0.41,41.00,-0.08,0.13,41.51,0.18,-0.15,7.95
-1,-2,7,-6,-8,4087,-0.09,0.45,7.75,-0.06,-0.08,40.87,-0.09,0.12,41.48,0.10,-0.16,12.15
0,-1,1,3,-3,4082,-0.08,0.40,6.98,0.03,-0.03,40.82,-0.08,0.11,41.45,0.08,-0.16,11.45
-1,-2,3,-1,-15,4089,-0.08,0.34,6.30,-0.01,-0.15,40.89,-0.10,0.10,41.43,0.11,-0.12,9.97
-2,-3,2,-13,-40,4095,-0.08,0.29,5.69,-0.13,-0.40,40.95,-0.12,0.10,41.40,0.14,-0.08,8.95
4,12,8,51,-43,4049,-0.05,0.34,5.17,0.51,-0.43,40.49,-0.13,0.09,41.38,0.02,-0.39,7.29
1,36,12,2,-47,4068,-0.04,0.52,4.72,0.02,-0.47,40.68,-0.15,0.08,41.36,0.09,-0.93,6.00
-9,17,92,63,-66,4156,-0.09,0.57,4.81,0.63,-0.66,41.56,-0.16,0.07,41.34,0.31,-0.55,-3.33
1,14,105,88,-57,4083,-0.08,0.60,4.97,0.88,-0.57,40.83,-0.17,0.06,41.32,0.11,-0.49,-4.57
1,16,81,-105,17,3950,-0.06,0.64,4.97,-1.05,0.17,39.50,-0.16,0.08,41.30,0.10,-0.55,-1.73
5,4,48,-81,400,4116,-0.03,0.60,4.76,-0.81,4.00,41.16,-0.14,0.08,41.29,-0.00,-0.30,1.81
-5,-9,-115,332,2,4068,-0.05,0.48,3.59,3.32,0.02,40.68,-0.14,0.07,41.27,0.21,0.01,18.98
-8,-2,-59,181,-340,4162,-0.10,0.42,2.87,1.81,-3.40,41.62,-0.16,0.06,41.26,0.29,-0.12,11.02
-13,19,303,-219,-506,4186,-0.17,0.50,4.43,-2.19,-5.06,41.86,-0.18,0.07,41.24,0.43,-0.57,-20.00
-3,8,296,-10,-279,4046,-0.17,0.50,5.79,-0.10,-2.79,40.46,-0.20,0.07,41.22,0.24,-0.35,-20.00
0,4,195,-91,291,4100,-0.15,0.47,6.40,-0.91,2.91,41.00,-0.18,0.08,41.19,0.16,-0.26,-12.62
-8,-14,157,-48,424,4123,-0.18,0.34,6.72,-0.48,4.24,41.23,-0.16,0.08,41.17,0.32,0.14,-7.53
-7,-14,122,-8,-35,4135,-0.21,0.22,6.79,-0.08,-0.35,41.35,-0.18,0.09,41.14,0.32,0.17,-3.25
-10,-3,140,49,-102,4126,-0.25,0.18,6.97,0.49,-1.02,41.26,-0.20,0.08,41.11,0.40,-0.04,-5.06
-6,-1,232,64,-85,4077,-0.26,0.16,7.69,0.64,-0.85,40.77,-0.21,0.06,41.08,0.33,-0.06,-14.65
-10,-6,249,16,-99,4151,-0.30,0.10,8.44,0.16,-0.99,41.51,-0.23,0.06,41.05,0.44,0.05,-15.29
-5,-1,371,-53,-103,4139,-0.30,0.09,9.86,-0.53,-1.03,41.39,-0.25,0.07,41.01,0.35,-0.05,-20.00
-18,-3,447,-103,-107,4096,-0.38,0.06,11.60,-1.03,-1.07,40.96,-0.26,0.08,40.96,0.64,-0.01,-20.00
-22,8,501,205,-19,4233,-0.47,0.10,13.49,2.05,-0.19,42.33,-0.26,0.07,40.91,0.75,-0.23,-20.00
3,10,465,171,24,4180,-0.41,0.15,14.98,1.71,0.24,41.80,-0.26,0.05,40.85,0.22,-0.28,-20.00
11,8,498,58,-90,4151,-0.30,0.19,16.52,0.58,-0.90,41.51,-0.27,0.04,40.78,0.04,-0.24,-20.00
7,-2,509,22,-154,4217,-0.23,0.16,17.97,0.22,-1.54,42.17,-0.29,0.04,40.71,0.11,-0.03,-20.00
13,-52,388,-339,-307,3787,-0.13,-0.18,18.54,-3.39,-3.07,37.87,-0.31,0.05,40.64,-0.03,1.07,-13.23
-5,-27,316,-300,-127,3909,-0.14,-0.32,18.62,-3.00,-1.27,39.09,-0.31,0.07,40.56,0.35,0.59,-4.55
10,-15,-9,-140,389,4059,-0.07,-0.38,16.70,-1.40,3.89,40.59,-0.29,0.07,40.49,0.01,0.36,20.00
-6,-25,-53,20,157,3756,-0.10,-0.50,14.71,0.20,1.57,37.56,-0.28,0.07,40.44,0.33,0.60,20.00
12,-6,-80,-2,-136,4093,-0.01,-0.48,12.75,-0.02,-1.36,40.93,-0.30,0.06,40.38,-0.05,0.21,20.00
-8,-7,-48,-16,-102,4068,-0.06,-0.48,11.18,-0.16,-1.02,40.68,-0.31,0.07,40.34,0.39,0.23,20.00
-3,12,-51,20,119,3976,-0.07,-0.36,9.75,0.20,1.19,39.76,-0.30,0.06,40.30,0.28,-0.19,20.00
2,-6,-56,-4,212,4387,-0.05,-0.36,8.43,-0.04,2.12,43.87,-0.28,0.06,40.27,0.16,0.18,20.00
1,-8,39,58,-30,4102,-0.04,-0.37,7.83,0.58,-0.30,41.02,-0.28,0.04,40.24,0.18,0.24,8.53
3,-1,81,25,-35,4107,-0.02,-0.34,7.54,0.25,-0.35,41.07,-0.29,0.02,40.21,0.14,0.10,3.02
-3,-14,30,249,-267,4061,-0.04,-0.39,6.97,2.49,-2.67,40.61,-0.30,0.01,40.18,0.27,0.39,8.02
2,6,26,222,-272,4037,-0.02,-0.32,6.43,2.22,-2.72,40.37,-0.32,-0.01,40.15,0.17,-0.03,7.51
-1,-4,50,10,64,4094,-0.02,-0.31,6.09,0.10,0.64,40.94,-0.30,-0.01,40.13,0.22,0.17,4.04
3,11,56,-58,84,4100,-0.00,-0.21,5.82,-0.58,0.84,41.00,-0.28,-0.00,40.10,0.13,-0.17,2.84
-4,6,122,0,16,4016,-0.03,-0.15,5.99,0.00,0.16,40.16,-0.26,-0.00,40.08,0.26,-0.08,-4.69
-2,-4,124,12,47,4270,-0.04,-0.16,6.14,0.12,0.47,42.70,-0.25,-0.00,40.06,0.21,0.13,-4.64
5,9,108,-4,-2,4202,-0.00,-0.09,6.19,-0.04,-0.02,42.02,-0.23,0.00,40.03,0.05,-0.16,-2.66
-1,0,92,-44,36,4103,-0.01,-0.08,6.13,-0.44,0.36,41.03,-0.21,0.01,40.01,0.16,0.01,-0.87
3,9,77,65,62,4118,0.01,-0.02,5.99,0.65,0.62,41.18,-0.20,-0.00,39.98,0.07,-0.18,0.65
-8,0,79,99,73,4101,-0.04,-0.02,5.87,0.99,0.73,41.01,-0.19,-0.01,39.96,0.30,0.01,0.20
-1,2,62,82,-29,4031,-0.04,-0.00,5.66,0.82,-0.29,40.31,-0.19,-0.03,39.94,0.16,-0.02,1.83
4,12,69,115,-58,4124,-0.01,0.07,5.52,1.15,-0.58,41.24,-0.20,-0.05,39.91,0.05,-0.23,0.74
-3,5,47,34,-90,4122,-0.03,0.09,5.25,0.34,-0.90,41.22,-0.22,-0.05,39.89,0.21,-0.09,2.86
11,12,27,2,-15,4149,0.04,0.16,4.89,0.02,-0.15,41.49,-0.21,-0.04,39.87,-0.10,-0.26,4.57
1,9,93,-173,183,4096,0.04,0.20,4.97,-1.73,1.83,40.96,-0.20,-0.02,39.85,0.10,-0.22,-3.11
-4,5,110,-107,90,4084,0.01,0.21,5.14,-1.07,0.90,40.84,-0.18,-0.01,39.83,0.20,-0.15,-4.81
-2,-9,88,-100,-14,4092,-0.00,0.13,5.17,-1.00,-0.14,40.92,-0.18,0.01,39.81,0.16,0.14,-2.16
3,-2,80,-39,-13,4125,0.02,0.11,5.14,-0.39,-0.13,41.25,-0.18,0.03,39.79,0.06,-0.01,-1.26
-3,-3,100,35,-85,4109,-0.00,0.08,5.23,0.35,-0.85,41.09,-0.20,0.02,39.77,0.19,0.03,-3.45
3,14,114,43,-95,4048,0.02,0.16,5.41,0.43,-0.95,40.48,-0.22,0.01,39.75,0.08,-0.33,-4.80
-4,0,128,-88,-87,4071,-0.01,0.14,5.65,-0.88,-0.87,40.71,-0.23,0.03,39.73,0.23,-0.06,-6.02
3,11,138,-96,-111,4119,0.01,0.19,5.92,-0.96,-1.11,41.19,-0.24,0.04,39.70,0.10,-0.30,-6.69
-5,1,147,-5,-123,4071,-0.02,0.18,6.23,-0.05,-1.23,40.71,-0.26,0.04,39.68,0.28,-0.10,-7.20
-8,-5,145,8,-65,4104,-0.07,0.13,6.49,0.08,-0.65,41.04,-0.28,0.04,39.65,0.36,0.04,-6.48
0,3,153,-32,53,4212,-0.06,0.14,6.77,-0.32,0.53,42.12,-0.26,0.05,39.63,0.19,-0.13,-6.91
-4,3,132,11,-18,3997,-0.08,0.14,6.90,0.11,-0.18,39.97,-0.26,0.03,39.60,0.27,-0.12,-4.18
-1,-1,120,112,107,4144,-0.08,0.12,6.94,1.12,1.07,41.44,-0.25,0.02,39.57,0.20,-0.02,-2.68
5,12,119,98,65,4048,-0.04,0.18,6.97,0.98,0.65,40.48,-0.24,0.00,39.54,0.06,-0.30,-2.51
4,20,161,-67,70,4169,-0.01,0.29,7.26,-0.67,0.70,41.69,-0.22,0.02,39.51,0.07,-0.49,-6.96
-8,-10,166,-120,63,4131,-0.06,0.20,7.55,-1.20,0.63,41.31,-0.21,0.03,39.48,0.32,0.13,-7.03
-6,1,144,-14,-79,4103,-0.09,0.18,7.67,-0.14,-0.79,41.03,-0.23,0.04,39.45,0.30,-0.09,-4.19
-3,11,151,23,-89,4024,-0.10,0.23,7.82,0.23,-0.89,40.24,-0.25,0.03,39.42,0.25,-0.31,-4.74
-2,13,178,-74,-93,3968,-0.10,0.29,8.13,-0.74,-0.93,39.68,-0.26,0.04,39.39,0.24,-0.37,-7.39
-2,16,182,-37,-75,4131,-0.10,0.36,8.42,-0.37,-0.75,41.31,-0.28,0.06,39.35,0.25,-0.46,-7.31
1,9,190,73,-18,4123,-0.09,0.38,8.74,0.73,-0.18,41.23,-0.28,0.04,39.32,0.19,-0.31,-7.68
-7,6,207,-25,24,4101,-0.12,0.37,9.13,-0.25,0.24,41.01,-0.26,0.05,39.28,0.35,-0.26,-8.98
-2,7,231,7,40,4132,-0.12,0.38,9.63,0.07,0.40,41.32,-0.24,0.05,39.24,0.23,-0.28,-10.92
-7,1,232,-19,95,4133,-0.15,0.35,10.08,-0.19,0.95,41.33,-0.23,0.05,39.20,0.33,-0.15,-10.21
2,0,202,-30,-57,4051,-0.12,0.31,10.30,-0.30,-0.57,40.51,-0.24,0.06,39.16,0.15,-0.13,-6.23
0,3,191,-42,-36,4122,-0.11,0.30,10.44,-0.42,-0.36,41.22,-0.25,0.08,39.12,0.20,-0.20,-4.68
-1,8,169,16,28,4156,-0.11,0.32,10.42,0.16,0.28,41.56,-0.23,0.07,39.08,0.20,-0.30,-2.09
-1,-7,153,-5,-33,4153,-0.10,0.24,10.32,-0.05,-0.33,41.53,-0.25,0.07,39.04,0.21,0.03,-0.40
-3,-2,135,58,-6,4069,-0.11,0.21,10.11,0.58,-0.06,40.69,-0.25,0.06,39.00,0.26,-0.05,1.36
2,14,132,116,-5,4058,-0.09,0.27,9.90,1.16,-0.05,40.58,-0.25,0.04,38.96,0.15,-0.39,1.34
0,14,162,19,9,4173,-0.08,0.33,9.90,0.19,0.09,41.73,-0.23,0.03,38.92,0.18,-0.40,-2.22
-4,4,173,-62,62,4071,-0.09,0.32,9.97,-0.62,0.62,40.71,-0.22,0.04,38.88,0.25,-0.20,-3.41
-5,-4,143,47,-74,4009,-0.12,0.27,9.84,0.47,-0.74,40.09,-0.23,0.03,38.84,0.29,-0.01,-0.07
-9,1,158,50,-25,3997,-0.16,0.24,9.82,0.50,-0.25,39.97,-0.24,0.02,38.80,0.38,-0.10,-1.89
-16,-23,298,254,205,4049,-0.24,0.08,10.66,2.54,2.05,40.49,-0.23,0.00,38.76,0.54,0.44,-16.96
-17,-40,388,337,464,4064,-0.32,-0.17,11.96,3.37,4.64,40.64,-0.21,-0.01,38.71,0.57,0.87,-20.00
-18,12,766,706,156,3776,-0.40,-0.08,15.43,7.06,1.56,37.76,-0.21,-0.03,38.65,0.61,-0.20,-20.00
-25,22,846,677,203,4262,-0.51,0.06,19.05,6.77,2.03,42.62,-0.21,-0.04,38.57,0.78,-0.44,-20.00
0,31,930,17,-9,4161,-0.46,0.24,22.82,0.17,-0.09,41.61,-0.20,-0.06,38.48,0.26,-0.66,-20.00
-36,13,917,-55,-210,3992,-0.63,0.30,26.13,-0.55,-2.10,39.92,-0.22,-0.05,38.38,1.05,-0.31,-20.00
0,43,856,-208,-108,4058,-0.57,0.53,28.74,-2.08,-1.08,40.58,-0.23,-0.03,38.26,0.31,-1.00,-20.00
-17,25,850,-268,-7,4205,-0.62,0.63,31.05,-2.68,-0.07,42.05,-0.23,-0.01,38.14,0.67,-0.67,-20.00
16,53,932,-260,50,4104,-0.46,0.89,33.63,-2.60,0.50,41.04,-0.23,0.01,38.00,-0.05,-1.33,-20.00
-15,40,952,-280,-49,4004,-0.50,1.05,36.07,-2.80,-0.49,40.04,-0.23,0.03,37.86,0.60,-1.12,-20.00
8,51,904,-235,-414,4067,-0.40,1.25,37.98,-2.35,-4.14,40.67,-0.25,0.05,37.71,0.11,-1.41,-20.00
0,37,839,-257,-497,4115,-0.36,1.35,39.30,-2.57,-4.97,41.15,-0.27,0.06,37.55,0.28,-1.16,-20.00
-12,9,656,-151,44,4180,-0.40,1.27,39.37,-1.51,0.44,41.80,-0.26,0.09,37.39,0.53,-0.59,-6.70
-8,32,657,-147,-65,3958,-0.41,1.34,39.44,-1.47,-0.65,39.58,-0.27,0.11,37.23,0.45,-1.09,-6.69
-17,8,662,-102,-126,4118,-0.47,1.26,39.54,-1.02,-1.26,41.18,-0.29,0.13,37.08,0.66,-0.59,-7.10
-2,24,660,-140,-150,4046,-0.44,1.28,39.61,-1.40,-1.50,40.46,-0.30,0.15,36.92,0.36,-0.93,-6.73
-3,22,668,-154,22,3968,-0.41,1.28,39.72,-1.54,0.22,39.68,-0.30,0.17,36.76,0.37,-0.91,-7.46
-4,14,690,-30,45,4077,-0.39,1.24,39.96,-0.30,0.45,40.77,-0.28,0.18,36.60,0.37,-0.74,-9.64
-27,20,687,-75,-103,4138,-0.52,1.24,40.15,-0.75,-1.03,41.38,-0.30,0.20,36.44,0.89,-0.87,-8.92
17,-7,701,43,-69,4121,-0.36,1.07,40.42,0.43,-0.69,41.21,-0.31,0.19,36.28,-0.04,-0.27,-10.09
-46,2,672,-12,-18,4048,-0.61,0.98,40.47,-0.12,-0.18,40.48,-0.29,0.19,36.11,1.29,-0.43,-6.54
10,9,702,37,-23,3924,-0.49,0.93,40.71,0.37,-0.23,39.24,-0.30,0.17,35.95,0.12,-0.55,-9.67
-4,14,725,-53,93,4002,-0.46,0.93,41.06,-0.53,0.93,40.02,-0.28,0.18,35.79,0.39,-0.66,-11.75
-9,4,740,5,16,4250,-0.47,0.86,41.47,0.05,0.16,42.50,-0.26,0.18,35.62,0.49,-0.43,-12.77
-23,15,773,-47,-14,4280,-0.56,0.86,42.04,-0.47,-0.14,42.80,-0.26,0.20,35.45,0.80,-0.67,-15.64
-7,9,761,31,-32,4063,-0.55,0.83,42.47,0.31,-0.32,40.63,-0.27,0.19,35.28,0.47,-0.53,-13.40
-19,15,725,-26,-71,4002,-0.61,0.84,42.65,-0.26,-0.71,40.02,-0.29,0.20,35.11,0.74,-0.66,-8.81
-11,13,709,13,-107,4138,-0.62,0.84,42.71,0.13,-1.07,41.38,-0.31,0.20,34.94,0.60,-0.62,-6.80
-10,17,689,-48,-36,4138,-0.62,0.86,42.64,-0.48,-0.36,41.38,-0.32,0.22,34.77,0.58,-0.72,-4.54
30,12,690,25,63,4108,-0.37,0.84,42.59,0.25,0.63,41.08,-0.30,0.21,34.60,-0.31,-0.61,-4.76
16,2,720,49,-1,4016,-0.24,0.77,42.72,0.49,-0.01,40.16,-0.30,0.20,34.43,-0.06,-0.38,-8.07
9,-16,666,244,90,4272,-0.16,0.60,42.51,2.44,0.90,42.72,-0.29,0.19,34.26,0.05,0.04,-2.04
8,48,715,0,-155,4115,-0.09,0.83,42.62,0.00,-1.55,41.15,-0.31,0.19,34.09,0.07,-1.33,-7.64
-7,12,732,7,-66,4197,-0.13,0.82,42.82,0.07,-0.66,41.97,-0.32,0.19,33.92,0.39,-0.59,-9.28
-14,9,774,39,-92,4173,-0.20,0.79,43.26,0.39,-0.92,41.73,-0.34,0.18,33.75,0.56,-0.52,-13.45
2,23,763,-34,-86,4083,-0.17,0.85,43.59,-0.34,-0.86,40.83,-0.36,0.19,33.57,0.24,-0.83,-11.54
-10,19,752,-118,-82,4092,-0.21,0.88,43.82,-1.18,-0.82,40.92,-0.37,0.21,33.40,0.50,-0.77,-9.81
-21,8,740,-110,-57,4042,-0.32,0.84,43.95,-1.10,-0.57,40.42,-0.37,0.23,33.22,0.76,-0.55,-8.14
-8,1,711,57,-19,4138,-0.34,0.77,43.89,0.57,-0.19,41.38,-0.37,0.22,33.04,0.50,-0.37,-4.80
6,1,693,53,-34,4126,-0.27,0.70,43.73,0.53,-0.34,41.26,-0.37,0.20,32.87,0.20,-0.34,-2.96
5,0,628,100,52,4094,-0.21,0.63,43.19,1.00,0.52,40.94,-0.36,0.19,32.70,0.19,-0.30,3.76
-34,21,603,-22,-142,4121,-0.40,0.69,42.55,-0.22,-1.42,41.21,-0.38,0.20,32.53,1.05,-0.75,5.55
-25,10,630,-37,-78,4026,-0.51,0.68,42.14,-0.37,-0.78,40.26,-0.40,0.21,32.36,0.91,-0.53,1.60
7,7,644,-65,-114,4149,-0.41,0.66,41.85,-0.65,-1.14,41.49,-0.42,0.22,32.19,0.25,-0.47,-0.58
-19,2,698,-52,-91,4088,-0.49,0.60,41.92,-0.52,-0.91,40.88,-0.43,0.23,32.02,0.81,-0.36,-6.84
3,29,707,-79,-155,4060,-0.42,0.72,42.04,-0.79,-1.55,40.60,-0.45,0.25,31.86,0.35,-0.95,-7.69
9,18,761,-21,-67,4130,-0.32,0.76,42.48,-0.21,-0.67,41.30,-0.47,0.25,31.69,0.22,-0.74,-13.28
-21,24,789,-50,-35,4088,-0.42,0.83,43.05,-0.50,-0.35,40.88,-0.47,0.28,31.51,0.85,-0.90,-15.56
-6,14,778,-14,20,4050,-0.41,0.83,43.49,-0.14,0.20,40.50,-0.45,0.28,31.34,0.54,-0.70,-13.44
-26,9,759,-41,14,4130,-0.53,0.80,43.77,-0.41,0.14,41.30,-0.44,0.29,31.16,0.96,-0.59,-10.67
-5,7,709,-50,41,4089,-0.51,0.77,43.72,-0.50,0.41,40.89,-0.42,0.30,30.99,0.52,-0.55,-4.83
-12,-15,689,19,122,4143,-0.53,0.60,43.55,0.19,1.22,41.43,-0.41,0.30,30.82,0.66,-0.06,-2.76
11,15,585,46,-241,4070,-0.41,0.63,42.76,0.46,-2.41,40.70,-0.42,0.30,30.64,0.17,-0.67,8.14
-20,1,585,117,-121,4027,-0.49,0.57,42.05,1.17,-1.21,40.27,-0.44,0.29,30.48,0.83,-0.37,6.84
-14,14,517,43,-12,4030,-0.53,0.60,41.00,0.43,-0.12,40.30,-0.43,0.27,30.31,0.71,-0.63,12.99
-8,15,515,16,-102,4138,-0.52,0.63,40.04,0.16,-1.02,41.38,-0.45,0.27,30.15,0.60,-0.65,11.47
-5,9,530,49,81,4110,-0.50,0.62,39.27,0.49,0.81,41.10,-0.44,0.26,30.00,0.53,-0.53,8.28
-24,8,543,-15,51,4138,-0.60,0.61,38.66,-0.15,0.51,41.38,-0.42,0.27,29.84,0.93,-0.50,5.61
-24,15,571,-65,57,4217,-0.69,0.64,38.27,-0.65,0.57,42.17,-0.40,0.28,29.69,0.94,-0.66,1.60
2,6,570,-17,67,4110,-0.60,0.61,37.92,-0.17,0.67,41.10,-0.39,0.28,29.54,0.38,-0.47,1.08
-4,30,576,-8,-117,4126,-0.57,0.73,37.65,-0.08,-1.17,41.26,-0.41,0.28,29.38,0.51,-1.00,-0.14
-14,11,567,53,-50,4082,-0.60,0.73,37.34,0.53,-0.50,40.82,-0.41,0.27,29.24,0.72,-0.60,0.37
-14,7,535,26,-98,4076,-0.62,0.70,36.87,0.26,-0.98,40.76,-0.43,0.26,29.09,0.74,-0.51,3.30
7,19,512,-4,-53,4028,-0.52,0.74,36.31,-0.04,-0.53,40.28,-0.45,0.26,28.94,0.29,-0.76,5.00
-1,-6,482,40,44,4196,-0.47,0.63,35.62,0.40,0.44,41.96,-0.43,0.25,28.80,0.44,-0.22,7.30
-16,7,470,-72,111,4031,-0.52,0.61,34.92,-0.72,1.11,40.31,-0.42,0.26,28.66,0.74,-0.48,7.45
-14,1,377,-3,-107,3986,-0.56,0.56,33.73,-0.03,-1.07,39.86,-0.44,0.26,28.53,0.73,-0.34,16.30
-10,12,374,69,-101,4171,-0.56,0.58,32.64,0.69,-1.01,41.71,-0.45,0.25,28.40,0.65,-0.56,14.66
-8,15,395,-17,-155,3983,-0.55,0.61,31.78,-0.17,-1.55,39.83,-0.47,0.25,28.27,0.63,-0.64,10.60
6,27,395,27,-131,4057,-0.46,0.71,31.01,0.27,-1.31,40.57,-0.49,0.25,28.14,0.33,-0.91,9.20
1,8,428,34,-163,4108,-0.41,0.69,30.52,0.34,-1.63,41.08,-0.51,0.24,28.02,0.43,-0.51,4.39
-5,18,434,20,-71,4127,-0.40,0.73,30.12,0.20,-0.71,41.27,-0.52,0.24,27.90,0.55,-0.72,2.94
2,1,455,47,-90,4141,-0.35,0.66,29.88,0.47,-0.90,41.41,-0.53,0.22,27.78,0.41,-0.35,0.02
-8,8,477,-4,-102,4117,-0.36,0.65,29.80,-0.04,-1.02,41.17,-0.55,0.22,27.66,0.63,-0.49,-2.73
-29,1,488,-63,-136,4027,-0.50,0.59,29.80,-0.63,-1.36,40.27,-0.57,0.24,27.54,1.10,-0.34,-4.04
3,17,488,-40,-138,4050,-0.43,0.63,29.80,-0.40,-1.38,40.50,-0.59,0.24,27.43,0.45,-0.68,-4.04
-15,15,502,-34,-16,4146,-0.48,0.66,29.88,-0.34,-0.16,41.46,-0.58,0.26,27.31,0.82,-0.66,-5.55
5,0,513,18,103,4063,-0.40,0.59,30.02,0.18,1.03,40.63,-0.56,0.26,27.19,0.38,-0.33,-6.59
-22,7,499,25,-106,4064,-0.50,0.58,30.06,0.25,-1.06,40.64,-0.58,0.25,27.07,0.96,-0.47,-4.85
16,-2,511,54,-31,4178,-0.35,0.51,30.17,0.54,-0.31,41.78,-0.57,0.24,26.94,0.15,-0.25,-6.07
15,25,550,28,-52,4093,-0.22,0.61,30.51,0.28,-0.52,40.93,-0.58,0.22,26.82,0.14,-0.82,-10.07
-24,37,545,6,-45,4094,-0.35,0.77,30.78,0.06,-0.45,40.94,-0.58,0.21,26.70,0.97,-1.10,-8.97
-24,6,521,-1,-84,4070,-0.46,0.73,30.88,-0.01,-0.84,40.70,-0.60,0.21,26.58,1.01,-0.46,-5.94
10,21,521,-32,-27,4024,-0.35,0.79,30.97,-0.32,-0.27,40.24,-0.59,0.22,26.45,0.28,-0.79,-5.77
0,7,528,110,-52,4014,-0.32,0.75,31.10,1.10,-0.52,40.14,-0.59,0.21,26.33,0.48,-0.49,-6.37
-13,30,533,36,-27,4047,-0.36,0.86,31.24,0.36,-0.27,40.47,-0.59,0.20,26.20,0.75,-0.98,-6.70
11,22,558,70,74,4145,-0.26,0.91,31.52,0.70,0.74,41.45,-0.57,0.19,26.08,0.23,-0.82,-9.15
-6,26,564,66,-27,3922,-0.27,0.98,31.81,0.66,-0.27,39.22,-0.57,0.18,25.95,0.57,-0.91,-9.33
-11,7,528,22,41,3921,-0.31,0.92,31.85,0.22,0.41,39.21,-0.56,0.18,25.82,0.68,-0.51,-4.98
-5,26,531,20,-43,4183,-0.31,0.99,31.90,0.20,-0.43,41.83,-0.56,0.16,25.70,0.55,-0.91,-5.23
1,33,504,-68,6,4112,-0.27,1.09,31.79,-0.68,0.06,41.12,-0.55,0.18,25.57,0.42,-1.09,-2.24
-6,16,516,-72,-19,4073,-0.28,1.08,31.75,-0.72,-0.19,40.73,-0.54,0.21,25.44,0.56,-0.76,-3.71
2,19,493,49,177,4107,-0.24,1.09,31.59,0.49,1.77,41.07,-0.53,0.21,25.31,0.37,-0.82,-1.29
-14,41,465,-12,67,4063,-0.30,1.23,31.26,-0.12,0.67,40.63,-0.51,0.21,25.19,0.70,-1.31,1.44
-8,36,452,34,-55,4092,-0.32,1.32,30.90,0.34,-0.55,40.92,-0.52,0.20,25.07,0.59,-1.23,2.31
1,22,442,-56,24,4175,-0.28,1.33,30.50,-0.56,0.24,41.75,-0.50,0.22,24.94,0.39,-0.95,2.78
4,9,413,4,1,4138,-0.23,1.25,29.97,0.04,0.01,41.38,-0.48,0.22,24.82,0.30,-0.67,5.25
3,-2,401,32,35,4131,-0.19,1.11,29.42,0.32,0.35,41.31,-0.47,0.21,24.71,0.30,-0.40,5.67
-13,18,380,-110,-73,4081,-0.25,1.11,28.80,-1.10,-0.73,40.81,-0.48,0.23,24.59,0.65,-0.82,7.01
-6,2,355,79,-143,4178,-0.26,1.01,28.08,0.79,-1.43,41.78,-0.49,0.23,24.48,0.52,-0.47,8.67
-9,6,323,48,-136,4078,-0.29,0.95,27.24,0.48,-1.36,40.78,-0.51,0.22,24.37,0.60,-0.53,10.94
-6,3,250,5,-94,4137,-0.30,0.87,26.04,0.05,-0.94,41.37,-0.53,0.22,24.27,0.55,-0.44,17.40
2,1,232,-60,-27,4146,-0.26,0.79,24.86,-0.60,-0.27,41.46,-0.52,0.24,24.17,0.37,-0.39,17.35
-8,-8,243,34,-80,4167,-0.28,0.66,23.85,0.34,-0.80,41.67,-0.53,0.23,24.07,0.59,-0.17,14.21
-7,-15,241,44,-87,4121,-0.29,0.50,22.94,0.44,-0.87,41.21,-0.55,0.22,23.98,0.58,0.02,12.77
-3,-4,249,-59,-50,4159,-0.28,0.43,22.16,-0.59,-0.50,41.59,-0.55,0.24,23.89,0.50,-0.19,10.40
-2,-2,241,1,11,4097,-0.27,0.37,21.42,0.01,0.11,40.97,-0.54,0.24,23.81,0.47,-0.22,9.99
2,12,230,40,-72,4058,-0.23,0.41,20.68,0.40,-0.72,40.58,-0.55,0.22,23.72,0.38,-0.50,9.94
-10,2,226,43,-118,4181,-0.27,0.38,19.99,0.43,-1.18,41.81,-0.56,0.21,23.64,0.65,-0.29,9.15
9,8,232,34,-33,4139,-0.18,0.39,19.40,0.34,-0.33,41.39,-0.56,0.20,23.57,0.24,-0.40,7.37
-3,18,251,17,-112,4087,-0.18,0.46,19.00,0.17,-1.12,40.87,-0.58,0.19,23.49,0.49,-0.62,4.37
-3,27,270,25,-94,4098,-0.18,0.58,18.74,0.25,-0.94,40.98,-0.59,0.18,23.41,0.50,-0.83,1.66
8,12,320,79,35,4060,-0.12,0.60,18.82,0.79,0.35,40.60,-0.58,0.17,23.34,0.25,-0.52,-4.13
0,28,314,-25,-8,4080,-0.11,0.71,18.85,-0.25,-0.08,40.80,-0.56,0.18,23.26,0.40,-0.88,-3.36
-2,31,410,52,-174,4123,-0.11,0.83,19.47,0.52,-1.74,41.23,-0.58,0.18,23.19,0.45,-0.97,-13.61
-4,25,440,9,-119,4159,-0.12,0.90,20.21,0.09,-1.19,41.59,-0.60,0.18,23.11,0.51,-0.87,-15.81
-17,20,477,13,-119,4094,-0.21,0.93,21.10,0.13,-1.19,40.94,-0.62,0.18,23.02,0.81,-0.78,-18.57
-9,11,497,98,-123,4119,-0.25,0.90,22.02,0.98,-1.23,41.19,-0.63,0.17,22.93,0.66,-0.58,-19.25
-7,15,509,25,-108,4011,-0.26,0.90,22.92,0.25,-1.08,40.11,-0.64,0.16,22.84,0.64,-0.66,-19.01
5,23,518,-30,-28,4148,-0.21,0.95,23.79,-0.30,-0.28,41.48,-0.63,0.18,22.75,0.37,-0.85,-18.48
4,9,514,9,-65,4090,-0.16,0.91,24.55,0.09,-0.65,40.90,-0.64,0.17,22.65,0.39,-0.55,-16.62
-20,7,516,58,-101,4012,-0.27,0.86,25.24,0.58,-1.01,40.12,-0.66,0.16,22.55,0.91,-0.49,-15.58
-6,-4,546,40,-76,4120,-0.28,0.75,26.04,0.40,-0.76,41.20,-0.67,0.15,22.44,0.64,-0.22,-17.66
-8,18,542,16,-78,4021,-0.30,0.79,26.75,0.16,-0.78,40.21,-0.68,0.14,22.34,0.69,-0.68,-15.89
-10,8,588,32,-26,4072,-0.33,0.76,27.66,0.32,-0.26,40.72,-0.67,0.13,22.23,0.74,-0.46,-19.67
2,12,601,3,-78,4126,-0.28,0.76,28.56,0.03,-0.78,41.26,-0.69,0.13,22.11,0.49,-0.53,-19.56
-29,16,621,83,-107,3976,-0.43,0.78,29.49,0.83,-1.07,39.76,-0.70,0.12,21.99,1.17,-0.61,-20.00
-28,-10,630,16,-141,4290,-0.56,0.64,30.39,0.16,-1.41,42.90,-0.72,0.12,21.87,1.20,-0.05,-19.64
-18,-2,694,-46,-66,4222,-0.61,0.56,31.58,-0.46,-0.66,42.22,-0.73,0.14,21.75,1.02,-0.20,-20.00
7,17,691,-67,5,4084,-0.51,0.61,32.64,-0.67,0.05,40.84,-0.72,0.16,21.62,0.47,-0.61,-20.00
2,16,657,11,98,4088,-0.45,0.65,33.38,0.11,0.98,40.88,-0.70,0.16,21.48,0.54,-0.61,-17.34
4,8,630,24,161,4151,-0.38,0.63,33.89,0.24,1.61,41.51,-0.68,0.16,21.35,0.47,-0.44,-13.20
-3,33,571,26,32,4189,-0.36,0.77,33.98,0.26,0.32,41.89,-0.67,0.15,21.21,0.60,-0.98,-6.03
-24,23,589,27,73,4117,-0.47,0.83,34.18,0.27,0.73,41.17,-0.65,0.15,21.07,1.05,-0.80,-7.80
-21,20,635,-62,58,3944,-0.55,0.87,34.63,-0.62,0.58,39.44,-0.64,0.17,20.93,1.00,-0.75,-12.42
-3,53,645,-203,67,4033,-0.51,1.11,35.10,-2.03,0.67,40.33,-0.63,0.19,20.79,0.62,-1.50,-12.73
-9,28,592,-88,190,4059,-0.52,1.17,35.20,-0.88,1.90,40.59,-0.61,0.20,20.65,0.73,-1.02,-6.26
3,37,599,-24,41,4101,-0.45,1.28,35.34,-0.24,0.41,41.01,-0.60,0.21,20.51,0.46,-1.24,-6.84
-1,16,603,-100,-41,4044,-0.41,1.25,35.48,-1.00,-0.41,40.44,-0.60,0.23,20.37,0.53,-0.82,-7.04
2,9,606,-15,-44,4082,-0.36,1.18,35.63,-0.15,-0.44,40.82,-0.61,0.23,20.23,0.46,-0.65,-7.12
-21,5,614,116,-194,4059,-0.45,1.09,35.81,1.16,-1.94,40.59,-0.63,0.22,20.08,0.96,-0.54,-7.73
-3,30,603,116,-149,4171,-0.42,1.16,35.91,1.16,-1.49,41.71,-0.64,0.21,19.94,0.60,-1.07,-6.25
-4,16,555,182,-177,4129,-0.40,1.14,35.70,1.82,-1.77,41.29,-0.65,0.20,19.80,0.62,-0.77,-0.93
-3,13,545,215,-172,4056,-0.38,1.11,35.46,2.15,-1.72,40.56,-0.66,0.19,19.66,0.60,-0.69,-0.19
-2,-15,475,171,-76,3934,-0.36,0.91,34.81,1.71,-0.76,39.34,-0.66,0.18,19.52,0.58,-0.06,6.93
21,38,447,105,-196,4092,-0.19,1.05,34.06,1.05,-1.96,40.92,-0.68,0.17,19.38,0.07,-1.17,8.87
-4,19,394,39,-142,4115,-0.20,1.06,33.05,0.39,-1.42,41.15,-0.69,0.17,19.25,0.59,-0.79,13.32
-13,16,405,-50,-96,4072,-0.26,1.05,32.22,-0.50,-0.96,40.72,-0.71,0.19,19.12,0.80,-0.74,10.49
-12,6,338,-124,-45,4155,-0.30,0.98,31.06,-1.24,-0.45,41.55,-0.71,0.21,19.00,0.80,-0.53,16.31
-8,-2,347,-149,-55,4163,-0.32,0.87,30.07,-1.49,-0.55,41.63,-0.71,0.24,18.88,0.72,-0.35,13.44
28,29,392,-181,-60,3998,-0.12,0.96,29.45,-1.81,-0.60,39.98,-0.71,0.26,18.76,-0.07,-1.02,6.97
-23,1,411,-189,-129,4118,-0.25,0.87,29.02,-1.89,-1.29,41.18,-0.72,0.28,18.64,1.01,-0.44,3.92
-14,-3,397,-110,-87,4068,-0.31,0.77,28.54,-1.10,-0.87,40.68,-0.73,0.30,18.53,0.85,-0.35,4.70
7,4,396,-128,-54,3981,-0.23,0.71,28.10,-1.28,-0.54,39.81,-0.73,0.33,18.42,0.40,-0.49,4.02
3,-34,420,53,-70,4129,-0.19,0.44,27.85,0.53,-0.70,41.29,-0.73,0.31,18.30,0.48,0.37,0.72
-11,-51,428,49,-76,4117,-0.24,0.08,27.68,0.49,-0.76,41.17,-0.74,0.29,18.19,0.78,0.82,-0.54
-19,-24,413,-11,-88,4058,-0.33,-0.07,27.43,-0.11,-0.88,40.58,-0.76,0.29,18.08,0.98,0.32,0.79
-18,-23,408,20,-157,4042,-0.41,-0.21,27.17,0.20,-1.57,40.42,-0.78,0.28,17.98,0.99,0.34,0.92
-11,-24,368,47,-212,4117,-0.44,-0.33,26.70,0.47,-2.12,41.17,-0.79,0.28,17.87,0.87,0.40,4.80
-10,-13,368,-30,-230,4105,-0.45,-0.38,26.28,-0.30,-2.30,41.05,-0.81,0.28,17.76,0.86,0.18,4.02
-17,-51,429,-95,-24,3992,-0.51,-0.65,26.26,-0.95,-0.24,39.92,-0.81,0.29,17.66,1.02,1.02,-3.23
-14,-18,457,-226,-34,4083,-0.55,-0.70,26.43,-2.26,-0.34,40.83,-0.81,0.31,17.55,0.97,0.35,-6.25
3,-6,549,-249,140,4064,-0.47,-0.66,27.13,-2.49,1.40,40.64,-0.80,0.32,17.44,0.59,0.09,-15.87
-9,12,564,-273,83,4080,-0.48,-0.52,27.86,-2.73,0.83,40.80,-0.79,0.34,17.33,0.83,-0.33,-16.31
-9,24,571,-37,-47,4087,-0.49,-0.33,28.56,-0.37,-0.47,40.87,-0.78,0.35,17.22,0.83,-0.63,-15.86
-2,24,574,-23,-22,4094,-0.45,-0.15,29.20,-0.23,-0.22,40.94,-0.76,0.35,17.10,0.67,-0.68,-15.03
12,32,549,36,-190,4151,-0.33,0.06,29.63,0.36,-1.90,41.51,-0.78,0.35,16.98,0.36,-0.90,-11.27
10,41,548,33,-62,4019,-0.24,0.31,30.01,0.33,-0.62,40.19,-0.78,0.33,16.86,0.38,-1.14,-10.45
17,8,558,60,-200,4106,-0.11,0.33,30.41,0.60,-2.00,41.06,-0.80,0.33,16.74,0.21,-0.47,-10.90
-27,7,561,65,-105,4148,-0.26,0.34,30.79,0.65,-1.05,41.48,-0.81,0.31,16.62,1.15,-0.44,-10.55
-5,9,546,40,73,4028,-0.27,0.36,31.05,0.40,0.73,40.28,-0.79,0.31,16.49,0.70,-0.48,-8.31
-34,11,571,56,87,4037,-0.45,0.39,31.42,0.56,0.87,40.37,-0.77,0.30,16.37,1.33,-0.53,-10.57
16,26,552,-18,-60,3985,-0.31,0.51,31.65,-0.18,-0.60,39.85,-0.79,0.30,16.24,0.28,-0.86,-7.90
-30,-27,543,-6,-173,4413,-0.46,0.29,31.80,-0.06,-1.73,44.13,-0.81,0.30,16.12,1.27,0.27,-6.56
-5,3,486,55,-56,4240,-0.44,0.28,31.58,0.55,-0.56,42.40,-0.81,0.28,15.99,0.76,-0.33,-0.19
-14,6,476,56,-106,4088,-0.48,0.29,31.33,0.56,-1.06,40.88,-0.82,0.27,15.86,0.96,-0.38,0.53
-27,12,431,-23,-31,3958,-0.60,0.33,30.82,-0.23,-0.31,39.58,-0.81,0.28,15.74,1.24,-0.52,4.95
1,12,433,-59,-3,4215,-0.53,0.37,30.38,-0.59,-0.03,42.15,-0.79,0.29,15.62,0.65,-0.54,3.91
-17,17,464,59,-139,4139,-0.58,0.44,30.17,0.59,-1.39,41.39,-0.81,0.28,15.50,1.04,-0.65,-0.15
-2,10,473,38,-107,4130,-0.54,0.46,30.04,0.38,-1.07,41.30,-0.82,0.27,15.38,0.73,-0.51,-1.45
-6,12,508,78,-187,4090,-0.52,0.48,30.14,0.78,-1.87,40.90,-0.84,0.26,15.26,0.82,-0.55,-5.43
-5,6,515,138,-115,4050,-0.50,0.47,30.26,1.38,-1.15,40.50,-0.84,0.25,15.14,0.80,-0.42,-6.02
-4,15,526,104,-52,4056,-0.47,0.52,30.45,1.04,-0.52,40.56,-0.84,0.24,15.02,0.77,-0.60,-6.99
-18,1,524,123,-109,4150,-0.54,0.47,30.60,1.23,-1.09,41.50,-0.85,0.22,14.89,1.07,-0.30,-6.47
4,0,492,119,28,4081,-0.46,0.42,30.54,1.19,0.28,40.81,-0.84,0.21,14.77,0.60,-0.25,-2.78
-7,5,489,74,18,4032,-0.46,0.41,30.47,0.74,0.18,40.32,-0.83,0.20,14.65,0.82,-0.35,-2.55
-6,-6,496,103,52,4090,-0.45,0.33,30.45,1.03,0.52,40.90,-0.82,0.19,14.53,0.79,-0.09,-3.41
-9,0,509,92,-66,4117,-0.46,0.30,30.51,0.92,-0.66,41.17,-0.82,0.17,14.40,0.85,-0.20,-4.84
-11,-6,527,56,-65,4111,-0.48,0.23,30.67,0.56,-0.65,41.11,-0.83,0.16,14.28,0.90,-0.05,-6.67
-12,1,535,132,-84,4051,-0.50,0.22,30.87,1.32,-0.84,40.51,-0.83,0.14,14.16,0.93,-0.17,-7.26
-5,3,530,173,-93,4101,-0.48,0.21,31.01,1.73,-0.93,41.01,-0.84,0.13,14.03,0.79,-0.20,-6.39
-5,5,537,186,-81,4059,-0.47,0.22,31.19,1.86,-0.81,40.59,-0.84,0.11,13.91,0.78,-0.24,-6.90
-6,1,537,-46,-55,4093,-0.46,0.21,31.35,-0.46,-0.55,40.93,-0.84,0.13,13.78,0.80,-0.16,-6.61
-2,-12,533,52,-41,4119,-0.42,0.11,31.46,0.52,-0.41,41.19,-0.84,0.12,13.66,0.71,0.14,-5.91
-5,-7,512,83,-56,4314,-0.41,0.06,31.44,0.83,-0.56,43.14,-0.84,0.10,13.53,0.77,0.06,-3.46
-5,6,514,73,-57,3968,-0.40,0.09,31.43,0.73,-0.57,39.68,-0.84,0.09,13.41,0.76,-0.20,-3.71
1,12,487,101,-102,4134,-0.35,0.15,31.26,1.01,-1.02,41.34,-0.84,0.07,13.28,0.63,-0.33,-0.82
-9,3,464,52,-197,4118,-0.37,0.16,30.96,0.52,-1.97,41.18,-0.86,0.07,13.16,0.85,-0.15,1.37
-14,4,466,17,-31,4084,-0.42,0.17,30.71,0.17,-0.31,40.84,-0.85,0.06,13.04,0.96,-0.16,0.67
6,7,452,29,-57,4123,-0.34,0.19,30.40,0.29,-0.57,41.23,-0.85,0.04,12.91,0.53,-0.22,1.76
1,-3,420,-53,2,4059,-0.30,0.15,29.92,-0.53,0.02,40.59,-0.84,0.06,12.79,0.61,-0.02,4.68
-15,-10,410,-12,-101,4012,-0.36,0.08,29.43,-0.12,-1.01,40.12,-0.85,0.06,12.68,0.97,0.14,4.97
-6,3,370,46,-140,3987,-0.36,0.09,28.74,0.46,-1.40,39.87,-0.87,0.05,12.56,0.80,-0.12,8.46
-10,2,372,102,-189,4072,-0.39,0.09,28.14,1.02,-1.89,40.72,-0.89,0.04,12.45,0.89,-0.10,7.12
-8,3,439,127,-214,4120,-0.40,0.10,28.00,1.27,-2.14,41.20,-0.90,0.03,12.34,0.87,-0.11,-1.07
-14,-3,435,132,-258,4024,-0.44,0.07,27.85,1.32,-2.58,40.24,-0.92,0.03,12.23,1.01,0.02,-0.87
-17,27,508,108,-285,3923,-0.50,0.23,28.17,1.08,-2.85,39.23,-0.94,0.02,12.11,1.10,-0.63,-8.95
-18,0,540,25,-255,4136,-0.56,0.21,28.64,0.25,-2.55,41.36,-0.96,0.02,12.00,1.15,-0.07,-11.86
-29,-9,602,42,-215,4120,-0.68,0.13,29.45,0.42,-2.15,41.20,-0.98,0.02,11.88,1.42,0.13,-17.73
-3,18,616,25,-73,3949,-0.63,0.23,30.26,0.25,-0.73,39.49,-0.98,0.00,11.76,0.88,-0.43,-17.90
-2,10,637,-58,-69,4050,-0.58,0.27,31.12,-0.58,-0.69,40.50,-0.99,0.03,11.64,0.85,-0.29,-18.81
-8,2,649,-21,59,4172,-0.57,0.25,31.97,-0.21,0.59,41.72,-0.97,0.03,11.51,0.96,-0.13,-18.68
-7,1,633,32,-55,4074,-0.56,0.23,32.63,0.32,-0.55,40.74,-0.97,0.02,11.38,0.93,-0.10,-15.56
-13,0,620,61,46,4080,-0.58,0.21,33.15,0.61,0.46,40.80,-0.95,0.01,11.24,1.05,-0.06,-13.06
-9,10,587,-27,11,4097,-0.58,0.25,33.42,-0.27,0.11,40.97,-0.94,0.02,11.11,0.96,-0.28,-8.65
-24,3,575,-69,-36,4177,-0.67,0.24,33.58,-0.69,-0.36,41.77,-0.93,0.04,10.98,1.28,-0.15,-6.92
2,11,518,65,29,4128,-0.59,0.29,33.39,0.65,0.29,41.28,-0.92,0.03,10.84,0.73,-0.32,-0.52
-15,17,519,56,-40,4024,-0.62,0.36,33.21,0.56,-0.40,40.24,-0.91,0.02,10.71,1.08,-0.46,-0.95
-7,7,400,8,-4,4046,-0.60,0.37,32.33,0.08,-0.04,40.46,-0.90,0.02,10.58,0.90,-0.26,11.55
2,9,416,-37,-6,4178,-0.53,0.39,31.64,-0.37,-0.06,41.78,-0.89,0.03,10.45,0.69,-0.31,8.38
-17,0,453,108,-152,4190,-0.58,0.35,31.24,1.08,-1.52,41.90,-0.90,0.02,10.33,1.10,-0.11,3.26
-19,-10,422,117,-171,4061,-0.64,0.25,30.69,1.17,-1.71,40.61,-0.91,0.01,10.21,1.16,0.13,5.93
-8,14,401,171,-197,4115,-0.62,0.31,30.06,1.71,-1.97,41.15,-0.93,0.00,10.09,0.94,-0.37,7.28
6,14,408,138,-194,4147,-0.52,0.37,29.55,1.38,-1.94,41.47,-0.94,-0.01,9.97,0.64,-0.38,5.51
-2,22,416,221,-164,4086,-0.48,0.46,29.13,2.21,-1.64,40.86,-0.95,-0.02,9.85,0.80,-0.56,3.80
1,14,412,152,-131,4072,-0.43,0.50,28.73,1.52,-1.31,40.72,-0.96,-0.04,9.74,0.73,-0.40,3.54
-4,2,423,105,-127,4169,-0.41,0.46,28.44,1.05,-1.27,41.69,-0.97,-0.05,9.62,0.83,-0.14,1.70
-6,27,447,106,-180,4174,-0.41,0.58,28.32,1.06,-1.80,41.74,-0.99,-0.06,9.51,0.88,-0.67,-1.35
0,12,476,-69,-73,4073,-0.37,0.60,28.39,-0.69,-0.73,40.73,-0.99,-0.03,9.40,0.75,-0.38,-4.66
4,19,480,-17,-172,4063,-0.30,0.65,28.48,-0.17,-1.72,40.63,-1.01,-0.03,9.28,0.67,-0.55,-4.97
-14,-4,490,5,45,4179,-0.36,0.56,28.62,0.05,0.45,41.79,-0.99,-0.02,9.17,1.04,-0.06,-5.89
5,17,489,2,13,4013,-0.29,0.61,28.74,0.02,0.13,40.13,-0.97,-0.02,9.05,0.62,-0.50,-5.55
-2,18,476,-35,22,4093,-0.28,0.66,28.77,-0.35,0.22,40.93,-0.96,-0.01,8.94,0.75,-0.54,-3.95
-10,9,459,16,46,4063,-0.31,0.65,28.69,0.16,0.46,40.63,-0.94,-0.00,8.82,0.91,-0.36,-2.07
1,9,408,-13,-14,4126,-0.27,0.64,28.31,-0.13,-0.14,41.26,-0.92,0.00,8.71,0.66,-0.36,3.29
-6,9,395,-10,-24,4058,-0.28,0.63,27.89,-0.10,-0.24,40.58,-0.91,0.01,8.60,0.80,-0.36,4.06
-10,5,328,39,-22,4107,-0.31,0.60,27.10,0.39,-0.22,41.07,-0.89,0.00,8.49,0.88,-0.27,10.56
-6,6,314,-11,-12,4080,-0.32,0.57,26.31,-0.11,-0.12,40.80,-0.88,0.01,8.39,0.79,-0.29,10.77
1,-1,275,-65,-18,4158,-0.28,0.51,25.36,-0.65,-0.18,41.58,-0.87,0.03,8.28,0.63,-0.14,13.65
-14,-11,261,2,-28,4117,-0.34,0.39,24.41,0.02,-0.28,41.17,-0.85,0.03,8.19,0.94,0.10,13.58
-13,-13,228,-10,-18,4086,-0.38,0.27,23.36,-0.10,-0.18,40.86,-0.84,0.04,8.09,0.92,0.17,15.57
-5,-6,213,-24,-30,4092,-0.38,0.21,22.32,-0.24,-0.30,40.92,-0.82,0.05,8.00,0.75,0.03,15.45
-1,-10,186,13,13,4099,-0.34,0.13,21.23,0.13,0.13,40.99,-0.81,0.05,7.92,0.65,0.14,16.64
-8,-19,176,2,0,4081,-0.36,-0.00,20.18,0.02,0.00,40.81,-0.79,0.05,7.84,0.78,0.36,15.90
-5,-15,105,-76,74,4101,-0.35,-0.09,18.80,-0.76,0.74,41.01,-0.77,0.06,7.76,0.71,0.29,20.00
0,-15,78,-57,37,4115,-0.32,-0.17,17.40,-0.57,0.37,41.15,-0.76,0.07,7.69,0.59,0.31,20.00
7,0,64,-163,121,4180,-0.24,-0.16,16.05,-1.63,1.21,41.80,-0.75,0.08,7.63,0.42,-0.01,20.00
1,-10,87,-98,-58,4101,-0.21,-0.20,14.97,-0.98,-0.58,41.01,-0.75,0.10,7.57,0.53,0.19,16.92
-1,-4,91,59,-163,4126,-0.20,-0.21,14.03,0.59,-1.63,41.26,-0.76,0.09,7.51,0.58,0.08,14.72
-2,-9,97,80,-197,4108,-0.19,-0.24,13.22,0.80,-1.97,41.08,-0.78,0.08,7.46,0.61,0.20,12.52
-7,-11,90,145,-136,4107,-0.21,-0.28,12.45,1.45,-1.36,41.07,-0.79,0.06,7.41,0.72,0.26,11.93
-4,-6,84,115,-104,4072,-0.22,-0.29,11.71,1.15,-1.04,40.72,-0.80,0.04,7.36,0.67,0.17,11.30
-2,-5,69,54,15,4116,-0.21,-0.29,10.96,0.54,0.15,41.16,-0.78,0.03,7.32,0.61,0.16,11.71
1,-5,59,24,-17,4112,-0.18,-0.29,10.23,0.24,-0.17,41.12,-0.77,0.02,7.28,0.54,0.17,11.54
-1,15,91,22,-85,4130,-0.17,-0.17,9.76,0.22,-0.85,41.30,-0.78,0.01,7.24,0.58,-0.26,6.89
-8,3,104,72,-85,4098,-0.20,-0.14,9.42,0.72,-0.85,40.98,-0.79,-0.01,7.20,0.74,-0.02,4.73
-2,10,86,130,-115,4084,-0.19,-0.06,9.00,1.30,-1.15,40.84,-0.80,-0.02,7.17,0.62,-0.17,6.10
-6,8,101,150,-177,4096,-0.21,-0.01,8.72,1.50,-1.77,40.96,-0.81,-0.04,7.13,0.72,-0.14,3.80
-1,5,148,118,-78,4131,-0.20,0.02,8.75,1.18,-0.78,41.31,-0.82,-0.06,7.10,0.61,-0.07,-1.72
-4,8,136,100,-6,4102,-0.20,0.07,8.70,1.00,-0.06,41.02,-0.81,-0.07,7.06,0.67,-0.13,-0.38
3,12,90,49,-17,4134,-0.16,0.14,8.38,0.49,-0.17,41.34,-0.80,-0.08,7.03,0.51,-0.23,4.49
-1,1,81,45,-27,4095,-0.15,0.13,8.04,0.45,-0.27,40.95,-0.79,-0.10,7.00,0.58,0.01,4.93
0,0,46,27,-38,4101,-0.14,0.12,7.51,0.27,-0.38,41.01,-0.77,-0.11,6.97,0.55,0.04,8.12
1,2,36,28,-38,4103,-0.12,0.12,6.98,0.28,-0.38,41.03,-0.76,-0.12,6.94,0.52,0.01,8.33
7,9,13,50,-68,4094,-0.06,0.16,6.36,0.50,-0.68,40.94,-0.77,-0.14,6.91,0.38,-0.13,9.92
8,10,8,56,-51,4100,-0.01,0.20,5.78,0.56,-0.51,41.00,-0.77,-0.16,6.89,0.35,-0.16,9.44
13,10,-7,79,-56,4081,0.07,0.25,5.16,0.79,-0.56,40.81,-0.77,-0.17,6.87,0.22,-0.16,10.08
20,7,-18,49,-46,4097,0.19,0.26,4.53,0.49,-0.46,40.97,-0.76,-0.19,6.85,0.05,-0.09,10.24
4,4,-76,1,56,4141,0.19,0.26,3.61,0.01,0.56,41.41,-0.74,-0.19,6.84,0.36,-0.03,15.44
12,8,-97,51,-11,4043,0.25,0.28,2.66,0.51,-0.11,40.43,-0.73,-0.20,6.83,0.17,-0.11,16.18
13,13,-77,119,-293,4083,0.30,0.33,1.92,1.19,-2.93,40.83,-0.74,-0.20,6.82,0.15,-0.22,12.46
6,9,-52,64,-264,4050,0.31,0.36,1.42,0.64,-2.64,40.50,-0.76,-0.21,6.81,0.30,-0.14,8.56
2,5,7,5,-103,4086,0.29,0.35,1.32,0.05,-1.03,40.86,-0.78,-0.20,6.81,0.39,-0.06,1.38
1,8,12,-8,-74,4098,0.27,0.36,1.26,-0.08,-0.74,40.98,-0.79,-0.19,6.80,0.43,-0.14,0.68
-4,5,30,44,-57,4084,0.22,0.36,1.32,0.44,-0.57,40.84,-0.79,-0.20,6.80,0.54,-0.07,-1.35
-2,4,30,48,-12,4127,0.18,0.35,1.37,0.48,-0.12,41.27,-0.77,-0.21,6.79,0.50,-0.04,-1.26
-2,12,77,-4,-24,4068,0.15,0.39,1.70,-0.04,-0.24,40.68,-0.76,-0.20,6.78,0.50,-0.22,-6.22
17,30,62,93,-44,4066,0.24,0.53,1.91,0.93,-0.44,40.66,-0.75,-0.22,6.78,0.09,-0.61,-4.06
-3,12,56,3,-146,4082,0.20,0.55,2.06,0.03,-1.46,40.82,-0.77,-0.21,6.77,0.52,-0.25,-3.07
-7,11,71,76,-166,4057,0.14,0.56,2.29,0.76,-1.66,40.57,-0.79,-0.22,6.76,0.62,-0.23,-4.43
15,17,136,-11,34,4049,0.21,0.61,2.89,-0.11,0.34,40.49,-0.77,-0.21,6.75,0.14,-0.37,-11.04
14,20,153,-93,11,4092,0.28,0.67,3.53,-0.93,0.11,40.92,-0.76,-0.19,6.73,0.14,-0.46,-11.87
0,-2,248,93,-233,4118,0.25,0.59,4.69,0.93,-2.33,41.18,-0.77,-0.20,6.72,0.44,0.01,-20.00
-17,-4,273,191,-215,4204,0.12,0.51,5.89,1.91,-2.15,42.04,-0.79,-0.21,6.69,0.83,0.08,-20.00
-26,-21,231,238,-162,4043,-0.05,0.33,6.71,2.38,-1.62,40.43,-0.79,-0.22,6.66,1.07,0.48,-15.29
-20,-10,215,179,-61,4062,-0.17,0.24,7.35,1.79,-0.61,40.62,-0.79,-0.24,6.64,0.98,0.30,-12.22
-5,0,181,82,-68,4059,-0.18,0.21,7.72,0.82,-0.68,40.59,-0.80,-0.26,6.60,0.68,0.11,-7.51
-4,5,178,106,-119,4075,-0.19,0.22,8.03,1.06,-1.19,40.75,-0.81,-0.27,6.57,0.67,0.02,-6.58
-2,6,204,118,-226,4062,-0.18,0.24,8.47,1.18,-2.26,40.62,-0.83,-0.28,6.54,0.64,-0.00,-8.85
3,7,222,144,-247,4094,-0.14,0.25,8.98,1.44,-2.47,40.94,-0.84,-0.29,6.50,0.53,-0.02,-10.05
6,31,335,87,-287,4092,-0.09,0.42,10.13,0.87,-2.87,40.92,-0.86,-0.29,6.46,0.47,-0.55,-20.00
21,39,374,139,-256,4103,0.04,0.61,11.39,1.39,-2.56,41.03,-0.88,-0.30,6.42,0.14,-0.77,-20.00
8,33,477,92,-176,4033,0.09,0.75,13.16,0.92,-1.76,40.33,-0.89,-0.30,6.36,0.40,-0.68,-20.00
10,30,487,71,-101,4100,0.14,0.86,14.82,0.71,-1.01,41.00,-0.90,-0.31,6.30,0.35,-0.64,-20.00
-7,9,451,35,-11,4068,0.08,0.83,16.09,0.35,-0.11,40.68,-0.89,-0.31,6.24,0.70,-0.20,-20.00
-7,11,430,-37,12,4083,0.03,0.81,17.10,-0.37,0.12,40.83,-0.87,-0.30,6.17,0.71,-0.25,-19.81
-3,-5,433,-23,-49,4140,0.01,0.70,18.03,-0.23,-0.49,41.40,-0.87,-0.28,6.10,0.63,0.09,-18.46
-2,3,442,-17,-79,4085,-0.00,0.65,18.93,-0.17,-0.79,40.85,-0.87,-0.25,6.02,0.62,-0.07,-17.89
-18,-5,453,4,-149,4047,-0.11,0.56,19.80,0.04,-1.49,40.47,-0.89,-0.25,5.95,0.99,0.11,-17.59
1,2,467,55,-138,4048,-0.09,0.51,20.67,0.55,-1.38,40.48,-0.91,-0.25,5.86,0.61,-0.01,-17.66
-14,11,506,33,-142,4063,-0.17,0.53,21.69,0.33,-1.42,40.63,-0.93,-0.25,5.78,0.94,-0.20,-20.00
-16,4,508,25,-195,4082,-0.25,0.50,22.62,0.25,-1.95,40.82,-0.95,-0.25,5.69,1.02,-0.05,-18.94
1,13,524,28,-120,4062,-0.22,0.53,23.55,0.28,-1.20,40.62,-0.97,-0.25,5.59,0.68,-0.24,-19.12
-3,12,520,45,-186,4076,-0.22,0.55,24.37,0.45,-1.86,40.76,-0.99,-0.25,5.49,0.77,-0.23,-17.14
-13,12,524,104,-117,4198,-0.27,0.57,25.13,1.04,-1.17,41.98,-1.00,-0.26,5.39,1.00,-0.23,-16.22
-7,10,532,62,-116,4124,-0.29,0.57,25.86,0.62,-1.16,41.24,-1.01,-0.27,5.29,0.89,-0.18,-15.82
4,13,542,76,6,4066,-0.24,0.59,26.58,0.76,0.06,40.66,-1.00,-0.28,5.18,0.64,-0.24,-15.68
-7,4,492,49,46,4020,-0.25,0.56,26.92,0.49,0.46,40.20,-0.98,-0.28,5.08,0.86,-0.05,-9.12
-17,7,491,169,-241,4069,-0.33,0.55,27.23,1.69,-2.41,40.69,-1.00,-0.29,4.97,1.10,-0.10,-8.44
-9,18,502,96,-182,4052,-0.35,0.60,27.57,0.96,-1.82,40.52,-1.02,-0.29,4.86,0.95,-0.34,-9.12
1,11,551,84,-48,4103,-0.31,0.61,28.17,0.84,-0.48,41.03,-1.01,-0.31,4.74,0.73,-0.19,-13.82
-18,25,552,-49,-60,4108,-0.39,0.70,28.72,-0.49,-0.60,41.08,-1.01,-0.28,4.63,1.14,-0.51,-12.93
29,32,569,-19,65,4059,-0.18,0.82,29.32,-0.19,0.65,40.59,-0.99,-0.27,4.51,0.11,-0.70,-13.84
-25,-1,577,78,-94,4087,-0.31,0.74,29.91,0.78,-0.94,40.87,-1.00,-0.28,4.39,1.25,0.01,-13.71
-13,10,528,61,16,4127,-0.36,0.72,30.14,0.61,0.16,41.27,-0.99,-0.29,4.27,1.01,-0.21,-7.47
-8,9,518,78,-77,4062,-0.37,0.71,30.28,0.78,-0.77,40.62,-0.99,-0.30,4.15,0.92,-0.18,-6.01
-17,14,459,-21,-39,4000,-0.44,0.72,30.05,-0.21,-0.39,40.00,-0.98,-0.28,4.03,1.11,-0.30,0.57
-10,-3,441,-30,34,4261,-0.46,0.63,29.74,-0.30,0.34,42.61,-0.97,-0.27,3.91,0.97,0.07,2.13
-11,8,369,3,35,4062,-0.48,0.62,29.02,0.03,0.35,40.62,-0.95,-0.26,3.80,0.98,-0.16,9.35
-5,6,363,19,-86,4136,-0.46,0.59,28.33,0.19,-0.86,41.36,-0.97,-0.26,3.68,0.87,-0.11,8.80
-8,-9,373,103,-136,3980,-0.46,0.48,27.77,1.03,-1.36,39.80,-0.99,-0.27,3.57,0.94,0.23,6.60
-11,10,390,72,-173,4052,-0.48,0.49,27.37,0.72,-1.73,40.52,-1.01,-0.27,3.46,1.02,-0.16,3.85
4,13,450,84,-93,4110,-0.41,0.52,27.38,0.84,-0.93,41.10,-1.01,-0.28,3.35,0.70,-0.22,-3.25
-4,9,472,129,-95,4110,-0.39,0.52,27.52,1.29,-0.95,41.10,-1.02,-0.30,3.24,0.86,-0.13,-5.59
-17,8,491,63,-51,4164,-0.46,0.52,27.76,0.63,-0.51,41.64,-1.01,-0.31,3.13,1.14,-0.10,-7.40
4,5,498,57,-37,4076,-0.39,0.50,28.03,0.57,-0.37,40.76,-1.00,-0.32,3.02,0.69,-0.03,-7.75
-10,-1,455,103,-28,4050,-0.41,0.44,28.00,1.03,-0.28,40.50,-1.00,-0.33,2.91,0.97,0.12,-2.69
-5,2,427,64,60,4124,-0.40,0.41,27.80,0.64,0.60,41.24,-0.98,-0.33,2.80,0.86,0.07,0.27
-13,2,403,34,-73,4152,-0.44,0.38,27.48,0.34,-0.73,41.52,-0.99,-0.35,2.69,1.04,0.09,2.53
-18,-16,404,72,-51,4049,-0.50,0.25,27.20,0.72,-0.51,40.49,-0.98,-0.36,2.58,1.15,0.50,1.90
-14,3,388,7,-70,4115,-0.54,0.24,26.85,0.07,-0.70,41.15,-0.99,-0.34,2.47,1.08,0.10,3.15
-9,3,391,23,-118,4177,-0.54,0.23,26.55,0.23,-1.18,41.77,-1.01,-0.34,2.36,0.99,0.10,2.25
-13,13,441,-6,-157,4111,-0.57,0.29,26.58,-0.06,-1.57,41.11,-1.03,-0.33,2.26,1.10,-0.13,-3.61
-6,-9,447,0,-107,4155,-0.55,0.21,26.65,0.00,-1.07,41.55,-1.04,-0.32,2.15,0.96,0.33,-4.20
-20,2,413,24,-19,4035,-0.61,0.20,26.50,0.24,-0.19,40.35,-1.03,-0.31,2.05,1.25,0.11,-0.43
5,19,391,-10,-8,4110,-0.52,0.29,26.24,-0.10,-0.08,41.10,-1.02,-0.30,1.94,0.71,-0.27,1.70
-4,5,314,98,-121,4055,-0.49,0.29,25.53,0.98,-1.21,40.55,-1.03,-0.31,1.84,0.89,0.03,9.53
1,4,304,107,-121,4142,-0.44,0.29,24.83,1.07,-1.21,41.42,-1.04,-0.33,1.74,0.78,0.06,9.44
-6,7,344,49,-206,4110,-0.43,0.30,24.45,0.49,-2.06,41.10,-1.06,-0.33,1.64,0.94,-0.01,4.00
-9,-4,362,112,-107,4131,-0.44,0.25,24.21,1.12,-1.07,41.31,-1.07,-0.34,1.54,1.01,0.24,1.43
-18,5,413,91,-113,4178,-0.51,0.25,24.31,0.91,-1.13,41.78,-1.08,-0.36,1.45,1.22,0.06,-4.44
-23,-14,424,67,32,4026,-0.60,0.14,24.46,0.67,0.32,40.26,-1.06,-0.36,1.35,1.33,0.48,-5.45
2,19,406,111,-120,4056,-0.53,0.25,24.49,1.11,-1.20,40.56,-1.08,-0.37,1.25,0.81,-0.21,-3.26
6,14,402,141,-127,4118,-0.44,0.31,24.50,1.41,-1.27,41.18,-1.09,-0.39,1.15,0.71,-0.11,-2.78
-12,6,424,66,-86,4142,-0.47,0.31,24.63,0.66,-0.86,41.42,-1.09,-0.40,1.05,1.09,0.06,-5.13
-2,6,416,109,-90,3972,-0.43,0.32,24.71,1.09,-0.90,39.72,-1.10,-0.42,0.96,0.88,0.07,-4.05
-4,4,431,-95,-137,4114,-0.41,0.31,24.87,-0.95,-1.37,41.14,-1.11,-0.40,0.86,0.92,0.10,-5.53
-13,-3,439,28,-73,4090,-0.45,0.26,25.06,0.28,-0.73,40.90,-1.09,-0.39,0.76,1.11,0.25,-6.13
-9,2,446,112,-183,4039,-0.46,0.25,25.27,1.12,-1.83,40.39,-1.11,-0.40,0.66,1.04,0.16,-6.56
4,9,445,117,-87,4054,-0.39,0.28,25.46,1.17,-0.87,40.54,-1.11,-0.42,0.55,0.76,0.02,-6.09
-15,3,469,24,-113,4096,-0.44,0.27,25.77,0.24,-1.13,40.96,-1.13,-0.41,0.45,1.17,0.14,-8.36
-6,12,465,8,-31,4105,-0.44,0.31,26.03,0.08,-0.31,41.05,-1.12,-0.40,0.35,0.98,-0.07,-7.41
1,12,410,69,52,4028,-0.39,0.36,25.93,0.69,0.52,40.28,-1.10,-0.40,0.24,0.81,-0.08,-1.07
-22,16,383,41,64,4073,-0.48,0.42,25.67,0.41,0.64,40.73,-1.09,-0.40,0.14,1.30,-0.18,1.67
-3,11,239,98,103,4090,-0.45,0.44,24.56,0.98,1.03,40.90,-1.07,-0.40,0.04,0.89,-0.08,16.71
-22,4,211,43,100,4022,-0.54,0.42,23.40,0.43,1.00,40.22,-1.06,-0.40,-0.05,1.29,0.07,17.89
-7,-5,81,2,84,4103,-0.53,0.35,21.55,0.02,0.84,41.03,-1.04,-0.40,-0.14,0.97,0.27,20.00
-4,-1,54,36,-1,4087,-0.50,0.31,19.72,0.36,-0.01,40.87,-1.03,-0.39,-0.22,0.90,0.20,20.00
2,5,26,65,-65,4098,-0.44,0.31,17.91,0.65,-0.65,40.98,-1.02,-0.41,-0.29,0.76,0.08,20.00
1,3,23,64,-71,4109,-0.39,0.30,16.26,0.64,-0.71,41.09,-1.03,-0.43,-0.35,0.76,0.14,20.00
1,2,24,54,-90,4107,-0.34,0.28,14.78,0.54,-0.90,41.07,-1.04,-0.44,-0.41,0.76,0.17,20.00
1,2,28,49,-101,4110,-0.30,0.26,13.47,0.49,-1.01,41.10,-1.05,-0.45,-0.47,0.76,0.18,20.00
0,-1,43,78,-79,4086,-0.27,0.23,12.39,0.78,-0.79,40.86,-1.06,-0.46,-0.52,0.77,0.26,17.64
0,1,44,79,-73,4079,-0.25,0.21,11.42,0.79,-0.73,40.79,-1.06,-0.48,-0.56,0.77,0.24,15.74
3,4,31,83,-51,4090,-0.20,0.22,10.46,0.83,-0.51,40.90,-1.05,-0.49,-0.60,0.69,0.19,15.54
6,5,26,63,-61,4080,-0.15,0.23,9.58,0.63,-0.61,40.80,-1.04,-0.51,-0.64,0.61,0.17,14.50
1,10,90,16,-222,4157,-0.13,0.26,9.17,0.16,-2.22,41.57,-1.06,-0.50,-0.68,0.72,0.06,6.16
-2,11,144,100,-186,4074,-0.12,0.30,9.13,1.00,-1.86,40.74,-1.08,-0.51,-0.71,0.79,0.03,-0.31
-13,-11,182,185,-106,4107,-0.19,0.21,9.33,1.85,-1.06,41.07,-1.08,-0.53,-0.75,1.03,0.52,-4.45
-8,-2,197,180,-168,4019,-0.22,0.17,9.60,1.80,-1.68,40.19,-1.10,-0.54,-0.79,0.95,0.35,-5.74
-4,-7,248,198,-186,4014,-0.22,0.11,10.15,1.98,-1.86,40.14,-1.11,-0.56,-0.83,0.87,0.48,-10.77
6,11,275,195,-270,4029,-0.16,0.17,10.81,1.95,-2.70,40.29,-1.12,-0.57,-0.87,0.66,0.10,-12.76
5,24,521,-1,-413,4222,-0.12,0.30,12.91,-0.01,-4.13,42.22,-1.14,-0.56,-0.93,0.68,-0.20,-20.00
8,9,596,65,-395,4105,-0.06,0.32,15.25,0.65,-3.95,41.05,-1.16,-0.56,-0.99,0.62,0.10,-20.00
-10,27,745,42,-160,4039,-0.11,0.46,18.27,0.42,-1.60,40.39,-1.18,-0.56,-1.06,1.01,-0.31,-20.00
-15,29,740,67,-48,4152,-0.19,0.59,20.96,0.67,-0.48,41.52,-1.17,-0.56,-1.14,1.13,-0.38,-20.00
-5,13,658,25,16,4162,-0.20,0.61,22.88,0.25,0.16,41.62,-1.15,-0.56,-1.24,0.92,-0.06,-20.00
-23,6,600,-27,73,4153,-0.32,0.58,24.25,-0.27,0.73,41.53,-1.14,-0.55,-1.33,1.31,0.08,-20.00
-4,18,477,126,23,4067,-0.32,0.64,24.73,1.26,0.23,40.67,-1.12,-0.55,-1.43,0.91,-0.17,-11.16
-2,22,450,73,-19,4149,-0.30,0.71,25.01,0.73,-0.19,41.49,-1.11,-0.56,-1.53,0.85,-0.27,-7.46
-7,16,370,29,30,4082,-0.31,0.73,24.76,0.29,0.30,40.82,-1.09,-0.55,-1.63,0.95,-0.16,1.59
-11,16,366,4,-4,4104,-0.35,0.76,24.52,0.04,-0.04,41.04,-1.08,-0.54,-1.73,1.03,-0.18,1.62
-2,13,332,42,24,4073,-0.32,0.76,24.09,0.42,0.24,40.73,-1.06,-0.53,-1.82,0.83,-0.12,4.87
4,15,311,34,83,4154,-0.27,0.78,23.58,0.34,0.83,41.54,-1.05,-0.53,-1.92,0.68,-0.17,6.43
-6,0,256,39,-62,3994,-0.28,0.70,22.78,0.39,-0.62,39.94,-1.03,-0.53,-2.01,0.88,0.16,11.49
-2,7,248,61,-29,4133,-0.26,0.67,22.02,0.61,-0.29,41.33,-1.02,-0.53,-2.10,0.78,0.03,11.04
5,7,227,85,-71,4093,-0.20,0.65,21.20,0.85,-0.71,40.93,-1.02,-0.55,-2.18,0.63,0.04,12.03
-3,4,240,101,-168,4050,-0.20,0.61,20.54,1.01,-1.68,40.50,-1.03,-0.55,-2.26,0.80,0.12,9.29
-2,-9,210,60,49,4036,-0.19,0.49,19.77,0.60,0.49,40.36,-1.02,-0.55,-2.34,0.77,0.41,11.43
0,2,195,65,2,4069,-0.17,0.45,18.98,0.65,0.02,40.69,-1.00,-0.55,-2.42,0.71,0.20,11.77
-12,-2,221,246,-213,3976,-0.23,0.40,18.43,2.46,-2.13,39.76,-1.01,-0.57,-2.49,0.98,0.31,7.68
-6,11,241,229,-172,4138,-0.24,0.42,18.06,2.29,-1.72,41.38,-1.02,-0.58,-2.56,0.86,0.04,4.62
0,-5,264,32,-8,4169,-0.22,0.35,17.86,0.32,-0.08,41.69,-1.01,-0.57,-2.64,0.72,0.38,1.54
-5,-13,250,9,56,4076,-0.23,0.24,17.60,0.09,0.56,40.76,-0.99,-0.57,-2.71,0.82,0.57,2.72
-3,-3,185,9,-7,4096,-0.22,0.19,16.97,0.09,-0.07,40.96,-0.98,-0.56,-2.77,0.77,0.38,9.27
1,-2,179,48,-38,4117,-0.20,0.16,16.37,0.48,-0.38,41.17,-0.96,-0.56,-2.84,0.67,0.37,8.88
-3,9,251,31,-251,4136,-0.19,0.20,16.26,0.31,-2.51,41.36,-0.98,-0.56,-2.90,0.76,0.13,0.14
-13,-7,298,74,-166,4092,-0.25,0.14,16.45,0.74,-1.66,40.92,-1.00,-0.56,-2.97,0.99,0.48,-5.08
-1,10,278,122,-32,4103,-0.23,0.19,16.50,1.22,-0.32,41.03,-0.99,-0.58,-3.04,0.74,0.13,-2.61
5,13,257,182,-6,4083,-0.18,0.25,16.42,1.82,-0.06,40.83,-0.99,-0.59,-3.10,0.60,0.06,-0.27
0,10,233,146,-65,4063,-0.16,0.28,16.20,1.46,-0.65,40.63,-0.99,-0.61,-3.17,0.70,0.12,2.18
-2,6,229,97,8,4115,-0.16,0.29,15.98,0.97,0.08,41.15,-0.97,-0.62,-3.23,0.73,0.20,2.24
-8,-6,214,61,-24,4155,-0.19,0.23,15.68,0.61,-0.24,41.55,-0.96,-0.62,-3.29,0.85,0.47,3.49
1,-2,200,73,20,4072,-0.17,0.19,15.34,0.73,0.20,40.72,-0.94,-0.62,-3.35,0.65,0.40,4.51
0,1,139,-13,21,4168,-0.15,0.18,14.65,-0.13,0.21,41.68,-0.93,-0.61,-3.41,0.65,0.33,10.49
1,-5,117,13,29,4088,-0.13,0.13,13.90,0.13,0.29,40.88,-0.91,-0.60,-3.47,0.62,0.47,11.72
0,-2,86,-4,-74,4091,-0.12,0.10,13.03,-0.04,-0.74,40.91,-0.91,-0.59,-3.52,0.64,0.40,13.81
0,-1,81,36,-52,4105,-0.10,0.09,12.22,0.36,-0.52,41.05,-0.90,-0.58,-3.57,0.62,0.38,12.92
6,4,47,35,-15,4123,-0.06,0.10,11.29,0.35,-0.15,41.23,-0.88,-0.57,-3.61,0.48,0.27,15.24
6,-1,36,79,-59,4113,-0.01,0.09,10.38,0.79,-0.59,41.13,-0.88,-0.59,-3.65,0.46,0.39,14.88
-6,-7,28,89,-68,4060,-0.05,0.04,9.51,0.89,-0.68,40.60,-0.88,-0.61,-3.69,0.72,0.53,14.24
-2,0,24,99,-72,4075,-0.06,0.03,8.71,0.99,-0.72,40.75,-0.89,-0.63,-3.73,0.64,0.40,13.24
-2,3,40,140,-109,4079,-0.06,0.05,8.08,1.40,-1.09,40.79,-0.89,-0.64,-3.76,0.65,0.35,10.19
-2,3,49,102,-62,4098,-0.07,0.06,7.57,1.02,-0.62,40.98,-0.89,-0.66,-3.79,0.65,0.36,8.19
-2,0,35,108,-85,4087,-0.07,0.05,7.03,1.08,-0.85,40.87,-0.90,-0.68,-3.82,0.66,0.43,8.86
-3,2,41,142,-99,4070,-0.09,0.06,6.58,1.42,-0.99,40.70,-0.91,-0.69,-3.84,0.68,0.40,7.31
2,1,67,115,-112,4097,-0.06,0.06,6.33,1.15,-1.12,40.97,-0.92,-0.71,-3.87,0.58,0.43,3.77
2,3,76,98,-110,4100,-0.05,0.07,6.16,0.98,-1.10,41.00,-0.93,-0.72,-3.89,0.59,0.39,2.40
-4,9,111,-56,-107,4133,-0.07,0.12,6.22,-0.56,-1.07,41.33,-0.94,-0.70,-3.92,0.72,0.25,-1.64
-3,1,120,-17,-57,4159,-0.08,0.12,6.33,-0.17,-0.57,41.59,-0.94,-0.68,-3.94,0.70,0.40,-2.51
-1,3,87,61,-14,4095,-0.08,0.12,6.23,0.61,-0.14,40.95,-0.92,-0.69,-3.97,0.65,0.36,1.22
-1,6,73,62,-14,4119,-0.07,0.15,6.05,0.62,-0.14,41.19,-0.90,-0.69,-3.99,0.64,0.29,2.56
1,5,35,80,-55,4102,-0.06,0.16,5.66,0.80,-0.55,41.02,-0.90,-0.71,-4.02,0.59,0.32,6.35
1,1,32,79,-56,4093,-0.05,0.15,5.29,0.79,-0.56,40.93,-0.89,-0.72,-4.04,0.58,0.41,6.02
0,-4,36,78,-61,4091,-0.04,0.11,4.98,0.78,-0.61,40.91,-0.89,-0.74,-4.06,0.60,0.54,4.98
-1,-6,33,82,-52,4097,-0.05,0.06,4.68,0.82,-0.52,40.97,-0.89,-0.76,-4.08,0.62,0.60,4.80
0,-6,17,72,-41,4094,-0.04,0.02,4.32,0.72,-0.41,40.94,-0.87,-0.77,-4.09,0.59,0.62,6.03
0,-6,15,87,-80,4089,-0.04,-0.02,3.98,0.87,-0.80,40.89,-0.88,-0.78,-4.11,0.59,0.64,5.64
-3,-5,33,125,-128,4091,-0.05,-0.05,3.78,1.25,-1.28,40.91,-0.89,-0.80,-4.12,0.66,0.64,3.14
-2,-2,45,145,-137,4098,-0.06,-0.05,3.68,1.45,-1.37,40.98,-0.91,-0.81,-4.14,0.65,0.59,1.53
0,-1,63,85,-75,4089,-0.05,-0.05,3.69,0.85,-0.75,40.89,-0.91,-0.83,-4.15,0.62,0.58,-0.57
2,-1,61,82,-48,4093,-0.04,-0.06,3.70,0.82,-0.48,40.93,-0.90,-0.84,-4.17,0.56,0.59,-0.33
3,0,50,62,-56,4098,-0.01,-0.05,3.63,0.62,-0.56,40.98,-0.88,-0.85,-4.18,0.53,0.57,0.86
1,1,44,47,-28,4087,-0.01,-0.04,3.54,0.47,-0.28,40.87,-0.87,-0.84,-4.20,0.55,0.54,1.40
2,-1,14,59,-61,4094,0.01,-0.04,3.27,0.59,-0.61,40.94,-0.85,-0.83,-4.21,0.52,0.58,4.46
1,-1,12,71,-74,4084,0.01,-0.04,3.01,0.71,-0.74,40.84,-0.87,-0.84,-4.22,0.55,0.59,4.23
-3,-3,10,67,-75,4091,-0.01,-0.06,2.77,0.67,-0.75,40.91,-0.88,-0.85,-4.23,0.65,0.64,4.03
-2,-5,8,85,-78,4095,-0.02,-0.08,2.55,0.85,-0.78,40.95,-0.89,-0.86,-4.24,0.64,0.69,3.85
0,-4,6,70,-75,4105,-0.02,-0.10,2.33,0.70,-0.75,41.05,-0.91,-0.87,-4.25,0.60,0.69,3.69
0,-3,7,81,-65,4093,-0.02,-0.11,2.14,0.81,-0.65,40.93,-0.91,-0.89,-4.26,0.60,0.68,3.22
2,-3,8,88,-67,4095,-0.00,-0.11,1.97,0.88,-0.67,40.95,-0.91,-0.91,-4.27,0.56,0.69,2.80
1,-3,9,86,-69,4092,0.00,-0.12,1.83,0.86,-0.69,40.92,-0.91,-0.93,-4.28,0.58,0.71,2.42
2,-2,8,81,-77,4084,0.02,-0.12,1.70,0.81,-0.77,40.84,-0.93,-0.94,-4.28,0.57,0.70,2.29
1,-2,7,75,-73,4095,0.02,-0.12,1.57,0.75,-0.73,40.95,-0.94,-0.96,-4.29,0.59,0.71,2.18
0,0,4,71,-77,4099,0.02,-0.11,1.44,0.71,-0.77,40.99,-0.96,-0.96,-4.30,0.63,0.67,2.29
1,0,4,76,-82,4093,0.02,-0.10,1.32,0.76,-0.82,40.93,-0.97,-0.97,-4.30,0.62,0.67,2.07
2,1,5,81,-66,4102,0.03,-0.08,1.22,0.81,-0.66,41.02,-0.97,-0.99,-4.31,0.59,0.66,1.77
2,1,5,81,-69,4105,0.04,-0.07,1.13,0.81,-0.69,41.05,-0.97,-1.01,-4.31,0.59,0.66,1.60
1,1,5,89,-69,4090,0.04,-0.05,1.04,0.89,-0.69,40.90,-0.97,-1.03,-4.32,0.61,0.67,1.45
1,-1,3,85,-82,4105,0.05,-0.06,0.96,0.85,-0.82,41.05,-0.98,-1.04,-4.32,0.61,0.72,1.53
0,-2,2,85,-82,4095,0.04,-0.06,0.87,0.85,-0.82,40.95,-0.99,-1.05,-4.32,0.64,0.75,1.49
0,-4,1,75,-75,4096,0.04,-0.08,0.79,0.75,-0.75,40.96,-1.01,-1.05,-4.33,0.66,0.80,1.46
0,-4,1,78,-69,4097,0.03,-0.10,0.72,0.78,-0.69,40.97,-1.00,-1.06,-4.33,0.65,0.81,1.33
2,0,0,80,-77,4092,0.04,-0.09,0.65,0.80,-0.77,40.92,-1.01,-1.07,-4.33,0.62,0.73,1.32
2,1,1,84,-70,4094,0.05,-0.07,0.59,0.84,-0.70,40.94,-1.01,-1.09,-4.33,0.61,0.72,1.09
0,0,-2,73,-55,4070,0.05,-0.07,0.52,0.73,-0.55,40.70,-0.99,-1.09,-4.34,0.64,0.74,1.32
2,5,-6,79,-50,4089,0.05,-0.03,0.43,0.79,-0.50,40.89,-0.97,-1.09,-4.34,0.59,0.62,1.63
4,4,-13,86,-67,4097,0.07,-0.00,0.31,0.86,-0.67,40.97,-0.96,-1.11,-4.34,0.54,0.65,2.24
8,12,-45,-4,52,4032,0.11,0.07,0.00,-0.04,0.52,40.32,-0.95,-1.10,-4.34,0.43,0.46,5.47
8,2,-64,-15,52,4177,0.15,0.08,-0.39,-0.15,0.52,41.77,-0.93,-1.08,-4.34,0.41,0.65,7.01
-2,1,-116,-11,-80,4135,0.12,0.08,-1.06,-0.11,-0.80,41.35,-0.94,-1.07,-4.33,0.62,0.66,11.95
-3,-8,-110,21,-131,4099,0.09,0.02,-1.62,0.21,-1.31,40.99,-0.95,-1.05,-4.33,0.66,0.85,10.20
-7,-11,-53,194,-191,4124,0.04,-0.05,-1.78,1.94,-1.91,41.24,-0.96,-1.07,-4.32,0.77,0.94,3.14
-3,-8,-35,197,-192,4070,0.02,-0.09,-1.82,1.97,-1.92,40.70,-0.98,-1.08,-4.31,0.70,0.90,0.94
-8,-12,2,113,-88,4091,-0.03,-0.16,-1.62,1.13,-0.88,40.91,-0.98,-1.10,-4.31,0.82,1.01,-3.09
-8,-13,4,104,-91,4100,-0.08,-0.22,-1.44,1.04,-0.91,41.00,-1.00,-1.11,-4.30,0.84,1.06,-2.98
-6,-16,10,114,-107,4105,-0.11,-0.30,-1.23,1.14,-1.07,41.05,-1.01,-1.13,-4.30,0.82,1.15,-3.32
-5,-14,11,97,-61,4093,-0.13,-0.35,-1.04,0.97,-0.61,40.93,-1.00,-1.14,-4.29,0.80,1.13,-3.09
-1,-10,4,63,-48,4102,-0.12,-0.38,-0.91,0.63,-0.48,41.02,-0.99,-1.13,-4.29,0.70,1.05,-2.02
0,-8,2,71,-62,4105,-0.11,-0.39,-0.81,0.71,-0.62,41.05,-0.97,-1.12,-4.28,0.67,1.01,-1.60
2,-7,-3,67,-73,4109,-0.08,-0.39,-0.75,0.67,-0.73,41.09,-0.98,-1.10,-4.28,0.63,0.98,-0.89
-1,-7,0,55,-89,4116,-0.08,-0.40,-0.67,0.55,-0.89,41.16,-0.99,-1.09,-4.28,0.70,0.97,-1.11
0,-4,1,90,-93,4095,-0.07,-0.38,-0.60,0.90,-0.93,40.95,-1.01,-1.10,-4.28,0.68,0.91,-1.09
-1,-6,1,88,-88,4076,-0.07,-0.38,-0.53,0.88,-0.88,40.76,-1.02,-1.11,-4.27,0.71,0.96,-0.97
-3,-4,1,77,-82,4094,-0.08,-0.37,-0.47,0.77,-0.82,40.94,-1.04,-1.11,-4.27,0.77,0.91,-0.86
-2,-3,4,89,-78,4098,-0.09,-0.35,-0.40,0.89,-0.78,40.98,-1.05,-1.13,-4.27,0.76,0.90,-1.08
-3,-8,14,124,-112,4089,-0.10,-0.36,-0.28,1.24,-1.12,40.89,-1.06,-1.14,-4.27,0.79,1.02,-2.04
-5,-7,29,131,-100,4088,-0.12,-0.37,-0.07,1.31,-1.00,40.88,-1.07,-1.16,-4.27,0.84,1.01,-3.44
0,-2,60,120,-116,4091,-0.11,-0.34,0.30,1.20,-1.16,40.91,-1.08,-1.17,-4.27,0.74,0.91,-6.44
7,4,62,120,-87,4095,-0.05,-0.28,0.65,1.20,-0.87,40.95,-1.09,-1.19,-4.27,0.59,0.78,-6.03
8,5,41,-15,-19,4103,0.00,-0.23,0.83,-0.15,-0.19,41.03,-1.08,-1.18,-4.28,0.55,0.74,-3.20
4,5,28,3,10,4159,0.03,-0.17,0.92,0.03,0.10,41.59,-1.06,-1.17,-4.28,0.61,0.72,-1.50
3,7,2,70,-100,4087,0.04,-0.11,0.84,0.70,-1.00,40.87,-1.08,-1.16,-4.29,0.64,0.65,1.44
3,7,2,106,-79,4090,0.06,-0.06,0.77,1.06,-0.79,40.90,-1.08,-1.18,-4.29,0.64,0.65,1.30
5,7,-6,143,-79,4087,0.08,-0.01,0.66,1.43,-0.79,40.87,-1.08,-1.19,-4.29,0.59,0.65,2.04
5,8,-8,146,-67,4108,0.10,0.04,0.54,1.46,-0.67,41.08,-1.08,-1.21,-4.29,0.58,0.63,2.07
0,8,-29,87,-46,4068,0.09,0.08,0.31,0.87,-0.46,40.68,-1.06,-1.21,-4.29,0.67,0.61,4.14
0,2,-39,86,-43,4096,0.08,0.09,0.04,0.86,-0.43,40.96,-1.04,-1.21,-4.29,0.66,0.74,4.83
3,2,-47,91,-32,4062,0.09,0.09,-0.25,0.91,-0.32,40.62,-1.02,-1.21,-4.29,0.59,0.74,5.25
7,14,-95,105,-23,4096,0.13,0.17,-0.80,1.05,-0.23,40.96,-1.00,-1.22,-4.29,0.49,0.47,9.92
3,11,-99,130,-72,4098,0.13,0.22,-1.33,1.30,-0.72,40.98,-1.00,-1.24,-4.28,0.57,0.53,9.44
4,11,-111,171,-28,4138,0.14,0.26,-1.87,1.71,-0.28,41.38,-0.99,-1.25,-4.28,0.54,0.53,9.86
3,10,-130,181,-20,4156,0.15,0.30,-2.48,1.81,-0.20,41.56,-0.98,-1.27,-4.27,0.55,0.55,11.00
10,13,-181,61,-96,4051,0.19,0.35,-3.33,0.61,-0.96,40.51,-1.00,-1.25,-4.25,0.40,0.47,15.48
12,10,-194,91,-94,4089,0.25,0.37,-4.18,0.91,-0.94,40.89,-1.01,-1.25,-4.24,0.36,0.52,15.46
6,8,-196,-127,-120,4136,0.26,0.39,-4.96,-1.27,-1.20,41.36,-1.01,-1.23,-4.22,0.48,0.55,14.27
4,7,-195,-133,-113,4116,0.26,0.39,-5.65,-1.33,-1.13,41.16,-1.02,-1.21,-4.19,0.52,0.55,12.88
13,7,-214,-85,-36,4089,0.31,0.39,-6.39,-0.85,-0.36,40.89,-1.01,-1.20,-4.17,0.32,0.54,13.78
10,1,-251,32,-48,4135,0.34,0.36,-7.29,0.32,-0.48,41.35,-1.00,-1.18,-4.14,0.36,0.66,16.53
6,-2,-259,84,-26,4065,0.34,0.31,-8.14,0.84,-0.26,40.65,-0.98,-1.18,-4.11,0.43,0.73,15.92
8,0,-255,130,8,4081,0.36,0.28,-8.88,1.30,0.08,40.81,-0.96,-1.19,-4.07,0.38,0.71,14.08
0,-9,-255,155,26,4084,0.32,0.20,-9.55,1.55,0.26,40.84,-0.95,-1.20,-4.03,0.54,0.92,12.85
4,-8,-266,69,43,4066,0.31,0.13,-10.21,0.69,0.43,40.66,-0.93,-1.19,-3.99,0.44,0.92,12.93
3,-14,-271,56,4,4103,0.30,0.03,-10.85,0.56,0.04,41.03,-0.91,-1.19,-3.95,0.46,1.06,12.37
7,-23,-291,75,-13,4017,0.31,-0.11,-11.54,0.75,-0.13,40.17,-0.89,-1.19,-3.90,0.36,1.28,13.47
1,-16,-284,37,-90,4046,0.29,-0.20,-12.12,0.37,-0.90,40.46,-0.89,-1.17,-3.85,0.49,1.15,11.58
2,-11,-281,102,-34,4160,0.27,-0.25,-12.62,1.02,-0.34,41.60,-0.88,-1.18,-3.80,0.46,1.07,10.30
1,-12,-289,96,-30,4049,0.25,-0.29,-13.12,0.96,-0.30,40.49,-0.86,-1.19,-3.75,0.48,1.11,10.32
4,-7,-291,87,-93,4098,0.25,-0.31,-13.58,0.87,-0.93,40.98,-0.87,-1.19,-3.69,0.43,1.01,9.71
3,-13,-295,118,-69,4032,0.24,-0.36,-14.02,1.18,-0.69,40.32,-0.87,-1.21,-3.64,0.45,1.16,9.37
5,-10,-325,-33,-38,4079,0.25,-0.38,-14.60,-0.33,-0.38,40.79,-0.87,-1.20,-3.58,0.40,1.10,11.87
6,-13,-339,22,-41,4128,0.26,-0.42,-15.21,0.22,-0.41,41.28,-0.86,-1.18,-3.52,0.37,1.16,12.41
13,-21,-366,70,-127,4108,0.31,-0.51,-15.92,0.70,-1.27,41.08,-0.88,-1.18,-3.46,0.23,1.35,14.31
3,-15,-367,47,-132,4046,0.30,-0.55,-16.57,0.47,-1.32,40.46,-0.89,-1.18,-3.39,0.44,1.23,13.24
3,-14,-374,102,-73,4094,0.29,-0.58,-17.19,1.02,-0.73,40.94,-0.90,-1.20,-3.32,0.45,1.23,12.92
7,-8,-391,143,-51,4068,0.30,-0.57,-17.86,1.43,-0.51,40.68,-0.89,-1.22,-3.25,0.36,1.12,13.71
5,-10,-390,131,-172,4069,0.30,-0.57,-18.45,1.31,-1.72,40.69,-0.90,-1.23,-3.18,0.41,1.17,12.50
10,-3,-377,76,-149,4100,0.33,-0.54,-18.91,0.76,-1.49,41.00,-0.92,-1.23,-3.10,0.31,1.02,10.13
7,-8,-397,80,-58,4050,0.34,-0.53,-19.44,0.80,-0.58,40.50,-0.90,-1.22,-3.02,0.36,1.11,11.52
3,-12,-411,40,-43,4111,0.33,-0.55,-20.00,0.40,-0.43,41.11,-0.89,-1.21,-2.94,0.44,1.19,12.15
15,-6,-447,-45,-70,4070,0.39,-0.53,-20.73,-0.45,-0.70,40.70,-0.89,-1.19,-2.86,0.18,1.05,15.08
11,-16,-449,-8,-37,4128,0.41,-0.58,-21.39,-0.08,-0.37,41.28,-0.88,-1.18,-2.77,0.24,1.26,14.09
14,-6,-405,-86,56,4031,0.46,-0.56,-21.73,-0.86,0.56,40.31,-0.87,-1.17,-2.69,0.16,1.04,8.26
8,-2,-411,-99,-49,4114,0.46,-0.51,-22.06,-0.99,-0.49,41.14,-0.86,-1.15,-2.60,0.28,0.94,8.36
-12,-29,-438,83,-262,4060,0.34,-0.64,-22.53,0.83,-2.62,40.60,-0.88,-1.16,-2.51,0.73,1.53,10.71
-22,-16,-457,100,-300,3983,0.17,-0.67,-23.06,1.00,-3.00,39.83,-0.89,-1.16,-2.42,0.99,1.27,11.97
4,6,-390,198,-271,4100,0.18,-0.57,-23.13,1.98,-2.71,41.00,-0.91,-1.17,-2.33,0.47,0.81,3.89
4,-9,-388,139,-216,4020,0.19,-0.57,-23.19,1.39,-2.16,40.20,-0.92,-1.18,-2.23,0.48,1.12,3.55
18,-26,-444,50,-50,4058,0.28,-0.67,-23.58,0.50,-0.50,40.58,-0.91,-1.17,-2.14,0.16,1.48,9.48
21,-4,-439,12,63,4239,0.38,-0.63,-23.90,0.12,0.63,42.39,-0.89,-1.17,-2.04,0.06,1.02,8.29
-1,-9,-493,-37,-33,4160,0.33,-0.62,-24.51,-0.37,-0.33,41.60,-0.88,-1.15,-1.94,0.51,1.11,13.56
5,-7,-508,-68,118,3997,0.33,-0.60,-25.16,-0.68,1.18,39.97,-0.87,-1.14,-1.84,0.38,1.06,14.15
1,-16,-546,-46,-30,4037,0.30,-0.64,-25.98,-0.46,-0.30,40.37,-0.86,-1.13,-1.74,0.46,1.25,17.16
14,-21,-546,-68,20,4106,0.36,-0.70,-26.71,-0.68,0.20,41.06,-0.85,-1.12,-1.63,0.18,1.36,15.81
9,-17,-593,-19,-38,4062,0.38,-0.73,-27.66,-0.19,-0.38,40.62,-0.84,-1.11,-1.52,0.27,1.28,19.65
10,-16,-619,9,-34,4049,0.40,-0.76,-28.67,0.09,-0.34,40.49,-0.83,-1.09,-1.41,0.23,1.25,20.00
12,-1,-677,-20,-36,4157,0.43,-0.69,-29.93,-0.20,-0.36,41.57,-0.82,-1.08,-1.29,0.18,0.92,20.00
11,-9,-712,33,-103,3960,0.46,-0.67,-31.28,0.33,-1.03,39.60,-0.83,-1.07,-1.16,0.20,1.07,20.00
17,-3,-687,-4,-177,3974,0.52,-0.63,-32.34,-0.04,-1.77,39.74,-0.84,-1.07,-1.03,0.07,0.94,20.00
16,-4,-702,29,-188,4118,0.56,-0.59,-33.39,0.29,-1.88,41.18,-0.85,-1.06,-0.90,0.08,0.94,20.00
22,3,-665,82,-216,4073,0.64,-0.51,-34.11,0.82,-2.16,40.73,-0.87,-1.07,-0.76,-0.05,0.78,16.33
9,-9,-669,98,-177,4128,0.63,-0.51,-34.78,0.98,-1.77,41.28,-0.88,-1.08,-0.63,0.22,1.03,15.57
-1,-6,-636,98,-88,4088,0.56,-0.50,-35.18,0.98,-0.88,40.88,-0.89,-1.09,-0.48,0.45,0.98,10.92
1,-31,-633,162,-99,4244,0.51,-0.64,-35.52,1.62,-0.99,42.44,-0.89,-1.11,-0.34,0.43,1.54,9.93
4,-18,-602,319,-158,4034,0.48,-0.68,-35.64,3.19,-1.58,40.34,-0.89,-1.14,-0.20,0.37,1.30,6.03
0,3,-586,213,-231,3938,0.44,-0.60,-35.65,2.13,-2.31,39.38,-0.90,-1.15,-0.06,0.48,0.86,4.10
13,3,-625,57,-45,4176,0.47,-0.52,-35.90,0.57,-0.45,41.76,-0.89,-1.14,0.09,0.19,0.83,8.27
24,-5,-651,170,48,3923,0.57,-0.50,-36.28,1.70,0.48,39.23,-0.87,-1.16,0.23,-0.07,1.00,10.65
8,-9,-676,16,43,4013,0.56,-0.50,-36.78,0.16,0.43,40.13,-0.85,-1.15,0.38,0.24,1.08,12.70
-1,-4,-677,59,-12,4177,0.50,-0.48,-37.23,0.59,-0.12,41.77,-0.82,-1.15,0.53,0.43,0.97,11.99
17,-19,-751,48,12,4117,0.55,-0.55,-38.09,0.48,0.12,41.17,-0.80,-1.15,0.68,0.03,1.29,19.19
12,-11,-764,3,-5,4110,0.57,-0.56,-38.94,0.03,-0.05,41.10,-0.79,-1.13,0.84,0.12,1.12,19.16
11,10,-706,84,-106,3876,0.58,-0.44,-39.35,0.84,-1.06,38.76,-0.80,-1.14,0.99,0.15,0.67,11.52
6,0,-744,38,-145,4055,0.56,-0.40,-39.95,0.38,-1.45,40.55,-0.81,-1.14,1.15,0.26,0.86,14.92
-2,-16,-757,206,-153,4102,0.49,-0.46,-40.58,2.06,-1.53,41.02,-0.82,-1.16,1.31,0.45,1.21,15.31
17,-8,-755,293,-191,4024,0.55,-0.46,-41.12,2.93,-1.91,40.24,-0.82,-1.17,1.48,0.05,1.06,14.07
17,-4,-687,141,-158,3964,0.60,-0.44,-41.20,1.41,-1.58,39.64,-0.83,-1.19,1.64,0.04,0.98,5.85
20,-10,-711,151,-66,4114,0.66,-0.45,-41.42,1.51,-0.66,41.14,-0.83,-1.21,1.81,-0.04,1.13,8.30
-5,-5,-701,-19,-56,4279,0.56,-0.44,-41.55,-0.19,-0.56,42.79,-0.82,-1.20,1.98,0.49,1.01,6.86
9,-23,-761,50,-171,3915,0.56,-0.54,-42.04,0.50,-1.71,39.15,-0.83,-1.20,2.14,0.21,1.40,13.08
8,-22,-812,99,-65,4132,0.55,-0.62,-42.79,0.99,-0.65,41.32,-0.83,-1.22,2.31,0.24,1.42,17.75
16,-8,-817,60,-154,4011,0.60,-0.60,-43.49,0.60,-1.54,40.11,-0.84,-1.22,2.49,0.07,1.13,17.04
22,-4,-819,35,5,4089,0.67,-0.57,-44.14,0.35,0.05,40.89,-0.82,-1.21,2.66,-0.09,1.04,16.09
13,5,-825,30,-91,4263,0.68,-0.48,-44.76,0.30,-0.91,42.63,-0.83,-1.20,2.84,0.09,0.82,15.66
14,-4,-825,139,-132,4143,0.70,-0.46,-45.32,1.39,-1.32,41.43,-0.83,-1.22,3.02,0.07,1.01,14.63
-4,-13,-826,122,-140,3997,0.61,-0.49,-45.82,1.22,-1.40,39.97,-0.84,-1.23,3.21,0.47,1.21,13.82
9,-4,-798,225,-243,4017,0.60,-0.47,-46.11,2.25,-2.43,40.17,-0.85,-1.24,3.39,0.22,1.03,9.97
-10,-20,-807,131,-267,4096,0.48,-0.54,-46.42,1.31,-2.67,40.96,-0.86,-1.25,3.58,0.64,1.38,10.46
-7,-47,-798,-17,-39,4167,0.39,-0.77,-46.65,-0.17,-0.39,41.67,-0.85,-1.24,3.76,0.60,1.98,8.97
5,-48,-820,-46,27,4126,0.38,-0.99,-46.98,-0.46,0.27,41.26,-0.84,-1.23,3.95,0.35,2.06,10.95
13,-38,-952,-10,-70,4224,0.42,-1.12,-48.09,-0.10,-0.70,42.24,-0.83,-1.22,4.14,0.17,1.88,20.00
21,-37,-959,-13,41,4133,0.51,-1.24,-49.13,-0.13,0.41,41.33,-0.82,-1.21,4.34,-0.03,1.89,20.00
19,-31,-931,-154,-172,4072,0.57,-1.30,-49.90,-1.54,-1.72,40.72,-0.82,-1.21,4.54,-0.00,1.78,18.75
33,-23,-923,-80,-142,3997,0.72,-1.31,-50.54,-0.80,-1.42,39.97,-0.82,-1.20,4.74,-0.33,1.62,16.62
3,-17,-831,96,-126,4003,0.66,-1.28,-50.55,0.96,-1.26,40.03,-0.83,-1.21,4.94,0.31,1.49,5.68
-6,-31,-834,86,-183,4056,0.56,-1.34,-50.59,0.86,-1.83,40.56,-0.84,-1.22,5.15,0.52,1.80,5.97
13,-12,-759,83,-104,4106,0.58,-1.28,-50.16,0.83,-1.04,41.06,-0.85,-1.22,5.35,0.14,1.40,-2.15
-17,-29,-719,173,-309,4017,0.42,-1.33,-49.53,1.73,-3.09,40.17,-0.86,-1.24,5.54,0.80,1.77,-5.74
24,-15,-744,220,-53,4175,0.53,-1.29,-49.11,2.20,-0.53,41.75,-0.86,-1.26,5.74,-0.07,1.49,-2.02
-12,-25,-740,121,-164,4003,0.40,-1.31,-48.72,1.21,-1.64,40.03,-0.87,-1.28,5.93,0.71,1.71,-1.77
7,-13,-761,74,-20,4071,0.40,-1.26,-48.49,0.74,-0.20,40.71,-0.84,-1.28,6.13,0.31,1.45,1.13
5,-16,-754,131,-10,4120,0.39,-1.23,-48.24,1.31,-0.10,41.20,-0.82,-1.30,6.32,0.34,1.52,0.75
1,-18,-728,50,-14,4005,0.36,-1.22,-47.85,0.50,-0.14,40.05,-0.81,-1.29,6.51,0.41,1.55,-1.63
28,-14,-733,31,47,4087,0.49,-1.18,-47.54,0.31,0.47,40.87,-0.78,-1.29,6.70,-0.19,1.46,-0.47
16,-27,-725,87,-89,3982,0.54,-1.23,-47.21,0.87,-0.89,39.82,-0.79,-1.30,6.89,0.05,1.74,-0.82
-1,-12,-738,48,-76,4036,0.48,-1.18,-46.99,0.48,-0.76,40.36,-0.80,-1.29,7.08,0.41,1.42,1.12
17,-12,-675,-21,-41,4151,0.54,-1.13,-46.41,-0.21,-0.41,41.51,-0.79,-1.28,7.27,0.03,1.40,-5.29
22,-20,-685,180,-221,3977,0.62,-1.14,-45.95,1.80,-2.21,39.77,-0.80,-1.29,7.45,-0.09,1.57,-3.26
15,-8,-638,12,-3,3938,0.65,-1.08,-45.24,0.12,-0.03,39.38,-0.78,-1.28,7.63,0.03,1.30,-7.55
30,10,-621,-25,-72,4280,0.77,-0.91,-44.51,-0.25,-0.72,42.80,-0.78,-1.27,7.81,-0.31,0.88,-8.22
7,-20,-675,134,-199,4159,0.73,-0.94,-44.17,1.34,-1.99,41.59,-0.79,-1.28,7.98,0.18,1.51,-1.21
28,-13,-629,69,-20,4350,0.83,-0.93,-43.59,0.69,-0.20,43.50,-0.76,-1.28,8.16,-0.29,1.36,-5.61
-8,-1,-697,-107,-50,4048,0.70,-0.84,-43.49,-1.07,-0.50,40.48,-0.76,-1.27,8.33,0.47,1.09,2.65
11,-24,-709,50,-5,4184,0.70,-0.90,-43.46,0.50,-0.05,41.84,-0.74,-1.26,8.51,0.07,1.57,4.11
30,-1,-749,73,-118,4177,0.81,-0.82,-43.68,0.73,-1.18,41.77,-0.75,-1.26,8.68,-0.34,1.08,8.44
30,4,-705,-4,-203,4204,0.91,-0.71,-43.62,-0.04,-2.03,42.04,-0.75,-1.26,8.86,-0.36,0.94,3.34
31,2,-780,-10,-41,4147,1.01,-0.63,-44.01,-0.10,-0.41,41.47,-0.74,-1.24,9.03,-0.41,0.95,11.51
28,-9,-789,-19,-14,4019,1.08,-0.62,-44.42,-0.19,-0.14,40.19,-0.73,-1.23,9.21,-0.38,1.16,11.81
12,-12,-829,15,37,4035,1.04,-0.63,-45.04,0.15,0.37,40.35,-0.71,-1.22,9.39,-0.06,1.22,15.43
24,-17,-832,21,-18,4149,1.09,-0.67,-45.61,0.21,-0.18,41.49,-0.69,-1.21,9.57,-0.33,1.33,14.73
22,-14,-873,50,-60,4060,1.11,-0.69,-46.37,0.50,-0.60,40.60,-0.69,-1.20,9.76,-0.30,1.26,18.18
11,-15,-888,0,-50,4165,1.07,-0.71,-47.15,0.00,-0.50,41.65,-0.68,-1.19,9.95,-0.07,1.28,18.53
12,-12,-951,-5,-61,4211,1.03,-0.71,-48.24,-0.05,-0.61,42.11,-0.67,-1.17,10.14,-0.08,1.21,20.00
23,-36,-963,-40,-123,4061,1.07,-0.86,-49.29,-0.40,-1.23,40.61,-0.68,-1.16,10.34,-0.31,1.74,20.00
25,-30,-989,49,32,4235,1.12,-0.96,-50.39,0.49,0.32,42.35,-0.65,-1.16,10.54,-0.38,1.64,20.00
3,-24,-986,55,-24,4107,1.02,-1.01,-51.37,0.55,-0.24,41.07,-0.63,-1.15,10.74,0.08,1.52,20.00
22,-22,-1065,75,-209,4013,1.05,-1.04,-52.73,0.75,-2.09,40.13,-0.64,-1.16,10.95,-0.31,1.50,20.00
15,-27,-1097,26,92,4254,1.04,-1.10,-54.15,0.26,0.92,42.54,-0.61,-1.16,11.17,-0.18,1.62,20.00
3,-49,-1198,-26,-31,4254,0.96,-1.29,-56.04,-0.26,-0.31,42.54,-0.60,-1.15,11.40,0.08,2.11,20.00
-2,-54,-1216,-67,-29,4017,0.85,-1.49,-57.85,-0.67,-0.29,40.17,-0.59,-1.14,11.63,0.20,2.26,20.00
19,-56,-1211,73,-43,4193,0.88,-1.68,-59.46,0.73,-0.43,41.93,-0.59,-1.13,11.87,-0.24,2.34,20.00
17,-46,-1204,41,4,4139,0.89,-1.80,-60.85,0.41,0.04,41.39,-0.56,-1.13,12.11,-0.22,2.17,20.00
17,-16,-1197,57,-221,4172,0.91,-1.71,-62.07,0.57,-2.21,41.72,-0.57,-1.13,12.36,-0.22,1.54,20.00
-7,-32,-1186,81,-114,3962,0.78,-1.74,-63.10,0.81,-1.14,39.62,-0.58,-1.14,12.61,0.32,1.88,20.00
22,-19,-1148,66,-346,3931,0.83,-1.68,-63.79,0.66,-3.46,39.31,-0.59,-1.15,12.86,-0.28,1.61,18.76
26,-2,-1162,102,-306,4087,0.91,-1.52,-64.50,1.02,-3.06,40.87,-0.60,-1.16,13.12,-0.38,1.22,19.11
14,3,-1239,21,-453,4080,0.90,-1.35,-65.61,0.21,-4.53,40.80,-0.61,-1.17,13.38,-0.13,1.08,20.00
45,-26,-1242,85,-190,3939,1.09,-1.38,-66.62,0.85,-1.90,39.39,-0.62,-1.18,13.65,-0.80,1.68,20.00
22,-36,-1274,95,-54,4057,1.11,-1.46,-67.73,0.95,-0.54,40.57,-0.62,-1.20,13.92,-0.34,1.92,20.00
25,-26,-1243,137,171,4022,1.15,-1.47,-68.54,1.37,1.71,40.22,-0.59,-1.21,14.19,-0.43,1.73,20.00
-10,-42,-1007,137,108,4036,0.98,-1.58,-67.83,1.37,1.08,40.36,-0.57,-1.23,14.47,0.31,2.10,-5.42
11,-10,-965,95,33,3970,0.95,-1.48,-66.93,0.95,0.33,39.70,-0.54,-1.24,14.73,-0.13,1.43,-8.77
1,-31,-884,87,-190,4016,0.86,-1.52,-65.63,0.87,-1.90,40.16,-0.55,-1.25,15.00,0.11,1.87,-16.00
28,-19,-873,67,-189,4121,0.94,-1.49,-64.39,0.67,-1.89,41.21,-0.56,-1.25,15.25,-0.46,1.62,-15.04
11,-7,-749,35,-134,4133,0.92,-1.38,-62.52,0.35,-1.34,41.33,-0.56,-1.25,15.50,-0.10,1.35,-20.00
-3,-21,-728,33,-101,4168,0.81,-1.37,-60.71,0.33,-1.01,41.68,-0.57,-1.25,15.75,0.22,1.62,-20.00
6,-16,-707,59,-53,4359,0.76,-1.33,-58.95,0.59,-0.53,43.59,-0.56,-1.24,15.98,0.04,1.51,-20.00
8,-20,-632,57,323,3929,0.73,-1.32,-56.91,0.57,3.23,39.29,-0.54,-1.24,16.21,-0.01,1.59,-20.00
-1,-4,-511,-47,-129,4039,0.65,-1.21,-54.34,-0.47,-1.29,40.39,-0.54,-1.23,16.43,0.20,1.23,-20.00
0,-17,-498,111,-226,4217,0.59,-1.20,-51.94,1.11,-2.26,42.17,-0.55,-1.24,16.63,0.20,1.49,-20.00
20,-13,-461,-10,-121,4108,0.65,-1.16,-49.56,-0.10,-1.21,41.08,-0.56,-1.24,16.83,-0.22,1.40,-20.00
-2,-15,-466,72,-106,4021,0.57,-1.13,-47.45,0.72,-1.06,40.21,-0.57,-1.24,17.02,0.26,1.43,-20.00
-2,-17,-459,24,-62,4004,0.51,-1.12,-45.50,0.24,-0.62,40.04,-0.57,-1.23,17.20,0.28,1.46,-20.00
9,2,-479,4,4,4091,0.51,-1.00,-43.87,0.04,0.04,40.91,-0.56,-1.22,17.38,0.04,1.03,-20.00
25,6,-457,30,-172,4036,0.61,-0.86,-42.27,0.30,-1.72,40.36,-0.57,-1.22,17.55,-0.30,0.91,-20.00
-4,-14,-451,18,-134,4231,0.53,-0.86,-40.80,0.18,-1.34,42.31,-0.57,-1.21,17.71,0.32,1.32,-20.00
19,-7,-442,8,-63,4096,0.59,-0.82,-39.41,0.08,-0.63,40.96,-0.57,-1.20,17.87,-0.17,1.15,-20.00
8,-16,-425,11,-98,4074,0.58,-0.83,-38.07,0.11,-0.98,40.74,-0.58,-1.19,18.02,0.06,1.34,-19.96
5,-1,-424,1,11,3889,0.55,-0.76,-36.85,0.01,0.11,38.89,-0.56,-1.18,18.17,0.12,1.00,-17.84
2,-2,-455,14,33,4245,0.51,-0.69,-35.94,0.14,0.33,42.45,-0.55,-1.17,18.31,0.18,1.00,-12.50
23,-22,-522,43,-28,4210,0.60,-0.76,-35.53,0.43,-0.28,42.10,-0.54,-1.15,18.45,-0.28,1.42,-3.81
3,-1,-532,49,-42,3920,0.56,-0.69,-35.22,0.49,-0.42,39.20,-0.53,-1.14,18.59,0.14,0.96,-2.06
29,-9,-533,-7,-10,4175,0.68,-0.67,-34.95,-0.07,-0.10,41.75,-0.52,-1.13,18.73,-0.43,1.11,-1.45
8,-9,-506,-30,-28,4097,0.66,-0.66,-34.54,-0.30,-0.28,40.97,-0.52,-1.11,18.87,-0.00,1.10,-3.91
3,-22,-542,19,-123,4034,0.61,-0.73,-34.39,0.19,-1.23,40.34,-0.53,-1.11,19.01,0.12,1.38,0.63
11,-17,-562,-20,-142,4115,0.62,-0.76,-34.38,-0.20,-1.42,41.15,-0.53,-1.10,19.15,-0.04,1.28,3.01
0,-34,-635,2,-280,4045,0.56,-0.89,-34.82,0.02,-2.80,40.45,-0.55,-1.10,19.29,0.21,1.66,10.87
14,-32,-645,50,232,4279,0.59,-1.00,-35.27,0.50,2.32,42.79,-0.52,-1.10,19.43,-0.10,1.65,11.22
8,-23,-597,-25,106,4275,0.58,-1.04,-35.38,-0.25,1.06,42.75,-0.50,-1.09,19.57,0.01,1.47,5.31
4,-28,-593,97,59,4051,0.54,-1.11,-35.46,0.97,0.59,40.51,-0.48,-1.10,19.71,0.09,1.60,4.69
21,-19,-630,31,-27,4265,0.62,-1.11,-35.76,0.31,-0.27,42.65,-0.47,-1.09,19.85,-0.28,1.41,8.53
0,-7,-635,-53,40,4030,0.55,-1.04,-36.06,-0.53,0.40,40.30,-0.46,-1.08,20.00,0.15,1.14,8.57
1,-9,-651,-22,-241,4083,0.51,-0.99,-36.42,-0.22,-2.41,40.83,-0.47,-1.08,20.14,0.15,1.17,9.80
24,-33,-663,135,-68,4192,0.60,-1.09,-36.82,1.35,-0.68,41.92,-0.48,-1.10,20.29,-0.34,1.70,10.48
14,-8,-665,73,-19,4057,0.63,-1.03,-37.20,0.73,-0.19,40.57,-0.45,-1.10,20.44,-0.16,1.17,10.02
4,-13,-669,39,32,4113,0.59,-1.01,-37.56,0.39,0.32,41.13,-0.43,-1.09,20.59,0.04,1.26,9.83
12,-18,-679,35,-43,4099,0.60,-1.02,-37.95,0.35,-0.43,40.99,-0.43,-1.08,20.74,-0.12,1.36,10.31
-1,-24,-693,53,-142,4126,0.54,-1.06,-38.38,0.53,-1.42,41.26,-0.44,-1.08,20.90,0.17,1.49,11.17
19,-31,-711,-17,114,4106,0.60,-1.15,-38.88,-0.17,1.14,41.06,-0.42,-1.08,21.05,-0.27,1.66,12.38
11,-31,-738,-74,-119,4086,0.61,-1.22,-39.49,-0.74,-1.19,40.86,-0.43,-1.07,21.21,-0.11,1.67,14.45
34,-101,-826,-29,-158,4186,0.75,-1.71,-40.58,-0.29,-1.58,41.86,-0.44,-1.07,21.37,-0.61,3.22,20.00
24,-131,-845,-10,-169,4145,0.82,-2.34,-41.68,-0.10,-1.69,41.45,-0.44,-1.07,21.54,-0.42,4.01,20.00
32,-96,-797,-26,-141,3988,0.94,-2.69,-42.37,-0.26,-1.41,39.88,-0.45,-1.07,21.71,-0.61,3.39,16.15
26,-66,-774,22,-92,3943,1.00,-2.83,-42.86,0.22,-0.92,39.43,-0.46,-1.07,21.88,-0.50,2.82,12.53
3,-3,-714,14,-117,4134,0.92,-2.56,-42.93,0.14,-1.17,41.34,-0.47,-1.07,22.05,-0.00,1.46,5.28
9,-4,-707,57,-164,4008,0.88,-2.33,-42.95,0.57,-1.64,40.08,-0.48,-1.08,22.22,-0.11,1.43,4.41
27,-9,-662,175,-175,4108,0.96,-2.15,-42.69,1.75,-1.75,41.08,-0.49,-1.10,22.39,-0.49,1.49,-0.46
1,7,-631,89,18,4137,0.87,-1.89,-42.27,0.89,0.18,41.37,-0.46,-1.11,22.56,0.05,1.11,-3.37
5,-41,-702,-6,-19,4151,0.81,-1.96,-42.32,-0.06,-0.19,41.51,-0.45,-1.10,22.73,-0.03,2.09,4.94
18,-47,-732,-8,4,4180,0.84,-2.05,-42.56,-0.08,0.04,41.80,-0.44,-1.09,22.90,-0.31,2.23,8.07
8,-70,-811,-21,-134,4032,0.81,-2.27,-43.25,-0.21,-1.34,40.32,-0.44,-1.09,23.07,-0.09,2.76,16.16
17,-62,-833,10,-76,4047,0.83,-2.42,-44.01,0.10,-0.76,40.47,-0.45,-1.09,23.25,-0.28,2.64,17.38
32,-17,-759,-25,33,4123,0.94,-2.28,-44.23,-0.25,0.33,41.23,-0.43,-1.08,23.43,-0.62,1.68,8.18
5,-9,-751,-109,-47,4099,0.88,-2.11,-44.39,-1.09,-0.47,40.99,-0.43,-1.07,23.60,-0.06,1.47,6.93
-10,15,-650,-82,71,3996,0.73,-1.81,-43.92,-0.82,0.71,39.96,-0.41,-1.07,23.78,0.27,0.89,-4.18
18,16,-644,-68,23,4127,0.77,-1.53,-43.45,-0.68,0.23,41.27,-0.40,-1.06,23.95,-0.31,0.79,-4.05
16,18,-596,-53,6,4011,0.79,-1.27,-42.74,-0.53,0.06,40.11,-0.39,-1.04,24.12,-0.29,0.67,-8.44
-9,6,-612,-105,-97,4066,0.65,-1.10,-42.20,-1.05,-0.97,40.66,-0.39,-1.03,24.29,0.26,0.86,-5.56
21,-17,-622,28,-212,4127,0.72,-1.10,-41.78,0.28,-2.12,41.27,-0.40,-1.03,24.46,-0.36,1.33,-3.60
15,-38,-639,28,-204,4143,0.74,-1.22,-41.50,0.28,-2.04,41.43,-0.41,-1.04,24.63,-0.23,1.79,-1.07
32,-20,-746,32,-283,3934,0.86,-1.22,-41.90,0.32,-2.83,39.34,-0.42,-1.04,24.79,-0.61,1.42,10.88
24,7,-796,-62,-325,3910,0.92,-1.05,-42.56,-0.62,-3.25,39.10,-0.43,-1.04,24.96,-0.45,0.83,15.58
13,-53,-832,-5,-117,4253,0.91,-1.27,-43.38,-0.05,-1.17,42.53,-0.44,-1.03,25.14,-0.22,2.10,18.35
38,-65,-837,-78,-108,4212,1.05,-1.54,-44.15,-0.78,-1.08,42.12,-0.44,-1.02,25.31,-0.77,2.42,17.53
24,-16,-763,68,94,3925,1.09,-1.48,-44.39,0.68,0.94,39.25,-0.41,-1.03,25.49,-0.51,1.41,8.31
9,0,-737,6,-40,3921,1.03,-1.34,-44.45,0.06,-0.40,39.21,-0.41,-1.02,25.67,-0.19,1.04,5.11
7,43,-675,51,151,4091,0.97,-0.94,-44.12,0.51,1.51,40.91,-0.38,-1.02,25.84,-0.15,0.05,-1.65
10,0,-650,-70,9,4141,0.94,-0.85,-43.67,-0.70,0.09,41.41,-0.37,-1.01,26.02,-0.21,0.89,-3.80
13,3,-639,82,-80,4021,0.92,-0.74,-43.20,0.82,-0.80,40.21,-0.38,-1.01,26.19,-0.26,0.81,-4.25
14,19,-632,80,-85,4053,0.92,-0.55,-42.74,0.80,-0.85,40.53,-0.40,-1.02,26.36,-0.27,0.44,-4.23
-3,46,-609,97,-82,4055,0.81,-0.22,-42.18,0.97,-0.82,40.55,-0.41,-1.03,26.53,0.11,-0.20,-5.94
-5,33,-605,78,-219,4149,0.70,0.01,-41.65,0.78,-2.19,41.49,-0.42,-1.03,26.70,0.19,0.01,-5.45
4,-39,-658,135,-290,4100,0.65,-0.23,-41.50,1.35,-2.90,41.00,-0.43,-1.04,26.86,0.03,1.54,1.11
-7,-26,-674,125,-153,4085,0.54,-0.37,-41.46,1.25,-1.53,40.85,-0.44,-1.05,27.03,0.29,1.32,3.07
8,-25,-646,13,-128,4058,0.54,-0.48,-41.26,0.13,-1.28,40.58,-0.45,-1.04,27.19,-0.01,1.33,0.13
27,-3,-677,80,-146,4039,0.65,-0.45,-41.26,0.80,-1.46,40.39,-0.47,-1.05,27.36,-0.42,0.87,3.79
24,13,-703,201,160,4183,0.73,-0.33,-41.42,2.01,1.60,41.83,-0.44,-1.06,27.52,-0.39,0.52,6.57
28,-11,-671,67,97,4182,0.83,-0.36,-41.37,0.67,0.97,41.82,-0.42,-1.06,27.69,-0.52,1.02,2.86
31,-40,-601,77,87,4039,0.93,-0.57,-40.90,0.77,0.87,40.39,-0.39,-1.06,27.85,-0.62,1.67,-4.58
50,-29,-592,84,99,4016,1.15,-0.69,-40.42,0.84,0.99,40.16,-0.37,-1.07,28.02,-1.09,1.48,-4.78
16,6,-526,82,-45,4056,1.13,-0.58,-39.59,0.82,-0.45,40.56,-0.38,-1.08,28.17,-0.38,0.75,-11.08
0,3,-515,92,-71,4117,1.02,-0.51,-38.77,0.92,-0.71,41.17,-0.39,-1.09,28.33,-0.02,0.79,-10.89
27,-22,-480,90,-199,4172,1.08,-0.59,-37.82,0.90,-1.99,41.72,-0.40,-1.09,28.48,-0.58,1.33,-13.30
27,-15,-480,68,-295,3936,1.14,-0.62,-36.97,0.68,-2.95,39.36,-0.41,-1.09,28.63,-0.59,1.20,-11.74
18,33,-427,38,-42,4125,1.13,-0.36,-35.88,0.38,-0.42,41.25,-0.41,-1.08,28.77,-0.40,0.14,-16.03
0,46,-389,86,28,4162,1.02,-0.04,-34.66,0.86,0.28,41.62,-0.38,-1.08,28.91,-0.02,-0.21,-18.31
7,57,-281,155,-77,3979,0.96,0.31,-32.91,1.55,-0.77,39.79,-0.39,-1.10,29.04,-0.15,-0.52,-20.00
0,66,-234,-84,-97,4169,0.86,0.68,-31.05,-0.84,-0.97,41.69,-0.39,-1.08,29.17,0.02,-0.82,-20.00
-15,101,-171,86,51,4130,0.69,1.23,-28.98,0.86,0.51,41.30,-0.37,-1.08,29.28,0.36,-1.68,-20.00
-9,96,-155,27,22,4191,0.56,1.69,-27.03,0.27,0.22,41.91,-0.35,-1.06,29.39,0.26,-1.72,-20.00
15,8,-160,31,138,4138,0.60,1.57,-25.30,0.31,1.38,41.38,-0.33,-1.05,29.49,-0.25,0.10,-20.00
3,21,-164,-43,47,4065,0.56,1.54,-23.77,-0.43,0.47,40.65,-0.31,-1.02,29.59,-0.01,-0.17,-20.00
6,24,-135,38,16,4097,0.54,1.53,-22.22,0.38,0.16,40.97,-0.30,-1.01,29.68,-0.07,-0.24,-20.00
9,22,-119,30,-33,4149,0.54,1.51,-20.72,0.30,-0.33,41.49,-0.30,-0.98,29.76,-0.13,-0.21,-20.00
7,35,-107,-32,-91,4069,0.53,1.58,-19.30,-0.32,-0.91,40.69,-0.30,-0.96,29.84,-0.09,-0.51,-20.00
2,20,-81,-21,-16,4274,0.49,1.54,-17.87,-0.21,-0.16,42.74,-0.30,-0.94,29.91,0.02,-0.21,-20.00
