gyroADC_X,gyroADC_Y,gyroADC_Z,accADC_X,accADC_Y,accADC_Z,GyroX,GyroY,GyroZ,AccX,AccY,AccZ,roll_IMU,pitch_IMU,yaw_IMU,roll_PID,pitch_PID,yaw_PID
-2,-2,3,11,-398,3913,-0.03,-0.05,0.36,0.11,-3.98,39.13,-4.16,-1.27,59.42,2.79,0.89,-8.92
-1,-2,4,-11,-331,3906,-0.03,-0.06,0.35,-0.11,-3.31,39.06,-4.17,-1.26,59.42,2.78,0.89,-8.99
-3,15,-8,9,-426,3949,-0.05,0.04,0.26,0.09,-4.26,39.49,-4.18,-1.25,59.42,2.83,0.51,-8.22
-11,11,-22,-27,-394,3913,-0.11,0.10,0.10,-0.27,-3.94,39.13,-4.20,-1.23,59.42,3.02,0.56,-7.36
-3,12,-18,19,-307,3898,-0.12,0.17,-0.02,0.19,-3.07,38.98,-4.20,-1.21,59.42,2.87,0.51,-7.70
-1,12,-9,14,-308,3891,-0.11,0.22,-0.07,0.14,-3.08,38.91,-4.21,-1.20,59.42,2.83,0.49,-8.34
-6,9,2,93,-274,3925,-0.14,0.26,-0.05,0.93,-2.74,39.25,-4.19,-1.21,59.42,2.93,0.54,-9.08
-3,14,-12,105,-266,3847,-0.14,0.32,-0.12,1.05,-2.66,38.47,-4.18,-1.22,59.42,2.86,0.43,-8.17
4,9,-93,51,-272,3854,-0.10,0.34,-0.68,0.51,-2.72,38.54,-4.18,-1.20,59.42,2.70,0.52,-2.99
4,10,-110,49,-328,3895,-0.07,0.37,-1.28,0.49,-3.28,38.95,-4.19,-1.19,59.42,2.70,0.48,-2.18
5,7,-112,-11,-431,3936,-0.03,0.37,-1.83,-0.11,-4.31,39.36,-4.21,-1.18,59.43,2.68,0.53,-2.35
29,30,-106,198,-945,4107,0.15,0.52,-2.30,1.98,-9.45,41.07,-4.23,-1.18,59.44,2.16,0.03,-3.02
34,25,41,-196,-719,4005,0.34,0.62,-1.82,-1.96,-7.19,40.05,-4.24,-1.17,59.45,2.01,0.09,-12.72
27,28,92,-194,-697,3738,0.47,0.73,-1.07,-1.94,-6.97,37.38,-4.25,-1.16,59.45,2.13,-0.00,-15.76
5,10,215,-154,-527,3747,0.46,0.72,0.34,-1.54,-5.27,37.47,-4.26,-1.14,59.45,2.59,0.35,-20.00
-22,-11,216,-297,-253,3796,0.28,0.58,1.63,-2.97,-2.53,37.96,-4.26,-1.12,59.44,3.19,0.81,-20.00
3,-8,116,30,-223,3715,0.27,0.47,2.17,0.30,-2.23,37.15,-4.25,-1.11,59.44,2.67,0.76,-15.56
15,28,93,-64,-351,3934,0.33,0.59,2.52,-0.64,-3.51,39.34,-4.25,-1.09,59.43,2.41,-0.01,-13.80
19,20,83,-142,-415,4101,0.41,0.66,2.78,-1.42,-4.15,41.01,-4.26,-1.07,59.41,2.31,0.12,-12.98
19,2,74,-27,-440,3814,0.49,0.60,2.95,-0.27,-4.40,38.14,-4.27,-1.05,59.40,2.30,0.49,-12.27
-8,-11,133,-37,-453,3792,0.39,0.48,3.47,-0.37,-4.53,37.92,-4.29,-1.04,59.39,2.89,0.78,-15.98
0,7,168,-27,-448,3975,0.35,0.47,4.14,-0.27,-4.48,39.75,-4.30,-1.03,59.37,2.74,0.41,-17.97
-3,-12,222,-17,-342,3946,0.30,0.35,5.08,-0.17,-3.42,39.46,-4.31,-1.01,59.35,2.82,0.81,-20.00
-19,-3,233,-40,-346,3802,0.15,0.30,6.00,-0.40,-3.46,38.02,-4.32,-0.99,59.33,3.19,0.63,-20.00
3,-4,225,-50,-170,3816,0.16,0.24,6.77,-0.50,-1.70,38.16,-4.30,-0.97,59.30,2.74,0.66,-20.00
-6,-1,217,-34,-120,3962,0.10,0.21,7.42,-0.34,-1.20,39.62,-4.29,-0.96,59.27,2.92,0.60,-19.44
-4,1,149,-1,-274,3934,0.07,0.20,7.58,-0.01,-2.74,39.34,-4.28,-0.94,59.24,2.89,0.55,-14.73
-11,-6,127,-15,-244,3907,-0.01,0.14,7.60,-0.15,-2.44,39.07,-4.27,-0.92,59.21,3.05,0.69,-13.22
1,5,110,46,-276,3931,0.00,0.16,7.51,0.46,-2.76,39.31,-4.26,-0.91,59.18,2.79,0.45,-12.12
0,10,112,11,-313,3909,0.00,0.20,7.44,0.11,-3.13,39.09,-4.27,-0.89,59.15,2.82,0.33,-12.29
2,2,137,37,-386,3936,0.01,0.19,7.53,0.37,-3.86,39.36,-4.29,-0.88,59.12,2.79,0.49,-13.93
-6,13,164,46,-445,3859,-0.02,0.25,7.78,0.46,-4.45,38.59,-4.31,-0.87,59.09,2.97,0.24,-15.61
-7,13,245,27,-383,3911,-0.06,0.31,8.50,0.27,-3.83,39.11,-4.32,-0.86,59.06,3.01,0.22,-20.00
-4,2,266,21,-361,3983,-0.08,0.29,9.27,0.21,-3.61,39.83,-4.34,-0.85,59.02,2.97,0.44,-20.00
-12,-8,309,-80,-319,3999,-0.15,0.21,10.23,-0.80,-3.19,39.99,-4.34,-0.83,58.98,3.15,0.65,-20.00
-7,-4,334,-26,-281,3804,-0.18,0.17,11.24,-0.26,-2.81,38.04,-4.34,-0.80,58.93,3.06,0.57,-20.00
-2,14,334,-137,-65,3922,-0.17,0.24,12.16,-1.37,-0.65,39.22,-4.33,-0.79,58.89,2.95,0.17,-20.00
-11,-5,305,-142,35,4027,-0.22,0.18,12.80,-1.42,0.35,40.27,-4.32,-0.77,58.84,3.13,0.56,-20.00
5,3,183,-109,-49,3936,-0.17,0.18,12.64,-1.09,-0.49,39.36,-4.30,-0.76,58.78,2.78,0.39,-14.13
1,1,154,-46,-164,3898,-0.14,0.17,12.31,-0.46,-1.64,38.98,-4.29,-0.74,58.74,2.85,0.42,-12.34
-7,-6,46,-50,-283,3920,-0.17,0.12,11.36,-0.50,-2.83,39.20,-4.29,-0.72,58.69,3.02,0.57,-5.55
0,-4,17,71,-365,3892,-0.16,0.08,10.33,0.71,-3.65,38.92,-4.31,-0.72,58.65,2.89,0.54,-4.15
-1,-3,45,-125,-382,3862,-0.15,0.05,9.57,-1.25,-3.82,38.62,-4.32,-0.70,58.61,2.91,0.51,-6.47
-1,1,55,-154,-386,3885,-0.14,0.05,8.95,-1.54,-3.86,38.85,-4.33,-0.69,58.58,2.91,0.42,-7.49
1,6,80,119,-414,3886,-0.12,0.09,8.54,1.19,-4.14,38.86,-4.34,-0.69,58.54,2.88,0.31,-9.41
-2,4,90,128,-369,3920,-0.12,0.10,8.24,1.28,-3.69,39.20,-4.35,-0.70,58.51,2.95,0.35,-10.25
-4,3,77,134,-214,3895,-0.13,0.11,7.88,1.34,-2.14,38.95,-4.34,-0.71,58.48,2.98,0.38,-9.57
-2,3,59,106,-195,3897,-0.13,0.12,7.45,1.06,-1.95,38.97,-4.33,-0.72,58.45,2.93,0.38,-8.58
-2,-1,33,7,-310,3876,-0.13,0.10,6.91,0.07,-3.10,38.76,-4.34,-0.70,58.42,2.94,0.46,-7.12
1,3,26,15,-339,3904,-0.11,0.11,6.38,0.15,-3.39,39.04,-4.35,-0.69,58.39,2.88,0.36,-6.94
1,2,34,74,-385,3885,-0.09,0.11,5.95,0.74,-3.85,38.85,-4.37,-0.69,58.37,2.89,0.38,-7.72
0,3,43,45,-364,3903,-0.08,0.12,5.62,0.45,-3.64,39.03,-4.39,-0.69,58.35,2.92,0.36,-8.52
0,1,25,19,-321,3887,-0.08,0.11,5.21,0.19,-3.21,38.87,-4.40,-0.67,58.33,2.92,0.39,-7.52
-3,0,10,12,-310,3899,-0.09,0.10,4.75,0.12,-3.10,38.99,-4.41,-0.65,58.31,2.99,0.40,-6.76
-2,-2,-19,-5,-360,3915,-0.09,0.08,4.16,-0.05,-3.60,39.15,-4.42,-0.64,58.29,2.98,0.44,-5.12
0,-3,-27,13,-382,3913,-0.08,0.05,3.58,0.13,-3.82,39.13,-4.44,-0.63,58.28,2.95,0.46,-4.91
-2,0,-15,-30,-373,3873,-0.08,0.05,3.13,-0.30,-3.73,38.73,-4.45,-0.62,58.26,3.00,0.39,-5.97
0,2,-5,-45,-331,3911,-0.08,0.05,2.78,-0.45,-3.31,39.11,-4.46,-0.60,58.25,2.96,0.34,-6.84
3,2,10,2,-311,3935,-0.05,0.06,2.57,0.02,-3.11,39.35,-4.46,-0.58,58.24,2.90,0.32,-7.97
0,-1,7,48,-332,3881,-0.05,0.05,2.35,0.48,-3.32,38.81,-4.48,-0.58,58.23,2.97,0.39,-7.89
7,3,11,-42,-340,3889,0.00,0.06,2.18,-0.42,-3.40,38.89,-4.48,-0.56,58.22,2.82,0.29,-8.25
4,0,26,-76,-336,3905,0.03,0.06,2.12,-0.76,-3.36,39.05,-4.49,-0.55,58.22,2.87,0.34,-9.30
-2,-4,33,-114,-299,3876,0.01,0.03,2.11,-1.14,-2.99,38.76,-4.49,-0.53,58.21,3.00,0.42,-9.78
-3,-3,29,-95,-283,3917,-0.01,0.00,2.08,-0.95,-2.83,39.17,-4.49,-0.51,58.20,3.02,0.39,-9.53
-1,2,17,-61,-311,3914,-0.01,0.02,1.97,-0.61,-3.11,39.14,-4.49,-0.49,58.19,2.98,0.28,-8.77
-3,2,13,-62,-314,3921,-0.03,0.03,1.86,-0.62,-3.14,39.21,-4.49,-0.47,58.18,3.03,0.26,-8.57
1,4,12,-53,-337,3899,-0.02,0.05,1.74,-0.53,-3.37,38.99,-4.49,-0.45,58.18,2.95,0.20,-8.56
1,3,12,-38,-341,3903,-0.01,0.06,1.64,-0.38,-3.41,39.03,-4.50,-0.43,58.17,2.95,0.21,-8.62
2,-5,22,41,-281,3905,0.00,0.03,1.61,0.41,-2.81,39.05,-4.49,-0.44,58.16,2.92,0.39,-9.31
-2,0,27,-26,-366,3882,-0.01,0.02,1.62,-0.26,-3.66,38.82,-4.50,-0.43,58.16,3.01,0.28,-9.65
0,0,11,-33,-365,3913,-0.01,0.02,1.52,-0.33,-3.65,39.13,-4.51,-0.41,58.15,2.98,0.27,-8.61
1,1,9,-22,-342,3909,-0.00,0.02,1.42,-0.22,-3.42,39.09,-4.52,-0.40,58.15,2.96,0.24,-8.53
1,3,10,-17,-335,3900,0.00,0.04,1.34,-0.17,-3.35,39.00,-4.53,-0.38,58.14,2.97,0.18,-8.65
2,3,11,-10,-330,3900,0.01,0.05,1.28,-0.10,-3.30,39.00,-4.54,-0.37,58.14,2.95,0.17,-8.75
-9,-7,18,-55,-247,3907,-0.04,0.01,1.26,-0.55,-2.47,39.07,-4.53,-0.35,58.13,3.18,0.37,-9.23
-8,-9,23,-24,-295,3896,-0.09,-0.05,1.27,-0.24,-2.95,38.96,-4.52,-0.33,58.13,3.17,0.42,-9.56
1,2,21,-8,-358,3892,-0.07,-0.03,1.27,-0.08,-3.58,38.92,-4.54,-0.32,58.12,3.00,0.18,-9.43
0,1,19,-18,-348,3904,-0.06,-0.02,1.26,-0.18,-3.48,39.04,-4.55,-0.31,58.11,3.02,0.19,-9.30
0,-2,27,-7,-305,3876,-0.06,-0.03,1.30,-0.07,-3.05,38.76,-4.55,-0.29,58.11,3.02,0.24,-9.82
0,-1,33,-11,-296,3884,-0.05,-0.04,1.37,-0.11,-2.96,38.84,-4.54,-0.27,58.10,3.01,0.21,-10.18
-1,-6,36,26,-300,3905,-0.05,-0.07,1.45,0.26,-3.00,39.05,-4.53,-0.28,58.10,3.02,0.33,-10.34
-1,-5,44,44,-314,3907,-0.05,-0.09,1.58,0.44,-3.14,39.07,-4.53,-0.30,58.09,3.03,0.33,-10.81
-1,1,22,-7,-319,3891,-0.05,-0.08,1.55,-0.07,-3.19,38.91,-4.54,-0.28,58.09,3.03,0.19,-9.33
0,-1,19,13,-295,3916,-0.05,-0.08,1.51,0.13,-2.95,39.16,-4.52,-0.28,58.08,3.00,0.22,-9.15
2,-1,21,2,-354,3866,-0.03,-0.07,1.49,0.02,-3.54,38.66,-4.54,-0.27,58.07,2.96,0.22,-9.30
0,-2,23,-16,-377,3947,-0.03,-0.08,1.48,-0.16,-3.77,39.47,-4.56,-0.26,58.07,3.02,0.24,-9.44
-2,1,11,-45,-369,3912,-0.04,-0.06,1.40,-0.45,-3.69,39.12,-4.57,-0.25,58.06,3.07,0.16,-8.67
-1,2,9,-43,-377,3900,-0.04,-0.05,1.32,-0.43,-3.77,39.00,-4.58,-0.24,58.06,3.06,0.13,-8.58
-3,3,21,-47,-383,3909,-0.05,-0.02,1.31,-0.47,-3.83,39.09,-4.60,-0.22,58.05,3.11,0.09,-9.39
-3,3,21,-44,-378,3907,-0.07,-0.00,1.31,-0.44,-3.78,39.07,-4.61,-0.21,58.05,3.12,0.08,-9.40
-4,3,19,-2,-337,3905,-0.09,0.02,1.29,-0.02,-3.37,39.05,-4.63,-0.20,58.04,3.16,0.07,-9.27
-4,2,26,19,-321,3917,-0.10,0.03,1.32,0.19,-3.21,39.17,-4.64,-0.21,58.04,3.17,0.09,-9.73
-3,5,56,26,-371,3887,-0.11,0.05,1.53,0.26,-3.71,38.87,-4.66,-0.22,58.03,3.16,0.03,-11.64
-3,1,65,2,-345,3882,-0.12,0.06,1.78,0.02,-3.45,38.82,-4.67,-0.21,58.02,3.18,0.10,-12.11
-2,-5,62,29,-335,3892,-0.12,0.02,1.98,0.29,-3.35,38.92,-4.69,-0.22,58.01,3.17,0.24,-11.80
-1,-7,63,-25,-378,3903,-0.11,-0.03,2.16,-0.25,-3.78,39.03,-4.70,-0.21,58.01,3.15,0.29,-11.76
1,-6,34,10,-363,3940,-0.09,-0.06,2.15,0.10,-3.63,39.40,-4.72,-0.21,58.00,3.12,0.27,-9.80
3,-6,38,62,-384,3923,-0.07,-0.09,2.17,0.62,-3.84,39.23,-4.74,-0.22,57.99,3.08,0.29,-10.06
1,-6,45,-53,-344,3920,-0.05,-0.12,2.23,-0.53,-3.44,39.20,-4.74,-0.20,57.98,3.12,0.29,-10.50
0,-3,43,-41,-354,3893,-0.05,-0.12,2.27,-0.41,-3.54,38.93,-4.75,-0.18,57.97,3.15,0.22,-10.34
-3,-3,36,-51,-325,3895,-0.06,-0.13,2.26,-0.51,-3.25,38.95,-4.75,-0.16,57.96,3.21,0.20,-9.87
-3,-2,30,-53,-292,3908,-0.07,-0.13,2.22,-0.53,-2.92,39.08,-4.74,-0.15,57.95,3.21,0.17,-9.48
0,-1,24,-16,-294,3897,-0.07,-0.12,2.14,-0.16,-2.94,38.97,-4.73,-0.14,57.94,3.14,0.14,-9.12
3,-1,27,4,-316,3904,-0.04,-0.12,2.09,0.04,-3.16,39.04,-4.71,-0.12,57.94,3.06,0.13,-9.35
4,2,68,60,-412,3909,-0.01,-0.09,2.30,0.60,-4.12,39.09,-4.73,-0.13,57.93,3.04,0.07,-12.01
2,3,87,67,-426,3903,0.00,-0.06,2.60,0.67,-4.26,39.03,-4.75,-0.14,57.92,3.09,0.05,-13.13
2,11,113,-48,-269,3879,0.01,0.01,3.03,-0.48,-2.69,38.79,-4.73,-0.13,57.90,3.08,-0.14,-14.65
-2,6,101,5,-206,4005,-0.00,0.04,3.34,0.05,-2.06,40.05,-4.72,-0.12,57.89,3.15,-0.05,-13.65
-5,6,61,25,-238,3917,-0.03,0.08,3.38,0.25,-2.38,39.17,-4.70,-0.13,57.88,3.21,-0.06,-10.92
-6,4,68,24,-246,3892,-0.06,0.09,3.46,0.24,-2.46,38.92,-4.68,-0.13,57.86,3.23,-0.02,-11.35
3,7,62,58,-251,3923,-0.04,0.13,3.49,0.58,-2.51,39.23,-4.67,-0.14,57.85,3.03,-0.09,-10.92
1,7,57,51,-268,3900,-0.03,0.16,3.49,0.51,-2.68,39.00,-4.65,-0.15,57.84,3.06,-0.09,-10.58
0,4,23,101,-147,3922,-0.03,0.17,3.28,1.01,-1.47,39.22,-4.64,-0.15,57.82,3.07,-0.02,-8.39
4,8,8,78,-189,3908,0.00,0.20,3.00,0.78,-1.89,39.08,-4.62,-0.16,57.81,2.97,-0.11,-7.53
-4,-2,-12,56,-285,3891,-0.02,0.17,2.63,0.56,-2.85,38.91,-4.61,-0.18,57.80,3.13,0.11,-6.38
-2,3,-14,33,-324,3889,-0.03,0.17,2.28,0.33,-3.24,38.89,-4.62,-0.19,57.79,3.10,0.02,-6.44
1,2,-36,18,-334,3911,-0.02,0.16,1.83,0.18,-3.34,39.11,-4.64,-0.19,57.78,3.05,0.04,-5.20
1,0,-44,4,-298,3880,-0.02,0.15,1.38,0.04,-2.98,38.80,-4.62,-0.18,57.78,3.03,0.08,-4.91
5,0,-40,11,-407,3875,0.02,0.13,1.00,0.11,-4.07,38.75,-4.64,-0.18,57.77,2.96,0.08,-5.40
2,-2,-37,-5,-425,3918,0.03,0.11,0.67,-0.05,-4.25,39.18,-4.66,-0.18,57.77,3.03,0.13,-5.78
2,-2,-20,-134,-363,3930,0.04,0.08,0.48,-1.34,-3.63,39.30,-4.66,-0.16,57.77,3.03,0.12,-7.04
2,-6,8,-150,-444,3914,0.04,0.04,0.48,-1.50,-4.44,39.14,-4.67,-0.15,57.77,3.03,0.21,-8.94
-4,-5,55,-117,-470,3877,0.02,0.00,0.77,-1.17,-4.70,38.77,-4.69,-0.13,57.77,3.17,0.19,-11.96
0,0,48,-91,-408,3922,0.01,0.00,0.99,-0.91,-4.08,39.22,-4.70,-0.12,57.76,3.10,0.08,-11.36
1,-1,51,-138,-426,3893,0.02,-0.00,1.20,-1.38,-4.26,38.93,-4.71,-0.11,57.76,3.08,0.09,-11.45
-2,-1,53,-84,-436,3907,0.00,-0.01,1.40,-0.84,-4.36,39.07,-4.72,-0.09,57.75,3.16,0.08,-11.47
2,6,81,-61,-434,3876,0.02,0.03,1.76,-0.61,-4.34,38.76,-4.74,-0.08,57.74,3.08,-0.08,-13.17
1,4,82,-79,-406,3900,0.02,0.05,2.08,-0.79,-4.06,39.00,-4.75,-0.07,57.74,3.11,-0.05,-13.05
-5,1,117,16,-435,3895,-0.01,0.05,2.59,0.16,-4.35,38.95,-4.77,-0.07,57.73,3.25,0.01,-15.14
-4,2,126,55,-417,3924,-0.03,0.06,3.10,0.55,-4.17,39.24,-4.79,-0.08,57.71,3.25,-0.01,-15.46
-2,1,137,-49,-270,3805,-0.04,0.06,3.62,-0.49,-2.70,38.05,-4.77,-0.06,57.70,3.20,0.00,-15.91
-1,2,120,-63,-263,3910,-0.05,0.07,3.99,-0.63,-2.63,39.10,-4.76,-0.05,57.68,3.18,-0.03,-14.55
0,4,114,-43,-324,3932,-0.04,0.08,4.29,-0.43,-3.24,39.32,-4.76,-0.03,57.67,3.15,-0.09,-13.97
5,1,104,-32,-304,3886,-0.01,0.08,4.49,-0.32,-3.04,38.86,-4.75,-0.01,57.65,3.04,-0.04,-13.17
-2,-2,118,30,-308,3906,-0.02,0.06,4.76,0.30,-3.08,39.06,-4.74,-0.02,57.63,3.18,0.04,-13.97
-2,4,123,-35,-298,3855,-0.03,0.08,5.04,-0.35,-2.98,38.55,-4.73,-0.01,57.61,3.17,-0.10,-14.15
-3,0,114,-20,-381,3892,-0.04,0.07,5.23,-0.20,-3.81,38.92,-4.75,0.00,57.59,3.21,-0.02,-13.43
-1,4,111,-35,-425,3916,-0.05,0.09,5.38,-0.35,-4.25,39.16,-4.77,0.01,57.57,3.18,-0.11,-13.14
-6,-1,115,15,-422,3883,-0.08,0.07,5.55,0.15,-4.22,38.83,-4.79,0.01,57.54,3.30,-0.01,-13.31
-12,-1,118,-4,-435,3908,-0.14,0.06,5.71,-0.04,-4.35,39.08,-4.80,0.01,57.52,3.45,-0.00,-13.42
1,6,106,-38,-353,3908,-0.12,0.09,5.79,-0.38,-3.53,39.08,-4.82,0.03,57.50,3.19,-0.17,-12.56
-1,6,116,-7,-443,3873,-0.12,0.12,5.92,-0.07,-4.43,38.73,-4.83,0.03,57.47,3.24,-0.18,-13.16
-2,10,159,31,-482,3847,-0.12,0.17,6.29,0.31,-4.82,38.47,-4.85,0.03,57.45,3.28,-0.27,-15.86
-3,-1,182,58,-464,3958,-0.12,0.14,6.78,0.58,-4.64,39.58,-4.87,0.03,57.42,3.31,-0.04,-17.15
-7,0,236,77,-280,3952,-0.15,0.13,7.54,0.77,-2.80,39.52,-4.86,0.02,57.39,3.39,-0.05,-20.00
-5,7,243,48,-248,3862,-0.17,0.16,8.27,0.48,-2.48,38.62,-4.84,0.01,57.36,3.35,-0.19,-20.00
-7,10,231,77,-287,3850,-0.19,0.20,8.85,0.77,-2.87,38.50,-4.84,-0.00,57.32,3.39,-0.26,-19.29
-18,5,240,-7,-232,3874,-0.29,0.21,9.43,-0.07,-2.32,38.74,-4.82,0.00,57.29,3.62,-0.16,-19.57
11,9,184,-7,-240,3922,-0.19,0.25,9.61,-0.07,-2.40,39.22,-4.80,0.01,57.25,3.00,-0.26,-15.67
-6,-8,165,8,-199,3968,-0.21,0.17,9.65,0.08,-1.99,39.68,-4.78,0.01,57.21,3.34,0.11,-14.35
-4,-1,143,-36,-360,3927,-0.21,0.15,9.56,-0.36,-3.60,39.27,-4.80,0.03,57.17,3.31,-0.04,-12.90
-9,-2,156,-20,-392,3862,-0.24,0.12,9.56,-0.20,-3.92,38.62,-4.82,0.04,57.13,3.43,-0.02,-13.78
2,3,149,-107,-347,3897,-0.21,0.13,9.51,-1.07,-3.47,38.97,-4.82,0.06,57.10,3.20,-0.13,-13.33
1,-1,149,-142,-390,3915,-0.18,0.11,9.47,-1.42,-3.90,39.15,-4.83,0.08,57.06,3.22,-0.06,-13.35
-18,-11,159,-54,-527,3871,-0.27,0.03,9.49,-0.54,-5.27,38.71,-4.85,0.09,57.02,3.64,0.16,-14.00
-31,-20,169,-129,-444,3844,-0.43,-0.09,9.57,-1.29,-4.44,38.44,-4.86,0.10,56.98,3.96,0.36,-14.63
-7,-7,167,-77,-204,3908,-0.43,-0.13,9.63,-0.77,-2.04,39.08,-4.85,0.11,56.94,3.46,0.10,-14.46
-2,-4,150,-81,-224,3918,-0.40,-0.14,9.59,-0.81,-2.24,39.18,-4.83,0.13,56.91,3.34,0.04,-13.32
1,-6,93,0,-230,3953,-0.36,-0.16,9.19,0.00,-2.30,39.53,-4.82,0.13,56.87,3.26,0.08,-9.67
0,-9,89,2,-284,3889,-0.32,-0.20,8.82,0.02,-2.84,38.89,-4.80,0.13,56.83,3.26,0.15,-9.61
0,-3,105,-22,-419,3881,-0.29,-0.20,8.58,-0.22,-4.19,38.81,-4.82,0.13,56.80,3.26,0.03,-10.82
2,0,135,20,-526,3865,-0.25,-0.18,8.54,0.20,-5.26,38.65,-4.84,0.13,56.77,3.22,-0.04,-12.87
-16,-14,275,-19,-679,3834,-0.32,-0.25,9.37,-0.19,-6.79,38.34,-4.86,0.13,56.73,3.62,0.26,-20.00
-43,-22,314,-137,-516,3842,-0.55,-0.36,10.34,-1.37,-5.16,38.42,-4.88,0.14,56.69,4.24,0.45,-20.00
1,4,379,-12,-505,3876,-0.49,-0.30,11.62,-0.12,-5.05,38.76,-4.90,0.15,56.64,3.34,-0.10,-20.00
9,6,387,-67,-504,3974,-0.39,-0.23,12.82,-0.67,-5.04,39.74,-4.91,0.16,56.59,3.17,-0.16,-20.00
-13,1,428,-145,-331,3922,-0.43,-0.20,14.15,-1.45,-3.31,39.22,-4.91,0.18,56.53,3.62,-0.08,-20.00
-9,10,424,-195,-287,3860,-0.44,-0.12,15.32,-1.95,-2.87,38.60,-4.91,0.20,56.47,3.54,-0.30,-20.00
0,3,343,-97,-198,3907,-0.39,-0.09,15.88,-0.97,-1.98,39.07,-4.90,0.22,56.41,3.34,-0.18,-20.00
1,17,312,-10,-134,3883,-0.35,0.02,16.20,-0.10,-1.34,38.83,-4.88,0.22,56.34,3.30,-0.50,-20.00
-3,12,210,-82,-161,3911,-0.33,0.09,15.86,-0.82,-1.61,39.11,-4.86,0.23,56.28,3.36,-0.42,-13.78
-4,13,167,-23,-143,3866,-0.32,0.16,15.29,-0.23,-1.43,38.66,-4.85,0.24,56.22,3.37,-0.47,-11.17
-2,13,115,8,-292,3857,-0.30,0.23,14.46,0.08,-2.92,38.57,-4.83,0.24,56.16,3.31,-0.48,-8.10
0,13,110,-39,-339,3941,-0.27,0.28,13.69,-0.39,-3.39,39.41,-4.84,0.26,56.11,3.27,-0.51,-8.19
0,14,136,32,-452,3933,-0.25,0.34,13.15,0.32,-4.52,39.33,-4.86,0.26,56.06,3.27,-0.55,-10.25
-1,15,147,21,-470,3869,-0.23,0.40,12.73,0.21,-4.70,38.69,-4.87,0.26,56.01,3.30,-0.58,-11.22
6,18,201,27,-519,3890,-0.17,0.47,12.68,0.27,-5.19,38.90,-4.89,0.26,55.96,3.15,-0.67,-14.90
-1,6,225,35,-509,3949,-0.16,0.46,12.79,0.35,-5.09,39.49,-4.91,0.26,55.90,3.30,-0.42,-16.46
-13,10,299,103,-380,3891,-0.22,0.47,13.33,1.03,-3.80,38.91,-4.92,0.25,55.85,3.57,-0.50,-20.00
4,17,309,77,-344,3920,-0.17,0.53,13.88,0.77,-3.44,39.20,-4.92,0.24,55.80,3.21,-0.65,-20.00
-12,4,308,14,-294,3856,-0.23,0.50,14.37,0.14,-2.94,38.56,-4.91,0.24,55.74,3.54,-0.37,-20.00
-3,12,282,-91,-151,4021,-0.23,0.52,14.66,-0.91,-1.51,40.21,-4.89,0.25,55.68,3.35,-0.55,-19.24
9,8,201,21,-321,3927,-0.15,0.52,14.42,0.21,-3.21,39.27,-4.88,0.24,55.62,3.08,-0.46,-13.88
-14,-8,201,-16,-371,3846,-0.22,0.42,14.20,-0.16,-3.71,38.46,-4.90,0.25,55.57,3.58,-0.11,-13.99
10,4,186,8,-351,3867,-0.14,0.40,13.92,0.08,-3.51,38.67,-4.91,0.24,55.51,3.08,-0.35,-13.12
6,8,184,-27,-463,3858,-0.09,0.41,13.65,-0.27,-4.63,38.58,-4.93,0.25,55.46,3.16,-0.44,-13.13
-4,-12,234,-46,-495,3982,-0.10,0.30,13.71,-0.46,-4.95,39.82,-4.95,0.25,55.40,3.38,-0.00,-16.48
-8,3,264,-11,-530,3743,-0.14,0.29,13.95,-0.11,-5.30,37.43,-4.97,0.26,55.35,3.48,-0.31,-18.37
-3,2,321,-81,-465,3729,-0.14,0.27,14.51,-0.81,-4.65,37.29,-4.99,0.27,55.29,3.39,-0.29,-20.00
-4,-1,327,-71,-478,3961,-0.15,0.24,15.06,-0.71,-4.78,39.61,-5.00,0.29,55.23,3.43,-0.23,-20.00
-10,-3,344,-45,-357,3942,-0.20,0.19,15.65,-0.45,-3.57,39.42,-5.01,0.31,55.17,3.57,-0.20,-20.00
-2,-6,344,-55,-377,3862,-0.19,0.14,16.18,-0.55,-3.77,38.62,-5.03,0.33,55.10,3.41,-0.13,-20.00
-12,-10,328,-53,-339,3845,-0.25,0.06,16.56,-0.53,-3.39,38.45,-5.03,0.35,55.04,3.63,-0.05,-20.00
-8,-2,325,-105,-340,3880,-0.27,0.04,16.89,-1.05,-3.40,38.80,-5.03,0.38,54.97,3.55,-0.22,-20.00
-2,16,302,-86,-373,3816,-0.26,0.14,17.04,-0.86,-3.73,38.16,-5.04,0.40,54.90,3.43,-0.63,-19.14
-1,-1,299,-58,-304,4107,-0.24,0.12,17.16,-0.58,-3.04,41.07,-5.02,0.41,54.83,3.40,-0.28,-18.86
-2,21,324,-139,-265,4003,-0.22,0.23,17.42,-1.39,-2.65,40.03,-5.01,0.43,54.76,3.41,-0.78,-20.00
-17,-9,319,-126,-245,3960,-0.31,0.16,17.63,-1.26,-2.45,39.60,-5.00,0.45,54.69,3.73,-0.16,-19.93
0,1,263,-25,-248,3931,-0.28,0.15,17.47,-0.25,-2.48,39.31,-4.98,0.46,54.62,3.36,-0.36,-16.22
0,4,250,-55,-286,3856,-0.25,0.16,17.25,-0.55,-2.86,38.56,-4.96,0.47,54.56,3.34,-0.44,-15.45
-4,-2,226,55,-458,3875,-0.25,0.13,16.90,0.55,-4.58,38.75,-4.98,0.47,54.49,3.43,-0.30,-14.01
-7,8,236,-107,-468,3910,-0.27,0.16,16.65,-1.07,-4.68,39.10,-5.00,0.49,54.42,3.51,-0.53,-14.82
-10,3,278,-75,-408,3975,-0.30,0.17,16.68,-0.75,-4.08,39.75,-5.01,0.50,54.36,3.59,-0.44,-17.64
2,1,290,-22,-425,3950,-0.26,0.16,16.78,-0.22,-4.25,39.50,-5.03,0.51,54.29,3.35,-0.40,-18.38
2,7,337,-90,-437,3887,-0.22,0.18,17.16,-0.90,-4.37,38.87,-5.05,0.52,54.22,3.35,-0.54,-20.00
-6,11,345,-90,-483,3906,-0.23,0.23,17.55,-0.90,-4.83,39.06,-5.06,0.54,54.15,3.53,-0.64,-20.00
-13,4,369,-93,-438,3885,-0.29,0.23,18.04,-0.93,-4.38,38.85,-5.08,0.55,54.08,3.70,-0.51,-20.00
0,15,377,-130,-472,3865,-0.26,0.30,18.54,-1.30,-4.72,38.65,-5.09,0.57,54.01,3.43,-0.76,-20.00
-14,12,408,-17,-454,3905,-0.32,0.34,19.17,-0.17,-4.54,39.05,-5.11,0.58,53.93,3.75,-0.72,-20.00
-7,1,422,-17,-408,3952,-0.33,0.32,19.83,-0.17,-4.08,39.52,-5.13,0.58,53.85,3.62,-0.49,-20.00
-12,1,453,-45,-331,3888,-0.37,0.29,20.61,-0.45,-3.31,38.88,-5.11,0.59,53.77,3.72,-0.49,-20.00
-2,10,474,30,-327,3921,-0.35,0.32,21.44,0.30,-3.27,39.21,-5.11,0.58,53.68,3.51,-0.68,-20.00
-9,7,480,-52,-283,3978,-0.37,0.33,22.23,-0.52,-2.83,39.78,-5.09,0.59,53.60,3.64,-0.63,-20.00
-11,9,479,-48,-315,3893,-0.40,0.35,22.92,-0.48,-3.15,38.93,-5.07,0.61,53.50,3.68,-0.68,-20.00
-7,7,440,-49,-319,3851,-0.40,0.36,23.32,-0.49,-3.19,38.51,-5.06,0.62,53.41,3.59,-0.65,-20.00
-11,6,432,-58,-327,3909,-0.43,0.36,23.62,-0.58,-3.27,39.09,-5.04,0.65,53.32,3.67,-0.65,-20.00
-5,8,428,17,-310,3893,-0.41,0.37,23.87,0.17,-3.10,38.93,-5.03,0.64,53.22,3.54,-0.69,-20.00
-7,9,438,10,-352,3849,-0.42,0.39,24.15,0.10,-3.52,38.49,-5.04,0.63,53.13,3.58,-0.71,-20.00
16,30,502,-38,-202,3884,-0.28,0.54,24.80,-0.38,-2.02,38.84,-5.02,0.64,53.03,3.06,-1.18,-20.00
8,15,511,-28,-259,3976,-0.20,0.57,25.44,-0.28,-2.59,39.76,-5.00,0.65,52.93,3.19,-0.89,-20.00
2,2,525,5,-230,3795,-0.17,0.53,26.10,0.05,-2.30,37.95,-4.99,0.65,52.82,3.30,-0.62,-20.00
-6,20,525,23,-243,3968,-0.19,0.60,26.69,0.23,-2.43,39.68,-4.97,0.65,52.72,3.45,-1.00,-20.00
1,18,468,-9,-247,3902,-0.16,0.65,26.87,-0.09,-2.47,39.02,-4.95,0.66,52.61,3.29,-0.98,-20.00
0,4,451,36,-254,3936,-0.15,0.61,26.94,0.36,-2.54,39.36,-4.94,0.66,52.50,3.30,-0.68,-20.00
-6,14,410,71,-465,3896,-0.17,0.63,26.75,0.71,-4.65,38.96,-4.95,0.66,52.39,3.44,-0.89,-20.00
-4,11,409,67,-534,3924,-0.18,0.64,26.57,0.67,-5.34,39.24,-4.97,0.66,52.29,3.41,-0.83,-20.00
0,21,482,18,-469,3950,-0.16,0.70,26.85,0.18,-4.69,39.50,-4.98,0.66,52.18,3.33,-1.06,-20.00
-18,2,518,44,-456,3881,-0.25,0.64,27.32,0.44,-4.56,38.81,-5.00,0.67,52.07,3.73,-0.66,-20.00
-2,8,595,-58,-385,3891,-0.24,0.63,28.22,-0.58,-3.85,38.91,-5.01,0.68,51.96,3.42,-0.78,-20.00
1,9,596,-69,-387,3877,-0.21,0.62,29.03,-0.69,-3.87,38.77,-5.03,0.70,51.85,3.36,-0.82,-20.00
7,18,554,-172,-256,3883,-0.15,0.67,29.51,-1.72,-2.56,38.83,-5.02,0.73,51.73,3.21,-1.03,-20.00
8,20,478,-228,-154,3920,-0.08,0.72,29.48,-2.28,-1.54,39.20,-5.00,0.76,51.61,3.16,-1.10,-20.00
-15,10,328,-132,-306,3987,-0.17,0.71,28.53,-1.32,-3.06,39.87,-4.99,0.79,51.50,3.65,-0.92,-13.95
1,3,294,-59,-303,3969,-0.14,0.66,27.47,-0.59,-3.03,39.69,-4.98,0.80,51.39,3.30,-0.77,-12.22
-6,9,269,113,-399,3896,-0.17,0.65,26.36,1.13,-3.99,38.96,-4.98,0.79,51.28,3.45,-0.88,-11.13
-7,23,288,-6,-449,3838,-0.19,0.72,25.48,-0.06,-4.49,38.38,-5.00,0.80,51.18,3.49,-1.19,-12.90
0,14,333,-84,-264,3908,-0.17,0.74,24.97,-0.84,-2.64,39.08,-4.98,0.82,51.08,3.33,-1.02,-16.22
-1,6,347,-74,-236,3946,-0.16,0.70,24.59,-0.74,-2.36,39.46,-4.96,0.83,50.99,3.34,-0.86,-17.37
-5,0,335,-7,-295,3945,-0.18,0.63,24.17,-0.07,-2.95,39.45,-4.95,0.83,50.89,3.41,-0.72,-16.78
-8,5,325,-6,-346,3920,-0.21,0.60,23.74,-0.06,-3.46,39.20,-4.95,0.82,50.79,3.49,-0.81,-16.33
-5,9,292,-129,-446,3866,-0.22,0.59,23.14,-1.29,-4.46,38.66,-4.96,0.84,50.70,3.44,-0.90,-14.41
-4,-2,279,-160,-550,3844,-0.22,0.52,22.53,-1.60,-5.50,38.44,-4.98,0.86,50.61,3.43,-0.67,-13.86
0,13,314,-136,-728,3882,-0.20,0.55,22.19,-1.36,-7.28,38.82,-5.00,0.87,50.53,3.35,-0.99,-16.41
-10,5,328,-66,-737,3967,-0.24,0.52,21.98,-0.66,-7.37,39.67,-5.02,0.88,50.44,3.58,-0.83,-17.47
-15,12,436,-9,-854,3861,-0.31,0.54,22.44,-0.09,-8.54,38.61,-5.03,0.89,50.35,3.71,-0.98,-20.00
-12,12,479,-62,-824,3949,-0.35,0.56,23.12,-0.62,-8.24,39.49,-5.05,0.90,50.26,3.67,-0.99,-20.00
0,2,693,-73,-561,3821,-0.31,0.52,25.03,-0.73,-5.61,38.21,-5.07,0.91,50.16,3.43,-0.79,-20.00
-10,8,738,-79,-508,3986,-0.34,0.52,27.03,-0.79,-5.08,39.86,-5.09,0.93,50.05,3.65,-0.92,-20.00
-14,12,817,-31,-271,3966,-0.39,0.54,29.31,-0.31,-2.71,39.66,-5.07,0.93,49.93,3.74,-1.01,-20.00
-1,31,820,-47,-255,3865,-0.36,0.67,31.38,-0.47,-2.55,38.65,-5.05,0.94,49.81,3.45,-1.44,-20.00
-14,17,771,-59,-139,3915,-0.41,0.71,32.95,-0.59,-1.39,39.15,-5.03,0.96,49.68,3.72,-1.17,-20.00
-1,8,715,-85,-167,3895,-0.38,0.69,34.01,-0.85,-1.67,38.95,-5.01,0.97,49.54,3.43,-0.99,-20.00
0,-5,561,-115,-171,3994,-0.34,0.59,34.03,-1.15,-1.71,39.94,-5.00,0.99,49.41,3.39,-0.71,-20.00
-2,1,515,-97,-291,3813,-0.32,0.54,33.77,-0.97,-2.91,38.13,-4.98,1.02,49.27,3.41,-0.84,-20.00
0,-6,363,-83,-339,3978,-0.28,0.45,32.61,-0.83,-3.39,39.78,-4.97,1.05,49.14,3.36,-0.69,-13.68
-10,-1,336,-142,-328,3847,-0.32,0.39,31.40,-1.42,-3.28,38.47,-4.97,1.08,49.02,3.57,-0.80,-12.51
-7,-1,296,140,-500,3745,-0.33,0.35,30.06,1.40,-5.00,37.45,-4.98,1.07,48.90,3.52,-0.78,-10.53
2,24,281,158,-473,3900,-0.28,0.46,28.77,1.58,-4.73,39.00,-4.98,1.07,48.78,3.33,-1.32,-10.22
1,37,268,-175,-509,3794,-0.25,0.64,27.53,-1.75,-5.09,37.94,-5.00,1.09,48.67,3.35,-1.65,-10.02
6,15,256,-121,-465,4095,-0.19,0.67,26.34,-1.21,-4.65,40.95,-5.01,1.11,48.57,3.24,-1.22,-9.86
11,28,231,-151,-520,3976,-0.10,0.77,25.11,-1.51,-5.20,39.76,-5.03,1.13,48.47,3.12,-1.53,-8.84
-4,15,228,-105,-493,3784,-0.12,0.79,23.99,-1.05,-4.93,37.84,-5.05,1.14,48.38,3.44,-1.27,-9.25
-9,13,268,45,-432,3840,-0.16,0.79,23.23,0.45,-4.32,38.40,-5.06,1.14,48.28,3.56,-1.23,-12.37
-1,25,294,91,-367,3897,-0.15,0.86,22.70,0.91,-3.67,38.97,-5.06,1.13,48.19,3.40,-1.49,-14.42
2,12,407,12,-201,3958,-0.12,0.85,22.91,0.12,-2.01,39.58,-5.04,1.14,48.10,3.32,-1.22,-20.00
1,2,433,19,-185,3867,-0.10,0.78,23.26,0.19,-1.85,38.67,-5.02,1.14,48.01,3.32,-1.00,-20.00
-18,-4,546,13,-93,3777,-0.20,0.67,24.27,0.13,-0.93,37.77,-5.01,1.14,47.91,3.73,-0.86,-20.00
-13,3,554,-15,-115,3933,-0.26,0.62,25.22,-0.15,-1.15,39.33,-4.99,1.15,47.81,3.63,-0.99,-20.00
-1,10,495,-20,-228,3931,-0.24,0.62,25.72,-0.20,-2.28,39.31,-4.97,1.15,47.71,3.37,-1.13,-20.00
-2,11,460,-95,-187,3877,-0.23,0.63,25.95,-0.95,-1.87,38.77,-4.95,1.17,47.61,3.37,-1.16,-20.00
-19,-5,414,32,-242,3816,-0.32,0.53,25.88,0.32,-2.42,38.16,-4.94,1.16,47.50,3.73,-0.81,-20.00
3,19,380,132,-168,3987,-0.27,0.60,25.61,1.32,-1.68,39.87,-4.93,1.16,47.40,3.26,-1.31,-18.49
-2,18,293,1,-210,3921,-0.26,0.65,24.84,0.01,-2.10,39.21,-4.91,1.16,47.30,3.35,-1.31,-13.02
-11,4,264,-10,-258,3859,-0.30,0.61,23.96,-0.10,-2.58,38.59,-4.89,1.16,47.21,3.54,-1.01,-11.53
-5,1,186,-66,-194,3849,-0.30,0.55,22.70,-0.66,-1.94,38.49,-4.88,1.17,47.11,3.40,-0.94,-6.94
-3,14,179,-60,-177,3819,-0.29,0.58,21.52,-0.60,-1.77,38.19,-4.86,1.17,47.03,3.35,-1.22,-7.11
3,3,155,-144,-197,3934,-0.24,0.54,20.32,-1.44,-1.97,39.34,-4.84,1.19,46.95,3.20,-1.00,-6.15
2,6,146,-139,-235,3934,-0.20,0.52,19.18,-1.39,-2.35,39.34,-4.82,1.21,46.87,3.20,-1.06,-6.17
-1,2,107,-69,-286,3929,-0.19,0.48,17.91,-0.69,-2.86,39.29,-4.81,1.21,46.80,3.24,-0.97,-4.22
1,4,93,-49,-306,3889,-0.16,0.46,16.69,-0.49,-3.06,38.89,-4.79,1.20,46.73,3.19,-1.00,-3.95
0,6,49,-56,-229,3870,-0.15,0.45,15.32,-0.56,-2.29,38.70,-4.78,1.21,46.67,3.19,-1.04,-1.73
-1,8,67,-256,-222,3924,-0.14,0.45,14.19,-2.56,-2.22,39.24,-4.77,1.23,46.61,3.20,-1.10,-3.57
3,8,49,49,-328,3884,-0.11,0.46,13.07,0.49,-3.28,38.84,-4.77,1.22,46.56,3.11,-1.09,-2.97
0,7,42,36,-314,3885,-0.10,0.45,12.02,0.36,-3.14,38.85,-4.76,1.20,46.52,3.17,-1.06,-3.08
-5,8,27,-91,-381,3852,-0.12,0.46,10.99,-0.91,-3.81,38.52,-4.78,1.21,46.47,3.29,-1.09,-2.64
-3,4,18,-144,-375,3914,-0.12,0.44,10.00,-1.44,-3.75,39.14,-4.79,1.23,46.43,3.26,-1.01,-2.58
-1,8,7,-147,-453,3884,-0.12,0.44,9.04,-1.47,-4.53,38.84,-4.81,1.24,46.40,3.23,-1.10,-2.36
1,9,8,-149,-434,3915,-0.10,0.45,8.18,-1.49,-4.34,39.15,-4.82,1.26,46.36,3.19,-1.14,-2.90
1,11,41,-71,-321,3889,-0.08,0.47,7.62,-0.71,-3.21,38.89,-4.82,1.25,46.33,3.18,-1.18,-5.46
-5,10,54,-70,-273,3911,-0.11,0.49,7.18,-0.70,-2.73,39.11,-4.80,1.25,46.31,3.30,-1.16,-6.57
0,12,102,-20,-295,3867,-0.10,0.51,7.09,-0.20,-2.95,38.67,-4.79,1.23,46.28,3.19,-1.20,-9.88
-5,8,175,-91,-356,3974,-0.12,0.51,7.45,-0.91,-3.56,39.74,-4.81,1.24,46.25,3.31,-1.12,-14.62
5,11,120,-95,-162,3907,-0.07,0.53,7.43,-0.95,-1.62,39.07,-4.79,1.25,46.22,3.08,-1.19,-10.89
-27,8,115,-136,-183,4017,-0.23,0.52,7.39,-1.36,-1.83,40.17,-4.77,1.26,46.19,3.76,-1.14,-10.58
22,4,90,-22,-329,4028,-0.07,0.49,7.20,-0.22,-3.29,40.28,-4.77,1.24,46.16,2.72,-1.04,-8.98
10,5,87,-21,-343,3999,-0.01,0.48,7.01,-0.21,-3.43,39.99,-4.77,1.23,46.13,2.95,-1.04,-8.88
-1,-5,44,-8,-217,3909,-0.01,0.40,6.58,-0.08,-2.17,39.09,-4.76,1.22,46.11,3.16,-0.81,-6.21
5,5,32,14,-214,3920,0.02,0.39,6.12,0.14,-2.14,39.20,-4.74,1.21,46.08,3.02,-1.01,-5.65
-1,-9,13,-10,-311,3811,0.01,0.29,5.58,-0.10,-3.11,38.11,-4.74,1.20,46.06,3.15,-0.69,-4.66
0,-4,13,-53,-336,3956,0.01,0.24,5.11,-0.53,-3.36,39.56,-4.74,1.18,46.04,3.13,-0.77,-4.92
-1,-4,15,-72,-322,3945,0.00,0.19,4.69,-0.72,-3.22,39.45,-4.73,1.17,46.02,3.14,-0.74,-5.29
-6,5,21,-70,-359,3898,-0.03,0.20,4.35,-0.70,-3.59,38.98,-4.75,1.17,46.00,3.27,-0.93,-5.89
-5,1,50,-83,-283,3927,-0.06,0.19,4.22,-0.83,-2.83,39.27,-4.73,1.17,45.99,3.24,-0.85,-7.92
-2,2,59,-44,-342,3922,-0.07,0.18,4.15,-0.44,-3.42,39.22,-4.74,1.16,45.97,3.19,-0.85,-8.56
-2,-1,27,-15,-369,3916,-0.07,0.16,3.90,-0.15,-3.69,39.16,-4.75,1.14,45.95,3.20,-0.78,-6.53
2,1,20,-14,-393,3893,-0.05,0.15,3.64,-0.14,-3.93,38.93,-4.77,1.13,45.94,3.12,-0.81,-6.21
1,-4,6,-41,-369,3893,-0.04,0.11,3.31,-0.41,-3.69,38.93,-4.78,1.12,45.93,3.15,-0.69,-5.44
0,-3,6,-16,-364,3886,-0.04,0.08,3.01,-0.16,-3.64,38.86,-4.79,1.11,45.92,3.17,-0.69,-5.60
-2,-5,5,-71,-369,3905,-0.05,0.04,2.74,-0.71,-3.69,39.05,-4.81,1.11,45.90,3.23,-0.64,-5.69
0,2,8,-49,-345,3934,-0.04,0.05,2.52,-0.49,-3.45,39.34,-4.82,1.09,45.90,3.19,-0.78,-6.01
-2,-2,6,-49,-346,3888,-0.05,0.03,2.30,-0.49,-3.46,38.88,-4.83,1.08,45.89,3.24,-0.68,-6.00
-2,2,6,-79,-358,3909,-0.06,0.04,2.11,-0.79,-3.58,39.09,-4.84,1.08,45.88,3.25,-0.77,-6.11
5,2,7,-9,-408,3885,-0.02,0.05,1.94,-0.09,-4.08,38.85,-4.86,1.07,45.87,3.11,-0.76,-6.27
6,3,9,0,-400,3908,0.02,0.06,1.80,0.00,-4.00,39.08,-4.87,1.06,45.86,3.09,-0.78,-6.48
1,-11,100,351,-509,3946,0.02,-0.01,2.23,3.51,-5.09,39.46,-4.88,1.04,45.85,3.19,-0.46,-12.40
2,-11,69,-150,-258,3916,0.03,-0.08,2.43,-1.50,-2.58,39.16,-4.86,1.06,45.84,3.16,-0.45,-10.19
1,17,68,-138,-439,3872,0.04,0.03,2.60,-1.38,-4.39,38.72,-4.88,1.07,45.83,3.19,-1.06,-10.02
-2,5,68,-63,-477,3979,0.02,0.06,2.76,-0.63,-4.77,39.79,-4.90,1.07,45.82,3.27,-0.82,-9.94
-4,5,105,-67,-396,3957,-0.01,0.09,3.12,-0.67,-3.96,39.57,-4.92,1.07,45.81,3.33,-0.83,-12.24
-8,-1,123,-88,-362,3905,-0.05,0.07,3.56,-0.88,-3.62,39.05,-4.93,1.08,45.80,3.43,-0.71,-13.21
-6,0,159,-23,-286,3880,-0.09,0.06,4.17,-0.23,-2.86,38.80,-4.92,1.07,45.78,3.39,-0.72,-15.30
-4,7,180,-17,-318,3901,-0.10,0.10,4.85,-0.17,-3.18,39.01,-4.91,1.05,45.76,3.35,-0.86,-16.34
-3,-1,195,-42,-347,3934,-0.11,0.08,5.56,-0.42,-3.47,39.34,-4.92,1.03,45.74,3.34,-0.69,-16.96
-4,-4,195,-32,-349,3842,-0.12,0.05,6.19,-0.32,-3.49,38.42,-4.93,1.02,45.72,3.37,-0.61,-16.60
-11,0,208,-62,-456,3792,-0.18,0.05,6.84,-0.62,-4.56,37.92,-4.94,1.02,45.69,3.54,-0.69,-17.11
-2,1,211,-79,-448,3929,-0.17,0.05,7.44,-0.79,-4.48,39.29,-4.96,1.03,45.66,3.36,-0.71,-16.97
0,-7,222,-137,-361,3828,-0.16,0.00,8.05,-1.37,-3.61,38.28,-4.97,1.05,45.63,3.32,-0.55,-17.37
-8,-6,234,-135,-329,3968,-0.19,-0.04,8.68,-1.35,-3.29,39.68,-4.97,1.07,45.59,3.49,-0.57,-17.83
-3,-3,243,-48,-401,3958,-0.19,-0.05,9.29,-0.48,-4.01,39.58,-4.98,1.06,45.56,3.40,-0.63,-18.09
-5,1,245,-62,-382,3881,-0.20,-0.04,9.86,-0.62,-3.82,38.81,-5.00,1.06,45.52,3.46,-0.71,-17.90
-7,-4,263,-32,-420,3891,-0.22,-0.06,10.47,-0.32,-4.20,38.91,-5.02,1.06,45.48,3.51,-0.60,-18.77
3,0,306,41,-384,3966,-0.18,-0.05,11.29,0.41,-3.84,39.66,-5.02,1.04,45.43,3.30,-0.67,-20.00
-19,-8,388,20,-451,3970,-0.28,-0.10,12.53,0.20,-4.51,39.70,-5.04,1.03,45.38,3.79,-0.49,-20.00
-25,-8,404,-58,-411,3816,-0.40,-0.14,13.74,-0.58,-4.11,38.16,-5.05,1.04,45.33,3.95,-0.48,-20.00
-13,-5,443,-42,-376,3820,-0.44,-0.15,15.07,-0.42,-3.76,38.20,-5.07,1.03,45.27,3.73,-0.54,-20.00
-7,-5,456,-25,-350,3721,-0.44,-0.17,16.35,-0.25,-3.50,37.21,-5.08,1.02,45.20,3.61,-0.52,-20.00
-12,2,464,-81,-397,3725,-0.47,-0.14,17.54,-0.81,-3.97,37.25,-5.10,1.03,45.13,3.74,-0.68,-20.00
-17,3,454,-151,-386,4034,-0.53,-0.11,18.56,-1.51,-3.86,40.34,-5.10,1.05,45.06,3.86,-0.73,-20.00
-18,1,427,-125,-317,3948,-0.58,-0.09,19.31,-1.25,-3.17,39.48,-5.09,1.07,44.98,3.89,-0.70,-20.00
-10,4,418,-150,-353,3966,-0.59,-0.06,19.92,-1.50,-3.53,39.66,-5.09,1.10,44.90,3.73,-0.79,-20.00
-5,7,347,-200,-388,3954,-0.56,-0.01,20.05,-2.00,-3.88,39.54,-5.10,1.12,44.82,3.62,-0.88,-18.99
-8,0,328,-172,-311,3762,-0.55,-0.01,20.04,-1.72,-3.11,37.62,-5.10,1.15,44.74,3.68,-0.76,-17.69
-12,-24,314,-53,-267,3904,-0.57,-0.15,19.96,-0.53,-2.67,39.04,-5.08,1.15,44.66,3.75,-0.23,-16.78
-18,-13,332,-12,-326,3789,-0.62,-0.22,19.99,-0.12,-3.26,37.89,-5.08,1.14,44.58,3.89,-0.43,-17.98
-25,-29,400,29,-390,3903,-0.71,-0.37,20.43,0.29,-3.90,39.03,-5.09,1.13,44.50,4.06,-0.05,-20.00
-28,-22,417,51,-436,3813,-0.81,-0.47,20.93,0.51,-4.36,38.13,-5.10,1.12,44.42,4.16,-0.16,-20.00
-12,12,496,219,-494,3707,-0.80,-0.35,21.86,2.19,-4.94,37.07,-5.11,1.11,44.33,3.84,-0.88,-20.00
-23,-4,543,85,-454,4081,-0.86,-0.34,22.99,0.85,-4.54,40.81,-5.12,1.10,44.24,4.08,-0.55,-20.00
-18,-6,661,28,-425,3975,-0.89,-0.34,24.72,0.28,-4.25,39.75,-5.13,1.09,44.14,3.99,-0.50,-20.00
-10,-2,698,3,-341,3934,-0.86,-0.32,26.51,0.03,-3.41,39.34,-5.13,1.08,44.03,3.82,-0.58,-20.00
-5,6,767,-60,-377,3898,-0.80,-0.25,28.53,-0.60,-3.77,38.98,-5.15,1.08,43.92,3.72,-0.77,-20.00
-14,12,748,-62,-372,3955,-0.81,-0.15,30.24,-0.62,-3.72,39.55,-5.16,1.08,43.80,3.91,-0.91,-20.00
-16,-2,633,-2,-338,3897,-0.83,-0.15,31.08,-0.02,-3.38,38.97,-5.16,1.07,43.68,3.96,-0.63,-20.00
-12,12,576,-79,-342,3840,-0.82,-0.06,31.49,-0.79,-3.42,38.40,-5.15,1.10,43.55,3.87,-0.95,-20.00
-5,7,448,-52,-291,3882,-0.77,-0.01,31.07,-0.52,-2.91,38.82,-5.13,1.10,43.43,3.70,-0.87,-19.44
0,3,424,-77,-278,3887,-0.69,0.01,30.55,-0.77,-2.78,38.87,-5.12,1.11,43.30,3.56,-0.80,-18.09
-1,16,357,37,-356,3869,-0.63,0.10,29.67,0.37,-3.56,38.69,-5.12,1.11,43.19,3.57,-1.08,-14.03
2,6,342,-68,-330,3992,-0.55,0.13,28.79,-0.68,-3.30,39.92,-5.10,1.11,43.07,3.48,-0.89,-13.49
0,25,359,-43,-435,3983,-0.50,0.27,28.10,-0.43,-4.35,39.83,-5.12,1.12,42.96,3.51,-1.32,-15.01
-9,12,359,-3,-369,3966,-0.50,0.32,27.48,-0.03,-3.69,39.66,-5.12,1.11,42.85,3.70,-1.06,-15.34
-13,21,359,-72,-401,3965,-0.53,0.41,26.92,-0.72,-4.01,39.65,-5.14,1.12,42.74,3.80,-1.28,-15.64
-6,19,343,-18,-352,3833,-0.51,0.49,26.32,-0.18,-3.52,38.33,-5.14,1.11,42.64,3.66,-1.25,-14.87
-6,13,304,-27,-264,3795,-0.50,0.52,25.55,-0.27,-2.64,37.95,-5.13,1.11,42.54,3.64,-1.14,-12.65
-5,13,294,-16,-247,3986,-0.48,0.55,24.78,-0.16,-2.47,39.86,-5.11,1.11,42.44,3.60,-1.15,-12.39
-3,8,255,-63,-187,3933,-0.45,0.54,23.86,-0.63,-1.87,39.33,-5.09,1.12,42.34,3.54,-1.05,-10.25
-10,-1,247,-70,-173,3888,-0.47,0.48,22.98,-0.70,-1.73,38.88,-5.07,1.13,42.25,3.68,-0.86,-10.18
-3,0,163,-57,-205,3902,-0.44,0.43,21.68,-0.57,-2.05,39.02,-5.05,1.14,42.16,3.52,-0.87,-5.21
-1,11,154,-36,-302,3918,-0.40,0.46,20.45,-0.36,-3.02,39.18,-5.04,1.14,42.08,3.46,-1.10,-5.28
-7,10,141,-27,-341,3890,-0.40,0.47,19.26,-0.27,-3.41,38.90,-5.04,1.13,42.01,3.58,-1.08,-5.05
-5,9,144,-71,-364,3918,-0.39,0.48,18.22,-0.71,-3.64,39.18,-5.06,1.13,41.93,3.55,-1.06,-5.83
1,10,127,-34,-379,3885,-0.35,0.49,17.17,-0.34,-3.79,38.85,-5.07,1.12,41.87,3.42,-1.08,-5.25
4,16,128,-57,-399,3921,-0.29,0.54,16.23,-0.57,-3.99,39.21,-5.09,1.12,41.80,3.35,-1.21,-5.84
3,22,154,11,-453,3855,-0.24,0.62,15.55,0.11,-4.53,38.55,-5.10,1.12,41.74,3.37,-1.36,-7.97
9,19,167,43,-495,3920,-0.16,0.67,15.01,0.43,-4.95,39.20,-5.11,1.12,41.68,3.24,-1.31,-9.15
-10,8,253,15,-415,3880,-0.21,0.66,15.06,0.15,-4.15,38.80,-5.12,1.11,41.62,3.64,-1.07,-14.94
3,17,270,-17,-403,3901,-0.17,0.69,15.20,-0.17,-4.03,39.01,-5.14,1.10,41.56,3.38,-1.26,-16.01
-4,3,303,-59,-320,3906,-0.18,0.64,15.53,-0.59,-3.20,39.06,-5.12,1.10,41.50,3.51,-0.97,-18.05
-5,-2,292,-33,-297,3863,-0.19,0.57,15.75,-0.33,-2.97,38.63,-5.11,1.10,41.44,3.52,-0.84,-17.17
-2,3,275,-109,-364,3934,-0.18,0.53,15.86,-1.09,-3.64,39.34,-5.11,1.13,41.37,3.46,-0.95,-15.95
-9,-10,273,-80,-334,3925,-0.22,0.41,15.94,-0.80,-3.34,39.25,-5.09,1.14,41.31,3.60,-0.66,-15.76
-7,10,268,-45,-356,3994,-0.24,0.43,15.98,-0.45,-3.56,39.94,-5.09,1.12,41.25,3.57,-1.06,-15.39
-2,15,279,-119,-308,3878,-0.23,0.48,16.08,-1.19,-3.08,38.78,-5.08,1.15,41.18,3.46,-1.19,-16.06
1,23,319,-207,-427,3814,-0.20,0.57,16.42,-2.07,-4.27,38.14,-5.09,1.17,41.12,3.39,-1.40,-18.58
0,18,342,-333,-382,3912,-0.18,0.63,16.86,-3.33,-3.82,39.12,-5.09,1.20,41.05,3.41,-1.33,-19.88
-14,4,446,-68,-295,3904,-0.25,0.59,17.90,-0.68,-2.95,39.04,-5.07,1.20,40.98,3.70,-1.03,-20.00
-23,6,476,5,-267,3875,-0.36,0.57,19.01,0.05,-2.67,38.75,-5.06,1.20,40.90,3.91,-1.07,-20.00
-14,9,534,-6,-377,3996,-0.41,0.56,20.37,-0.06,-3.77,39.96,-5.07,1.19,40.82,3.74,-1.12,-20.00
-23,10,565,-153,-353,3950,-0.51,0.57,21.78,-1.53,-3.53,39.50,-5.07,1.22,40.74,3.95,-1.16,-20.00
-24,12,744,-42,-371,3862,-0.61,0.59,24.14,-0.42,-3.71,38.62,-5.08,1.21,40.64,4.01,-1.20,-20.00
-3,20,703,96,-482,3883,-0.56,0.65,26.01,0.96,-4.82,38.83,-5.09,1.21,40.54,3.57,-1.38,-20.00
-16,11,703,-8,-429,3945,-0.60,0.65,27.70,-0.08,-4.29,39.45,-5.10,1.21,40.43,3.86,-1.20,-20.00
-18,8,750,-39,-484,3873,-0.65,0.63,29.50,-0.39,-4.84,38.73,-5.12,1.22,40.31,3.92,-1.14,-20.00
-19,3,825,-9,-384,3926,-0.70,0.59,31.59,-0.09,-3.84,39.26,-5.13,1.21,40.18,3.96,-1.02,-20.00
-3,14,843,-68,-468,3825,-0.65,0.62,33.57,-0.68,-4.68,38.25,-5.15,1.22,40.05,3.64,-1.26,-20.00
-16,12,904,-52,-420,3827,-0.68,0.63,35.73,-0.52,-4.20,38.27,-5.16,1.23,39.91,3.92,-1.23,-20.00
-34,1,919,-86,-355,3829,-0.82,0.57,37.76,-0.86,-3.55,38.29,-5.18,1.26,39.76,4.33,-1.00,-20.00
3,0,934,-199,-259,3962,-0.72,0.51,39.68,-1.99,-2.59,39.62,-5.17,1.29,39.60,3.55,-0.99,-20.00
-48,-17,956,36,-284,4012,-0.94,0.36,41.55,0.36,-2.84,40.12,-5.16,1.29,39.44,4.64,-0.60,-20.00
-18,16,918,-49,-647,3867,-0.96,0.42,42.99,-0.49,-6.47,38.67,-5.18,1.30,39.27,4.04,-1.30,-20.00
3,20,864,-7,-712,3808,-0.84,0.50,43.96,-0.07,-7.12,38.08,-5.19,1.32,39.09,3.60,-1.41,-20.00
-26,8,681,-53,-746,3917,-0.92,0.50,43.72,-0.53,-7.46,39.17,-5.21,1.33,38.92,4.22,-1.18,-20.00
-3,16,649,-129,-699,3851,-0.85,0.55,43.31,-1.29,-6.99,38.51,-5.23,1.35,38.75,3.74,-1.37,-20.00
-18,10,660,-19,-259,3894,-0.87,0.55,43.00,-0.19,-2.59,38.94,-5.21,1.36,38.57,4.04,-1.25,-20.00
-8,5,691,-2,-155,4013,-0.83,0.53,42.92,-0.02,-1.55,40.13,-5.20,1.37,38.40,3.82,-1.15,-20.00
-12,14,893,61,44,3862,-0.82,0.56,44.07,0.61,0.44,38.62,-5.18,1.38,38.23,3.89,-1.35,-20.00
-18,18,937,76,-66,3884,-0.85,0.61,45.38,0.76,-0.66,38.84,-5.16,1.39,38.05,4.00,-1.45,-20.00
-25,14,961,130,-495,3843,-0.92,0.64,46.71,1.30,-4.95,38.43,-5.17,1.39,37.86,4.17,-1.38,-20.00
-12,15,920,25,-593,3915,-0.90,0.67,47.65,0.25,-5.93,39.15,-5.19,1.40,37.67,3.91,-1.41,-20.00
-5,13,791,-41,-400,3920,-0.84,0.68,47.71,-0.41,-4.00,39.20,-5.20,1.41,37.48,3.76,-1.38,-20.00
-36,-5,752,-110,-369,3895,-0.98,0.58,47.52,-1.10,-3.69,38.95,-5.21,1.44,37.29,4.44,-1.01,-20.00
-4,8,614,-174,-103,3898,-0.90,0.57,46.52,-1.74,-1.03,38.98,-5.19,1.47,37.11,3.75,-1.29,-20.00
-7,-9,537,-99,-99,3910,-0.85,0.46,45.14,-0.99,-0.99,39.10,-5.17,1.48,36.93,3.79,-0.92,-16.61
-6,5,378,-186,-85,3949,-0.81,0.44,42.93,-1.86,-0.85,39.49,-5.15,1.51,36.76,3.74,-1.22,-7.04
1,8,359,-149,-115,3918,-0.72,0.45,40.83,-1.49,-1.15,39.18,-5.13,1.53,36.59,3.56,-1.29,-6.91
8,24,303,-212,-312,3930,-0.60,0.55,38.59,-2.12,-3.12,39.30,-5.12,1.56,36.44,3.38,-1.67,-4.35
0,11,287,-195,-469,3888,-0.54,0.56,36.49,-1.95,-4.69,38.88,-5.14,1.59,36.29,3.54,-1.42,-4.42
-6,9,231,-72,-552,3865,-0.52,0.56,34.25,-0.72,-5.52,38.65,-5.15,1.60,36.16,3.66,-1.39,-1.86
-6,3,223,-76,-513,3906,-0.51,0.52,32.18,-0.76,-5.13,39.06,-5.17,1.61,36.03,3.67,-1.26,-2.46
4,10,165,-55,-410,3882,-0.43,0.53,29.97,-0.55,-4.10,38.82,-5.18,1.61,35.91,3.46,-1.41,0.25
-2,2,141,-34,-360,3852,-0.40,0.49,27.83,-0.34,-3.60,38.52,-5.18,1.60,35.80,3.57,-1.23,0.69
-2,-1,142,-30,-432,3903,-0.37,0.44,25.92,-0.30,-4.32,39.03,-5.19,1.60,35.70,3.57,-1.15,-0.44
-10,0,173,-54,-448,3891,-0.40,0.39,24.38,-0.54,-4.48,38.91,-5.21,1.60,35.60,3.75,-1.16,-3.39
-6,0,205,15,-427,3928,-0.39,0.35,23.19,0.15,-4.27,39.28,-5.22,1.60,35.51,3.67,-1.15,-6.21
-3,4,217,17,-434,3876,-0.37,0.34,22.20,0.17,-4.34,38.76,-5.22,1.59,35.42,3.61,-1.22,-7.57
-4,2,223,-22,-331,3912,-0.36,0.32,21.34,-0.22,-3.31,39.12,-5.22,1.58,35.34,3.62,-1.17,-8.44
-4,5,229,-70,-366,3873,-0.35,0.32,20.60,-0.70,-3.66,38.73,-5.22,1.57,35.25,3.62,-1.23,-9.25
-9,4,283,21,-460,3939,-0.37,0.31,20.27,0.21,-4.60,39.39,-5.23,1.57,35.17,3.74,-1.20,-13.09
-2,-1,299,65,-492,3917,-0.34,0.27,20.06,0.65,-4.92,39.17,-5.24,1.56,35.09,3.60,-1.08,-14.27
-7,25,364,-134,-522,3872,-0.35,0.40,20.28,-1.34,-5.22,38.72,-5.26,1.57,35.01,3.71,-1.65,-18.55
-13,3,383,-125,-389,3883,-0.40,0.38,20.59,-1.25,-3.89,38.83,-5.28,1.59,34.93,3.85,-1.21,-19.65
-9,21,496,-62,-494,3847,-0.41,0.47,21.55,-0.62,-4.94,38.47,-5.29,1.59,34.85,3.79,-1.61,-20.00
-9,7,515,-2,-501,3960,-0.42,0.46,22.54,-0.02,-5.01,39.60,-5.31,1.59,34.76,3.80,-1.32,-20.00
-24,15,560,-119,-546,3865,-0.53,0.51,23.70,-1.19,-5.46,38.65,-5.32,1.60,34.66,4.15,-1.50,-20.00
-9,16,591,-101,-503,3853,-0.53,0.56,24.94,-1.01,-5.03,38.53,-5.34,1.62,34.57,3.85,-1.54,-20.00
0,13,674,-59,-716,3872,-0.48,0.58,26.55,-0.59,-7.16,38.72,-5.36,1.62,34.46,3.67,-1.49,-20.00
-3,9,699,-37,-715,3872,-0.45,0.58,28.16,-0.37,-7.15,38.72,-5.38,1.63,34.35,3.73,-1.42,-20.00
-29,23,887,23,-936,3928,-0.58,0.66,30.76,0.23,-9.36,39.28,-5.39,1.64,34.23,4.31,-1.73,-20.00
-6,18,944,44,-864,4092,-0.56,0.70,33.44,0.44,-8.64,40.92,-5.41,1.65,34.10,3.84,-1.65,-20.00
-29,33,1188,-44,-734,3877,-0.68,0.83,37.34,-0.44,-7.34,38.77,-5.42,1.67,33.95,4.35,-2.00,-20.00
-19,33,1257,-65,-662,3857,-0.73,0.95,41.28,-0.65,-6.62,38.57,-5.44,1.68,33.78,4.18,-2.04,-20.00
-2,39,1412,-11,-103,3993,-0.67,1.09,45.76,-0.11,-1.03,39.93,-5.42,1.70,33.60,3.80,-2.21,-20.00
-41,36,1459,-9,-22,3875,-0.85,1.20,50.09,-0.09,-0.22,38.75,-5.40,1.72,33.40,4.63,-2.19,-20.00
-21,53,1547,-78,83,3881,-0.89,1.41,54.51,-0.78,0.83,38.81,-5.38,1.74,33.18,4.22,-2.61,-20.00
-21,38,1545,-47,84,3964,-0.93,1.50,58.49,-0.47,0.84,39.64,-5.36,1.77,32.95,4.22,-2.35,-20.00
-12,39,1418,-141,-148,3918,-0.91,1.59,61.29,-1.41,-1.48,39.18,-5.34,1.80,32.71,4.01,-2.41,-20.00
-5,28,1344,-184,-105,3966,-0.85,1.60,63.36,-1.84,-1.05,39.66,-5.31,1.83,32.45,3.84,-2.21,-20.00
-15,27,1021,-132,-162,3839,-0.86,1.60,63.25,-1.32,-1.62,38.39,-5.29,1.86,32.20,4.03,-2.22,-20.00
-23,28,926,-114,-199,3841,-0.91,1.61,62.57,-1.14,-1.99,38.41,-5.27,1.89,31.95,4.19,-2.26,-20.00
-6,21,514,17,-248,3883,-0.86,1.58,59.45,0.17,-2.48,38.83,-5.25,1.90,31.72,3.82,-2.11,-6.24
2,12,407,-66,-237,3899,-0.76,1.50,55.99,-0.66,-2.37,38.99,-5.23,1.92,31.49,3.62,-1.92,-0.89
2,-4,109,-130,-346,3922,-0.67,1.32,51.06,-1.30,-3.46,39.22,-5.21,1.94,31.29,3.58,-1.56,16.57
0,0,72,20,-345,3911,-0.60,1.19,46.39,0.20,-3.45,39.11,-5.20,1.95,31.11,3.60,-1.61,16.48
1,1,101,4,-456,3877,-0.54,1.08,42.37,0.04,-4.56,38.77,-5.21,1.95,30.94,3.57,-1.60,12.29
-3,2,104,4,-455,3904,-0.50,0.98,38.76,0.04,-4.55,39.04,-5.22,1.95,30.78,3.64,-1.60,10.08
-4,17,145,-22,-476,3833,-0.48,0.99,35.77,-0.22,-4.76,38.33,-5.23,1.96,30.64,3.66,-1.91,5.65
-1,10,173,-41,-533,3919,-0.44,0.95,33.25,-0.41,-5.33,39.19,-5.24,1.97,30.51,3.60,-1.76,2.35
-7,11,237,27,-481,3871,-0.43,0.92,31.37,0.27,-4.81,38.71,-5.25,1.97,30.39,3.73,-1.77,-3.02
-6,1,243,-40,-443,3964,-0.43,0.84,29.72,-0.40,-4.43,39.64,-5.26,1.97,30.27,3.71,-1.55,-4.34
-15,-10,287,-61,-489,3945,-0.48,0.69,28.50,-0.61,-4.89,39.45,-5.27,1.97,30.16,3.92,-1.29,-7.99
-18,-9,291,-11,-518,3857,-0.54,0.57,27.42,-0.11,-5.18,38.57,-5.29,1.97,30.05,4.00,-1.27,-8.84
-4,8,257,-78,-352,3929,-0.51,0.56,26.25,-0.78,-3.52,39.29,-5.28,1.97,29.94,3.71,-1.61,-7.18
-1,6,246,-59,-356,3907,-0.46,0.54,25.12,-0.59,-3.56,39.07,-5.28,1.96,29.84,3.63,-1.56,-7.05
-6,0,202,-88,-386,3936,-0.45,0.49,23.84,-0.88,-3.86,39.36,-5.29,1.95,29.75,3.73,-1.42,-4.78
3,10,187,-119,-333,3873,-0.39,0.50,22.60,-1.19,-3.33,38.73,-5.27,1.95,29.66,3.52,-1.63,-4.44
-1,0,188,-105,-523,3870,-0.36,0.45,21.49,-1.05,-5.23,38.70,-5.29,1.96,29.57,3.61,-1.42,-5.12
2,3,205,-74,-518,3845,-0.31,0.42,20.59,-0.74,-5.18,38.45,-5.30,1.96,29.49,3.54,-1.47,-6.77
-1,8,278,41,-488,3942,-0.28,0.43,20.22,0.41,-4.88,39.42,-5.31,1.96,29.41,3.60,-1.57,-11.91
-12,5,300,-68,-513,3835,-0.33,0.42,20.03,-0.68,-5.13,38.35,-5.33,1.96,29.33,3.85,-1.51,-13.49
-4,7,344,-24,-500,3862,-0.32,0.42,20.13,-0.24,-5.00,38.62,-5.34,1.96,29.25,3.69,-1.55,-16.41
-6,4,354,51,-476,4020,-0.33,0.40,20.27,0.51,-4.76,40.20,-5.35,1.95,29.17,3.74,-1.48,-16.99
-16,11,392,-143,-425,3832,-0.39,0.43,20.64,-1.43,-4.25,38.32,-5.36,1.96,29.09,3.97,-1.64,-19.35
-10,-1,397,-104,-378,3938,-0.41,0.38,21.00,-1.04,-3.78,39.38,-5.37,1.96,29.01,3.86,-1.37,-19.48
-3,16,366,-123,-344,3869,-0.39,0.44,21.13,-1.23,-3.44,38.69,-5.35,1.96,28.92,3.70,-1.74,-17.29
-10,18,349,-142,-311,3889,-0.41,0.50,21.14,-1.42,-3.11,38.89,-5.33,1.97,28.84,3.83,-1.80,-16.12
-16,7,283,-148,-313,3938,-0.47,0.50,20.76,-1.48,-3.13,39.38,-5.31,1.98,28.75,3.96,-1.59,-11.85
-5,14,257,-120,-265,3892,-0.45,0.53,20.25,-1.20,-2.65,38.92,-5.29,1.99,28.67,3.72,-1.74,-10.36
4,11,159,-54,-213,3888,-0.38,0.55,19.19,-0.54,-2.13,38.88,-5.27,1.99,28.60,3.50,-1.69,-4.30
0,3,135,-37,-205,3843,-0.34,0.51,18.10,-0.37,-2.05,38.43,-5.26,1.99,28.52,3.56,-1.51,-3.27
0,-12,52,-47,-222,3853,-0.31,0.39,16.61,-0.47,-2.22,38.53,-5.24,1.99,28.46,3.54,-1.17,1.52
0,-16,30,-16,-287,3877,-0.28,0.25,15.13,-0.16,-2.87,38.77,-5.23,1.98,28.40,3.53,-1.05,2.20
1,-19,29,-29,-344,3951,-0.24,0.11,13.79,-0.29,-3.44,39.51,-5.23,1.96,28.34,3.50,-0.94,1.52
-3,-12,53,-39,-401,3924,-0.24,0.02,12.74,-0.39,-4.01,39.24,-5.23,1.95,28.29,3.58,-1.05,-0.69
-9,-12,98,-73,-449,3929,-0.27,-0.05,12.06,-0.73,-4.49,39.29,-5.25,1.95,28.24,3.72,-1.03,-4.11
-14,-7,107,-82,-435,3915,-0.33,-0.09,11.51,-0.82,-4.35,39.15,-5.26,1.94,28.20,3.85,-1.11,-5.03
-2,0,45,-96,-368,3902,-0.31,-0.08,10.63,-0.96,-3.68,39.02,-5.27,1.93,28.16,3.60,-1.25,-1.31
-1,2,27,-90,-397,3902,-0.28,-0.06,9.73,-0.90,-3.97,39.02,-5.28,1.92,28.12,3.58,-1.29,-0.59
-3,3,13,-59,-412,3900,-0.27,-0.04,8.84,-0.59,-4.12,39.00,-5.29,1.90,28.08,3.63,-1.31,-0.13
-5,1,15,-46,-402,3897,-0.28,-0.03,8.05,-0.46,-4.02,38.97,-5.30,1.89,28.05,3.67,-1.26,-0.71
0,4,17,-52,-385,3896,-0.25,0.00,7.35,-0.52,-3.85,38.96,-5.30,1.88,28.02,3.57,-1.32,-1.23
3,4,20,-52,-385,3895,-0.21,0.03,6.73,-0.52,-3.85,38.95,-5.31,1.86,28.00,3.50,-1.32,-1.78
5,2,56,-9,-412,3875,-0.15,0.04,6.40,-0.09,-4.12,38.75,-5.32,1.85,27.97,3.45,-1.27,-4.40
13,21,140,-20,-337,3910,-0.06,0.16,6.61,-0.20,-3.37,39.10,-5.31,1.83,27.94,3.26,-1.68,-9.97
-2,3,359,16,-524,3953,-0.07,0.16,8.14,0.16,-5.24,39.53,-5.32,1.82,27.91,3.57,-1.31,-20.00
-13,6,410,9,-545,3838,-0.14,0.18,9.83,0.09,-5.45,38.38,-5.34,1.82,27.87,3.82,-1.37,-20.00
-16,-2,500,9,-508,3850,-0.22,0.15,11.90,0.09,-5.08,38.50,-5.35,1.81,27.83,3.92,-1.19,-20.00
-3,3,516,-58,-550,3920,-0.22,0.16,13.85,-0.58,-5.50,39.20,-5.37,1.81,27.77,3.66,-1.30,-20.00
4,-4,555,-34,-504,3965,-0.17,0.12,15.85,-0.34,-5.04,39.65,-5.38,1.80,27.71,3.52,-1.14,-20.00
-16,2,559,-41,-586,3906,-0.25,0.12,17.68,-0.41,-5.86,39.06,-5.40,1.81,27.64,3.96,-1.26,-20.00
-8,15,564,49,-502,3976,-0.28,0.20,19.35,0.49,-5.02,39.76,-5.41,1.80,27.56,3.81,-1.55,-20.00
-18,15,579,-67,-553,3855,-0.36,0.27,20.95,-0.67,-5.53,38.55,-5.42,1.80,27.48,4.04,-1.57,-20.00
1,26,631,-100,-579,3869,-0.32,0.40,22.70,-1.00,-5.79,38.69,-5.44,1.81,27.39,3.66,-1.83,-20.00
-1,27,682,-121,-578,3878,-0.29,0.52,24.59,-1.21,-5.78,38.78,-5.45,1.82,27.29,3.70,-1.89,-20.00
-23,8,815,29,-467,4012,-0.40,0.52,27.10,0.29,-4.67,40.12,-5.46,1.82,27.19,4.18,-1.50,-20.00
-26,28,837,-35,-445,3726,-0.52,0.64,29.50,-0.35,-4.45,37.26,-5.47,1.82,27.07,4.28,-1.94,-20.00
-17,33,873,-106,-396,3847,-0.57,0.78,31.88,-1.06,-3.96,38.47,-5.49,1.82,26.94,4.12,-2.09,-20.00
-29,4,871,-80,-313,4019,-0.69,0.72,34.00,-0.80,-3.13,40.19,-5.47,1.83,26.81,4.39,-1.49,-20.00
-22,6,865,-94,-269,3940,-0.76,0.69,35.88,-0.94,-2.69,39.40,-5.45,1.84,26.66,4.25,-1.52,-20.00
-11,17,859,-41,-288,3871,-0.75,0.72,37.53,-0.41,-2.88,38.71,-5.44,1.85,26.51,4.02,-1.76,-20.00
-30,4,772,77,-305,3899,-0.86,0.67,38.49,0.77,-3.05,38.99,-5.43,1.85,26.36,4.43,-1.48,-20.00
-37,22,748,-62,-411,3782,-1.00,0.74,39.20,-0.62,-4.11,37.82,-5.44,1.85,26.21,4.61,-1.87,-20.00
-7,0,585,-85,-227,3955,-0.94,0.67,38.85,-0.85,-2.27,39.55,-5.42,1.86,26.05,3.98,-1.41,-20.00
-10,1,482,97,-158,3928,-0.91,0.61,37.90,0.97,-1.58,39.28,-5.41,1.87,25.90,4.02,-1.42,-15.29
-13,3,331,-325,-345,3887,-0.90,0.56,36.13,-3.25,-3.45,38.87,-5.40,1.90,25.75,4.08,-1.47,-6.02
-11,0,308,-426,-352,3936,-0.87,0.51,34.40,-4.26,-3.52,39.36,-5.40,1.93,25.62,4.03,-1.41,-5.42
-7,8,262,-213,-344,3904,-0.83,0.51,32.56,-2.13,-3.44,39.04,-5.40,1.96,25.49,3.93,-1.60,-3.31
-6,9,268,-238,-295,3945,-0.78,0.51,30.94,-2.38,-2.95,39.45,-5.38,1.99,25.36,3.89,-1.64,-4.61
1,13,412,-232,-348,3837,-0.70,0.54,30.36,-2.32,-3.48,38.37,-5.38,2.02,25.24,3.72,-1.75,-14.68
-10,23,490,-202,-375,3942,-0.69,0.62,30.31,-2.02,-3.75,39.42,-5.38,2.06,25.12,3.94,-2.00,-19.97
-4,27,528,-28,-346,3966,-0.64,0.73,30.50,-0.28,-3.46,39.66,-5.37,2.05,25.00,3.80,-2.10,-20.00
-28,-7,495,174,-358,3975,-0.75,0.61,30.47,1.74,-3.58,39.75,-5.37,2.05,24.88,4.32,-1.38,-20.00
-10,-12,293,282,-448,3944,-0.74,0.48,29.21,2.82,-4.48,39.44,-5.37,2.04,24.76,3.95,-1.23,-7.18
-1,2,156,-55,-460,3865,-0.67,0.44,27.24,-0.55,-4.60,38.65,-5.39,2.04,24.66,3.76,-1.51,1.01
-2,5,37,-49,-394,3896,-0.61,0.43,24.74,-0.49,-3.94,38.96,-5.39,2.04,24.56,3.77,-1.56,7.69
0,0,22,-39,-415,3877,-0.55,0.39,22.40,-0.39,-4.15,38.77,-5.40,2.03,24.47,3.71,-1.44,7.41
3,-6,12,-43,-362,3898,-0.48,0.31,20.23,-0.43,-3.62,38.98,-5.39,2.02,24.39,3.63,-1.30,6.88
5,-7,16,-13,-394,3877,-0.40,0.24,18.31,-0.13,-3.94,38.77,-5.40,2.01,24.32,3.57,-1.25,5.54
2,1,21,-76,-405,3919,-0.35,0.22,16.61,-0.76,-4.05,39.19,-5.41,2.00,24.25,3.62,-1.40,4.26
1,3,21,-67,-411,3915,-0.31,0.22,15.07,-0.67,-4.11,39.15,-5.41,1.99,24.19,3.64,-1.43,3.41
-2,-1,20,-40,-442,3875,-0.29,0.19,13.69,-0.40,-4.42,38.75,-5.42,1.98,24.14,3.70,-1.34,2.70
-3,-4,14,-43,-441,3889,-0.28,0.14,12.40,-0.43,-4.41,38.89,-5.44,1.97,24.09,3.72,-1.26,2.40
-9,-6,4,-57,-415,3908,-0.31,0.09,11.19,-0.57,-4.15,39.08,-5.44,1.96,24.04,3.86,-1.20,2.40
-4,-5,-3,-76,-414,3898,-0.30,0.05,10.05,-0.76,-4.14,38.98,-5.45,1.95,24.00,3.76,-1.20,2.24
1,0,16,-46,-417,3957,-0.26,0.05,9.14,-0.46,-4.17,39.57,-5.46,1.94,23.97,3.66,-1.29,0.45
-1,-2,26,-54,-404,3932,-0.24,0.03,8.39,-0.54,-4.04,39.32,-5.47,1.93,23.93,3.69,-1.24,-0.65
-3,2,65,-39,-448,3886,-0.24,0.04,7.95,-0.39,-4.48,38.86,-5.48,1.91,23.90,3.74,-1.31,-3.53
1,3,81,-52,-478,3875,-0.21,0.05,7.65,-0.52,-4.78,38.75,-5.49,1.91,23.87,3.66,-1.33,-4.78
4,0,150,-7,-503,3898,-0.16,0.05,7.80,-0.07,-5.03,38.98,-5.51,1.90,23.84,3.60,-1.27,-9.37
1,-6,180,-2,-545,3898,-0.14,0.01,8.11,-0.02,-5.45,38.98,-5.52,1.89,23.81,3.66,-1.13,-11.22
12,10,345,24,-610,3953,-0.05,0.07,9.41,0.24,-6.10,39.53,-5.53,1.88,23.77,3.42,-1.46,-20.00
-9,-10,384,-8,-573,3932,-0.10,0.00,10.81,-0.08,-5.73,39.32,-5.55,1.88,23.73,3.87,-1.04,-20.00
11,11,486,68,-436,3963,-0.02,0.07,12.69,0.68,-4.36,39.63,-5.55,1.86,23.68,3.45,-1.47,-20.00
5,29,521,-63,-568,3920,0.01,0.24,14.60,-0.63,-5.68,39.20,-5.57,1.86,23.62,3.57,-1.89,-20.00
-11,13,602,-25,-632,3969,-0.06,0.29,16.81,-0.25,-6.32,39.69,-5.58,1.87,23.56,3.92,-1.58,-20.00
6,12,625,34,-600,3930,-0.02,0.34,18.94,0.34,-6.00,39.30,-5.59,1.86,23.48,3.57,-1.57,-20.00
-17,17,674,-46,-616,3833,-0.12,0.41,21.16,-0.46,-6.16,38.33,-5.61,1.87,23.40,4.08,-1.69,-20.00
-16,19,690,-100,-638,3890,-0.20,0.48,23.25,-1.00,-6.38,38.90,-5.62,1.88,23.31,4.09,-1.76,-20.00
-2,19,756,-38,-563,3903,-0.20,0.55,25.54,-0.38,-5.63,39.03,-5.64,1.88,23.21,3.82,-1.78,-20.00
-6,20,797,-85,-523,3898,-0.21,0.62,27.85,-0.85,-5.23,38.98,-5.65,1.89,23.10,3.91,-1.82,-20.00
-40,0,954,-132,-403,3804,-0.44,0.56,30.88,-1.32,-4.03,38.04,-5.67,1.91,22.97,4.67,-1.41,-20.00
-25,33,984,-233,-366,3861,-0.55,0.70,33.80,-2.33,-3.66,38.61,-5.66,1.94,22.84,4.39,-2.14,-20.00
-17,29,995,-252,-330,3911,-0.59,0.81,36.49,-2.52,-3.30,39.11,-5.65,1.97,22.69,4.24,-2.11,-20.00
-10,15,968,-199,-270,3867,-0.60,0.82,38.74,-1.99,-2.70,38.67,-5.63,2.00,22.54,4.08,-1.85,-20.00
-22,16,853,-34,-327,3935,-0.67,0.83,40.07,-0.34,-3.27,39.35,-5.62,2.01,22.38,4.34,-1.88,-20.00
-13,18,802,-38,-326,3890,-0.68,0.86,40.96,-0.38,-3.26,38.90,-5.61,2.01,22.22,4.15,-1.93,-20.00
-21,11,675,-61,-283,3849,-0.74,0.84,40.98,-0.61,-2.83,38.49,-5.59,2.02,22.05,4.32,-1.78,-20.00
-6,17,652,-51,-291,3965,-0.70,0.86,40.86,-0.51,-2.91,39.65,-5.58,2.02,21.89,3.99,-1.92,-20.00
-26,11,593,26,-370,3934,-0.79,0.84,40.39,0.26,-3.70,39.34,-5.57,2.02,21.73,4.42,-1.79,-20.00
-8,11,584,-36,-421,3906,-0.76,0.83,39.91,-0.36,-4.21,39.06,-5.58,2.03,21.57,4.05,-1.79,-20.00
-4,7,518,-70,-315,3803,-0.71,0.79,39.08,-0.70,-3.15,38.03,-5.56,2.03,21.42,3.95,-1.70,-16.39
-14,11,492,-55,-358,3867,-0.72,0.77,38.17,-0.55,-3.58,38.67,-5.56,2.03,21.26,4.15,-1.78,-15.12
-5,6,458,-60,-334,3812,-0.68,0.73,37.15,-0.60,-3.34,38.12,-5.54,2.03,21.12,3.95,-1.66,-13.36
-10,-4,455,-103,-391,3935,-0.68,0.64,36.21,-1.03,-3.91,39.35,-5.55,2.03,20.97,4.05,-1.43,-13.67
-7,25,424,3,-518,4024,-0.65,0.72,35.18,0.03,-5.18,40.24,-5.56,2.03,20.83,3.99,-2.05,-12.12
-2,-4,401,-27,-369,3972,-0.60,0.63,34.11,-0.27,-3.69,39.72,-5.55,2.03,20.70,3.87,-1.43,-11.15
-13,-2,381,-112,-421,3806,-0.62,0.55,33.02,-1.12,-4.21,38.06,-5.57,2.04,20.57,4.11,-1.45,-10.38
-4,14,385,-74,-426,3828,-0.58,0.58,32.07,-0.74,-4.26,38.28,-5.58,2.04,20.44,3.92,-1.79,-11.17
-1,17,367,-109,-407,3820,-0.53,0.63,31.10,-1.09,-4.07,38.20,-5.59,2.04,20.32,3.85,-1.86,-10.47
-5,11,352,-53,-380,3907,-0.51,0.63,30.13,-0.53,-3.80,39.07,-5.58,2.04,20.20,3.93,-1.74,-9.98
1,13,358,-54,-462,3925,-0.45,0.65,29.31,-0.54,-4.62,39.25,-5.59,2.04,20.08,3.79,-1.79,-10.83
-3,8,371,11,-511,3920,-0.42,0.63,28.64,0.11,-5.11,39.20,-5.60,2.04,19.97,3.87,-1.68,-12.07
-2,11,482,-14,-716,3966,-0.39,0.64,28.71,-0.14,-7.16,39.66,-5.62,2.04,19.85,3.86,-1.75,-19.54
-14,12,567,105,-709,4072,-0.44,0.65,29.30,1.05,-7.09,40.72,-5.63,2.05,19.74,4.12,-1.77,-20.00
-22,3,699,-80,-530,4011,-0.53,0.60,30.64,-0.80,-5.30,40.11,-5.64,2.05,19.62,4.32,-1.58,-20.00
-11,26,738,37,-510,3773,-0.54,0.70,32.07,0.37,-5.10,37.73,-5.65,2.05,19.49,4.10,-2.08,-20.00
-15,25,876,-98,-508,3829,-0.58,0.78,34.21,-0.98,-5.08,38.29,-5.67,2.07,19.35,4.20,-2.08,-20.00
-14,29,907,-125,-531,3853,-0.61,0.88,36.32,-1.25,-5.31,38.53,-5.68,2.08,19.21,4.20,-2.20,-20.00
-16,19,1012,-20,-444,3930,-0.64,0.91,38.86,-0.20,-4.44,39.30,-5.69,2.08,19.06,4.25,-2.01,-20.00
-20,16,1035,49,-487,3908,-0.70,0.91,41.29,0.49,-4.87,39.08,-5.69,2.09,18.89,4.36,-1.95,-20.00
-11,28,1078,51,-459,3930,-0.70,0.99,43.74,0.51,-4.59,39.30,-5.70,2.09,18.72,4.17,-2.22,-20.00
-31,28,1082,154,-454,3946,-0.82,1.07,45.96,1.54,-4.54,39.46,-5.70,2.10,18.54,4.61,-2.24,-20.00
-15,12,1025,-93,-396,3881,-0.83,1.03,47.62,-0.93,-3.96,38.81,-5.69,2.10,18.35,4.29,-1.91,-20.00
-26,25,1008,-47,-436,3856,-0.90,1.08,49.01,-0.47,-4.36,38.56,-5.70,2.11,18.15,4.54,-2.19,-20.00
-11,15,894,12,-168,3855,-0.88,1.06,49.56,0.12,-1.68,38.55,-5.68,2.12,17.95,4.21,-2.00,-20.00
-5,43,871,-102,-223,3859,-0.82,1.22,49.92,-1.02,-2.23,38.59,-5.66,2.14,17.76,4.06,-2.62,-20.00
5,35,700,-103,-123,3906,-0.71,1.31,49.19,-1.03,-1.23,39.06,-5.64,2.16,17.56,3.81,-2.50,-20.00
-23,20,657,-47,-191,3927,-0.78,1.30,48.28,-0.47,-1.91,39.27,-5.62,2.18,17.37,4.39,-2.20,-20.00
-7,22,520,6,-112,3855,-0.74,1.31,46.63,0.06,-1.12,38.55,-5.60,2.19,17.18,4.04,-2.25,-11.66
4,24,475,-121,-160,3889,-0.65,1.32,44.86,-1.21,-1.60,38.89,-5.57,2.21,17.00,3.77,-2.31,-9.57
0,-3,386,-160,-219,3830,-0.58,1.17,42.73,-1.60,-2.19,38.30,-5.55,2.24,16.83,3.82,-1.73,-4.71
-3,3,369,-176,-205,3903,-0.54,1.07,40.71,-1.76,-2.05,39.03,-5.53,2.26,16.67,3.86,-1.84,-4.67
-13,-19,291,-193,-238,3895,-0.57,0.85,38.41,-1.93,-2.38,38.95,-5.51,2.28,16.52,4.05,-1.35,-0.65
-13,-4,252,-331,-344,3890,-0.59,0.74,36.11,-3.31,-3.44,38.90,-5.50,2.32,16.37,4.06,-1.65,0.72
0,-17,86,-112,-483,3978,-0.53,0.56,33.02,-1.12,-4.83,39.78,-5.51,2.32,16.24,3.78,-1.34,10.26
1,-12,84,-92,-452,3963,-0.47,0.43,30.23,-0.92,-4.52,39.63,-5.52,2.32,16.12,3.75,-1.41,8.85
2,-1,32,-69,-485,3897,-0.41,0.38,27.40,-0.69,-4.85,38.97,-5.54,2.32,16.01,3.73,-1.62,10.81
2,1,21,-51,-495,3890,-0.36,0.35,24.79,-0.51,-4.95,38.90,-5.55,2.32,15.92,3.72,-1.65,10.10
2,9,56,51,-555,3903,-0.31,0.37,22.65,0.51,-5.55,39.03,-5.56,2.32,15.83,3.71,-1.81,6.54
0,14,80,75,-590,3912,-0.28,0.42,20.88,0.75,-5.90,39.12,-5.57,2.32,15.74,3.75,-1.93,3.93
0,17,164,73,-564,3860,-0.25,0.48,19.79,0.73,-5.64,38.60,-5.58,2.31,15.66,3.75,-2.00,-2.36
-5,24,189,66,-557,3900,-0.26,0.58,18.96,0.66,-5.57,39.00,-5.58,2.31,15.59,3.86,-2.17,-4.51
-3,23,276,-69,-584,3775,-0.25,0.66,18.75,-0.69,-5.84,37.75,-5.60,2.31,15.52,3.82,-2.17,-10.51
-2,-1,302,-59,-482,3840,-0.24,0.59,18.72,-0.59,-4.82,38.40,-5.61,2.31,15.44,3.81,-1.66,-12.28
7,6,351,-90,-453,3800,-0.17,0.57,18.99,-0.90,-4.53,38.00,-5.62,2.30,15.37,3.62,-1.80,-15.44
-10,-19,347,-32,-435,3994,-0.21,0.39,19.21,-0.32,-4.35,39.94,-5.63,2.30,15.29,3.98,-1.24,-15.04
-14,-9,323,-97,-321,3841,-0.28,0.30,19.25,-0.97,-3.21,38.41,-5.61,2.29,15.21,4.06,-1.41,-13.37
-16,1,324,-126,-346,3932,-0.35,0.28,19.31,-1.26,-3.46,39.32,-5.60,2.29,15.14,4.11,-1.61,-13.40
-9,-4,320,-135,-334,3934,-0.37,0.22,19.33,-1.35,-3.34,39.34,-5.58,2.29,15.06,3.96,-1.49,-13.10
-16,-14,319,-143,-352,3869,-0.43,0.12,19.34,-1.43,-3.52,38.69,-5.56,2.29,14.98,4.11,-1.26,-13.02
-14,-19,239,-60,-260,3949,-0.47,-0.01,18.86,-0.60,-2.60,39.49,-5.54,2.29,14.91,4.07,-1.12,-7.85
0,2,213,-82,-327,3820,-0.42,0.00,18.28,-0.82,-3.27,38.20,-5.53,2.28,14.83,3.77,-1.54,-6.41
-4,11,192,-48,-389,3865,-0.41,0.07,17.62,-0.48,-3.89,38.65,-5.53,2.27,14.76,3.85,-1.74,-5.34
0,6,189,-61,-369,3950,-0.37,0.10,17.01,-0.61,-3.69,39.50,-5.53,2.26,14.69,3.75,-1.64,-5.47
-7,-2,207,-37,-484,3928,-0.37,0.08,16.57,-0.37,-4.84,39.28,-5.54,2.25,14.63,3.90,-1.46,-6.93
-10,-4,210,-49,-478,3817,-0.40,0.04,16.20,-0.49,-4.78,38.17,-5.55,2.24,14.57,3.98,-1.41,-7.33
-9,4,239,-81,-531,3790,-0.41,0.06,16.03,-0.81,-5.31,37.90,-5.57,2.24,14.50,3.97,-1.58,-9.38
10,24,265,-75,-544,3949,-0.31,0.20,16.05,-0.75,-5.44,39.49,-5.59,2.24,14.44,3.57,-2.02,-11.12
2,17,369,-52,-528,3917,-0.27,0.29,16.69,-0.52,-5.28,39.17,-5.60,2.24,14.37,3.73,-1.90,-17.80
1,7,414,-75,-515,3912,-0.23,0.30,17.55,-0.75,-5.15,39.12,-5.61,2.24,14.30,3.75,-1.70,-20.00
-10,6,504,-21,-530,3883,-0.27,0.31,18.87,-0.21,-5.30,38.83,-5.62,2.23,14.23,3.99,-1.68,-20.00
2,14,529,-27,-521,3873,-0.23,0.36,20.21,-0.27,-5.21,38.73,-5.64,2.23,14.15,3.74,-1.85,-20.00
6,8,573,-71,-536,3869,-0.17,0.38,21.68,-0.71,-5.36,38.69,-5.65,2.23,14.06,3.65,-1.74,-20.00
3,9,594,-80,-575,3928,-0.14,0.39,23.14,-0.80,-5.75,39.28,-5.66,2.23,13.97,3.71,-1.77,-20.00
-5,6,552,7,-423,3922,-0.15,0.39,24.19,0.07,-4.23,39.22,-5.66,2.23,13.88,3.88,-1.70,-20.00
-31,30,537,-29,-432,3860,-0.33,0.53,25.05,-0.29,-4.32,38.60,-5.67,2.22,13.78,4.46,-2.22,-20.00
14,9,462,15,-439,3878,-0.21,0.54,25.36,0.15,-4.39,38.78,-5.67,2.22,13.68,3.52,-1.79,-19.13
-2,12,448,-4,-464,3862,-0.20,0.56,25.56,-0.04,-4.64,38.62,-5.68,2.21,13.58,3.84,-1.86,-18.06
-6,19,429,-19,-447,3946,-0.22,0.62,25.62,-0.19,-4.47,39.46,-5.68,2.21,13.47,3.93,-2.01,-16.72
-16,2,428,56,-473,4017,-0.29,0.57,25.67,0.56,-4.73,40.17,-5.68,2.20,13.37,4.16,-1.65,-16.61
-4,4,388,-40,-415,3941,-0.29,0.53,25.47,-0.40,-4.15,39.41,-5.68,2.20,13.27,3.91,-1.68,-14.00
-3,8,382,-38,-363,3928,-0.28,0.53,25.25,-0.38,-3.63,39.28,-5.68,2.19,13.17,3.88,-1.75,-13.70
-11,-9,352,-11,-427,3994,-0.32,0.42,24.87,-0.11,-4.27,39.94,-5.68,2.19,13.07,4.06,-1.38,-11.86
-19,-3,352,-43,-412,3827,-0.40,0.36,24.53,-0.43,-4.12,38.27,-5.68,2.18,12.97,4.25,-1.48,-12.04
11,15,346,-38,-517,3726,-0.29,0.42,24.19,-0.38,-5.17,37.26,-5.69,2.18,12.88,3.61,-1.86,-11.81
-15,-7,349,59,-491,4083,-0.36,0.33,23.90,0.59,-4.91,40.83,-5.70,2.17,12.78,4.16,-1.38,-12.16
-6,-4,392,33,-497,3956,-0.36,0.27,23.90,0.33,-4.97,39.56,-5.71,2.17,12.69,3.98,-1.43,-15.06
1,10,404,2,-525,3782,-0.32,0.31,23.98,0.02,-5.25,37.82,-5.72,2.17,12.59,3.84,-1.72,-15.82
-14,21,451,-11,-464,3969,-0.37,0.41,24.33,-0.11,-4.64,39.69,-5.72,2.16,12.50,4.16,-1.96,-18.79
-15,14,457,-101,-388,3875,-0.42,0.45,24.68,-1.01,-3.88,38.75,-5.72,2.15,12.40,4.20,-1.83,-18.98
-9,13,419,-68,-479,3904,-0.44,0.48,24.77,-0.68,-4.79,39.04,-5.73,2.15,12.30,4.08,-1.82,-16.34
8,-2,402,-29,-458,3845,-0.34,0.42,24.75,-0.29,-4.58,38.45,-5.74,2.15,12.20,3.72,-1.49,-15.19
-13,2,390,-31,-507,3792,-0.39,0.39,24.65,-0.31,-5.07,37.92,-5.75,2.15,12.11,4.17,-1.57,-14.42
-15,-6,381,24,-510,4013,-0.44,0.32,24.51,0.24,-5.10,40.13,-5.76,2.14,12.01,4.23,-1.38,-13.87
4,-13,347,-129,-474,3748,-0.37,0.21,24.18,-1.29,-4.74,37.48,-5.77,2.15,11.91,3.83,-1.21,-11.74
-22,-19,337,-8,-509,3858,-0.47,0.07,23.81,-0.08,-5.09,38.58,-5.78,2.15,11.82,4.39,-1.05,-11.25
-14,-2,312,-37,-224,4030,-0.51,0.05,23.34,-0.37,-2.24,40.30,-5.77,2.15,11.73,4.23,-1.39,-9.81
-7,7,293,-138,-295,3812,-0.50,0.09,22.79,-1.38,-2.95,38.12,-5.75,2.16,11.63,4.07,-1.59,-8.82
-12,-12,211,-94,-370,3868,-0.52,0.01,21.80,-0.94,-3.70,38.68,-5.74,2.15,11.55,4.17,-1.18,-3.80
-1,7,211,-174,-416,3762,-0.48,0.05,20.90,-1.74,-4.16,37.62,-5.75,2.17,11.46,3.95,-1.59,-4.29
-6,-1,270,-25,-623,3915,-0.47,0.04,20.46,-0.25,-6.23,39.15,-5.77,2.17,11.38,4.06,-1.42,-8.53
-2,2,281,-6,-512,4093,-0.43,0.05,20.13,-0.06,-5.12,40.93,-5.78,2.16,11.30,3.97,-1.48,-9.45
3,1,315,-16,-594,3939,-0.37,0.05,20.04,-0.16,-5.94,39.39,-5.79,2.16,11.22,3.86,-1.46,-11.79
-10,12,346,-44,-498,4019,-0.39,0.12,20.14,-0.44,-4.98,40.19,-5.80,2.15,11.14,4.14,-1.70,-13.82
-11,-1,354,-235,-543,3964,-0.42,0.10,20.29,-2.35,-5.43,39.64,-5.81,2.17,11.06,4.18,-1.44,-14.27
-17,-20,378,-74,-492,3845,-0.48,-0.03,20.57,-0.74,-4.92,38.45,-5.83,2.17,10.98,4.32,-1.02,-15.73
-9,23,434,19,-497,3894,-0.49,0.11,21.16,0.19,-4.97,38.94,-5.84,2.16,10.90,4.17,-1.93,-19.18
-19,26,429,-13,-342,3951,-0.56,0.26,21.66,-0.13,-3.42,39.51,-5.83,2.16,10.81,4.38,-2.02,-18.55
-21,-7,378,-81,-322,4087,-0.63,0.19,21.80,-0.81,-3.22,40.87,-5.81,2.15,10.73,4.43,-1.33,-15.00
-20,1,376,-70,-286,3739,-0.69,0.18,21.91,-0.70,-2.86,37.39,-5.80,2.15,10.64,4.42,-1.49,-14.78
-1,11,368,21,-476,3945,-0.63,0.23,21.97,0.21,-4.76,39.45,-5.80,2.15,10.55,4.02,-1.70,-14.20
-3,6,361,-40,-556,3911,-0.58,0.24,21.97,-0.40,-5.56,39.11,-5.82,2.15,10.46,4.06,-1.60,-13.71
-10,16,368,13,-603,3889,-0.58,0.31,22.02,0.13,-6.03,38.89,-5.83,2.14,10.38,4.21,-1.83,-14.14
-15,12,413,-35,-582,3797,-0.62,0.36,22.34,-0.35,-5.82,37.97,-5.85,2.15,10.29,4.33,-1.76,-17.00
-13,0,479,51,-515,3852,-0.63,0.32,23.02,0.51,-5.15,38.52,-5.86,2.14,10.20,4.30,-1.50,-20.00
-12,29,480,75,-399,3947,-0.64,0.46,23.65,0.75,-3.99,39.47,-5.85,2.13,10.10,4.28,-2.13,-20.00
-1,16,438,-37,-404,3936,-0.59,0.52,23.96,-0.37,-4.04,39.36,-5.85,2.13,10.01,4.04,-1.87,-17.75
-25,-4,444,-51,-379,3853,-0.68,0.44,24.27,-0.51,-3.79,38.53,-5.85,2.12,9.91,4.55,-1.44,-17.96
-5,-8,497,-71,-467,3633,-0.64,0.35,24.87,-0.71,-4.67,36.33,-5.86,2.12,9.81,4.15,-1.33,-20.00
-27,22,520,54,-416,4081,-0.74,0.45,25.56,0.54,-4.16,40.81,-5.86,2.12,9.71,4.62,-1.97,-20.00
-11,7,401,-164,-213,4049,-0.74,0.44,25.45,-1.64,-2.13,40.49,-5.84,2.13,9.61,4.28,-1.67,-14.34
1,9,345,-222,-60,3740,-0.66,0.46,25.01,-2.22,-0.60,37.40,-5.82,2.15,9.51,4.00,-1.72,-10.78
-3,-7,238,-78,-363,3880,-0.61,0.37,23.96,-0.78,-3.63,38.80,-5.81,2.14,9.41,4.06,-1.37,-4.10
-1,1,237,-54,-427,3926,-0.55,0.34,23.01,-0.54,-4.27,39.26,-5.82,2.13,9.32,4.01,-1.52,-4.55
-4,-11,222,15,-415,3970,-0.52,0.24,22.06,0.15,-4.15,39.70,-5.82,2.13,9.24,4.06,-1.24,-4.05
-5,-9,214,21,-445,3841,-0.50,0.16,21.16,0.21,-4.45,38.41,-5.82,2.12,9.15,4.08,-1.26,-4.00
-5,6,179,-54,-422,3911,-0.48,0.18,20.14,-0.54,-4.22,39.11,-5.83,2.11,9.07,4.08,-1.56,-2.19
-1,-2,175,0,-421,3991,-0.44,0.15,19.19,0.00,-4.21,39.91,-5.83,2.10,9.00,3.99,-1.38,-2.44
-5,1,139,-156,-322,3907,-0.43,0.14,18.12,-1.56,-3.22,39.07,-5.81,2.11,8.92,4.05,-1.45,-0.59
-2,-3,119,-94,-316,3950,-0.40,0.11,17.03,-0.94,-3.16,39.50,-5.79,2.11,8.85,3.97,-1.36,0.16
1,8,38,-82,-416,3932,-0.35,0.15,15.56,-0.82,-4.16,39.32,-5.80,2.10,8.79,3.90,-1.59,4.84
-3,5,41,-62,-435,3920,-0.33,0.16,14.26,-0.62,-4.35,39.20,-5.80,2.09,8.74,3.98,-1.52,3.91
5,11,72,-11,-478,3878,-0.27,0.21,13.27,-0.11,-4.78,38.78,-5.81,2.08,8.68,3.81,-1.65,1.26
4,10,78,-18,-467,3887,-0.22,0.25,12.42,-0.18,-4.67,38.87,-5.82,2.07,8.63,3.82,-1.64,0.39
-3,3,145,-21,-571,3879,-0.21,0.25,12.06,-0.21,-5.71,38.79,-5.83,2.06,8.59,3.97,-1.49,-4.35
-1,-4,196,8,-623,3937,-0.20,0.20,12.05,0.08,-6.23,39.37,-5.85,2.06,8.54,3.93,-1.33,-7.80
-2,10,317,-23,-463,3931,-0.19,0.24,12.78,-0.23,-4.63,39.31,-5.86,2.05,8.49,3.96,-1.62,-15.59
12,55,322,-145,-366,3819,-0.10,0.55,13.47,-1.45,-3.66,38.19,-5.84,2.06,8.44,3.63,-2.63,-15.53
7,3,249,-43,-497,4026,-0.05,0.51,13.64,-0.43,-4.97,40.26,-5.85,2.05,8.38,3.73,-1.56,-10.48
-7,2,263,-41,-482,3778,-0.08,0.47,13.88,-0.41,-4.82,37.78,-5.86,2.05,8.33,4.03,-1.52,-11.29
-3,7,292,-33,-475,3788,-0.09,0.47,14.27,-0.33,-4.75,37.88,-5.87,2.04,8.27,3.96,-1.62,-13.02
-3,9,271,-9,-405,3927,-0.10,0.48,14.50,-0.09,-4.05,39.27,-5.87,2.03,8.21,3.96,-1.65,-11.46
2,16,216,-119,-401,3829,-0.08,0.53,14.37,-1.19,-4.01,38.29,-5.87,2.02,8.16,3.86,-1.80,-7.80
5,22,250,-42,-455,3990,-0.04,0.61,14.45,-0.42,-4.55,39.90,-5.88,2.01,8.10,3.79,-1.94,-10.05
-3,7,338,-23,-522,3895,-0.06,0.59,15.07,-0.23,-5.22,38.95,-5.89,2.01,8.04,3.96,-1.63,-15.66
6,9,352,-11,-424,3981,-0.01,0.59,15.71,-0.11,-4.24,39.81,-5.89,2.00,7.98,3.77,-1.66,-16.24
-14,-14,315,85,-477,3892,-0.10,0.44,16.06,0.85,-4.77,38.92,-5.89,1.99,7.91,4.20,-1.15,-13.53
-4,-3,274,10,-385,3872,-0.11,0.38,16.13,0.10,-3.85,38.72,-5.89,1.98,7.85,4.00,-1.35,-10.70
-6,0,167,-37,-391,3855,-0.14,0.34,15.53,-0.37,-3.91,38.55,-5.89,1.97,7.79,4.04,-1.39,-3.77
0,2,138,-47,-347,3940,-0.12,0.32,14.82,-0.47,-3.47,39.40,-5.87,1.96,7.73,3.91,-1.42,-2.20
-5,-7,57,-24,-468,3897,-0.14,0.24,13.69,-0.24,-4.68,38.97,-5.88,1.95,7.68,4.02,-1.21,2.67
-7,-8,47,-5,-487,3896,-0.17,0.17,12.60,-0.05,-4.87,38.96,-5.89,1.95,7.63,4.08,-1.17,2.74
-8,-5,60,10,-606,3875,-0.20,0.12,11.71,0.10,-6.06,38.75,-5.91,1.94,7.58,4.12,-1.21,1.37
-8,-5,94,-4,-619,3998,-0.23,0.08,11.11,-0.04,-6.19,39.98,-5.92,1.93,7.54,4.13,-1.20,-1.27
-7,12,177,-60,-556,3971,-0.25,0.15,11.08,-0.60,-5.56,39.71,-5.94,1.93,7.49,4.13,-1.56,-6.90
-12,8,196,-63,-580,3789,-0.30,0.18,11.17,-0.63,-5.80,37.89,-5.95,1.93,7.45,4.25,-1.49,-8.13
-8,19,326,-22,-811,3740,-0.32,0.28,12.04,-0.22,-8.11,37.40,-5.97,1.93,7.40,4.19,-1.74,-16.45
-15,15,385,62,-771,3903,-0.38,0.34,13.18,0.62,-7.71,39.03,-5.99,1.93,7.35,4.36,-1.67,-19.80
-11,23,494,7,-542,3819,-0.41,0.45,14.88,0.07,-5.42,38.19,-6.00,1.93,7.29,4.29,-1.86,-20.00
-29,3,479,-75,-510,3842,-0.54,0.42,16.31,-0.75,-5.10,38.42,-6.02,1.93,7.23,4.71,-1.45,-20.00
-18,22,424,-1,-475,3763,-0.60,0.51,17.27,-0.01,-4.75,37.63,-6.03,1.92,7.16,4.51,-1.85,-20.00
-16,8,410,64,-534,3974,-0.64,0.51,18.04,0.64,-5.34,39.74,-6.03,1.91,7.09,4.48,-1.56,-18.73
-8,1,382,104,-480,3854,-0.62,0.47,18.57,1.04,-4.80,38.54,-6.04,1.91,7.01,4.32,-1.40,-16.52
-2,6,375,-28,-419,3868,-0.57,0.46,19.00,-0.28,-4.19,38.68,-6.04,1.90,6.94,4.18,-1.50,-15.80
2,6,392,-53,-658,3777,-0.50,0.45,19.49,-0.53,-6.58,37.77,-6.06,1.90,6.86,4.09,-1.50,-16.66
13,-4,408,61,-576,3923,-0.37,0.38,20.03,0.61,-5.76,39.23,-6.07,1.90,6.78,3.84,-1.27,-17.43
-13,65,524,87,-443,4010,-0.41,0.74,21.22,0.87,-4.43,40.10,-6.07,1.89,6.70,4.38,-2.77,-20.00
-18,41,532,-95,-402,3933,-0.48,0.91,22.35,-0.95,-4.02,39.33,-6.06,1.89,6.61,4.50,-2.33,-20.00
-13,12,601,-148,-633,3728,-0.51,0.89,23.78,-1.48,-6.33,37.28,-6.08,1.90,6.52,4.42,-1.74,-20.00
-24,4,609,-32,-564,3921,-0.61,0.83,25.12,-0.32,-5.64,39.21,-6.09,1.91,6.42,4.67,-1.57,-20.00
12,15,612,0,-542,3818,-0.47,0.84,26.34,0.00,-5.42,38.18,-6.10,1.91,6.31,3.91,-1.79,-20.00
-28,19,619,24,-483,3982,-0.60,0.87,27.48,0.24,-4.83,39.82,-6.11,1.91,6.20,4.76,-1.88,-20.00
-15,7,618,2,-441,4008,-0.63,0.83,28.50,0.02,-4.41,40.08,-6.11,1.90,6.09,4.51,-1.62,-20.00
32,64,644,-114,-398,3914,-0.37,1.13,29.58,-1.14,-3.98,39.14,-6.09,1.91,5.97,3.47,-2.87,-20.00
-24,31,676,-136,-379,4005,-0.48,1.21,30.74,-1.36,-3.79,40.05,-6.07,1.93,5.85,4.63,-2.23,-20.00
-21,6,678,-71,-253,3936,-0.56,1.13,31.81,-0.71,-2.53,39.36,-6.05,1.94,5.72,4.57,-1.71,-20.00
-3,23,609,-22,-310,3973,-0.52,1.15,32.34,-0.22,-3.10,39.73,-6.04,1.94,5.60,4.19,-2.07,-20.00
-3,9,589,-24,-266,3884,-0.49,1.09,32.70,-0.24,-2.66,38.84,-6.02,1.95,5.47,4.17,-1.77,-20.00
-9,-9,434,-4,-358,3865,-0.50,0.93,32.08,-0.04,-3.58,38.65,-6.01,1.95,5.34,4.29,-1.36,-12.22
-4,14,414,55,-357,3856,-0.47,0.92,31.39,0.55,-3.57,38.56,-6.00,1.95,5.21,4.17,-1.82,-11.23
12,5,386,10,-495,3834,-0.35,0.86,30.61,0.10,-4.95,38.34,-6.01,1.95,5.09,3.82,-1.62,-9.75
5,8,393,-35,-483,3994,-0.28,0.82,29.95,-0.35,-4.83,39.94,-6.02,1.95,4.97,3.95,-1.68,-10.58
-16,-16,463,-1,-460,4097,-0.35,0.64,29.78,-0.01,-4.60,40.97,-6.02,1.95,4.86,4.39,-1.14,-15.40
4,33,493,-123,-505,3807,-0.29,0.78,29.81,-1.23,-5.05,38.07,-6.04,1.96,4.74,3.98,-2.18,-17.40
2,5,489,-106,-423,3909,-0.25,0.73,29.81,-1.06,-4.23,39.09,-6.04,1.96,4.62,4.01,-1.60,-17.11
-12,2,491,-137,-509,3878,-0.30,0.67,29.82,-1.37,-5.09,38.78,-6.05,1.98,4.50,4.32,-1.53,-17.22
-10,14,470,-113,-528,3896,-0.33,0.69,29.71,-1.13,-5.28,38.96,-6.07,1.99,4.38,4.30,-1.79,-15.84
-27,-3,472,-79,-585,3857,-0.46,0.60,29.62,-0.79,-5.85,38.57,-6.08,2.00,4.27,4.69,-1.42,-16.01
-16,4,538,31,-689,3873,-0.51,0.57,29.94,0.31,-6.89,38.73,-6.10,2.00,4.15,4.49,-1.56,-20.00
-14,13,576,43,-748,3894,-0.55,0.59,30.46,0.43,-7.48,38.94,-6.11,2.01,4.03,4.47,-1.75,-20.00
-10,7,721,115,-779,4056,-0.55,0.57,31.81,1.15,-7.79,40.56,-6.12,2.01,3.90,4.40,-1.63,-20.00
-31,10,786,87,-494,4079,-0.69,0.58,33.42,0.87,-4.94,40.79,-6.13,2.01,3.77,4.86,-1.69,-20.00
-23,32,818,-212,-517,3759,-0.76,0.71,35.07,-2.12,-5.17,37.59,-6.14,2.04,3.63,4.73,-2.19,-20.00
-1,9,812,-227,-471,3753,-0.69,0.70,36.52,-2.27,-4.71,37.53,-6.15,2.08,3.49,4.27,-1.74,-20.00
-6,2,771,-34,-205,3846,-0.66,0.64,37.57,-0.34,-2.05,38.46,-6.13,2.09,3.34,4.35,-1.59,-20.00
-19,31,738,-112,-239,3922,-0.71,0.77,38.31,-1.12,-2.39,39.22,-6.11,2.10,3.18,4.61,-2.23,-20.00
-5,14,598,-19,-287,3987,-0.67,0.77,38.13,-0.19,-2.87,39.87,-6.09,2.11,3.03,4.30,-1.89,-19.59
-10,25,585,-81,-353,3794,-0.66,0.85,37.88,-0.81,-3.53,37.94,-6.08,2.11,2.88,4.39,-2.14,-18.82
-19,1,524,-101,-326,3943,-0.71,0.77,37.29,-1.01,-3.26,39.43,-6.06,2.13,2.73,4.58,-1.63,-15.00
-3,9,513,-79,-335,3952,-0.66,0.75,36.69,-0.79,-3.35,39.52,-6.04,2.13,2.59,4.23,-1.79,-14.57
-5,12,460,-60,-365,3891,-0.62,0.75,35.83,-0.60,-3.65,38.91,-6.03,2.13,2.44,4.25,-1.86,-11.44
5,17,425,-97,-339,3852,-0.53,0.78,34.84,-0.97,-3.39,38.52,-6.01,2.14,2.30,4.01,-1.97,-9.60
-5,20,343,-106,-431,3803,-0.51,0.82,33.45,-1.06,-4.31,38.03,-6.02,2.14,2.17,4.21,-2.05,-4.81
-10,-28,302,-3,-396,3851,-0.52,0.57,31.94,-0.03,-3.96,38.51,-6.02,2.14,2.05,4.31,-1.00,-2.85
1,42,279,-42,-532,3948,-0.46,0.77,30.45,-0.42,-5.32,39.48,-6.03,2.15,1.92,4.08,-2.48,-2.11
-2,7,274,-36,-487,3820,-0.43,0.73,29.08,-0.36,-4.87,38.20,-6.03,2.15,1.81,4.14,-1.76,-2.53
4,10,279,-96,-457,4004,-0.36,0.72,27.87,-0.96,-4.57,40.04,-6.04,2.14,1.70,4.00,-1.82,-3.53
-7,-9,277,25,-469,3831,-0.37,0.59,26.77,0.25,-4.69,38.31,-6.05,2.14,1.59,4.23,-1.39,-3.99
-3,18,274,-7,-468,3830,-0.35,0.64,25.77,-0.07,-4.68,38.30,-6.05,2.14,1.49,4.15,-1.95,-4.34
14,24,278,1,-573,3939,-0.23,0.73,24.89,0.01,-5.73,39.39,-6.06,2.14,1.39,3.78,-2.10,-5.09
-10,5,357,34,-663,3969,-0.27,0.68,24.58,0.34,-6.63,39.69,-6.07,2.14,1.30,4.28,-1.70,-10.60
-7,7,386,77,-643,3766,-0.28,0.66,24.47,0.77,-6.43,37.66,-6.08,2.14,1.20,4.23,-1.74,-12.61
-15,11,489,118,-555,3946,-0.35,0.66,25.01,1.18,-5.55,39.46,-6.09,2.14,1.10,4.42,-1.81,-19.28
-20,8,509,145,-475,3956,-0.43,0.64,25.61,1.45,-4.75,39.56,-6.09,2.13,1.00,4.54,-1.75,-20.00
-17,18,524,-52,-468,3754,-0.49,0.69,26.25,-0.52,-4.68,37.54,-6.10,2.13,0.90,4.51,-1.96,-20.00
-18,17,521,-45,-542,3821,-0.55,0.72,26.80,-0.45,-5.42,38.21,-6.11,2.14,0.79,4.55,-1.95,-20.00
-34,-16,540,-15,-76,4115,-0.71,0.55,27.42,-0.15,-0.76,41.15,-6.09,2.14,0.68,4.91,-1.24,-20.00
-18,7,528,-41,-33,3870,-0.74,0.54,27.89,-0.41,-0.33,38.70,-6.08,2.15,0.57,4.58,-1.71,-20.00
-6,24,437,-51,-213,3759,-0.71,0.63,27.77,-0.51,-2.13,37.59,-6.06,2.16,0.46,4.31,-2.09,-14.11
-16,-7,402,-74,-276,3869,-0.73,0.53,27.45,-0.74,-2.76,38.69,-6.04,2.16,0.35,4.51,-1.43,-11.90
4,-27,189,-163,-197,3842,-0.64,0.31,25.85,-1.63,-1.97,38.42,-6.02,2.18,0.24,4.07,-0.97,1.66
-3,-22,155,-154,-251,3899,-0.59,0.14,24.21,-1.54,-2.51,38.99,-6.00,2.19,0.15,4.18,-1.04,3.06
-7,-39,78,-125,-391,3954,-0.57,-0.11,22.27,-1.25,-3.91,39.54,-5.99,2.18,0.06,4.25,-0.62,7.20
-4,-27,51,-85,-480,3952,-0.54,-0.26,20.35,-0.85,-4.80,39.52,-6.00,2.18,-0.02,4.19,-0.82,7.97
-1,-1,15,-31,-500,3927,-0.49,-0.24,18.41,-0.31,-5.00,39.27,-6.01,2.17,-0.10,4.12,-1.35,9.33
1,6,11,-35,-504,3919,-0.44,-0.18,16.64,-0.35,-5.04,39.19,-6.02,2.16,-0.16,4.07,-1.50,8.61
1,7,21,-13,-548,3872,-0.39,-0.12,15.10,-0.13,-5.48,38.72,-6.03,2.16,-0.22,4.07,-1.53,7.08
-7,14,35,13,-554,3941,-0.39,-0.02,13.80,0.13,-5.54,39.41,-6.04,2.15,-0.28,4.24,-1.70,5.41
1,9,33,-8,-420,3897,-0.35,0.03,12.62,-0.08,-4.20,38.97,-6.05,2.13,-0.33,4.06,-1.60,4.90
4,14,25,-26,-414,3858,-0.29,0.12,11.51,-0.26,-4.14,38.58,-6.05,2.12,-0.37,3.99,-1.72,4.82
5,3,19,-19,-387,3883,-0.23,0.12,10.48,-0.19,-3.87,38.83,-6.04,2.11,-0.41,3.95,-1.49,4.65
11,9,23,15,-392,3881,-0.14,0.17,9.57,0.15,-3.92,38.81,-6.04,2.10,-0.45,3.80,-1.61,3.88
9,5,41,-48,-434,3909,-0.07,0.18,8.86,-0.48,-4.34,39.09,-6.04,2.08,-0.49,3.82,-1.52,2.27
4,4,29,-83,-466,3917,-0.04,0.19,8.15,-0.83,-4.66,39.17,-6.05,2.07,-0.52,3.92,-1.50,2.69
0,12,12,-33,-465,3902,-0.03,0.24,7.41,-0.33,-4.65,39.02,-6.06,2.06,-0.55,4.01,-1.67,3.43
-2,4,11,-40,-484,3913,-0.04,0.24,6.74,-0.40,-4.84,39.13,-6.07,2.05,-0.57,4.06,-1.50,3.12
-7,2,21,42,-527,3929,-0.08,0.23,6.19,0.42,-5.27,39.29,-6.08,2.04,-0.60,4.18,-1.45,2.14
-3,6,22,56,-554,3897,-0.09,0.24,5.71,0.56,-5.54,38.97,-6.09,2.02,-0.62,4.10,-1.52,1.80
0,18,53,61,-687,3837,-0.08,0.33,5.46,0.61,-6.87,38.37,-6.10,2.02,-0.64,4.05,-1.79,-0.43
-8,14,91,33,-711,3848,-0.12,0.38,5.47,0.33,-7.11,38.48,-6.12,2.01,-0.66,4.23,-1.72,-3.00
-2,9,253,56,-735,3762,-0.12,0.40,6.47,0.56,-7.35,37.62,-6.13,2.01,-0.69,4.12,-1.62,-13.42
-1,10,282,67,-652,3913,-0.12,0.42,7.54,0.67,-6.52,39.13,-6.15,2.00,-0.72,4.11,-1.64,-14.78
0,7,290,-29,-379,3801,-0.11,0.42,8.55,-0.29,-3.79,38.01,-6.14,1.99,-0.75,4.08,-1.57,-14.74
-13,-7,252,-101,-407,3790,-0.17,0.34,9.24,-1.01,-4.07,37.90,-6.14,1.97,-0.79,4.36,-1.25,-11.78
-7,1,227,-7,-403,3893,-0.20,0.31,9.70,-0.07,-4.03,38.93,-6.14,1.96,-0.83,4.25,-1.40,-9.82
0,20,236,99,-437,3981,-0.18,0.40,10.17,0.99,-4.37,39.81,-6.14,1.95,-0.87,4.10,-1.80,-10.16
1,27,321,-95,-623,3850,-0.16,0.52,11.11,-0.95,-6.23,38.50,-6.15,1.95,-0.91,4.08,-1.98,-15.39
-14,17,341,-105,-661,3834,-0.23,0.58,12.08,-1.05,-6.61,38.34,-6.17,1.96,-0.96,4.42,-1.79,-16.19
-30,-35,432,79,-540,3985,-0.39,0.30,13.51,0.79,-5.40,39.85,-6.18,1.95,-1.01,4.79,-0.66,-20.00
-10,10,465,20,-553,3811,-0.41,0.33,14.99,0.20,-5.53,38.11,-6.19,1.94,-1.07,4.40,-1.58,-20.00
-19,26,548,-82,-383,3961,-0.48,0.46,16.83,-0.82,-3.83,39.61,-6.18,1.94,-1.14,4.60,-1.93,-20.00
10,23,537,-211,-285,3900,-0.37,0.55,18.43,-2.11,-2.85,39.00,-6.16,1.96,-1.21,3.97,-1.91,-20.00
-4,-6,472,-192,-333,3941,-0.36,0.46,19.46,-1.92,-3.33,39.41,-6.15,1.98,-1.29,4.24,-1.31,-20.00
-4,-7,430,-101,-376,3855,-0.35,0.37,20.14,-1.01,-3.76,38.55,-6.13,1.98,-1.37,4.22,-1.26,-17.64
-5,0,311,44,-373,3961,-0.34,0.34,20.02,0.44,-3.73,39.61,-6.12,1.97,-1.45,4.24,-1.39,-9.63
-5,17,286,95,-373,3861,-0.34,0.41,19.77,0.95,-3.73,38.61,-6.12,1.96,-1.53,4.23,-1.75,-8.06
4,23,204,-65,-354,3876,-0.28,0.51,19.03,-0.65,-3.54,38.76,-6.11,1.96,-1.60,4.02,-1.90,-2.91
-1,12,187,-63,-345,3914,-0.26,0.53,18.27,-0.63,-3.45,39.14,-6.09,1.95,-1.68,4.11,-1.68,-2.17
3,17,175,-29,-387,3850,-0.22,0.58,17.51,-0.29,-3.87,38.50,-6.08,1.95,-1.74,4.01,-1.79,-1.77
-10,-2,165,-133,-409,3915,-0.26,0.51,16.77,-1.33,-4.09,39.15,-6.07,1.95,-1.81,4.28,-1.39,-1.50
-1,-11,62,-29,-408,3874,-0.24,0.39,15.47,-0.29,-4.08,38.74,-6.06,1.94,-1.87,4.09,-1.17,4.76
-1,-15,40,-41,-449,3924,-0.22,0.26,14.17,-0.41,-4.49,39.24,-6.07,1.93,-1.93,4.09,-1.04,5.53
-10,2,9,-10,-494,3913,-0.26,0.25,12.80,-0.10,-4.94,39.13,-6.08,1.92,-1.98,4.28,-1.38,6.87
-1,13,7,27,-549,3930,-0.24,0.30,11.57,0.27,-5.49,39.30,-6.09,1.92,-2.03,4.10,-1.61,6.32
1,6,115,-10,-581,3887,-0.21,0.31,11.11,-0.10,-5.81,38.87,-6.10,1.91,-2.07,4.06,-1.47,-1.25
-4,-7,136,2,-484,3941,-0.21,0.23,10.83,0.02,-4.84,39.41,-6.11,1.90,-2.11,4.17,-1.18,-2.82
-8,-11,148,-55,-391,3893,-0.24,0.14,10.65,-0.55,-3.91,38.93,-6.10,1.89,-2.15,4.26,-1.06,-3.73
-5,-2,148,-100,-376,3823,-0.25,0.12,10.49,-1.00,-3.76,38.23,-6.09,1.88,-2.20,4.19,-1.23,-3.82
1,-15,46,-19,-428,3911,-0.22,0.01,9.72,-0.19,-4.28,39.11,-6.09,1.87,-2.24,4.06,-0.93,2.67
-3,-15,40,-10,-450,3912,-0.21,-0.08,8.99,-0.10,-4.50,39.12,-6.10,1.85,-2.27,4.14,-0.90,2.67
0,-5,16,-30,-471,3909,-0.19,-0.10,8.19,-0.30,-4.71,39.09,-6.10,1.84,-2.30,4.08,-1.08,3.86
-3,-5,20,-36,-461,3905,-0.19,-0.12,7.49,-0.36,-4.61,39.05,-6.11,1.83,-2.33,4.15,-1.07,3.20
-3,1,15,-19,-475,3899,-0.19,-0.10,6.83,-0.19,-4.75,38.99,-6.12,1.81,-2.36,4.15,-1.19,3.17
2,12,17,22,-435,3878,-0.16,-0.02,6.26,0.22,-4.35,38.78,-6.12,1.80,-2.38,4.04,-1.42,2.72
1,11,33,-27,-485,3887,-0.14,0.05,5.83,-0.27,-4.85,38.87,-6.13,1.78,-2.41,4.06,-1.41,1.40
1,9,40,-52,-475,3895,-0.12,0.10,5.49,-0.52,-4.75,38.95,-6.14,1.77,-2.43,4.07,-1.38,0.73
-1,0,28,-40,-486,3876,-0.11,0.09,5.11,-0.40,-4.86,38.76,-6.16,1.76,-2.45,4.11,-1.19,1.34
-2,0,24,-19,-482,3888,-0.11,0.08,4.75,-0.19,-4.82,38.88,-6.16,1.75,-2.47,4.14,-1.18,1.41
-2,8,11,-21,-471,3915,-0.11,0.12,4.34,-0.21,-4.71,39.15,-6.17,1.73,-2.48,4.15,-1.34,2.06
-3,3,11,-33,-477,3929,-0.12,0.13,3.97,-0.33,-4.77,39.29,-6.18,1.72,-2.50,4.17,-1.23,1.86
8,7,34,5,-548,3875,-0.06,0.16,3.78,0.05,-5.48,38.75,-6.20,1.71,-2.51,3.94,-1.31,0.20
2,15,54,2,-549,3897,-0.04,0.23,3.73,0.02,-5.49,38.97,-6.21,1.70,-2.53,4.07,-1.49,-1.19
2,12,159,-49,-552,3854,-0.02,0.28,4.33,-0.49,-5.52,38.54,-6.22,1.69,-2.55,4.07,-1.44,-7.96
6,8,212,-14,-544,3957,0.01,0.30,5.19,-0.14,-5.44,39.57,-6.24,1.69,-2.57,3.99,-1.36,-11.07
3,8,242,-127,-369,3918,0.03,0.32,6.15,-1.27,-3.69,39.18,-6.22,1.69,-2.59,4.03,-1.37,-12.56
-5,3,220,-60,-310,3923,-0.00,0.31,6.88,-0.60,-3.10,39.23,-6.20,1.69,-2.62,4.19,-1.26,-10.66
3,11,121,-29,-456,3892,0.02,0.34,6.93,-0.29,-4.56,38.92,-6.21,1.68,-2.65,4.03,-1.42,-3.92
8,12,116,6,-450,3886,0.06,0.38,6.94,0.06,-4.50,38.86,-6.21,1.66,-2.67,3.92,-1.45,-3.57
1,1,114,7,-459,3849,0.06,0.35,6.94,0.07,-4.59,38.49,-6.21,1.65,-2.70,4.06,-1.21,-3.43
-3,-1,107,22,-458,3881,0.04,0.31,6.90,0.22,-4.58,38.81,-6.22,1.64,-2.73,4.15,-1.14,-2.97
-2,-3,81,41,-416,3880,0.02,0.26,6.70,0.41,-4.16,38.80,-6.22,1.62,-2.75,4.14,-1.08,-1.31
-2,-5,69,20,-415,3912,0.01,0.20,6.46,0.20,-4.15,39.12,-6.21,1.61,-2.78,4.14,-1.01,-0.64
1,-9,22,-9,-448,3909,0.01,0.13,5.94,-0.09,-4.48,39.09,-6.22,1.59,-2.80,4.08,-0.90,2.26
-4,-8,22,18,-447,3844,-0.01,0.07,5.48,0.18,-4.47,38.44,-6.22,1.58,-2.82,4.19,-0.90,2.01
-3,-15,23,-16,-477,3918,-0.03,-0.03,5.08,-0.16,-4.77,39.18,-6.23,1.56,-2.84,4.18,-0.72,1.72
-4,-17,21,-51,-476,3882,-0.05,-0.13,4.70,-0.51,-4.76,38.82,-6.24,1.55,-2.86,4.21,-0.64,1.64
-3,-4,15,-17,-466,3894,-0.06,-0.14,4.32,-0.17,-4.66,38.94,-6.25,1.54,-2.88,4.20,-0.89,1.84
-3,-8,15,-25,-478,3901,-0.08,-0.18,3.98,-0.25,-4.78,39.01,-6.26,1.52,-2.90,4.21,-0.79,1.65
1,-5,16,-32,-467,3901,-0.06,-0.19,3.68,-0.32,-4.67,39.01,-6.27,1.51,-2.91,4.13,-0.84,1.42
-1,-2,17,-52,-484,3903,-0.06,-0.18,3.41,-0.52,-4.84,39.03,-6.28,1.49,-2.92,4.18,-0.90,1.20
-2,5,13,-9,-471,3895,-0.07,-0.13,3.15,-0.09,-4.71,38.95,-6.29,1.48,-2.94,4.21,-1.04,1.33
-2,6,11,-7,-477,3895,-0.07,-0.08,2.90,-0.07,-4.77,38.95,-6.30,1.46,-2.95,4.22,-1.06,1.33
-2,3,9,6,-465,3898,-0.08,-0.06,2.67,0.06,-4.65,38.98,-6.30,1.45,-2.96,4.22,-1.00,1.33
-1,0,9,-2,-451,3895,-0.08,-0.05,2.46,-0.02,-4.51,38.95,-6.31,1.43,-2.97,4.20,-0.93,1.21
-3,3,15,-53,-483,3885,-0.09,-0.03,2.30,-0.53,-4.83,38.85,-6.32,1.42,-2.98,4.26,-0.99,0.72
-2,3,8,9,-477,3900,-0.09,-0.01,2.12,0.09,-4.77,39.00,-6.33,1.40,-2.98,4.24,-0.99,1.10
-10,5,10,-42,-442,3912,-0.14,0.02,1.97,-0.42,-4.42,39.12,-6.33,1.39,-2.99,4.42,-1.02,0.88
-6,9,9,-17,-461,3905,-0.17,0.08,1.83,-0.17,-4.61,39.05,-6.34,1.37,-3.00,4.35,-1.11,0.87
-8,-14,18,-14,-485,3972,-0.20,-0.02,1.75,-0.14,-4.85,39.72,-6.35,1.35,-3.01,4.40,-0.60,0.22
-8,-6,34,-62,-498,3778,-0.23,-0.05,1.79,-0.62,-4.98,37.78,-6.36,1.35,-3.01,4.42,-0.75,-0.85
-1,-2,112,22,-597,3866,-0.21,-0.06,2.29,0.22,-5.97,38.66,-6.38,1.34,-3.02,4.29,-0.83,-5.85
-8,-9,138,21,-566,3879,-0.24,-0.11,2.90,0.21,-5.66,38.79,-6.39,1.33,-3.03,4.45,-0.66,-7.27
0,-10,103,67,-418,3903,-0.21,-0.16,3.24,0.67,-4.18,39.03,-6.39,1.31,-3.05,4.28,-0.62,-4.71
1,-4,70,27,-457,3896,-0.19,-0.17,3.34,0.27,-4.57,38.96,-6.40,1.29,-3.06,4.25,-0.73,-2.41
2,-3,55,7,-472,3946,-0.16,-0.17,3.35,0.07,-4.72,39.46,-6.40,1.28,-3.07,4.23,-0.74,-1.39
2,-3,49,53,-513,3927,-0.13,-0.17,3.31,0.53,-5.13,39.27,-6.41,1.26,-3.09,4.22,-0.73,-1.00
12,23,89,4,-536,3938,-0.04,-0.01,3.52,0.04,-5.36,39.38,-6.42,1.25,-3.10,4.01,-1.29,-3.59
5,-7,95,5,-509,4032,-0.01,-0.05,3.75,0.05,-5.09,40.32,-6.43,1.24,-3.11,4.15,-0.66,-3.87
-5,14,162,21,-416,3883,-0.04,0.04,4.36,0.21,-4.16,38.83,-6.43,1.22,-3.13,4.35,-1.10,-8.06
3,9,170,59,-440,3996,-0.01,0.09,4.96,0.59,-4.40,39.96,-6.43,1.20,-3.15,4.18,-1.00,-8.26
-8,3,209,-15,-539,3801,-0.06,0.10,5.74,-0.15,-5.39,38.01,-6.44,1.20,-3.17,4.43,-0.88,-10.47
-3,8,212,-125,-536,3750,-0.07,0.14,6.46,-1.25,-5.36,37.50,-6.46,1.21,-3.20,4.34,-1.00,-10.26
4,-26,146,-15,-405,3947,-0.04,-0.04,6.71,-0.15,-4.05,39.47,-6.45,1.20,-3.23,4.19,-0.25,-5.65
-2,-16,128,-70,-474,3875,-0.05,-0.13,6.82,-0.70,-4.74,38.75,-6.47,1.19,-3.25,4.32,-0.43,-4.36
1,-13,108,104,-608,3894,-0.04,-0.20,6.79,1.04,-6.08,38.94,-6.48,1.18,-3.28,4.27,-0.46,-3.02
1,1,123,68,-657,3895,-0.03,-0.17,6.86,0.68,-6.57,38.95,-6.49,1.17,-3.31,4.27,-0.75,-3.99
0,7,194,70,-656,3886,-0.03,-0.11,7.36,0.70,-6.56,38.86,-6.51,1.17,-3.34,4.30,-0.88,-8.52
-6,9,219,79,-611,3909,-0.06,-0.04,7.96,0.79,-6.11,39.09,-6.52,1.16,-3.37,4.44,-0.93,-9.87
-20,-11,298,-117,-416,3958,-0.18,-0.11,8.98,-1.17,-4.16,39.58,-6.51,1.17,-3.40,4.75,-0.52,-14.65
-22,3,302,-71,-328,3872,-0.29,-0.08,9.93,-0.71,-3.28,38.72,-6.49,1.18,-3.44,4.81,-0.82,-14.38
-16,10,280,-87,-361,3933,-0.36,-0.01,10.64,-0.87,-3.61,39.33,-6.47,1.18,-3.49,4.69,-0.98,-12.48
-8,12,276,-104,-352,3891,-0.37,0.06,11.26,-1.04,-3.52,38.91,-6.45,1.19,-3.53,4.52,-1.05,-11.86
-5,2,181,-155,-339,3726,-0.37,0.07,11.24,-1.55,-3.39,37.26,-6.44,1.21,-3.58,4.45,-0.86,-5.43
2,3,134,42,-399,4025,-0.32,0.08,10.93,0.42,-3.99,40.25,-6.43,1.20,-3.62,4.29,-0.87,-2.40
-5,3,127,88,-554,3911,-0.32,0.09,10.61,0.88,-5.54,39.11,-6.44,1.19,-3.66,4.44,-0.87,-2.10
-12,7,146,17,-570,3872,-0.36,0.13,10.44,0.17,-5.70,38.72,-6.46,1.18,-3.70,4.61,-0.96,-3.48
-2,18,217,-6,-459,3926,-0.33,0.22,10.72,-0.06,-4.59,39.26,-6.46,1.17,-3.74,4.40,-1.20,-8.13
-14,-3,238,-22,-398,3963,-0.39,0.18,11.10,-0.22,-3.98,39.63,-6.45,1.16,-3.79,4.65,-0.76,-9.33
-11,-7,216,-53,-388,3802,-0.42,0.12,11.31,-0.53,-3.88,38.02,-6.44,1.16,-3.83,4.59,-0.65,-7.72
-13,2,197,-128,-350,3850,-0.45,0.12,11.38,-1.28,-3.50,38.50,-6.42,1.17,-3.88,4.63,-0.85,-6.38
8,4,67,-77,-362,3958,-0.36,0.13,10.65,-0.77,-3.62,39.58,-6.40,1.18,-3.92,4.16,-0.89,2.02
2,4,59,-44,-417,3894,-0.31,0.14,9.95,-0.44,-4.17,38.94,-6.40,1.17,-3.96,4.27,-0.89,2.18
5,12,106,42,-698,3888,-0.25,0.20,9.60,0.42,-6.98,38.88,-6.41,1.16,-4.00,4.20,-1.07,-1.20
-8,-11,178,95,-698,3908,-0.27,0.12,9.72,0.95,-6.98,39.08,-6.43,1.16,-4.04,4.48,-0.57,-6.00
-3,0,278,130,-612,3838,-0.26,0.10,10.45,1.30,-6.12,38.38,-6.44,1.15,-4.08,4.38,-0.79,-12.37
1,3,294,85,-553,4003,-0.23,0.11,11.20,0.85,-5.53,40.03,-6.45,1.14,-4.12,4.30,-0.84,-13.03
-10,-17,307,-150,-306,3977,-0.27,-0.00,11.95,-1.50,-3.06,39.77,-6.43,1.15,-4.17,4.52,-0.41,-13.48
1,-4,285,-182,-217,3853,-0.24,-0.03,12.49,-1.82,-2.17,38.53,-6.42,1.17,-4.22,4.28,-0.68,-11.67
-3,16,208,-171,-397,3785,-0.23,0.07,12.51,-1.71,-3.97,37.85,-6.41,1.19,-4.27,4.36,-1.13,-6.44
-3,8,184,-43,-312,3976,-0.23,0.11,12.38,-0.43,-3.12,39.76,-6.39,1.19,-4.32,4.34,-0.98,-4.87
3,8,140,63,-440,3908,-0.19,0.15,12.00,0.63,-4.40,39.08,-6.39,1.18,-4.37,4.21,-0.98,-2.10
3,11,135,67,-527,3880,-0.15,0.20,11.62,0.67,-5.27,38.80,-6.40,1.17,-4.41,4.21,-1.05,-1.97
-17,-5,215,6,-516,3900,-0.24,0.15,11.77,0.06,-5.16,39.00,-6.42,1.16,-4.46,4.65,-0.71,-7.30
-17,-3,259,19,-543,3939,-0.32,0.12,12.17,0.19,-5.43,39.39,-6.43,1.15,-4.51,4.68,-0.73,-10.05
-12,6,285,-118,-350,3757,-0.36,0.14,12.70,-1.18,-3.50,37.57,-6.41,1.17,-4.56,4.58,-0.93,-11.51
-5,14,270,-55,-388,3914,-0.35,0.22,13.07,-0.55,-3.88,39.14,-6.40,1.17,-4.61,4.42,-1.11,-10.27
4,-6,181,40,-344,3976,-0.29,0.16,12.87,0.40,-3.44,39.76,-6.39,1.16,-4.66,4.21,-0.69,-4.35
1,-6,143,22,-340,3907,-0.26,0.10,12.46,0.22,-3.40,39.07,-6.37,1.15,-4.71,4.26,-0.67,-2.00
10,7,108,82,-633,3938,-0.17,0.14,11.87,0.82,-6.33,39.38,-6.39,1.15,-4.76,4.06,-0.94,0.05
-7,-11,143,106,-654,3915,-0.20,0.06,11.55,1.06,-6.54,39.15,-6.40,1.14,-4.81,4.42,-0.54,-2.49
-4,4,212,71,-554,3940,-0.20,0.07,11.69,0.71,-5.54,39.40,-6.41,1.13,-4.85,4.37,-0.85,-7.08
6,-5,219,70,-479,3927,-0.14,0.04,11.86,0.70,-4.79,39.27,-6.42,1.12,-4.90,4.15,-0.65,-7.45
5,22,230,63,-242,3911,-0.10,0.17,12.08,0.63,-2.42,39.11,-6.40,1.11,-4.95,4.15,-1.23,-8.07
4,15,236,-80,-411,3916,-0.07,0.24,12.31,-0.80,-4.11,39.16,-6.38,1.12,-5.00,4.15,-1.11,-8.34
-15,3,172,-103,-293,3808,-0.15,0.24,12.13,-1.03,-2.93,38.08,-6.36,1.13,-5.04,4.55,-0.87,-4.10
-6,-2,126,-112,-288,3909,-0.17,0.20,11.68,-1.12,-2.88,39.09,-6.35,1.14,-5.09,4.36,-0.77,-1.22
-6,-12,35,-7,-452,3882,-0.19,0.11,10.73,-0.07,-4.52,38.82,-6.35,1.13,-5.13,4.37,-0.53,4.42
-2,-12,23,-31,-463,3923,-0.18,0.02,9.79,-0.31,-4.63,39.23,-6.36,1.12,-5.17,4.29,-0.50,4.71
4,5,21,-39,-508,3931,-0.14,0.05,8.94,-0.39,-5.08,39.31,-6.38,1.11,-5.21,4.17,-0.85,4.38
-1,5,21,-59,-492,3907,-0.13,0.08,8.18,-0.59,-4.92,39.07,-6.39,1.11,-5.24,4.28,-0.86,3.95
1,6,6,-12,-473,3893,-0.11,0.11,7.40,-0.12,-4.73,38.93,-6.40,1.10,-5.27,4.24,-0.88,4.53
1,5,9,-4,-478,3894,-0.10,0.13,6.71,-0.04,-4.78,38.94,-6.41,1.09,-5.30,4.24,-0.85,3.95
1,-4,8,25,-481,3889,-0.08,0.09,6.09,0.25,-4.81,38.89,-6.42,1.07,-5.32,4.24,-0.65,3.67
3,-5,9,14,-499,3889,-0.05,0.05,5.54,0.14,-4.99,38.89,-6.43,1.06,-5.34,4.20,-0.61,3.30
1,-12,60,100,-568,3946,-0.04,-0.03,5.35,1.00,-5.68,39.46,-6.44,1.05,-5.36,4.24,-0.44,-0.26
-2,-8,77,55,-534,3841,-0.05,-0.07,5.28,0.55,-5.34,38.41,-6.45,1.04,-5.38,4.31,-0.50,-1.45
-1,6,87,-90,-432,3903,-0.05,-0.03,5.28,-0.90,-4.32,39.03,-6.44,1.06,-5.40,4.29,-0.81,-2.12
-4,1,71,-170,-391,3823,-0.07,-0.02,5.19,-1.70,-3.91,38.23,-6.43,1.07,-5.42,4.35,-0.72,-1.09
-1,-5,22,-51,-446,3892,-0.07,-0.05,4.80,-0.51,-4.46,38.92,-6.44,1.06,-5.44,4.29,-0.58,2.02
-3,0,23,-13,-437,3912,-0.08,-0.04,4.46,-0.13,-4.37,39.12,-6.44,1.04,-5.46,4.33,-0.68,1.77
-3,1,12,-22,-490,3913,-0.09,-0.03,4.09,-0.22,-4.90,39.13,-6.45,1.03,-5.48,4.34,-0.69,2.30
-5,3,8,-18,-485,3905,-0.11,-0.01,3.73,-0.18,-4.85,39.05,-6.46,1.02,-5.49,4.40,-0.73,2.38
0,7,7,39,-503,3887,-0.10,0.03,3.40,0.39,-5.03,38.87,-6.47,1.00,-5.51,4.30,-0.81,2.26
-1,4,16,9,-462,3905,-0.10,0.05,3.16,0.09,-4.62,39.05,-6.48,0.99,-5.52,4.32,-0.75,1.52
1,-5,17,-14,-463,3895,-0.08,0.02,2.95,-0.14,-4.63,38.95,-6.48,0.97,-5.53,4.28,-0.54,1.33
3,-4,17,-3,-444,3888,-0.06,-0.01,2.76,-0.03,-4.44,38.88,-6.48,0.96,-5.54,4.23,-0.55,1.22
3,-3,16,-21,-456,3897,-0.03,-0.03,2.58,-0.21,-4.56,38.97,-6.49,0.94,-5.55,4.23,-0.55,1.19
5,-1,15,11,-472,3897,0.00,-0.03,2.41,0.11,-4.72,38.97,-6.50,0.92,-5.56,4.18,-0.58,1.17
1,-2,10,4,-484,3906,0.01,-0.04,2.23,0.04,-4.84,39.06,-6.50,0.91,-5.57,4.27,-0.55,1.41
1,-3,8,-8,-489,3887,0.01,-0.05,2.06,-0.08,-4.89,38.87,-6.52,0.89,-5.58,4.28,-0.51,1.45
1,3,6,7,-481,3893,0.02,-0.03,1.89,0.07,-4.81,38.93,-6.52,0.88,-5.58,4.28,-0.63,1.49
0,1,5,7,-481,3903,0.02,-0.02,1.73,0.07,-4.81,39.03,-6.53,0.86,-5.59,4.31,-0.58,1.47
-2,2,2,11,-464,3911,0.00,-0.01,1.57,0.11,-4.64,39.11,-6.54,0.85,-5.60,4.35,-0.60,1.58
-1,0,6,4,-454,3900,-0.00,-0.01,1.45,0.04,-4.54,39.00,-6.54,0.83,-5.60,4.34,-0.55,1.25
2,-5,8,-17,-443,3915,0.01,-0.04,1.35,-0.17,-4.43,39.15,-6.54,0.81,-5.61,4.27,-0.42,1.06
5,-2,4,3,-447,3914,0.04,-0.04,1.24,0.03,-4.47,39.14,-6.54,0.79,-5.61,4.20,-0.47,1.27
-7,-14,-89,166,-353,4020,-0.01,-0.13,0.57,1.66,-3.53,40.20,-6.53,0.78,-5.62,4.45,-0.19,7.20
-19,-27,-124,149,-360,3790,-0.12,-0.28,-0.24,1.49,-3.60,37.90,-6.52,0.76,-5.62,4.72,0.12,9.11
4,-21,-174,-30,-537,3885,-0.09,-0.38,-1.28,-0.30,-5.37,38.85,-6.54,0.75,-5.61,4.26,0.03,11.92
-12,-29,-152,65,-561,3860,-0.15,-0.52,-2.08,0.65,-5.61,38.60,-6.55,0.74,-5.60,4.61,0.25,9.98
-7,-46,-143,32,-458,3917,-0.18,-0.75,-2.74,0.32,-4.58,39.17,-6.56,0.71,-5.59,4.52,0.67,8.99
-2,-32,-150,19,-413,3864,-0.17,-0.87,-3.38,0.19,-4.13,38.64,-6.55,0.69,-5.58,4.41,0.43,9.11
3,-21,-244,-49,-337,3913,-0.14,-0.91,-4.53,-0.49,-3.37,39.13,-6.53,0.69,-5.56,4.29,0.22,14.83
25,8,-301,-183,-302,4049,0.03,-0.77,-5.92,-1.83,-3.02,40.49,-6.52,0.69,-5.54,3.79,-0.41,17.91
-7,-5,-247,-54,-459,4015,-0.02,-0.72,-6.83,-0.54,-4.59,40.15,-6.52,0.70,-5.51,4.45,-0.17,13.74
3,-5,-249,36,-405,3876,0.00,-0.68,-7.67,0.36,-4.05,38.76,-6.51,0.68,-5.48,4.24,-0.16,13.40
10,-2,-327,23,-456,3842,0.06,-0.62,-8.89,0.23,-4.56,38.42,-6.52,0.66,-5.45,4.08,-0.22,17.99
1,3,-364,-2,-379,3843,0.06,-0.54,-10.23,-0.02,-3.79,38.43,-6.50,0.64,-5.41,4.25,-0.34,19.74
16,-4,-467,130,-480,3886,0.15,-0.51,-12.05,1.30,-4.80,38.86,-6.51,0.61,-5.36,3.93,-0.18,20.00
17,-1,-474,109,-525,3852,0.24,-0.47,-13.74,1.09,-5.25,38.52,-6.51,0.59,-5.30,3.89,-0.24,20.00
1,-5,-512,153,-679,3890,0.22,-0.45,-15.49,1.53,-6.79,38.90,-6.53,0.57,-5.24,4.23,-0.15,20.00
19,-24,-539,112,-673,3817,0.32,-0.55,-17.23,1.12,-6.73,38.17,-6.54,0.55,-5.17,3.85,0.28,20.00
-5,-32,-521,-25,-500,3810,0.26,-0.69,-18.68,-0.25,-5.00,38.10,-6.56,0.54,-5.10,4.36,0.49,20.00
6,-37,-532,-107,-363,4008,0.27,-0.85,-20.06,-1.07,-3.63,40.08,-6.55,0.53,-5.02,4.13,0.63,20.00
12,5,-402,-306,-490,3908,0.31,-0.73,-20.51,-3.06,-4.90,39.08,-6.55,0.54,-4.94,3.99,-0.26,16.48
4,17,-337,-315,-542,3866,0.31,-0.56,-20.51,-3.15,-5.42,38.66,-6.55,0.55,-4.86,4.16,-0.55,12.06
12,0,-178,34,-663,3756,0.35,-0.50,-19.55,0.34,-6.63,37.56,-6.57,0.53,-4.78,4.00,-0.21,1.81
4,2,-139,-48,-665,3896,0.34,-0.44,-18.44,-0.48,-6.65,38.96,-6.59,0.52,-4.71,4.17,-0.26,-0.22
4,-1,-10,-11,-486,3879,0.33,-0.40,-16.66,-0.11,-4.86,38.79,-6.60,0.50,-4.64,4.19,-0.20,-7.97
5,4,-9,21,-494,3903,0.33,-0.34,-15.04,0.21,-4.94,39.03,-6.61,0.48,-4.58,4.17,-0.30,-7.14
-1,-1,-8,-2,-463,3905,0.29,-0.31,-13.59,-0.02,-4.63,39.05,-6.62,0.45,-4.53,4.31,-0.19,-6.40
-2,0,-9,-43,-471,3919,0.25,-0.28,-12.29,-0.43,-4.71,39.19,-6.63,0.46,-4.48,4.35,-0.23,-5.61
-1,1,9,-5,-462,3902,0.22,-0.24,-11.00,-0.05,-4.62,39.02,-6.64,0.43,-4.43,4.34,-0.24,-6.12
-2,2,7,35,-471,3879,0.18,-0.21,-9.86,0.35,-4.71,38.79,-6.64,0.41,-4.40,4.37,-0.25,-5.35
-4,-4,-11,30,-455,3913,0.14,-0.21,-8.94,0.30,-4.55,39.13,-6.64,0.39,-4.36,4.43,-0.12,-3.62
-8,-5,-12,32,-436,3913,0.08,-0.22,-8.12,0.32,-4.36,39.13,-6.64,0.36,-4.33,4.52,-0.08,-3.09
-8,-7,-37,1,-439,3933,0.02,-0.24,-7.53,0.01,-4.39,39.33,-6.62,0.35,-4.30,4.53,-0.02,-1.07
-5,-2,-42,-24,-449,3924,-0.01,-0.23,-7.04,-0.24,-4.49,39.24,-6.61,0.34,-4.27,4.47,-0.12,-0.46
-1,-1,-25,-17,-473,3890,-0.02,-0.21,-6.48,-0.17,-4.73,38.90,-6.62,0.33,-4.25,4.40,-0.14,-1.31
1,-2,-23,-8,-463,3869,-0.01,-0.20,-5.98,-0.08,-4.63,38.69,-6.64,0.32,-4.22,4.36,-0.11,-1.16
-3,-6,-37,-5,-498,3879,-0.03,-0.22,-5.60,-0.05,-4.98,38.79,-6.65,0.31,-4.20,4.46,-0.02,-0.01
-3,-10,-25,4,-552,3925,-0.04,-0.26,-5.20,0.04,-5.52,39.25,-6.67,0.30,-4.18,4.48,0.08,-0.59
-2,-10,-3,-4,-444,3880,-0.05,-0.29,-4.70,-0.04,-4.44,38.80,-6.66,0.28,-4.16,4.45,0.10,-1.81
-1,-8,-28,8,-409,3925,-0.05,-0.31,-4.40,0.08,-4.09,39.25,-6.65,0.27,-4.14,4.42,0.07,0.05
13,-2,-98,-89,-405,3832,0.03,-0.29,-4.55,-0.89,-4.05,38.32,-6.64,0.28,-4.12,4.11,-0.06,4.71
9,-7,-96,-83,-431,3885,0.08,-0.31,-4.68,-0.83,-4.31,38.85,-6.63,0.29,-4.11,4.17,0.03,4.49
2,-14,-13,75,-584,3904,0.09,-0.36,-4.30,0.75,-5.84,39.04,-6.65,0.28,-4.09,4.32,0.20,-0.92
1,-13,-8,45,-538,3897,0.09,-0.41,-3.91,0.45,-5.38,38.97,-6.66,0.26,-4.07,4.35,0.20,-1.04
1,-6,6,-18,-473,3901,0.08,-0.40,-3.49,-0.18,-4.73,39.01,-6.68,0.26,-4.06,4.37,0.06,-1.75
2,-4,7,-6,-467,3884,0.09,-0.39,-3.10,-0.06,-4.67,38.84,-6.69,0.25,-4.05,4.35,0.02,-1.60
-5,2,9,-20,-468,3904,0.05,-0.33,-2.73,-0.20,-4.68,39.04,-6.71,0.25,-4.04,4.52,-0.11,-1.54
-4,6,9,-12,-475,3889,0.02,-0.26,-2.40,-0.12,-4.75,38.89,-6.73,0.24,-4.03,4.52,-0.21,-1.35
-4,-1,8,6,-480,3885,-0.01,-0.24,-2.11,0.06,-4.80,38.85,-6.74,0.23,-4.02,4.53,-0.06,-1.13
-5,-2,8,-6,-475,3908,-0.04,-0.23,-1.85,-0.06,-4.75,39.08,-6.75,0.21,-4.01,4.57,-0.04,-0.98
-5,-11,7,-41,-498,3921,-0.06,-0.28,-1.63,-0.41,-4.98,39.21,-6.77,0.22,-4.01,4.59,0.15,-0.79
-5,-17,7,39,-425,3883,-0.09,-0.35,-1.42,0.39,-4.25,38.83,-6.76,0.21,-4.00,4.59,0.31,-0.67
-6,-13,7,-26,-422,3896,-0.12,-0.40,-1.24,-0.26,-4.22,38.96,-6.74,0.21,-4.00,4.60,0.23,-0.57
-7,-7,5,-3,-431,3863,-0.15,-0.40,-1.08,-0.03,-4.31,38.63,-6.73,0.20,-3.99,4.62,0.12,-0.35
-3,-6,-9,2,-475,3915,-0.15,-0.40,-1.03,0.02,-4.75,39.15,-6.74,0.18,-3.99,4.55,0.11,0.63
1,-5,-10,3,-483,3888,-0.13,-0.39,-0.99,0.03,-4.83,38.88,-6.75,0.17,-3.98,4.47,0.09,0.72
3,-1,2,14,-502,3889,-0.10,-0.35,-0.88,0.14,-5.02,38.89,-6.77,0.16,-3.98,4.43,0.01,-0.03
2,-1,9,11,-482,3898,-0.08,-0.32,-0.73,0.11,-4.82,38.98,-6.78,0.14,-3.98,4.46,0.01,-0.42
4,0,18,-1,-455,3907,-0.04,-0.29,-0.55,-0.01,-4.55,39.07,-6.77,0.13,-3.98,4.40,-0.01,-0.93
5,4,7,-3,-416,3860,-0.01,-0.24,-0.45,-0.03,-4.16,38.60,-6.75,0.13,-3.97,4.36,-0.10,-0.13
2,-5,-17,-17,-435,3901,0.00,-0.25,-0.51,-0.17,-4.35,39.01,-6.73,0.13,-3.97,4.40,0.08,1.46
4,-9,-24,19,-449,3932,0.03,-0.28,-0.61,0.19,-4.49,39.32,-6.72,0.11,-3.97,4.35,0.18,1.88
-6,-4,-38,-1,-584,3914,-0.01,-0.27,-0.78,-0.01,-5.84,39.14,-6.74,0.11,-3.97,4.58,0.08,2.73
-12,-2,-16,-34,-570,3876,-0.08,-0.26,-0.80,-0.34,-5.70,38.76,-6.76,0.11,-3.96,4.73,0.04,1.23
-8,5,1,-3,-513,3905,-0.12,-0.20,-0.71,-0.03,-5.13,39.05,-6.78,0.11,-3.96,4.67,-0.12,0.13
-11,1,6,-8,-468,3900,-0.18,-0.18,-0.60,-0.08,-4.68,39.00,-6.80,0.11,-3.96,4.76,-0.05,-0.15
6,4,3,-2,-498,3881,-0.12,-0.13,-0.52,-0.02,-4.98,38.81,-6.82,0.11,-3.96,4.41,-0.12,0.10
1,3,-1,7,-472,3900,-0.11,-0.10,-0.48,0.07,-4.72,39.00,-6.82,0.09,-3.95,4.51,-0.09,0.39
3,3,6,0,-442,3899,-0.08,-0.07,-0.39,0.00,-4.42,38.99,-6.81,0.09,-3.95,4.45,-0.10,-0.03
3,1,8,27,-488,3868,-0.05,-0.06,-0.31,0.27,-4.88,38.68,-6.82,0.07,-3.95,4.45,-0.05,-0.12
2,0,10,5,-474,3899,-0.03,-0.05,-0.21,0.05,-4.74,38.99,-6.83,0.06,-3.95,4.48,-0.02,-0.21
1,0,12,-3,-456,3893,-0.02,-0.05,-0.12,-0.03,-4.56,38.93,-6.81,0.05,-3.95,4.48,-0.02,-0.29
-9,-7,-1,19,-424,3850,-0.08,-0.09,-0.11,0.19,-4.24,38.50,-6.80,0.04,-3.95,4.69,0.14,0.60
3,9,-15,17,-453,3896,-0.05,-0.02,-0.19,0.17,-4.53,38.96,-6.79,0.03,-3.95,4.43,-0.20,1.50
0,5,-5,-11,-517,3890,-0.05,0.01,-0.21,-0.11,-5.17,38.90,-6.81,0.03,-3.95,4.50,-0.12,0.82
-1,5,2,-4,-497,3889,-0.05,0.04,-0.17,-0.04,-4.97,38.89,-6.82,0.03,-3.95,4.54,-0.13,0.36
-2,4,9,9,-473,3891,-0.05,0.06,-0.10,0.09,-4.73,38.91,-6.83,0.02,-3.95,4.57,-0.11,-0.07
0,2,9,10,-469,3893,-0.05,0.07,-0.04,0.10,-4.69,38.93,-6.84,-0.00,-3.95,4.53,-0.06,-0.04
-1,7,6,1,-452,3892,-0.05,0.10,0.00,0.01,-4.52,38.92,-6.82,-0.00,-3.95,4.54,-0.17,0.19
0,2,-5,14,-458,3871,-0.05,0.10,-0.03,0.14,-4.58,38.71,-6.81,-0.02,-3.95,4.51,-0.06,0.92
0,2,-31,65,-410,3890,-0.04,0.11,-0.21,0.65,-4.10,38.90,-6.80,-0.03,-3.95,4.50,-0.05,2.57
1,3,-46,70,-408,3905,-0.03,0.11,-0.47,0.70,-4.08,39.05,-6.79,-0.05,-3.94,4.47,-0.06,3.44
7,8,-137,1,-430,3855,0.02,0.15,-1.26,0.01,-4.30,38.55,-6.77,-0.04,-3.94,4.32,-0.17,9.17
3,15,-175,-36,-369,3848,0.03,0.23,-2.20,-0.36,-3.69,38.48,-6.76,-0.04,-3.93,4.39,-0.34,11.22
10,-2,-302,14,-305,3746,0.09,0.19,-3.82,0.14,-3.05,37.46,-6.74,-0.04,-3.92,4.22,0.01,18.91
17,11,-371,-67,-223,3882,0.18,0.24,-5.70,-0.67,-2.23,38.82,-6.72,-0.04,-3.89,4.04,-0.27,20.00
11,2,-524,-65,-354,3972,0.23,0.23,-8.33,-0.65,-3.54,39.72,-6.70,-0.03,-3.86,4.14,-0.08,20.00
1,-14,-571,-61,-383,3819,0.22,0.12,-10.98,-0.61,-3.83,38.19,-6.69,-0.02,-3.82,4.34,0.27,20.00
-8,-23,-644,-165,-403,3804,0.15,-0.03,-13.81,-1.65,-4.03,38.04,-6.68,-0.01,-3.76,4.53,0.48,20.00
15,7,-657,-94,-447,3948,0.22,0.01,-16.44,-0.94,-4.47,39.48,-6.68,-0.00,-3.70,4.04,-0.15,20.00
29,11,-617,-202,-318,4031,0.38,0.08,-18.56,-2.02,-3.18,40.31,-6.67,0.01,-3.62,3.71,-0.25,20.00
22,-2,-583,-204,-278,3789,0.47,0.06,-20.26,-2.04,-2.78,37.89,-6.65,0.01,-3.54,3.82,0.02,20.00
51,28,-578,-14,-668,4031,0.74,0.22,-21.76,-0.14,-6.68,40.31,-6.67,0.00,-3.45,3.16,-0.63,20.00
7,-21,-586,5,-759,3905,0.71,0.07,-23.16,0.05,-7.59,39.05,-6.68,-0.01,-3.36,4.08,0.41,20.00
-2,3,-602,176,-530,3886,0.62,0.08,-24.51,1.76,-5.30,38.86,-6.69,-0.04,-3.27,4.29,-0.06,20.00
7,17,-589,177,-504,4028,0.60,0.18,-25.65,1.77,-5.04,40.28,-6.69,-0.06,-3.16,4.11,-0.35,20.00
3,7,-583,116,-604,3851,0.56,0.20,-26.65,1.16,-6.04,38.51,-6.70,-0.09,-3.06,4.21,-0.14,20.00
1,1,-580,120,-524,3697,0.51,0.19,-27.52,1.20,-5.24,36.97,-6.71,-0.11,-2.95,4.27,0.00,20.00
0,4,-601,186,-557,3738,0.46,0.20,-28.43,1.86,-5.57,37.38,-6.72,-0.14,-2.83,4.31,-0.04,20.00
0,-15,-624,268,-467,3877,0.41,0.08,-29.40,2.68,-4.67,38.77,-6.72,-0.17,-2.72,4.32,0.40,20.00
22,-3,-656,163,-665,3832,0.51,0.06,-30.46,1.63,-6.65,38.32,-6.73,-0.20,-2.60,3.86,0.18,20.00
7,-33,-677,44,-677,3830,0.50,-0.15,-31.54,0.44,-6.77,38.30,-6.75,-0.22,-2.47,4.17,0.85,20.00
5,-10,-627,36,-276,3941,0.48,-0.20,-32.21,0.36,-2.76,39.41,-6.73,-0.23,-2.34,4.21,0.41,20.00
-3,-32,-588,-56,-311,4117,0.41,-0.37,-32.58,-0.56,-3.11,41.17,-6.71,-0.24,-2.21,4.37,0.91,20.00
27,-3,-497,-38,-444,3938,0.54,-0.35,-32.35,-0.38,-4.44,39.38,-6.70,-0.24,-2.09,3.73,0.32,15.85
22,-22,-507,-149,-568,3832,0.62,-0.45,-32.21,-1.49,-5.68,38.32,-6.71,-0.24,-1.96,3.81,0.73,16.58
8,-1,-489,-18,-464,3834,0.60,-0.41,-31.97,-0.18,-4.64,38.34,-6.71,-0.24,-1.83,4.10,0.29,15.48
20,-10,-491,-112,-568,3869,0.67,-0.43,-31.77,-1.12,-5.68,38.69,-6.72,-0.25,-1.71,3.85,0.48,15.71
-10,-19,-574,16,-823,3842,0.54,-0.50,-32.09,0.16,-8.23,38.42,-6.73,-0.26,-1.58,4.50,0.70,20.00
19,-25,-598,68,-374,3929,0.60,-0.61,-32.53,0.68,-3.74,39.29,-6.71,-0.29,-1.45,3.88,0.87,20.00
27,-25,-660,2,-330,3939,0.71,-0.70,-33.31,0.02,-3.30,39.39,-6.69,-0.31,-1.32,3.68,0.90,20.00
30,-12,-706,-131,-323,3764,0.82,-0.70,-34.28,-1.31,-3.23,37.64,-6.68,-0.31,-1.18,3.57,0.64,20.00
35,-27,-804,-221,-727,3951,0.95,-0.80,-35.76,-2.21,-7.27,39.51,-6.69,-0.32,-1.04,3.44,0.98,20.00
12,-52,-828,25,-694,3868,0.93,-1.03,-37.23,0.25,-6.94,38.68,-6.70,-0.34,-0.89,3.93,1.56,20.00
-6,14,-668,-109,-432,3754,0.80,-0.85,-37.58,-1.09,-4.32,37.54,-6.69,-0.34,-0.74,4.32,0.17,20.00
18,5,-636,-183,-615,4139,0.83,-0.73,-37.71,-1.83,-6.15,41.39,-6.70,-0.35,-0.59,3.83,0.33,20.00
-7,-26,-545,-58,-750,3811,0.70,-0.82,-37.26,-0.58,-7.50,38.11,-6.71,-0.36,-0.45,4.38,0.99,16.10
0,-25,-516,55,-752,3837,0.63,-0.89,-36.68,0.55,-7.52,38.37,-6.73,-0.39,-0.30,4.27,1.00,14.44
-8,-32,-446,111,-463,3960,0.52,-0.99,-35.73,1.11,-4.63,39.60,-6.72,-0.42,-0.16,4.46,1.20,10.20
8,-1,-448,159,-220,4017,0.52,-0.90,-34.89,1.59,-2.20,40.17,-6.71,-0.45,-0.02,4.12,0.56,10.79
-5,-6,-424,-117,-287,3995,0.43,-0.85,-33.99,-1.17,-2.87,39.95,-6.69,-0.46,0.11,4.40,0.66,9.65
30,6,-424,-173,-407,3699,0.57,-0.73,-33.18,-1.73,-4.07,36.99,-6.68,-0.46,0.24,3.64,0.38,10.08
2,-2,-344,40,-549,3750,0.53,-0.66,-31.96,0.40,-5.49,37.50,-6.70,-0.48,0.37,4.24,0.54,5.33
-2,-8,-354,78,-650,3991,0.46,-0.65,-30.92,0.78,-6.50,39.91,-6.71,-0.50,0.49,4.34,0.67,6.57
12,-24,-460,105,-460,3884,0.49,-0.73,-30.64,1.05,-4.60,38.84,-6.71,-0.54,0.61,4.05,1.04,13.90
-5,-12,-477,113,-442,3954,0.41,-0.73,-30.48,1.13,-4.42,39.54,-6.70,-0.57,0.74,4.41,0.82,15.12
11,-6,-546,-52,-376,3833,0.44,-0.69,-30.76,-0.52,-3.76,38.33,-6.69,-0.57,0.86,4.07,0.69,19.62
12,-12,-540,-123,-477,3991,0.47,-0.70,-30.98,-1.23,-4.77,39.91,-6.69,-0.57,0.98,4.04,0.81,19.07
3,-16,-540,-12,-393,3814,0.44,-0.72,-31.18,-0.12,-3.93,38.14,-6.67,-0.58,1.10,4.22,0.90,18.94
11,-20,-514,-81,-447,3920,0.46,-0.77,-31.20,-0.81,-4.47,39.20,-6.66,-0.58,1.23,4.05,1.00,17.15
-4,-40,-486,46,-584,3871,0.39,-0.94,-31.04,0.46,-5.84,38.71,-6.68,-0.60,1.35,4.38,1.46,15.32
7,-10,-494,68,-555,3762,0.39,-0.91,-30.95,0.68,-5.55,37.62,-6.69,-0.62,1.47,4.17,0.86,15.90
11,-11,-527,-14,-570,3928,0.42,-0.88,-31.07,-0.14,-5.70,39.28,-6.71,-0.63,1.60,4.09,0.88,18.05
13,-7,-536,-108,-522,3819,0.46,-0.84,-31.23,-1.08,-5.22,38.19,-6.71,-0.63,1.72,4.04,0.79,18.55
4,-28,-480,76,-459,3954,0.44,-0.93,-31.04,0.76,-4.59,39.54,-6.71,-0.67,1.84,4.22,1.26,14.84
10,9,-468,8,-581,3857,0.46,-0.78,-30.79,0.08,-5.81,38.57,-6.72,-0.68,1.96,4.11,0.48,14.15
13,-19,-464,9,-326,3763,0.49,-0.82,-30.54,0.09,-3.26,37.63,-6.70,-0.69,2.08,4.02,1.06,14.00
17,-11,-439,-65,-428,3913,0.54,-0.80,-30.16,-0.65,-4.28,39.13,-6.69,-0.69,2.20,3.92,0.90,12.50
-8,-23,-366,-107,-676,3926,0.44,-0.86,-29.38,-1.07,-6.76,39.26,-6.70,-0.70,2.32,4.47,1.16,7.97
-15,-31,-323,64,-468,3938,0.30,-0.96,-28.41,0.64,-4.68,39.38,-6.71,-0.73,2.43,4.65,1.38,5.58
24,26,-308,-117,-349,3753,0.42,-0.71,-27.45,-1.17,-3.49,37.53,-6.69,-0.73,2.54,3.81,0.15,5.09
3,-2,-307,-167,-509,4139,0.40,-0.65,-26.58,-1.67,-5.09,41.39,-6.69,-0.73,2.65,4.25,0.70,5.50
0,-22,-263,-141,-343,3904,0.36,-0.72,-25.52,-1.41,-3.43,39.04,-6.68,-0.73,2.75,4.31,1.12,3.09
0,-1,-237,-85,-461,3828,0.32,-0.65,-24.42,-0.85,-4.61,38.28,-6.68,-0.72,2.84,4.32,0.68,1.94
7,-5,-203,-104,-487,3968,0.33,-0.62,-23.21,-1.04,-4.87,39.68,-6.68,-0.72,2.94,4.18,0.74,0.29
0,-10,-203,-57,-503,3815,0.30,-0.62,-22.13,-0.57,-5.03,38.15,-6.69,-0.71,3.02,4.33,0.84,0.89
4,5,-244,25,-446,3907,0.29,-0.53,-21.41,0.25,-4.46,39.07,-6.68,-0.71,3.11,4.24,0.51,4.06
8,5,-254,19,-425,3891,0.31,-0.44,-20.81,0.19,-4.25,38.91,-6.66,-0.71,3.19,4.15,0.49,5.06
-2,2,-273,-17,-566,3969,0.27,-0.39,-20.40,-0.17,-5.66,39.69,-6.67,-0.71,3.27,4.37,0.53,6.57
1,1,-307,65,-517,3771,0.25,-0.34,-20.23,0.65,-5.17,37.71,-6.69,-0.72,3.35,4.33,0.55,8.95
20,-16,-307,-41,-327,3874,0.35,-0.41,-20.08,-0.41,-3.27,38.74,-6.67,-0.72,3.43,3.90,0.91,9.03
15,4,-279,-100,-367,3957,0.40,-0.34,-19.77,-1.00,-3.67,39.57,-6.66,-0.72,3.51,3.98,0.49,7.29
7,4,-205,-83,-455,3877,0.41,-0.28,-19.05,-0.83,-4.55,38.77,-6.66,-0.71,3.59,4.14,0.46,2.67
8,9,-187,-98,-409,3933,0.41,-0.20,-18.28,-0.98,-4.09,39.33,-6.65,-0.70,3.66,4.11,0.34,1.87
5,2,-198,-64,-427,3927,0.40,-0.17,-17.66,-0.64,-4.27,39.27,-6.64,-0.69,3.73,4.17,0.46,2.95
4,-3,-215,-26,-450,3846,0.39,-0.17,-17.21,-0.26,-4.50,38.46,-6.64,-0.68,3.80,4.20,0.56,4.35
13,-3,-280,65,-435,3855,0.43,-0.17,-17.20,0.65,-4.35,38.55,-6.63,-0.71,3.87,3.99,0.57,8.75
10,-3,-281,-8,-424,3904,0.45,-0.17,-17.19,-0.08,-4.24,39.04,-6.62,-0.70,3.93,4.04,0.57,8.81
7,-2,-145,-60,-530,3893,0.44,-0.17,-16.36,-0.60,-5.30,38.93,-6.62,-0.69,4.00,4.11,0.54,0.05
-1,-7,-62,-98,-520,3861,0.39,-0.19,-15.10,-0.98,-5.20,38.61,-6.63,-0.68,4.06,4.29,0.65,-4.88
3,0,3,-21,-465,3925,0.37,-0.17,-13.57,-0.21,-4.65,39.25,-6.63,-0.67,4.11,4.21,0.49,-8.43
-2,0,5,4,-435,3927,0.32,-0.16,-12.18,0.04,-4.35,39.27,-6.62,-0.66,4.16,4.32,0.48,-7.80
5,12,-42,24,-357,3906,0.32,-0.07,-11.22,0.24,-3.57,39.06,-6.60,-0.67,4.21,4.17,0.21,-4.08
15,18,-63,-6,-369,3943,0.38,0.05,-10.48,-0.06,-3.69,39.43,-6.58,-0.66,4.25,3.94,0.06,-2.25
4,7,-109,-103,-382,3897,0.37,0.09,-10.10,-1.03,-3.82,38.97,-6.57,-0.65,4.29,4.16,0.26,1.08
3,1,-113,-70,-340,3886,0.35,0.08,-9.78,-0.70,-3.40,38.86,-6.56,-0.64,4.33,4.17,0.38,1.52
7,-5,-206,-126,-164,3847,0.36,0.05,-10.06,-1.26,-1.64,38.47,-6.54,-0.63,4.37,4.08,0.51,7.66
6,0,-250,-171,-192,3808,0.36,0.04,-10.58,-1.71,-1.92,38.08,-6.53,-0.63,4.41,4.09,0.40,10.35
9,-19,-397,-180,-326,3884,0.38,-0.08,-11.94,-1.80,-3.26,38.84,-6.51,-0.62,4.46,4.01,0.81,19.54
1,-25,-436,-120,-359,4002,0.34,-0.22,-13.41,-1.20,-3.59,40.02,-6.50,-0.61,4.51,4.18,0.97,20.00
5,-13,-477,-176,-485,3886,0.34,-0.28,-14.98,-1.76,-4.85,38.86,-6.50,-0.60,4.57,4.10,0.73,20.00
22,-10,-488,-138,-429,3913,0.44,-0.31,-16.45,-1.38,-4.29,39.13,-6.50,-0.59,4.63,3.72,0.68,20.00
18,-14,-522,-98,-489,3924,0.51,-0.37,-17.99,-0.98,-4.89,39.24,-6.50,-0.58,4.71,3.79,0.77,20.00
10,-7,-522,-140,-427,3729,0.52,-0.37,-19.38,-1.40,-4.27,37.29,-6.50,-0.57,4.78,3.95,0.62,20.00
14,-15,-537,-74,-447,4094,0.55,-0.43,-20.72,-0.74,-4.47,40.94,-6.49,-0.56,4.87,3.85,0.79,20.00
25,-9,-542,23,-331,3820,0.65,-0.44,-21.95,0.23,-3.31,38.20,-6.47,-0.57,4.95,3.59,0.68,20.00
23,8,-566,-81,-442,3823,0.72,-0.35,-23.21,-0.81,-4.42,38.23,-6.47,-0.57,5.04,3.61,0.31,20.00
7,-10,-570,-84,-424,3918,0.69,-0.37,-24.36,-0.84,-4.24,39.18,-6.46,-0.56,5.14,3.93,0.68,20.00
4,-18,-605,53,-334,3975,0.65,-0.45,-25.62,0.53,-3.34,39.75,-6.44,-0.58,5.24,3.99,0.87,20.00
41,-14,-627,-68,-389,3782,0.83,-0.49,-26.88,-0.68,-3.89,37.82,-6.43,-0.57,5.35,3.18,0.80,20.00
35,-23,-636,-169,-663,3731,0.96,-0.58,-28.07,-1.69,-6.63,37.31,-6.44,-0.58,5.46,3.28,1.01,20.00
12,-47,-618,-84,-752,3926,0.94,-0.81,-29.04,-0.84,-7.52,39.26,-6.45,-0.59,5.58,3.76,1.56,20.00
-7,-17,-418,211,-782,3951,0.80,-0.83,-28.68,2.11,-7.82,39.51,-6.46,-0.61,5.69,4.19,0.97,11.38
-14,-5,-363,119,-699,4047,0.64,-0.78,-28.03,1.19,-6.99,40.47,-6.48,-0.63,5.80,4.39,0.73,8.01
10,10,-278,-72,-490,3811,0.64,-0.64,-26.92,-0.72,-4.90,38.11,-6.48,-0.63,5.91,3.90,0.39,2.85
-11,4,-268,-84,-524,3877,0.50,-0.55,-25.86,-0.84,-5.24,38.77,-6.49,-0.63,6.01,4.37,0.48,2.75
1,-10,-281,-81,-309,3915,0.46,-0.56,-24.99,-0.81,-3.09,39.15,-6.47,-0.63,6.11,4.13,0.77,4.11
9,2,-285,-117,-307,3916,0.47,-0.49,-24.23,-1.17,-3.07,39.16,-6.46,-0.63,6.20,3.95,0.51,4.79
16,11,-331,-24,-232,3981,0.52,-0.37,-23.83,-0.24,-2.32,39.81,-6.44,-0.64,6.30,3.78,0.30,8.12
17,-4,-383,-133,-177,3927,0.57,-0.36,-23.78,-1.33,-1.77,39.27,-6.42,-0.64,6.39,3.73,0.60,11.66
31,-5,-487,-239,-466,3863,0.70,-0.35,-24.37,-2.39,-4.66,38.63,-6.42,-0.63,6.49,3.41,0.61,18.36
6,-26,-507,45,-424,3958,0.67,-0.48,-25.03,0.45,-4.24,39.58,-6.40,-0.65,6.59,3.92,1.08,19.33
14,14,-533,-21,-278,3978,0.69,-0.34,-25.78,-0.21,-2.78,39.78,-6.37,-0.65,6.69,3.73,0.24,20.00
9,0,-540,-119,-356,3899,0.67,-0.31,-26.49,-1.19,-3.56,38.99,-6.36,-0.65,6.80,3.83,0.51,20.00
22,-16,-632,-83,-309,3961,0.74,-0.38,-27.70,-0.83,-3.09,39.61,-6.34,-0.65,6.91,3.54,0.86,20.00
14,-38,-645,-54,-359,3949,0.75,-0.57,-28.86,-0.54,-3.59,39.49,-6.33,-0.65,7.02,3.69,1.36,20.00
9,-2,-681,50,-590,3998,0.73,-0.53,-30.13,0.50,-5.90,39.98,-6.34,-0.67,7.14,3.80,0.62,20.00
22,-11,-701,110,-620,3942,0.79,-0.54,-31.39,1.10,-6.20,39.42,-6.36,-0.69,7.27,3.53,0.82,20.00
13,-9,-757,176,-756,3886,0.79,-0.54,-32.87,1.76,-7.56,38.86,-6.37,-0.71,7.40,3.72,0.80,20.00
29,4,-774,149,-794,3779,0.89,-0.46,-34.31,1.49,-7.94,37.79,-6.38,-0.73,7.53,3.38,0.53,20.00
10,-13,-778,181,-736,3969,0.86,-0.50,-35.62,1.81,-7.36,39.69,-6.39,-0.76,7.67,3.78,0.90,20.00
12,-4,-789,191,-734,3788,0.85,-0.47,-36.87,1.91,-7.34,37.88,-6.40,-0.78,7.82,3.75,0.73,20.00
13,-10,-810,141,-644,3869,0.84,-0.48,-38.13,1.41,-6.44,38.69,-6.41,-0.81,7.97,3.74,0.87,20.00
7,-13,-813,74,-594,3869,0.80,-0.52,-39.27,0.74,-5.94,38.69,-6.43,-0.83,8.13,3.88,0.95,20.00
14,-18,-745,-71,-454,4023,0.81,-0.57,-39.89,-0.71,-4.54,40.23,-6.42,-0.83,8.28,3.73,1.07,20.00
22,-20,-705,-77,-337,3886,0.86,-0.64,-40.20,-0.77,-3.37,38.86,-6.40,-0.84,8.44,3.54,1.13,20.00
10,-25,-543,-168,-335,3912,0.84,-0.73,-39.49,-1.68,-3.35,39.12,-6.39,-0.84,8.60,3.79,1.26,13.35
16,-6,-491,-174,-327,3904,0.85,-0.69,-38.54,-1.74,-3.27,39.04,-6.38,-0.85,8.75,3.65,0.87,10.34
9,-3,-351,-188,-445,3915,0.82,-0.64,-36.83,-1.88,-4.45,39.15,-6.37,-0.85,8.90,3.80,0.79,1.79
2,-21,-296,-88,-384,3876,0.75,-0.70,-34.95,-0.88,-3.84,38.76,-6.36,-0.85,9.04,3.95,1.18,-0.90
8,-8,-255,-115,-202,3898,0.72,-0.68,-33.01,-1.15,-2.02,38.98,-6.34,-0.85,9.17,3.83,0.91,-2.61
8,-3,-264,-137,-157,3910,0.70,-0.63,-31.32,-1.37,-1.57,39.10,-6.32,-0.86,9.29,3.82,0.80,-1.07
-3,-34,-321,-28,-219,4056,0.61,-0.78,-30.15,-0.28,-2.19,40.56,-6.30,-0.87,9.41,4.05,1.48,3.43
-10,-12,-327,27,-219,3832,0.49,-0.77,-29.13,0.27,-2.19,38.32,-6.28,-0.88,9.53,4.21,1.04,4.39
0,-11,-401,-175,-162,3838,0.44,-0.76,-28.66,-1.75,-1.62,38.38,-6.26,-0.89,9.64,4.01,1.02,9.65
14,-5,-440,-175,-78,3878,0.48,-0.72,-28.48,-1.75,-0.78,38.78,-6.24,-0.89,9.76,3.71,0.89,12.38
1,-8,-592,-28,-207,4155,0.44,-0.69,-29.24,-0.28,-2.07,41.55,-6.22,-0.90,9.87,3.97,0.95,20.00
31,-30,-636,-148,-165,3899,0.59,-0.81,-30.20,-1.48,-1.65,38.99,-6.21,-0.91,9.99,3.31,1.43,20.00
32,-7,-777,-81,-283,3880,0.72,-0.77,-31.92,-0.81,-2.83,38.80,-6.19,-0.91,10.12,3.24,0.95,20.00
6,-15,-836,-62,-411,3925,0.69,-0.78,-33.82,-0.62,-4.11,39.25,-6.18,-0.91,10.25,3.77,1.12,20.00
3,-37,-895,-182,-474,3884,0.64,-0.93,-35.90,-1.82,-4.74,38.84,-6.18,-0.91,10.40,3.84,1.61,20.00
25,-32,-898,-179,-494,3865,0.72,-1.03,-37.79,-1.79,-4.94,38.65,-6.18,-0.91,10.55,3.37,1.53,20.00
18,-31,-870,56,-543,3977,0.76,-1.12,-39.32,0.56,-5.43,39.77,-6.19,-0.93,10.70,3.51,1.55,20.00
37,-31,-857,94,-516,3986,0.91,-1.20,-40.61,0.94,-5.16,39.86,-6.20,-0.96,10.86,3.09,1.59,20.00
-23,-55,-870,-17,-714,4039,0.68,-1.41,-41.86,-0.17,-7.14,40.39,-6.22,-0.98,11.03,4.38,2.15,20.00
24,-38,-847,213,-518,3956,0.76,-1.50,-42.84,2.13,-5.18,39.56,-6.22,-1.02,11.20,3.41,1.86,20.00
-1,9,-725,-187,-687,3854,0.68,-1.30,-42.98,-1.87,-6.87,38.54,-6.23,-1.03,11.37,3.95,0.85,20.00
6,-34,-678,-47,-590,4168,0.65,-1.38,-42.82,-0.47,-5.90,41.68,-6.23,-1.04,11.54,3.82,1.75,20.00
30,-3,-585,-194,-574,3711,0.76,-1.26,-42.10,-1.94,-5.74,37.11,-6.24,-1.05,11.70,3.30,1.10,14.27
-2,-31,-541,-55,-443,4050,0.68,-1.32,-41.19,-0.55,-4.43,40.50,-6.23,-1.06,11.87,3.97,1.69,11.77
13,-16,-498,-61,-496,3869,0.69,-1.29,-40.11,-0.61,-4.96,38.69,-6.24,-1.06,12.03,3.66,1.38,9.44
16,-9,-497,-113,-430,3826,0.72,-1.21,-39.13,-1.13,-4.30,38.26,-6.23,-1.07,12.18,3.59,1.22,9.90
15,-21,-492,56,-576,3976,0.74,-1.22,-38.22,0.56,-5.76,39.76,-6.24,-1.08,12.33,3.61,1.47,10.05
7,-6,-489,55,-574,3889,0.71,-1.13,-37.38,0.55,-5.74,38.89,-6.26,-1.10,12.48,3.79,1.16,10.30
12,-12,-481,-81,-659,4002,0.71,-1.09,-36.58,-0.81,-6.59,40.02,-6.26,-1.11,12.63,3.70,1.28,10.18
6,-15,-463,13,-645,3895,0.67,-1.08,-35.74,0.13,-6.45,38.95,-6.28,-1.13,12.77,3.84,1.34,9.41
12,-8,-396,-19,-646,3879,0.68,-1.02,-34.58,-0.19,-6.46,38.79,-6.29,-1.14,12.90,3.72,1.19,5.50
6,-15,-374,-59,-587,3907,0.65,-1.01,-33.41,-0.59,-5.87,39.07,-6.30,-1.15,13.04,3.86,1.34,4.65
9,-14,-293,-14,-485,3890,0.64,-0.99,-31.85,-0.14,-4.85,38.90,-6.30,-1.15,13.16,3.80,1.31,0.01
4,-8,-266,-58,-479,3924,0.60,-0.94,-30.29,-0.58,-4.79,39.24,-6.30,-1.15,13.28,3.91,1.18,-0.96
15,-5,-247,7,-443,3862,0.63,-0.88,-28.77,0.07,-4.43,38.62,-6.30,-1.15,13.40,3.68,1.10,-1.41
10,-2,-234,29,-505,3871,0.63,-0.80,-27.32,0.29,-5.05,38.71,-6.31,-1.15,13.50,3.79,1.02,-1.49
15,20,-179,131,-554,3926,0.66,-0.60,-25.68,1.31,-5.54,39.26,-6.32,-1.17,13.60,3.69,0.53,-4.32
1,5,-155,49,-474,4204,0.60,-0.51,-24.06,0.49,-4.74,42.04,-6.32,-1.17,13.70,3.99,0.81,-5.05
1,3,-87,-63,-487,3870,0.54,-0.44,-22.18,-0.63,-4.87,38.70,-6.33,-1.16,13.79,4.01,0.83,-8.62
4,2,-94,-2,-441,3854,0.51,-0.38,-20.54,-0.02,-4.41,38.54,-6.33,-1.15,13.87,3.95,0.83,-7.23
1,-23,-97,-7,-595,3941,0.47,-0.49,-19.08,-0.07,-5.95,39.41,-6.34,-1.16,13.94,4.04,1.36,-6.22
-1,-16,-85,66,-600,3868,0.42,-0.53,-17.69,0.66,-6.00,38.68,-6.35,-1.16,14.01,4.10,1.24,-6.26
0,-2,-53,2,-385,3946,0.37,-0.49,-16.24,0.02,-3.85,39.46,-6.34,-1.16,14.08,4.08,0.94,-7.63
0,0,-63,46,-328,3909,0.34,-0.44,-15.00,0.46,-3.28,39.09,-6.32,-1.16,14.14,4.08,0.89,-6.27
5,4,-144,-59,-155,3837,0.33,-0.38,-14.38,-0.59,-1.55,38.37,-6.30,-1.16,14.20,3.97,0.79,-0.44
11,9,-158,-192,-101,3913,0.37,-0.28,-13.91,-1.92,-1.01,39.13,-6.28,-1.16,14.25,3.82,0.66,0.77
-7,-12,-170,-100,-326,4056,0.29,-0.33,-13.55,-1.00,-3.26,40.56,-6.27,-1.15,14.31,4.20,1.09,1.77
-14,-15,-171,119,-239,3973,0.17,-0.39,-13.24,1.19,-2.39,39.73,-6.25,-1.16,14.36,4.36,1.18,2.01
18,5,-278,46,-360,3843,0.27,-0.32,-13.61,0.46,-3.60,38.43,-6.23,-1.16,14.41,3.68,0.75,9.04
14,-6,-309,147,-295,3958,0.32,-0.32,-14.14,1.47,-2.95,39.58,-6.22,-1.17,14.47,3.73,0.98,10.84
13,-23,-384,-58,-400,3946,0.37,-0.43,-15.06,-0.58,-4.00,39.46,-6.21,-1.16,14.53,3.73,1.35,15.39
2,-22,-391,-20,-338,3784,0.35,-0.52,-15.94,-0.20,-3.38,37.84,-6.20,-1.16,14.59,3.95,1.35,15.37
2,-18,-467,-53,-285,3843,0.32,-0.58,-17.20,-0.53,-2.85,38.43,-6.18,-1.15,14.66,3.95,1.29,19.80
-2,-39,-522,-201,-313,3933,0.28,-0.76,-18.66,-2.01,-3.13,39.33,-6.17,-1.15,14.74,4.04,1.76,20.00
9,-33,-642,43,-209,3905,0.31,-0.88,-20.71,0.43,-2.09,39.05,-6.15,-1.16,14.82,3.79,1.68,20.00
15,-18,-659,27,-309,3901,0.37,-0.91,-22.66,0.27,-3.09,39.01,-6.13,-1.16,14.91,3.64,1.38,20.00
17,-21,-750,32,-309,3894,0.43,-0.94,-24.97,0.32,-3.09,38.94,-6.11,-1.17,15.01,3.57,1.46,20.00
30,-18,-781,19,-269,3846,0.57,-0.96,-27.24,0.19,-2.69,38.46,-6.09,-1.18,15.12,3.25,1.41,20.00
36,-37,-863,-223,-361,3729,0.74,-1.09,-29.78,-2.23,-3.61,37.29,-6.08,-1.18,15.23,3.08,1.83,20.00
5,-29,-874,-167,-270,3992,0.69,-1.16,-32.13,-1.67,-2.70,39.92,-6.07,-1.18,15.36,3.71,1.68,20.00
15,10,-898,-70,-390,3950,0.72,-0.98,-34.40,-0.70,-3.90,39.50,-6.06,-1.18,15.50,3.50,0.84,20.00
10,-29,-900,-64,-361,4028,0.70,-1.06,-36.45,-0.64,-3.61,40.28,-6.04,-1.18,15.64,3.59,1.66,20.00
32,-26,-929,-153,-285,3979,0.83,-1.11,-38.47,-1.53,-2.85,39.79,-6.03,-1.19,15.79,3.10,1.62,20.00
0,-20,-926,-232,-394,3775,0.75,-1.12,-40.27,-2.32,-3.94,37.75,-6.02,-1.19,15.95,3.77,1.50,20.00
47,-14,-917,-162,-328,3742,0.96,-1.10,-41.84,-1.62,-3.28,37.42,-6.01,-1.20,16.12,2.75,1.37,20.00
19,-33,-936,-134,-473,3988,0.98,-1.19,-43.36,-1.34,-4.73,39.88,-6.01,-1.20,16.29,3.31,1.79,20.00
31,-36,-963,-228,-421,3992,1.07,-1.29,-44.90,-2.28,-4.21,39.92,-6.00,-1.21,16.47,3.04,1.88,20.00
8,-42,-972,-100,-453,4028,1.01,-1.42,-46.34,-1.00,-4.53,40.28,-5.99,-1.21,16.65,3.52,2.04,20.00
40,4,-953,34,-326,3901,1.15,-1.25,-47.52,0.34,-3.26,39.01,-5.97,-1.23,16.84,2.81,1.07,20.00
14,-4,-960,-33,-431,3946,1.12,-1.15,-48.62,-0.33,-4.31,39.46,-5.96,-1.24,17.04,3.34,1.21,20.00
-7,-14,-913,-158,-358,3926,0.97,-1.12,-49.33,-1.58,-3.58,39.26,-5.95,-1.24,17.23,3.81,1.41,20.00
22,-29,-917,-196,-428,3910,1.01,-1.18,-49.99,-1.96,-4.28,39.10,-5.94,-1.25,17.43,3.20,1.74,20.00
33,-15,-925,7,-406,3908,1.11,-1.16,-50.63,0.07,-4.06,39.08,-5.93,-1.26,17.63,2.94,1.45,20.00
12,-26,-946,120,-454,3950,1.07,-1.20,-51.34,1.20,-4.54,39.50,-5.94,-1.29,17.83,3.38,1.71,20.00
-1,-19,-961,-160,-434,3840,0.96,-1.20,-52.07,-1.60,-4.34,38.40,-5.93,-1.30,18.04,3.68,1.57,20.00
16,-34,-934,-154,-498,3994,0.96,-1.28,-52.56,-1.54,-4.98,39.94,-5.93,-1.31,18.25,3.33,1.91,20.00
23,-22,-880,-37,-412,3940,1.00,-1.29,-52.67,-0.37,-4.12,39.40,-5.92,-1.32,18.46,3.17,1.67,20.00
22,-18,-867,-39,-450,3897,1.04,-1.27,-52.69,-0.39,-4.50,38.97,-5.92,-1.33,18.67,3.18,1.59,20.00
-13,-24,-835,-93,-511,3976,0.85,-1.29,-52.52,-0.93,-5.11,39.76,-5.92,-1.34,18.88,3.94,1.72,20.00
22,-22,-827,-109,-474,3934,0.90,-1.30,-52.31,-1.09,-4.74,39.34,-5.92,-1.35,19.08,3.21,1.69,20.00
-9,-42,-764,-71,-517,3928,0.76,-1.42,-51.74,-0.71,-5.17,39.28,-5.92,-1.36,19.29,3.88,2.14,19.86
4,-56,-753,-24,-466,3925,0.71,-1.62,-51.16,-0.24,-4.66,39.25,-5.92,-1.37,19.49,3.63,2.49,19.41
7,-15,-715,-79,-571,4113,0.68,-1.55,-50.40,-0.79,-5.71,41.13,-5.92,-1.38,19.69,3.58,1.64,17.22
28,-43,-691,63,-492,3939,0.78,-1.66,-49.58,0.63,-4.92,39.39,-5.93,-1.41,19.89,3.13,2.25,16.03
19,-21,-657,-47,-561,4032,0.82,-1.62,-48.63,-0.47,-5.61,40.32,-5.94,-1.42,20.08,3.31,1.80,14.23
-1,-19,-650,46,-604,3793,0.73,-1.57,-47.73,0.46,-6.04,37.93,-5.95,-1.44,20.27,3.75,1.77,14.23
18,-22,-644,13,-470,4000,0.77,-1.55,-46.89,0.13,-4.70,40.00,-5.95,-1.45,20.45,3.35,1.83,14.27
28,-12,-634,-74,-595,3693,0.86,-1.47,-46.07,-0.74,-5.95,36.93,-5.96,-1.46,20.64,3.13,1.61,14.03
13,-18,-560,-48,-511,3952,0.85,-1.43,-44.87,-0.48,-5.11,39.52,-5.96,-1.47,20.81,3.43,1.73,9.65
25,-1,-543,47,-467,3823,0.92,-1.29,-43.70,0.47,-4.67,38.23,-5.96,-1.48,20.99,3.18,1.35,9.13
0,-8,-484,10,-531,3868,0.83,-1.21,-42.28,0.10,-5.31,38.68,-5.97,-1.50,21.16,3.71,1.48,5.91
5,2,-471,-35,-464,3847,0.78,-1.08,-40.93,-0.35,-4.64,38.47,-5.97,-1.50,21.32,3.63,1.24,5.76
5,-11,-393,-127,-550,3891,0.73,-1.04,-39.23,-1.27,-5.50,38.91,-5.97,-1.51,21.47,3.64,1.50,1.40
16,-14,-379,-76,-497,3856,0.75,-1.02,-37.62,-0.76,-4.97,38.56,-5.98,-1.51,21.62,3.41,1.56,1.34
11,-22,-377,-52,-483,3864,0.75,-1.05,-36.16,-0.52,-4.83,38.64,-5.98,-1.51,21.77,3.52,1.73,2.00
11,-14,-374,-31,-526,3863,0.74,-1.03,-34.82,-0.31,-5.26,38.63,-5.98,-1.52,21.90,3.52,1.57,2.52
-6,-10,-287,-45,-506,3936,0.63,-0.99,-33.09,-0.45,-5.06,39.36,-5.99,-1.52,22.03,3.90,1.48,-2.42
9,1,-265,-19,-611,3773,0.62,-0.89,-31.40,-0.19,-6.11,37.73,-6.00,-1.53,22.16,3.61,1.23,-2.98
7,-11,-220,19,-484,3896,0.60,-0.86,-29.60,0.19,-4.84,38.96,-6.00,-1.53,22.28,3.66,1.47,-5.04
-1,5,-216,108,-443,3894,0.53,-0.75,-27.96,1.08,-4.43,38.94,-6.02,-1.55,22.39,3.85,1.12,-4.41
10,18,-231,-66,-454,3858,0.54,-0.56,-26.57,-0.66,-4.54,38.58,-6.02,-1.54,22.49,3.62,0.80,-2.63
12,13,-214,-138,-474,3983,0.56,-0.43,-25.22,-1.38,-4.74,39.83,-6.02,-1.54,22.59,3.57,0.87,-3.04
-2,-4,-142,-94,-391,3892,0.49,-0.41,-23.56,-0.94,-3.91,38.92,-6.01,-1.53,22.69,3.87,1.20,-7.00
12,-2,-150,-40,-362,3843,0.52,-0.38,-22.12,-0.40,-3.62,38.43,-6.00,-1.52,22.77,3.57,1.15,-5.66
2,-3,-183,73,-486,3910,0.48,-0.36,-21.03,0.73,-4.86,39.10,-6.01,-1.53,22.86,3.80,1.17,-2.82
-2,-6,-180,-18,-472,3848,0.42,-0.36,-20.02,-0.18,-4.72,38.48,-6.02,-1.52,22.94,3.90,1.22,-2.48
-1,-13,-177,-109,-424,3849,0.37,-0.40,-19.10,-1.09,-4.24,38.49,-6.02,-1.51,23.01,3.89,1.37,-2.17
-2,-15,-178,-98,-424,3901,0.32,-0.46,-18.28,-0.98,-4.24,39.01,-6.01,-1.50,23.08,3.92,1.42,-1.65
1,-17,-171,0,-454,3915,0.29,-0.51,-17.49,0.00,-4.54,39.15,-6.02,-1.49,23.15,3.87,1.47,-1.70
7,-7,-180,29,-476,3897,0.31,-0.50,-16.84,0.29,-4.76,38.97,-6.03,-1.49,23.22,3.75,1.26,-0.73
2,-4,-180,24,-558,3956,0.29,-0.48,-16.25,0.24,-5.58,39.56,-6.04,-1.49,23.28,3.87,1.19,-0.41
2,-4,-171,-9,-496,3888,0.27,-0.46,-15.67,-0.09,-4.96,38.88,-6.05,-1.48,23.35,3.88,1.18,-0.71
2,2,-142,-26,-405,3861,0.26,-0.40,-14.97,-0.26,-4.05,38.61,-6.04,-1.47,23.40,3.88,1.04,-2.29
6,3,-147,23,-399,3956,0.27,-0.34,-14.37,0.23,-3.99,39.56,-6.04,-1.46,23.46,3.79,1.00,-1.62
0,4,-165,-109,-386,3976,0.24,-0.28,-13.94,-1.09,-3.86,39.76,-6.03,-1.45,23.52,3.92,0.95,-0.17
-5,-6,-156,-55,-390,3872,0.19,-0.29,-13.50,-0.55,-3.90,38.72,-6.03,-1.44,23.57,4.03,1.15,-0.54
2,-7,-161,5,-284,3831,0.18,-0.30,-13.13,0.05,-2.84,38.31,-6.01,-1.44,23.62,3.88,1.17,0.00
-1,-8,-178,-39,-257,3854,0.16,-0.32,-12.90,-0.39,-2.57,38.54,-6.00,-1.43,23.68,3.94,1.19,1.27
1,-22,-179,-95,-319,3821,0.15,-0.42,-12.70,-0.95,-3.19,38.21,-5.99,-1.42,23.73,3.89,1.50,1.44
6,-18,-203,-80,-322,3870,0.17,-0.49,-12.67,-0.80,-3.22,38.70,-5.98,-1.41,23.78,3.78,1.43,3.08
-4,0,-284,77,-335,3955,0.13,-0.44,-13.14,0.77,-3.35,39.55,-5.96,-1.41,23.83,3.98,1.05,8.30
5,-13,-293,-13,-398,3957,0.15,-0.48,-13.61,-0.13,-3.98,39.57,-5.95,-1.40,23.88,3.79,1.32,8.64
-6,-3,-316,43,-399,3959,0.09,-0.45,-14.18,0.43,-3.99,39.59,-5.95,-1.39,23.94,4.02,1.10,9.87
24,8,-340,101,-346,3864,0.23,-0.35,-14.83,1.01,-3.46,38.64,-5.93,-1.40,24.00,3.36,0.86,11.12
17,20,-390,-226,-416,3778,0.31,-0.20,-15.73,-2.26,-4.16,37.78,-5.93,-1.39,24.06,3.48,0.57,14.00
-5,12,-367,-212,-484,3965,0.25,-0.10,-16.40,-2.12,-4.84,39.65,-5.93,-1.38,24.13,3.95,0.70,12.06
4,10,-359,151,-470,3975,0.25,-0.03,-16.95,1.51,-4.70,39.75,-5.94,-1.40,24.19,3.77,0.73,11.20
10,-2,-375,93,-477,3818,0.29,-0.04,-17.54,0.93,-4.77,38.18,-5.95,-1.41,24.26,3.65,0.98,11.94
-3,-22,-353,-258,-391,3783,0.24,-0.17,-17.94,-2.58,-3.91,37.83,-5.95,-1.40,24.33,3.92,1.42,10.21
-1,-30,-337,-136,-405,3881,0.21,-0.34,-18.20,-1.36,-4.05,38.81,-5.95,-1.39,24.41,3.89,1.62,8.97
2,-15,-302,-14,-408,3940,0.20,-0.40,-18.22,-0.14,-4.08,39.40,-5.94,-1.38,24.48,3.83,1.32,6.57
-9,-11,-305,-1,-376,3941,0.13,-0.42,-18.26,-0.01,-3.76,39.41,-5.94,-1.37,24.55,4.07,1.24,6.74
6,-18,-335,-124,-280,3995,0.15,-0.49,-18.48,-1.24,-2.80,39.95,-5.92,-1.36,24.62,3.75,1.40,8.64
6,-21,-340,-64,-341,3820,0.17,-0.57,-18.70,-0.64,-3.41,38.20,-5.92,-1.36,24.70,3.74,1.48,8.84
-7,-21,-327,-13,-404,4033,0.11,-0.64,-18.83,-0.13,-4.04,40.33,-5.91,-1.35,24.77,4.01,1.49,7.88
1,-2,-328,88,-370,3856,0.11,-0.59,-18.95,0.88,-3.70,38.56,-5.89,-1.36,24.85,3.84,1.10,7.87
25,8,-438,-58,-438,3662,0.25,-0.48,-19.72,-0.58,-4.38,36.62,-5.89,-1.35,24.93,3.31,0.86,14.88
-3,21,-455,-313,-477,3798,0.20,-0.30,-20.53,-3.13,-4.77,37.98,-5.90,-1.34,25.01,3.90,0.54,15.57
9,-20,-444,-134,-337,4016,0.24,-0.40,-21.18,-1.34,-3.37,40.16,-5.89,-1.34,25.09,3.64,1.40,14.44
10,-25,-432,-99,-336,4026,0.28,-0.51,-21.70,-0.99,-3.36,40.26,-5.88,-1.33,25.18,3.60,1.52,13.33
-2,-7,-381,-152,-354,3907,0.24,-0.50,-21.85,-1.52,-3.54,39.07,-5.87,-1.32,25.27,3.85,1.15,9.77
4,-33,-366,-130,-309,3991,0.24,-0.65,-21.90,-1.30,-3.09,39.91,-5.86,-1.32,25.35,3.72,1.72,8.71
4,-32,-380,-99,-365,4047,0.24,-0.78,-22.03,-0.99,-3.65,40.47,-5.85,-1.31,25.44,3.72,1.73,9.58
14,-20,-386,2,-347,3896,0.30,-0.83,-22.18,0.02,-3.47,38.96,-5.84,-1.31,25.53,3.49,1.50,9.89
3,-9,-378,-87,-411,3980,0.29,-0.80,-22.27,-0.87,-4.11,39.80,-5.84,-1.30,25.62,3.71,1.26,9.28
-2,-15,-362,-83,-410,3979,0.25,-0.81,-22.25,-0.83,-4.10,39.79,-5.83,-1.30,25.71,3.82,1.38,8.20
6,-13,-346,-90,-279,3868,0.26,-0.81,-22.14,-0.90,-2.79,38.68,-5.82,-1.29,25.79,3.65,1.34,7.16
14,1,-353,-118,-406,3782,0.32,-0.72,-22.07,-1.18,-4.06,37.82,-5.82,-1.29,25.88,3.47,1.03,7.66
11,-1,-398,-67,-368,3849,0.35,-0.66,-22.30,-0.67,-3.68,38.49,-5.81,-1.28,25.97,3.52,1.04,10.57
16,-7,-412,-110,-313,3813,0.42,-0.63,-22.58,-1.10,-3.13,38.13,-5.80,-1.27,26.06,3.39,1.16,11.35
5,-23,-428,-110,-251,3881,0.40,-0.71,-22.93,-1.10,-2.51,38.81,-5.79,-1.27,26.15,3.61,1.50,12.22
