gyroADC_X,gyroADC_Y,gyroADC_Z,accADC_X,accADC_Y,accADC_Z,GyroX,GyroY,GyroZ,AccX,AccY,AccZ,roll_IMU,pitch_IMU,yaw_IMU,roll_PID,pitch_PID,yaw_PID
-5,-3,4,-89,-363,3916,0.05,-0.12,1.47,-0.89,-3.63,39.16,-5.60,1.48,0.16,4.55,-0.76,1.20
-8,-4,4,-120,-388,3892,-0.00,-0.14,1.34,-1.20,-3.88,38.92,-5.60,1.50,0.15,4.91,-0.64,1.07
-3,-3,5,-119,-392,3897,-0.02,-0.14,1.24,-1.19,-3.92,38.97,-5.61,1.52,0.15,4.12,-0.81,0.88
-5,-4,4,-105,-375,3930,-0.05,-0.15,1.14,-1.05,-3.75,39.30,-5.59,1.52,0.14,4.36,-0.68,0.86
-2,-2,3,-120,-393,3905,-0.06,-0.15,1.04,-1.20,-3.93,39.05,-5.60,1.53,0.14,3.89,-0.99,0.84
-3,-2,4,-110,-389,3930,-0.07,-0.15,0.96,-1.10,-3.89,39.30,-5.61,1.55,0.14,4.03,-0.99,0.67
0,-2,2,-102,-391,3910,-0.06,-0.14,0.88,-1.02,-3.91,39.10,-5.63,1.54,0.13,3.60,-0.98,0.75
0,-2,3,-101,-388,3904,-0.06,-0.14,0.81,-1.01,-3.88,39.04,-5.64,1.52,0.13,3.62,-0.97,0.59
0,-3,3,-87,-382,3917,-0.05,-0.15,0.75,-0.87,-3.82,39.17,-5.64,1.50,0.13,3.62,-0.81,0.53
1,-3,3,-96,-380,3914,-0.04,-0.15,0.69,-0.96,-3.80,39.14,-5.62,1.49,0.12,3.48,-0.81,0.47
1,-4,5,-116,-319,3883,-0.03,-0.16,0.65,-1.16,-3.19,38.83,-5.61,1.49,0.12,3.49,-0.68,0.26
8,-5,23,-100,-298,3939,0.02,-0.17,0.73,-1.00,-2.98,39.39,-5.59,1.49,0.12,2.51,-0.55,-1.19
-1,-4,9,-109,-405,3914,0.01,-0.18,0.71,-1.09,-4.05,39.14,-5.61,1.50,0.11,3.88,-0.72,-0.02
-4,-4,14,-99,-379,3919,-0.01,-0.19,0.72,-0.99,-3.79,39.19,-5.59,1.49,0.11,4.28,-0.72,-0.43
-2,-2,5,-114,-380,3931,-0.02,-0.18,0.68,-1.14,-3.80,39.31,-5.58,1.50,0.11,3.95,-1.03,0.29
-3,-2,1,-108,-390,3916,-0.04,-0.17,0.62,-1.08,-3.90,39.16,-5.60,1.51,0.11,4.08,-1.02,0.56
-2,2,2,-112,-384,3897,-0.05,-0.14,0.57,-1.12,-3.84,38.97,-5.60,1.53,0.10,3.91,-1.59,0.43
-2,3,3,-107,-385,3902,-0.05,-0.11,0.53,-1.07,-3.85,39.02,-5.62,1.54,0.10,3.91,-1.69,0.30
-2,2,1,-96,-376,3908,-0.06,-0.09,0.48,-0.96,-3.76,39.08,-5.60,1.53,0.10,3.89,-1.48,0.42
-1,0,0,-105,-381,3900,-0.06,-0.08,0.44,-1.05,-3.81,39.00,-5.59,1.53,0.10,3.72,-1.16,0.45
0,-1,0,-102,-373,3908,-0.06,-0.08,0.39,-1.02,-3.73,39.08,-5.57,1.53,0.10,3.57,-1.00,0.41
1,-1,-1,-94,-372,3914,-0.04,-0.08,0.35,-0.94,-3.72,39.14,-5.56,1.51,0.09,3.43,-0.99,0.44
0,-1,1,-91,-380,3918,-0.04,-0.07,0.32,-0.91,-3.80,39.18,-5.56,1.49,0.09,3.59,-0.98,0.24
0,-2,1,-96,-380,3913,-0.04,-0.08,0.29,-0.96,-3.80,39.13,-5.55,1.48,0.09,3.60,-0.82,0.22
0,-3,-1,-109,-389,3911,-0.03,-0.09,0.26,-1.09,-3.89,39.11,-5.57,1.49,0.09,3.61,-0.69,0.35
1,-3,0,-111,-402,3908,-0.02,-0.10,0.23,-1.11,-4.02,39.08,-5.58,1.50,0.09,3.49,-0.72,0.24
0,-3,0,-104,-390,3904,-0.02,-0.11,0.21,-1.04,-3.90,39.04,-5.60,1.50,0.09,3.66,-0.73,0.21
0,-2,0,-107,-383,3908,-0.02,-0.11,0.19,-1.07,-3.83,39.08,-5.60,1.52,0.09,3.66,-0.90,0.19
0,-1,1,-105,-382,3915,-0.02,-0.10,0.17,-1.05,-3.82,39.15,-5.58,1.52,0.09,3.65,-1.05,0.09
0,-1,1,-107,-384,3905,-0.01,-0.10,0.16,-1.07,-3.84,39.05,-5.60,1.54,0.09,3.67,-1.05,0.08
0,-1,0,-98,-380,3910,-0.01,-0.10,0.15,-0.98,-3.80,39.10,-5.59,1.52,0.09,3.66,-1.03,0.15
0,-1,0,-96,-381,3915,-0.01,-0.09,0.13,-0.96,-3.81,39.15,-5.58,1.50,0.09,3.66,-1.01,0.13
1,-1,1,-94,-383,3906,-0.00,-0.09,0.13,-0.94,-3.83,39.06,-5.59,1.48,0.09,3.53,-1.00,0.04
1,-1,1,-93,-391,3910,0.00,-0.09,0.12,-0.93,-3.91,39.10,-5.60,1.47,0.08,3.55,-0.98,0.03
-1,0,0,-99,-384,3911,-0.00,-0.08,0.11,-0.99,-3.84,39.11,-5.60,1.45,0.08,3.84,-1.11,0.11
-1,0,0,-104,-391,3914,-0.01,-0.07,0.10,-1.04,-3.91,39.14,-5.62,1.46,0.08,3.84,-1.10,0.09
-1,-1,-2,-98,-385,3901,-0.02,-0.07,0.07,-0.98,-3.85,39.01,-5.63,1.45,0.08,3.84,-0.93,0.24
0,-2,-3,-102,-385,3900,-0.01,-0.07,0.05,-1.02,-3.85,39.00,-5.63,1.46,0.08,3.69,-0.80,0.30
-1,-2,-3,-107,-388,3908,-0.02,-0.08,0.03,-1.07,-3.88,39.08,-5.64,1.48,0.08,3.84,-0.82,0.27
-1,-2,-4,-103,-396,3909,-0.02,-0.08,-0.00,-1.03,-3.96,39.09,-5.66,1.48,0.08,3.84,-0.83,0.33
-1,0,-7,-97,-394,3905,-0.03,-0.08,-0.04,-0.97,-3.94,39.05,-5.67,1.47,0.09,3.85,-1.11,0.54
-1,1,-6,-104,-392,3902,-0.03,-0.06,-0.08,-1.04,-3.92,39.02,-5.69,1.48,0.09,3.85,-1.25,0.42
1,1,-5,-106,-398,3923,-0.02,-0.05,-0.10,-1.06,-3.98,39.23,-5.70,1.49,0.09,3.57,-1.23,0.31
4,1,-5,-102,-396,3911,0.01,-0.04,-0.12,-1.02,-3.96,39.11,-5.72,1.49,0.09,3.18,-1.21,0.29
-1,-8,-10,-142,-338,3930,-0.00,-0.08,-0.17,-1.42,-3.38,39.30,-5.71,1.50,0.09,3.92,0.07,0.66
4,-4,-11,-68,-412,3890,0.02,-0.10,-0.22,-0.68,-4.12,38.90,-5.72,1.48,0.09,3.21,-0.56,0.69
4,4,-14,-118,-364,3923,0.05,-0.06,-0.28,-1.18,-3.64,39.23,-5.70,1.49,0.09,3.24,-1.72,0.88
3,3,-12,-140,-365,3929,0.06,-0.04,-0.33,-1.40,-3.65,39.29,-5.69,1.51,0.09,3.41,-1.53,0.66
-3,-2,-30,-267,-256,3931,0.04,-0.05,-0.48,-2.67,-2.56,39.31,-5.68,1.52,0.09,4.27,-0.79,2.03
-1,-1,-49,-280,-285,3924,0.03,-0.05,-0.73,-2.80,-2.85,39.24,-5.67,1.54,0.09,3.94,-0.96,3.37
13,-8,-141,-429,-381,3868,0.10,-0.09,-1.52,-4.29,-3.81,38.68,-5.67,1.55,0.10,1.95,0.02,10.33
2,-1,-219,-242,-298,3896,0.10,-0.09,-2.70,-2.42,-2.98,38.96,-5.66,1.57,0.11,3.63,-1.05,15.68
6,6,-283,-34,-309,3960,0.13,-0.04,-4.16,-0.34,-3.09,39.60,-5.64,1.55,0.13,3.06,-2.02,19.56
12,10,-280,-157,-348,3887,0.19,0.02,-5.45,-1.57,-3.48,38.87,-5.63,1.57,0.15,2.25,-2.52,17.94
-10,-4,-271,-246,-402,3841,0.11,-0.01,-6.56,-2.46,-4.02,38.41,-5.64,1.58,0.18,5.45,-0.44,16.00
7,8,-299,-177,-320,3892,0.14,0.04,-7.73,-1.77,-3.20,38.92,-5.63,1.59,0.21,2.91,-2.19,17.13
15,7,-370,-76,-372,3974,0.22,0.08,-9.21,-0.76,-3.72,39.74,-5.62,1.57,0.24,1.83,-1.95,21.57
4,0,-369,-39,-279,3873,0.22,0.07,-10.54,-0.39,-2.79,38.73,-5.60,1.56,0.28,3.51,-0.89,20.08
12,0,-347,19,-548,3861,0.27,0.07,-11.60,0.19,-5.48,38.61,-5.62,1.54,0.33,2.39,-0.89,17.08
-5,0,-331,156,-372,3763,0.22,0.06,-12.46,1.56,-3.72,37.63,-5.62,1.52,0.38,4.88,-0.89,14.81
18,2,-304,28,-344,3815,0.30,0.07,-13.07,0.28,-3.44,38.15,-5.61,1.50,0.43,1.53,-1.17,11.88
3,-1,-305,-43,-496,3916,0.29,0.05,-13.62,-0.43,-4.96,39.16,-5.63,1.48,0.49,3.81,-0.73,11.37
1,10,-157,53,-407,3939,0.27,0.11,-13.22,0.53,-4.07,39.39,-5.63,1.46,0.54,4.07,-2.28,-0.74
2,12,-127,84,-397,3930,0.25,0.17,-12.67,0.84,-3.97,39.30,-5.63,1.44,0.59,3.89,-2.46,-2.71
6,6,-91,-155,-494,3866,0.26,0.19,-11.96,-1.55,-4.94,38.66,-5.65,1.44,0.64,3.32,-1.51,-5.01
-11,-5,-146,-198,-591,3878,0.17,0.14,-11.65,-1.98,-5.91,38.78,-5.67,1.45,0.68,5.74,0.07,-0.03
18,-11,-324,243,-436,4032,0.26,0.06,-12.46,2.43,-4.36,40.32,-5.67,1.42,0.73,1.50,0.85,14.18
-3,-18,-414,16,-519,3850,0.22,-0.06,-13.74,0.16,-5.19,38.50,-5.68,1.41,0.79,4.62,1.71,20.45
5,-17,-435,-172,-338,3886,0.23,-0.15,-15.02,-1.72,-3.38,38.86,-5.67,1.42,0.85,3.41,1.37,20.87
-21,-14,-404,-181,-277,3840,0.08,-0.22,-15.99,-1.81,-2.77,38.40,-5.66,1.42,0.91,7.08,0.77,17.22
3,11,-199,-43,-236,3922,0.09,-0.13,-15.60,-0.43,-2.36,39.22,-5.64,1.41,0.97,3.43,-2.86,0.25
0,10,-158,-92,-250,3922,0.08,-0.06,-15.00,-0.92,-2.50,39.22,-5.63,1.40,1.03,3.86,-2.56,-2.59
10,10,-176,-110,-361,3916,0.13,0.01,-14.58,-1.10,-3.61,39.16,-5.61,1.40,1.09,2.43,-2.44,-0.62
12,2,-211,-101,-424,3888,0.19,0.02,-14.41,-1.01,-4.24,38.88,-5.63,1.40,1.15,2.25,-1.19,2.52
-5,-10,-207,-63,-418,3887,0.14,-0.04,-14.23,-0.63,-4.18,38.87,-5.65,1.38,1.21,4.76,0.53,2.36
1,-12,-187,14,-385,3945,0.13,-0.11,-13.95,0.14,-3.85,39.45,-5.65,1.36,1.26,3.83,0.72,0.96
-7,-16,-224,-182,-391,3902,0.08,-0.20,-13.92,-1.82,-3.91,39.02,-5.65,1.37,1.32,4.94,1.16,4.12
-2,-12,-248,-148,-348,3857,0.06,-0.25,-14.04,-1.48,-3.48,38.57,-5.64,1.38,1.37,4.14,0.44,6.02
-8,-2,-230,-125,-293,3930,0.00,-0.24,-14.04,-1.25,-2.93,39.30,-5.62,1.38,1.43,4.94,-1.06,4.49
-15,-2,-248,-98,-287,3915,-0.09,-0.23,-14.15,-0.98,-2.87,39.15,-5.61,1.37,1.48,5.82,-1.03,5.90
-10,3,-382,-103,-213,3930,-0.14,-0.19,-15.06,-1.03,-2.13,39.30,-5.59,1.37,1.54,4.95,-1.71,16.28
-9,6,-370,-50,-281,3973,-0.18,-0.13,-15.81,-0.50,-2.81,39.73,-5.58,1.35,1.61,4.71,-2.06,14.46
-13,9,-201,-134,-407,3901,-0.24,-0.06,-15.46,-1.34,-4.07,39.01,-5.59,1.36,1.67,5.21,-2.39,0.51
-6,12,-174,-137,-343,3891,-0.25,0.02,-14.97,-1.37,-3.43,38.91,-5.58,1.37,1.73,4.11,-2.70,-1.27
-3,-9,-360,-325,-341,3850,-0.25,-0.04,-15.67,-3.25,-3.41,38.50,-5.58,1.38,1.79,3.67,0.38,13.74
-8,-19,-496,-405,-280,3877,-0.27,-0.15,-17.13,-4.05,-2.80,38.77,-5.58,1.39,1.86,4.39,1.69,23.72
1,-3,-499,-7,-234,3946,-0.24,-0.16,-18.46,-0.07,-2.34,39.46,-5.56,1.38,1.93,3.07,-0.74,22.55
-4,-2,-473,-271,-201,4029,-0.24,-0.15,-19.50,-2.71,-2.01,40.29,-5.55,1.38,2.01,3.82,-0.89,19.24
-2,-13,-443,-313,-315,3900,-0.23,-0.22,-20.25,-3.13,-3.15,39.00,-5.55,1.39,2.09,3.54,0.66,15.90
4,3,-465,-368,-302,3859,-0.18,-0.18,-21.06,-3.68,-3.02,38.59,-5.55,1.40,2.17,2.71,-1.71,16.90
-1,-18,-534,-123,-328,3985,-0.17,-0.27,-22.22,-1.23,-3.28,39.85,-5.53,1.40,2.26,3.49,1.32,21.51
6,-15,-534,-204,-213,3916,-0.11,-0.33,-23.25,-2.04,-2.13,39.16,-5.52,1.39,2.35,2.51,0.74,20.41
8,-21,-544,-38,-327,3942,-0.05,-0.43,-24.24,-0.38,-3.27,39.42,-5.51,1.37,2.45,2.31,1.49,20.20
18,-18,-535,-90,-350,3963,0.06,-0.49,-25.08,-0.90,-3.50,39.63,-5.50,1.36,2.55,1.00,0.91,18.54
13,-21,-567,-125,-276,3931,0.13,-0.57,-26.03,-1.25,-2.76,39.31,-5.48,1.35,2.65,1.89,1.23,20.23
4,-29,-568,-129,-278,3948,0.14,-0.69,-26.90,-1.29,-2.78,39.48,-5.46,1.34,2.76,3.27,2.22,19.40
24,-17,-585,75,-423,3909,0.28,-0.73,-27.77,0.75,-4.23,39.09,-5.47,1.31,2.87,0.48,0.35,19.89
19,-10,-588,-2,-451,3957,0.37,-0.72,-28.58,-0.02,-4.51,39.57,-5.48,1.28,2.98,1.41,-0.68,19.28
5,-26,-520,-14,-464,3937,0.36,-0.80,-28.90,-0.14,-4.64,39.37,-5.50,1.26,3.10,3.55,1.62,13.18
27,-12,-531,1,-343,3896,0.49,-0.80,-29.25,0.01,-3.43,38.96,-5.49,1.23,3.21,0.43,-0.49,13.73
-1,-3,-392,-10,-461,4069,0.43,-0.73,-28.71,-0.10,-4.61,40.69,-5.51,1.20,3.33,4.61,-1.72,2.51
-2,-22,-383,-137,-354,3965,0.38,-0.80,-28.18,-1.37,-3.54,39.65,-5.50,1.20,3.44,4.65,1.06,2.30
-6,-17,-423,-107,-336,3871,0.30,-0.82,-27.94,-1.07,-3.36,38.71,-5.48,1.20,3.55,5.11,0.25,5.93
-11,-21,-397,-5,-374,3995,0.21,-0.87,-27.57,-0.05,-3.74,39.95,-5.48,1.16,3.66,5.69,0.79,4.11
4,-7,-373,-142,-373,3819,0.21,-0.82,-27.09,-1.42,-3.73,38.19,-5.49,1.17,3.77,3.41,-1.26,2.58
30,-2,-353,-116,-470,3988,0.37,-0.75,-26.53,-1.16,-4.70,39.88,-5.50,1.16,3.87,-0.24,-1.89,1.46
12,-10,-393,-290,-447,3886,0.41,-0.74,-26.28,-2.90,-4.47,38.86,-5.51,1.17,3.98,2.58,-0.64,5.12
10,-11,-411,-284,-542,3863,0.43,-0.73,-26.16,-2.84,-5.42,38.63,-5.52,1.17,4.08,2.93,-0.48,6.76
15,-27,-560,-396,-520,3900,0.48,-0.82,-26.96,-3.96,-5.20,39.00,-5.53,1.17,4.19,2.27,1.79,18.52
-24,-39,-586,-82,-628,3996,0.28,-0.98,-27.83,-0.82,-6.28,39.96,-5.55,1.16,4.30,7.86,3.33,19.79
1,-25,-599,-224,-383,3943,0.26,-1.03,-28.71,-2.24,-3.83,39.43,-5.55,1.16,4.41,4.00,1.09,19.96
11,-34,-638,-30,-433,3967,0.30,-1.14,-29.73,-0.30,-4.33,39.67,-5.56,1.13,4.53,2.57,2.29,22.17
7,-21,-761,-79,-302,3862,0.31,-1.15,-31.40,-0.79,-3.02,38.62,-5.55,1.11,4.65,3.19,0.29,30.81
-14,-42,-765,-123,-321,3909,0.20,-1.29,-32.92,-1.23,-3.21,39.09,-5.54,1.11,4.78,6.16,3.23,29.52
11,-34,-818,-84,-385,4056,0.24,-1.37,-34.62,-0.84,-3.85,40.56,-5.52,1.10,4.92,2.43,1.86,32.20
-7,-33,-834,-122,-304,3848,0.18,-1.43,-36.25,-1.22,-3.04,38.48,-5.51,1.09,5.06,5.04,1.60,31.82
12,-16,-677,147,-163,4065,0.23,-1.39,-36.75,1.47,-1.63,40.65,-5.50,1.06,5.21,2.24,-0.89,17.97
29,8,-587,91,-230,3857,0.39,-1.20,-36.66,0.91,-2.30,38.57,-5.49,1.02,5.36,-0.07,-4.17,10.43
31,11,-461,6,-500,3824,0.54,-1.01,-35.80,0.06,-5.00,38.24,-5.50,1.00,5.50,-0.08,-4.26,0.65
33,12,-460,-73,-537,3900,0.68,-0.84,-35.03,-0.73,-5.37,39.00,-5.52,0.98,5.64,-0.09,-4.07,1.37
37,20,-403,-81,-457,3917,0.84,-0.63,-33.98,-0.81,-4.57,39.17,-5.54,0.97,5.77,-0.39,-4.89,-2.36
17,11,-390,-52,-443,3926,0.86,-0.50,-32.96,-0.52,-4.43,39.26,-5.55,0.95,5.90,2.70,-3.26,-2.40
15,7,-339,98,-336,3892,0.87,-0.41,-31.74,0.98,-3.36,38.92,-5.55,0.92,6.03,3.02,-2.45,-5.43
9,10,-325,47,-388,3864,0.83,-0.31,-30.54,0.47,-3.88,38.64,-5.55,0.89,6.15,3.87,-2.69,-5.36
8,-10,-287,-5,-483,3906,0.80,-0.34,-29.24,-0.05,-4.83,39.06,-5.56,0.87,6.27,3.97,0.31,-7.21
-7,-18,-317,-129,-478,3826,0.68,-0.41,-28.25,-1.29,-4.78,38.26,-5.58,0.86,6.38,6.03,1.39,-3.63
-24,-46,-472,-241,-345,3763,0.46,-0.65,-28.30,-2.41,-3.45,37.63,-5.58,0.87,6.49,8.22,5.20,9.43
-52,-68,-490,-10,-322,4071,0.10,-1.00,-28.46,-0.10,-3.22,40.71,-5.56,0.84,6.61,11.79,7.91,10.78
-31,-29,-434,-25,-281,3880,-0.10,-1.08,-28.26,-0.25,-2.81,38.80,-5.55,0.82,6.72,8.20,1.84,6.24
-29,-37,-414,-9,-356,3924,-0.27,-1.20,-27.96,-0.09,-3.56,39.24,-5.54,0.79,6.83,7.57,2.85,4.85
-15,-23,-384,-70,-323,3907,-0.33,-1.22,-27.51,-0.70,-3.23,39.07,-5.53,0.78,6.94,5.31,0.69,2.78
-11,-9,-386,-111,-278,3912,-0.37,-1.15,-27.11,-1.11,-2.78,39.12,-5.51,0.77,7.05,4.62,-1.32,3.36
10,2,-274,79,-348,3965,-0.27,-1.02,-26.07,0.79,-3.48,39.65,-5.51,0.74,7.15,1.61,-2.73,-5.04
23,22,-215,7,-289,3922,-0.10,-0.79,-24.78,0.07,-2.89,39.22,-5.50,0.72,7.25,-0.07,-5.32,-8.67
-2,-8,-257,-124,-444,3836,-0.10,-0.76,-23.87,-1.24,-4.44,38.36,-5.51,0.72,7.34,3.75,-0.69,-4.16
8,-19,-316,-158,-352,3931,-0.04,-0.80,-23.41,-1.58,-3.52,39.31,-5.51,0.73,7.43,2.33,0.91,1.32
-6,-17,-327,-94,-304,3880,-0.08,-0.82,-23.06,-0.94,-3.04,38.80,-5.49,0.72,7.53,4.40,0.56,2.61
-12,-15,-334,-184,-324,3869,-0.14,-0.83,-22.79,-1.84,-3.24,38.69,-5.49,0.73,7.62,5.19,0.23,3.48
-26,-43,-452,-105,-289,3872,-0.29,-1.01,-23.27,-1.05,-2.89,38.72,-5.48,0.73,7.71,7.04,4.17,12.96
-22,-42,-476,-163,-401,4008,-0.39,-1.17,-23.85,-1.63,-4.01,40.08,-5.48,0.73,7.80,6.23,3.72,14.37
13,-4,-420,-201,-296,4007,-0.27,-1.07,-24.02,-2.01,-2.96,40.07,-5.48,0.73,7.90,1.11,-1.91,9.43
22,-10,-417,-237,-241,3868,-0.11,-1.03,-24.17,-2.37,-2.41,38.68,-5.47,0.73,7.99,0.04,-0.90,9.02
-1,-14,-441,-84,-433,3918,-0.11,-1.01,-24.44,-0.84,-4.33,39.18,-5.48,0.73,8.09,3.57,-0.26,10.76
7,-4,-460,-128,-375,3838,-0.05,-0.93,-24.80,-1.28,-3.75,38.38,-5.49,0.74,8.19,2.45,-1.64,11.97
7,-4,-484,-42,-369,3958,-0.01,-0.86,-25.27,-0.42,-3.69,39.58,-5.47,0.71,8.29,2.54,-1.50,13.50
0,-10,-458,-39,-418,3970,-0.00,-0.84,-25.54,-0.39,-4.18,39.70,-5.49,0.69,8.39,3.62,-0.52,11.00
-7,-9,-457,-4,-439,3928,-0.05,-0.81,-25.77,-0.04,-4.39,39.28,-5.51,0.67,8.49,4.61,-0.60,10.66
-20,-14,-479,-79,-429,3872,-0.16,-0.81,-26.12,-0.79,-4.29,38.72,-5.53,0.66,8.60,6.39,0.15,12.15
-2,-31,-542,25,-471,3939,-0.16,-0.92,-26.81,0.25,-4.71,39.39,-5.54,0.64,8.70,3.66,2.56,16.74
8,-17,-569,-23,-395,3916,-0.10,-0.93,-27.60,-0.23,-3.95,39.16,-5.56,0.61,8.81,2.27,0.42,18.19
5,-18,-619,-187,-408,3878,-0.06,-0.95,-28.62,-1.87,-4.08,38.78,-5.56,0.61,8.93,2.80,0.54,21.34
-4,-36,-618,-127,-344,3836,-0.07,-1.07,-29.53,-1.27,-3.44,38.36,-5.56,0.61,9.04,4.14,3.05,20.28
-11,-12,-727,-113,-295,4039,-0.13,-1.04,-31.01,-1.13,-2.95,40.39,-5.54,0.61,9.17,5.08,-0.54,27.93
14,0,-735,-191,-285,3914,-0.03,-0.94,-32.39,-1.91,-2.85,39.14,-5.53,0.61,9.30,1.45,-2.17,27.14
-10,-29,-701,-75,-269,3833,-0.09,-1.02,-33.43,-0.75,-2.69,38.33,-5.52,0.60,9.43,4.99,2.10,23.15
-9,-16,-629,-114,-282,3850,-0.14,-1.02,-33.92,-1.14,-2.82,38.50,-5.51,0.59,9.56,4.75,0.13,16.51
0,-9,-538,-24,-315,3785,-0.12,-0.97,-33.81,-0.24,-3.15,37.85,-5.49,0.57,9.70,3.39,-0.84,8.91
4,2,-546,-111,-331,3928,-0.09,-0.86,-33.76,-1.11,-3.31,39.28,-5.48,0.57,9.83,2.84,-2.31,9.62
4,-15,-518,-141,-367,3814,-0.05,-0.86,-33.54,-1.41,-3.67,38.14,-5.48,0.57,9.96,2.91,0.27,7.47
9,-11,-527,-109,-356,3956,0.01,-0.85,-33.40,-1.09,-3.56,39.56,-5.48,0.57,10.10,2.26,-0.30,8.37
8,-8,-588,-178,-463,3908,0.05,-0.81,-33.65,-1.78,-4.63,39.08,-5.49,0.57,10.23,2.51,-0.69,13.26
13,-7,-600,-256,-361,3923,0.13,-0.77,-33.95,-2.56,-3.61,39.23,-5.49,0.57,10.37,1.88,-0.77,13.96
11,0,-615,-170,-372,3904,0.18,-0.69,-34.30,-1.70,-3.72,39.04,-5.49,0.58,10.50,2.29,-1.70,14.84
17,2,-630,-153,-358,3886,0.27,-0.61,-34.72,-1.53,-3.58,38.86,-5.49,0.58,10.64,1.54,-1.85,15.66
-6,-12,-781,-207,-457,3869,0.20,-0.62,-36.01,-2.07,-4.57,38.69,-5.50,0.58,10.78,4.93,0.26,27.07
30,7,-839,-101,-397,3859,0.37,-0.52,-37.53,-1.01,-3.97,38.59,-5.50,0.58,10.93,-0.25,-2.43,30.36
38,20,-811,46,-367,3935,0.56,-0.35,-38.72,0.46,-3.67,39.35,-5.50,0.54,11.09,-1.10,-4.06,26.71
60,32,-749,23,-333,3917,0.87,-0.12,-39.42,0.23,-3.33,39.17,-5.49,0.51,11.24,-3.88,-5.44,20.71
33,17,-592,78,-373,3887,0.99,-0.00,-39.09,0.78,-3.73,38.87,-5.49,0.48,11.40,0.46,-2.91,7.74
18,14,-559,95,-482,3876,1.00,0.08,-38.59,0.95,-4.82,38.76,-5.49,0.45,11.55,2.77,-2.27,5.46
32,11,-368,206,-576,3901,1.09,0.14,-36.97,2.06,-5.76,39.01,-5.50,0.43,11.70,0.82,-1.69,-9.03
30,7,-311,242,-664,4006,1.17,0.17,-35.17,2.42,-6.64,40.06,-5.51,0.40,11.84,1.27,-1.01,-11.96
11,3,-173,-51,-526,3883,1.12,0.17,-32.71,-0.51,-5.26,38.83,-5.53,0.39,11.97,4.09,-0.39,-21.06
9,-1,-154,-108,-519,3911,1.06,0.15,-30.38,-1.08,-5.19,39.11,-5.54,0.39,12.09,4.29,0.18,-20.21
22,20,-55,-43,-443,3899,1.09,0.26,-27.68,-0.43,-4.43,38.99,-5.55,0.38,12.20,2.37,-2.82,-25.75
7,12,-56,-100,-360,3882,1.02,0.30,-25.25,-1.00,-3.60,38.82,-5.55,0.39,12.30,4.53,-1.51,-23.10
-7,-5,-174,-197,-304,3897,0.88,0.24,-23.79,-1.97,-3.04,38.97,-5.54,0.40,12.40,6.38,0.96,-11.56
-11,-13,-225,-163,-341,3890,0.72,0.14,-22.78,-1.63,-3.41,38.90,-5.53,0.41,12.49,6.69,1.98,-6.18
-57,-62,-467,-16,-392,3981,0.30,-0.25,-23.35,-0.16,-3.92,39.81,-5.54,0.38,12.58,12.92,8.72,13.71
-56,-62,-506,-97,-315,3842,-0.07,-0.61,-24.10,-0.97,-3.15,38.42,-5.53,0.39,12.68,12.06,8.05,16.21
-22,-44,-398,-42,-256,3963,-0.20,-0.81,-24.12,-0.42,-2.56,39.63,-5.51,0.38,12.77,6.62,4.92,7.03
-18,-36,-351,-65,-264,3866,-0.29,-0.95,-23.85,-0.65,-2.64,38.66,-5.49,0.37,12.87,5.83,3.44,3.33
9,-4,-222,-64,-351,3873,-0.20,-0.88,-22.82,-0.64,-3.51,38.73,-5.49,0.37,12.96,1.86,-1.31,-6.52
12,6,-191,-121,-361,3936,-0.11,-0.76,-21.70,-1.21,-3.61,39.36,-5.48,0.38,13.04,1.58,-2.60,-7.97
6,-1,-168,-53,-387,3933,-0.06,-0.69,-20.56,-0.53,-3.87,39.33,-5.49,0.39,13.12,2.59,-1.40,-8.72
2,-2,-221,-45,-292,3944,-0.04,-0.63,-19.85,-0.45,-2.92,39.44,-5.47,0.38,13.20,3.23,-1.14,-3.48
-6,-20,-346,-15,-463,3900,-0.08,-0.69,-19.97,-0.15,-4.63,39.00,-5.49,0.37,13.28,4.40,1.50,6.97
-17,-18,-321,154,-476,3848,-0.17,-0.73,-19.94,1.54,-4.76,38.48,-5.50,0.34,13.36,5.90,1.14,4.88
6,-24,-377,-319,-363,3922,-0.12,-0.80,-20.24,-3.19,-3.63,39.22,-5.50,0.35,13.44,2.49,1.91,9.30
-23,-25,-463,-188,-436,3742,-0.25,-0.88,-21.04,-1.88,-4.36,37.42,-5.51,0.35,13.53,6.68,1.92,15.73
2,-6,-583,-111,-332,3889,-0.21,-0.82,-22.49,-1.11,-3.32,38.89,-5.51,0.36,13.61,2.93,-0.88,24.35
1,-14,-584,-45,-394,3885,-0.18,-0.83,-23.81,-0.45,-3.94,38.85,-5.52,0.36,13.71,3.14,0.33,23.04
15,-11,-524,-92,-209,3966,-0.07,-0.81,-24.62,-0.92,-2.09,39.66,-5.50,0.35,13.81,1.21,-0.09,17.08
0,-4,-510,-99,-238,3805,-0.07,-0.76,-25.27,-0.99,-2.38,38.05,-5.49,0.35,13.91,3.50,-1.05,15.20
-10,6,-597,-220,-244,3802,-0.12,-0.64,-26.39,-2.20,-2.44,38.02,-5.48,0.35,14.01,4.91,-2.37,21.38
-24,-26,-609,-69,-318,3930,-0.25,-0.74,-27.46,-0.69,-3.18,39.30,-5.47,0.35,14.12,6.79,2.34,21.25
3,-14,-593,42,-403,4027,-0.21,-0.75,-28.33,0.42,-4.03,40.27,-5.47,0.32,14.23,2.76,0.51,18.96
6,-2,-610,-70,-453,4049,-0.15,-0.69,-29.22,-0.70,-4.53,40.49,-5.49,0.32,14.35,2.42,-1.20,19.45
9,-13,-570,-182,-236,3898,-0.08,-0.70,-29.78,-1.82,-2.36,38.98,-5.48,0.32,14.47,2.09,0.45,15.46
11,0,-499,-68,-318,3887,-0.01,-0.63,-29.84,-0.68,-3.18,38.87,-5.47,0.31,14.59,1.92,-1.40,9.36
4,-3,-494,111,-443,3937,0.02,-0.58,-29.87,1.11,-4.43,39.37,-5.47,0.28,14.71,3.04,-0.83,8.90
7,-17,-510,137,-434,3963,0.06,-0.63,-30.00,1.37,-4.34,39.63,-5.48,0.25,14.82,2.66,1.24,10.11
16,-12,-501,-65,-367,3992,0.15,-0.64,-30.05,-0.65,-3.67,39.92,-5.47,0.26,14.94,1.46,0.45,9.28
12,61,-517,-347,-421,4327,0.21,-0.20,-30.20,-3.47,-4.21,43.27,-5.47,0.26,15.06,2.18,-9.86,10.47
32,15,-423,-147,-264,3873,0.38,-0.09,-29.76,-1.47,-2.64,38.73,-5.46,0.26,15.18,-0.55,-2.63,2.96
2,-1,-385,-125,-144,3923,0.36,-0.09,-29.13,-1.25,-1.44,39.23,-5.44,0.26,15.30,3.96,-0.19,0.39
-1,9,-318,-95,-125,3857,0.31,-0.02,-28.16,-0.95,-1.25,38.57,-5.43,0.26,15.41,4.33,-1.59,-4.26
-1,8,-346,-202,-264,3981,0.28,0.03,-27.45,-2.02,-2.64,39.81,-5.42,0.26,15.52,4.25,-1.34,-1.15
4,-2,-233,117,-470,3936,0.27,0.01,-26.13,1.17,-4.70,39.36,-5.43,0.24,15.62,3.49,0.17,-9.33
-1,4,-168,154,-493,3943,0.24,0.04,-24.54,1.54,-4.93,39.43,-5.44,0.21,15.72,4.20,-0.68,-13.17
1,5,-114,-36,-368,3919,0.22,0.06,-22.78,-0.36,-3.68,39.19,-5.43,0.22,15.81,3.85,-0.79,-15.89
0,7,-112,-3,-374,3894,0.20,0.10,-21.19,-0.03,-3.74,38.94,-5.44,0.20,15.90,3.97,-1.01,-14.38
-4,5,-98,-105,-323,3859,0.16,0.12,-19.67,-1.05,-3.23,38.59,-5.43,0.21,15.97,4.49,-0.67,-13.96
0,4,-97,-115,-274,3909,0.14,0.13,-18.29,-1.15,-2.74,39.09,-5.42,0.21,16.05,3.84,-0.50,-12.60
-15,-16,-314,-207,-309,3779,0.03,0.02,-18.38,-2.07,-3.09,37.79,-5.41,0.22,16.12,5.92,2.33,5.69
21,-1,-349,-188,-305,4029,0.16,0.01,-18.67,-1.88,-3.05,40.29,-5.40,0.23,16.20,0.67,0.02,8.34
-7,-15,-370,232,-463,3918,0.10,-0.08,-19.06,2.32,-4.63,39.18,-5.41,0.21,16.27,4.83,2.00,9.70
9,-3,-283,228,-321,4010,0.15,-0.09,-18.88,2.28,-3.21,40.10,-5.40,0.18,16.35,2.47,0.17,2.51
-29,-11,-444,-401,-377,3842,-0.05,-0.15,-19.70,-4.01,-3.77,38.42,-5.41,0.19,16.42,7.90,1.27,15.28
1,-18,-459,-254,-442,3970,-0.04,-0.24,-20.53,-2.54,-4.42,39.70,-5.41,0.20,16.51,3.35,2.15,15.66
-5,-12,-475,-28,-327,3919,-0.06,-0.29,-21.37,-0.28,-3.27,39.19,-5.39,0.20,16.59,4.20,1.15,16.12
1,-20,-467,100,-157,3860,-0.05,-0.38,-22.09,1.00,-1.57,38.60,-5.38,0.18,16.68,3.30,2.20,14.68
-9,-5,-405,-55,-414,3913,-0.10,-0.38,-22.35,-0.55,-4.14,39.13,-5.39,0.18,16.77,4.74,-0.07,9.14
-4,-9,-390,-64,-259,3891,-0.11,-0.39,-22.49,-0.64,-2.59,38.91,-5.38,0.18,16.86,3.94,0.51,7.71
-4,-25,-348,-92,-405,3948,-0.13,-0.51,-22.37,-0.92,-4.05,39.48,-5.38,0.19,16.95,3.92,2.73,4.28
-1,-16,-323,-116,-345,3920,-0.12,-0.55,-22.10,-1.16,-3.45,39.20,-5.38,0.19,17.03,3.48,1.26,2.43
13,2,-247,-21,-387,3934,-0.03,-0.49,-21.40,-0.21,-3.87,39.34,-5.40,0.19,17.12,1.53,-1.35,-3.27
17,2,-231,-18,-440,3975,0.08,-0.43,-20.67,-0.18,-4.40,39.75,-5.42,0.18,17.20,1.13,-1.23,-3.86
1,4,-223,44,-438,3884,0.08,-0.36,-19.96,0.44,-4.38,38.84,-5.43,0.16,17.28,3.58,-1.40,-3.80
-8,-1,-218,63,-384,3987,0.02,-0.33,-19.29,0.63,-3.84,39.87,-5.43,0.14,17.36,4.84,-0.56,-3.52
-29,-37,-299,-44,-347,3879,-0.16,-0.52,-19.19,-0.44,-3.47,38.79,-5.42,0.14,17.43,7.70,4.56,3.45
-53,-44,-319,-169,-338,3878,-0.47,-0.74,-19.21,-1.69,-3.38,38.78,-5.42,0.15,17.51,10.78,5.21,5.10
-20,-37,-411,-218,-263,3874,-0.54,-0.89,-19.80,-2.18,-2.63,38.74,-5.42,0.16,17.59,5.60,3.85,12.27
10,-26,-423,-175,-226,3794,-0.43,-0.96,-20.40,-1.75,-2.26,37.94,-5.41,0.16,17.67,1.23,2.04,12.65
29,38,-525,-200,-312,3788,-0.21,-0.63,-21.56,-2.00,-3.12,37.88,-5.40,0.17,17.75,-1.25,-7.10,20.05
-2,-19,-571,-94,-280,3867,-0.20,-0.68,-22.89,-0.94,-2.80,38.67,-5.39,0.17,17.85,3.49,1.49,22.53
-30,-37,-560,63,-317,3946,-0.36,-0.84,-24.02,0.63,-3.17,39.46,-5.38,0.14,17.94,7.44,3.96,20.40
-12,-20,-484,164,-299,3899,-0.40,-0.88,-24.57,1.64,-2.99,38.99,-5.38,0.11,18.04,4.62,1.31,13.37
-25,-35,-403,14,-335,3891,-0.51,-1.01,-24.57,0.14,-3.35,38.91,-5.36,0.09,18.14,6.38,3.38,6.49
-4,-22,-401,-77,-335,4031,-0.48,-1.04,-24.56,-0.77,-3.35,40.31,-5.36,0.09,18.23,3.23,1.33,6.33
-2,-18,-420,-19,-288,3906,-0.45,-1.04,-24.66,-0.19,-2.88,39.06,-5.34,0.08,18.33,2.98,0.71,7.82
3,-22,-431,-24,-315,3923,-0.39,-1.07,-24.83,-0.24,-3.15,39.23,-5.32,0.07,18.43,2.33,1.27,8.57
14,-9,-490,-139,-347,3972,-0.26,-1.02,-25.33,-1.39,-3.47,39.72,-5.32,0.08,18.53,0.88,-0.61,13.02
7,-8,-512,-189,-330,3853,-0.19,-0.97,-25.92,-1.89,-3.30,38.53,-5.32,0.08,18.63,2.08,-0.67,14.25
6,-9,-493,-83,-383,3854,-0.14,-0.93,-26.34,-0.83,-3.83,38.54,-5.33,0.08,18.74,2.34,-0.44,12.19
15,-9,-473,-66,-395,3927,-0.03,-0.89,-26.59,-0.66,-3.95,39.27,-5.34,0.09,18.84,1.17,-0.37,10.22
11,2,-462,-60,-358,4048,0.04,-0.79,-26.75,-0.60,-3.58,40.48,-5.33,0.09,18.95,1.91,-1.86,9.11
7,6,-470,7,-467,3945,0.08,-0.67,-26.94,0.07,-4.67,39.45,-5.35,0.08,19.06,2.61,-2.24,9.58
0,-15,-412,-47,-300,3979,0.07,-0.70,-26.76,-0.47,-3.00,39.79,-5.33,0.07,19.16,3.65,0.92,4.84
1,-21,-418,-24,-327,3782,0.07,-0.76,-26.63,-0.24,-3.27,37.82,-5.32,0.07,19.27,3.49,1.73,5.48
-9,-11,-442,-161,-248,3949,0.01,-0.75,-26.67,-1.61,-2.48,39.49,-5.31,0.07,19.37,4.89,0.22,7.47
-10,-13,-459,-80,-172,3864,-0.05,-0.75,-26.80,-0.80,-1.72,38.64,-5.29,0.07,19.48,4.91,0.52,8.76
4,-4,-492,-194,-299,3879,-0.02,-0.70,-27.12,-1.94,-2.99,38.79,-5.28,0.07,19.59,2.83,-0.76,11.20
-6,-11,-500,-150,-360,3886,-0.06,-0.70,-27.46,-1.50,-3.60,38.86,-5.28,0.08,19.70,4.29,0.31,11.51
12,1,-525,-81,-331,4019,0.02,-0.62,-27.92,-0.81,-3.31,40.19,-5.28,0.08,19.81,1.69,-1.38,13.14
15,11,-552,-50,-260,3883,0.11,-0.49,-28.49,-0.50,-2.60,38.83,-5.26,0.08,19.92,1.39,-2.66,14.80
33,21,-570,-50,-310,3918,0.30,-0.32,-29.12,-0.50,-3.10,39.18,-5.24,0.08,20.04,-1.00,-3.85,15.65
27,19,-557,-53,-319,3878,0.43,-0.17,-29.60,-0.53,-3.19,38.78,-5.23,0.08,20.16,0.16,-3.27,14.03
-10,-14,-570,41,-463,4021,0.33,-0.24,-30.12,0.41,-4.63,40.21,-5.25,0.06,20.28,5.61,1.65,14.57
26,2,-581,-110,-486,4011,0.46,-0.20,-30.65,-1.10,-4.86,40.11,-5.26,0.06,20.40,0.37,-0.72,14.93
-3,-8,-508,68,-361,3836,0.39,-0.23,-30.69,0.68,-3.61,38.36,-5.26,0.03,20.52,4.67,0.77,8.70
0,-28,-515,71,-465,3906,0.35,-0.38,-30.76,0.71,-4.65,39.06,-5.27,0.01,20.64,4.15,3.55,9.20
-9,-36,-556,67,-494,3918,0.26,-0.56,-31.08,0.67,-4.94,39.18,-5.29,-0.02,20.77,5.36,4.44,12.33
-26,-46,-560,40,-381,3812,0.08,-0.78,-31.38,0.40,-3.81,38.12,-5.30,-0.05,20.89,7.61,5.56,12.33
-6,-26,-560,-61,-417,3923,0.03,-0.86,-31.66,-0.61,-4.17,39.23,-5.31,-0.05,21.02,4.48,2.36,12.03
-12,-21,-534,-86,-255,3782,-0.04,-0.91,-31.75,-0.86,-2.55,37.82,-5.30,-0.05,21.14,5.24,1.52,9.72
5,-14,-574,-66,-502,3925,-0.01,-0.90,-32.08,-0.66,-5.02,39.25,-5.31,-0.06,21.27,2.73,0.47,12.75
10,-21,-582,41,-473,4033,0.05,-0.94,-32.42,0.41,-4.73,40.33,-5.33,-0.08,21.40,2.09,1.48,13.05
12,-14,-519,102,-292,3910,0.12,-0.93,-32.34,1.02,-2.92,39.10,-5.32,-0.11,21.53,1.91,0.45,7.78
-6,-17,-518,-105,-358,3929,0.07,-0.94,-32.27,-1.05,-3.58,39.29,-5.32,-0.11,21.66,4.56,0.88,7.77
5,-30,-575,18,-267,3877,0.10,-1.03,-32.55,0.18,-2.67,38.77,-5.30,-0.13,21.78,2.91,2.71,12.29
-8,-19,-589,-55,-345,3978,0.04,-1.04,-32.89,-0.55,-3.45,39.78,-5.29,-0.12,21.92,4.78,1.00,13.10
-2,-19,-623,-108,-246,3927,0.02,-1.05,-33.40,-1.08,-2.46,39.27,-5.28,-0.13,22.05,3.83,0.99,15.43
4,-5,-614,-162,-259,3959,0.04,-0.98,-33.81,-1.62,-2.59,39.59,-5.27,-0.13,22.18,2.95,-1.01,14.23
-1,-18,-635,-79,-217,3925,0.03,-0.99,-34.30,-0.79,-2.17,39.25,-5.25,-0.14,22.32,3.68,0.96,15.47
14,3,-628,-120,-195,3873,0.12,-0.87,-34.70,-1.20,-1.95,38.73,-5.23,-0.14,22.46,1.54,-2.02,14.44
-4,-8,-662,-145,-315,3845,0.08,-0.84,-35.27,-1.45,-3.15,38.45,-5.23,-0.14,22.60,4.21,-0.27,16.71
4,-17,-665,-25,-311,3951,0.10,-0.86,-35.80,-0.25,-3.11,39.51,-5.21,-0.15,22.74,3.01,1.07,16.39
-13,-23,-728,-38,-232,3894,0.01,-0.91,-36.66,-0.38,-2.32,38.94,-5.20,-0.16,22.88,5.43,1.89,20.80
18,-24,-765,-54,-377,3959,0.12,-0.97,-37.66,-0.54,-3.77,39.59,-5.20,-0.16,23.03,0.91,1.93,22.86
-3,-10,-831,-118,-397,3846,0.09,-0.93,-38.96,-1.18,-3.97,38.46,-5.21,-0.16,23.19,4.06,-0.13,27.06
15,-16,-842,-30,-367,3889,0.17,-0.93,-40.20,-0.30,-3.67,38.89,-5.21,-0.16,23.35,1.47,0.77,26.67
19,13,-911,-49,-347,3865,0.27,-0.76,-41.74,-0.49,-3.47,38.65,-5.21,-0.16,23.51,1.05,-3.32,30.87
30,7,-927,-21,-349,3967,0.42,-0.64,-43.22,-0.21,-3.49,39.67,-5.20,-0.16,23.69,-0.34,-2.18,30.64
71,57,-987,-100,-435,3935,0.81,-0.23,-44.92,-1.00,-4.35,39.35,-5.20,-0.16,23.87,-5.85,-9.02,33.91
83,47,-975,-28,-379,3915,1.24,0.08,-46.37,-0.28,-3.79,39.15,-5.21,-0.16,24.05,-6.87,-6.91,31.33
64,56,-942,-156,-237,3798,1.51,0.41,-47.48,-1.56,-2.37,37.98,-5.19,-0.16,24.24,-3.48,-7.65,27.35
47,49,-968,-203,-454,4006,1.64,0.67,-48.64,-2.03,-4.54,40.06,-5.19,-0.16,24.43,-0.63,-6.10,28.31
19,16,-1029,-190,-251,3830,1.59,0.70,-50.05,-1.90,-2.51,38.30,-5.18,-0.16,24.63,3.54,-1.01,31.96
12,-12,-1057,-167,-438,3825,1.51,0.56,-51.49,-1.67,-4.38,38.25,-5.18,-0.16,24.84,4.44,2.99,32.79
17,-25,-1018,7,-547,3924,1.46,0.35,-52.56,0.07,-5.47,39.24,-5.19,-0.17,25.05,3.60,4.59,28.34
15,5,-1001,-5,-491,4016,1.41,0.34,-53.41,-0.05,-4.91,40.16,-5.20,-0.19,25.26,3.81,0.02,25.98
17,-18,-992,90,-412,3908,1.37,0.20,-54.12,0.90,-4.12,39.08,-5.21,-0.22,25.48,3.44,3.27,24.45
8,-23,-999,14,-404,3932,1.28,0.04,-54.80,0.14,-4.04,39.32,-5.22,-0.24,25.69,4.65,3.74,24.30
5,-34,-955,43,-417,3889,1.18,-0.17,-55.14,0.43,-4.17,38.89,-5.23,-0.27,25.91,4.93,5.04,20.19
-15,-39,-917,-7,-293,3891,0.97,-0.39,-55.22,-0.07,-2.93,38.91,-5.21,-0.29,26.13,7.57,5.39,16.86
9,-8,-681,148,-183,3813,0.93,-0.40,-53.86,1.48,-1.83,38.13,-5.19,-0.32,26.35,3.82,0.67,-1.70
17,0,-572,139,-204,3905,0.94,-0.36,-51.96,1.39,-2.04,39.05,-5.17,-0.35,26.56,2.60,-0.45,-8.95
-2,-5,-297,-56,-347,3934,0.84,-0.36,-48.57,-0.56,-3.47,39.34,-5.16,-0.35,26.75,5.29,0.32,-28.68
6,-9,-248,-41,-363,3938,0.79,-0.38,-45.23,-0.41,-3.63,39.38,-5.16,-0.35,26.93,3.98,0.89,-29.31
3,-4,-177,39,-286,3944,0.73,-0.36,-41.79,0.39,-2.86,39.44,-5.14,-0.37,27.10,4.31,0.17,-31.69
-3,-4,-191,9,-257,3932,0.64,-0.35,-38.77,0.09,-2.57,39.32,-5.12,-0.38,27.25,5.04,0.20,-27.33
4,6,-200,-139,-304,3885,0.60,-0.28,-36.12,-1.39,-3.04,38.85,-5.11,-0.38,27.39,3.89,-1.19,-23.76
3,-1,-190,-173,-283,3908,0.56,-0.26,-33.66,-1.73,-2.83,39.08,-5.10,-0.37,27.53,3.96,-0.09,-22.03
-2,-7,-198,-120,-272,3894,0.49,-0.27,-31.50,-1.20,-2.72,38.94,-5.09,-0.37,27.65,4.59,0.79,-19.07
2,1,-211,-120,-282,3927,0.45,-0.24,-29.64,-1.20,-2.82,39.27,-5.08,-0.37,27.77,3.90,-0.37,-16.01
6,-4,-246,-111,-324,3911,0.44,-0.24,-28.18,-1.11,-3.24,39.11,-5.07,-0.36,27.88,3.27,0.39,-11.51
2,2,-257,-168,-313,3916,0.41,-0.20,-26.93,-1.68,-3.13,39.16,-5.07,-0.35,27.99,3.82,-0.46,-9.26
4,0,-300,-81,-320,3914,0.39,-0.18,-26.06,-0.81,-3.20,39.14,-5.06,-0.34,28.09,3.48,-0.12,-4.71
9,1,-302,-270,-344,3956,0.41,-0.16,-25.30,-2.70,-3.44,39.56,-5.06,-0.33,28.20,2.74,-0.23,-3.74
8,-4,-318,-17,-340,3851,0.42,-0.17,-24.71,-0.17,-3.40,38.51,-5.06,-0.32,28.29,2.91,0.51,-1.77
6,2,-309,-26,-433,3892,0.41,-0.14,-24.12,-0.26,-4.33,38.92,-5.07,-0.33,28.39,3.21,-0.35,-1.92
-2,-2,-227,-13,-356,3887,0.36,-0.14,-23.10,-0.13,-3.56,38.87,-5.07,-0.32,28.48,4.33,0.25,-7.79
-5,1,-213,-43,-334,3909,0.29,-0.12,-22.09,-0.43,-3.34,39.09,-5.07,-0.31,28.57,4.66,-0.17,-7.91
7,-1,-201,-74,-328,3930,0.31,-0.11,-21.10,-0.74,-3.28,39.30,-5.06,-0.30,28.65,2.85,0.14,-7.90
-3,-6,-221,-47,-281,3932,0.26,-0.14,-20.34,-0.47,-2.81,39.32,-5.05,-0.29,28.73,4.28,0.85,-5.40
9,-17,-183,-7,-308,3860,0.29,-0.23,-19.42,-0.07,-3.08,38.60,-5.03,-0.29,28.81,2.49,2.35,-7.66
-5,-14,-185,14,-292,3985,0.23,-0.29,-18.61,0.14,-2.92,39.85,-5.01,-0.29,28.89,4.50,1.78,-6.63
-1,3,-218,-62,-268,3847,0.20,-0.24,-18.08,-0.62,-2.68,38.47,-5.00,-0.29,28.96,3.83,-0.73,-3.28
4,-4,-221,-86,-266,3905,0.20,-0.24,-17.62,-0.86,-2.66,39.05,-4.99,-0.28,29.03,3.07,0.33,-2.55
6,-2,-212,-41,-335,3924,0.22,-0.23,-17.15,-0.41,-3.35,39.24,-4.98,-0.27,29.10,2.79,0.04,-2.82
5,0,-207,-54,-288,3884,0.23,-0.21,-16.70,-0.54,-2.88,38.84,-4.97,-0.26,29.16,2.95,-0.22,-2.77
4,-5,-227,-61,-329,3893,0.23,-0.22,-16.41,-0.61,-3.29,38.93,-4.97,-0.25,29.23,3.10,0.51,-0.78
5,-8,-229,-61,-326,3936,0.24,-0.24,-16.17,-0.61,-3.26,39.36,-4.96,-0.24,29.29,2.96,0.91,-0.36
0,-3,-236,-80,-327,3912,0.21,-0.24,-15.99,-0.80,-3.27,39.12,-4.96,-0.22,29.36,3.68,0.15,0.42
1,-8,-233,-127,-327,3839,0.20,-0.26,-15.81,-1.27,-3.27,38.39,-4.96,-0.21,29.42,3.50,0.86,0.35
4,-16,-261,-22,-363,3910,0.20,-0.33,-15.82,-0.22,-3.63,39.10,-4.97,-0.20,29.48,3.05,1.94,2.70
-4,-10,-264,-98,-283,3919,0.16,-0.36,-15.85,-0.98,-2.83,39.19,-4.96,-0.19,29.55,4.18,0.97,2.92
-2,-3,-220,-139,-310,3988,0.13,-0.34,-15.61,-1.39,-3.10,39.88,-4.95,-0.18,29.61,3.82,-0.07,-0.55
1,-12,-212,-135,-160,3912,0.12,-0.38,-15.34,-1.35,-1.60,39.12,-4.94,-0.18,29.67,3.34,1.22,-0.95
-25,-39,-243,-176,-456,3962,-0.04,-0.58,-15.29,-1.76,-4.56,39.62,-4.95,-0.17,29.73,7.00,4.96,1.72
-27,-35,-260,-147,-394,3838,-0.20,-0.74,-15.35,-1.47,-3.94,38.38,-4.96,-0.16,29.79,7.01,4.05,3.10
-25,-36,-258,250,-470,3861,-0.33,-0.88,-15.39,2.50,-4.70,38.61,-4.97,-0.19,29.85,6.46,3.94,2.88
-34,-33,-239,95,-346,3945,-0.51,-1.00,-15.30,0.95,-3.46,39.45,-4.97,-0.21,29.91,7.50,3.29,1.35
-28,-40,-271,-73,-259,3852,-0.63,-1.14,-15.43,-0.73,-2.59,38.52,-4.96,-0.21,29.97,6.35,4.08,3.93
-27,-34,-286,-50,-178,3905,-0.73,-1.23,-15.63,-0.50,-1.78,39.05,-4.94,-0.21,30.04,6.00,2.99,4.98
10,-4,-321,-85,-316,3886,-0.60,-1.14,-16.02,-0.85,-3.16,38.86,-4.94,-0.21,30.10,0.61,-1.40,7.52
14,6,-329,-63,-246,3913,-0.45,-0.99,-16.43,-0.63,-2.46,39.13,-4.93,-0.20,30.16,0.26,-2.65,7.76
28,16,-397,-31,-218,3897,-0.24,-0.79,-17.21,-0.31,-2.18,38.97,-4.91,-0.21,30.23,-1.47,-3.80,12.69
23,16,-414,-79,-317,3935,-0.07,-0.61,-18.01,-0.79,-3.17,39.35,-4.91,-0.20,30.30,-0.40,-3.47,13.27
36,28,-435,-45,-352,3882,0.16,-0.38,-18.86,-0.45,-3.52,38.82,-4.92,-0.19,30.38,-1.95,-4.87,14.14
41,25,-444,-59,-336,3949,0.39,-0.19,-19.69,-0.59,-3.36,39.49,-4.91,-0.18,30.46,-2.27,-4.06,14.03
38,26,-493,-84,-294,3880,0.58,-0.01,-20.73,-0.84,-2.94,38.80,-4.90,-0.17,30.54,-1.46,-3.88,17.07
44,27,-507,-83,-286,3854,0.79,0.15,-21.75,-0.83,-2.86,38.54,-4.89,-0.16,30.63,-1.98,-3.72,17.17
41,27,-541,-161,-310,3936,0.96,0.30,-22.87,-1.61,-3.10,39.36,-4.88,-0.15,30.72,-1.20,-3.45,18.85
23,25,-543,-133,-281,3829,1.01,0.43,-23.90,-1.33,-2.81,38.29,-4.87,-0.13,30.81,1.62,-2.92,17.93
22,13,-560,-92,-402,3937,1.04,0.46,-24.92,-0.92,-4.02,39.37,-4.88,-0.13,30.91,1.84,-1.02,18.27
5,11,-565,-64,-304,3840,0.97,0.48,-25.88,-0.64,-3.04,38.40,-4.87,-0.12,31.02,4.28,-0.69,17.68
17,3,-561,-36,-363,3885,0.97,0.45,-26.71,-0.36,-3.63,38.85,-4.88,-0.11,31.12,2.47,0.47,16.44
9,-2,-559,-60,-259,3860,0.93,0.40,-27.45,-0.60,-2.59,38.60,-4.86,-0.10,31.23,3.60,1.12,15.48
3,-9,-547,57,-579,3883,0.86,0.30,-28.04,0.57,-5.79,38.83,-4.87,-0.11,31.34,4.38,2.02,13.83
-23,-12,-519,52,-575,3821,0.63,0.20,-28.40,0.52,-5.75,38.21,-4.89,-0.13,31.46,7.93,2.29,11.06
2,-6,-493,37,-100,3902,0.58,0.14,-28.57,0.37,-1.00,39.02,-4.87,-0.14,31.57,4.01,1.27,8.67
11,-8,-516,69,-179,3933,0.59,0.08,-28.86,0.69,-1.79,39.33,-4.85,-0.15,31.69,2.64,1.47,10.30
12,-11,-597,-54,-222,3874,0.60,0.00,-29.62,-0.54,-2.22,38.74,-4.83,-0.15,31.80,2.50,1.79,16.36
0,-11,-647,-100,-232,3912,0.54,-0.06,-30.60,-1.00,-2.32,39.12,-4.82,-0.15,31.93,4.21,1.66,19.54
6,-3,-711,-67,-354,3877,0.53,-0.08,-31.88,-0.67,-3.54,38.77,-4.82,-0.15,32.05,3.26,0.41,23.60
12,-11,-721,-9,-406,3964,0.55,-0.14,-33.09,-0.09,-4.06,39.64,-4.83,-0.15,32.19,2.40,1.52,23.15
24,-9,-650,166,-369,3969,0.64,-0.18,-33.74,1.66,-3.69,39.69,-4.84,-0.18,32.32,0.74,1.16,16.43
13,24,-629,-171,-435,4051,0.65,-0.01,-34.21,-1.71,-4.35,40.51,-4.84,-0.18,32.46,2.45,-3.57,14.15
10,7,-675,-137,-364,3887,0.65,0.03,-34.90,-1.37,-3.64,38.87,-4.84,-0.17,32.59,2.90,-0.90,17.29
15,-2,-665,-111,-340,3842,0.68,0.02,-35.47,-1.11,-3.40,38.42,-4.84,-0.17,32.74,2.19,0.44,15.84
-6,-11,-577,-25,-259,3920,0.57,-0.05,-35.44,-0.25,-2.59,39.20,-4.82,-0.17,32.88,5.18,1.69,8.40
12,-1,-545,54,-329,3825,0.59,-0.05,-35.22,0.54,-3.29,38.25,-4.82,-0.20,33.02,2.47,0.18,5.90
6,2,-451,-8,-382,3911,0.57,-0.04,-34.45,-0.08,-3.82,39.11,-4.84,-0.20,33.16,3.35,-0.24,-1.25
0,4,-429,40,-392,3929,0.51,-0.01,-33.62,0.40,-3.92,39.29,-4.85,-0.22,33.29,4.16,-0.48,-2.25
2,2,-362,7,-358,3882,0.47,0.00,-32.47,0.07,-3.58,38.82,-4.87,-0.23,33.42,3.80,-0.14,-6.72
-4,-3,-344,-10,-336,3934,0.40,-0.01,-31.32,-0.10,-3.36,39.34,-4.86,-0.22,33.54,4.58,0.58,-7.04
7,-18,-254,20,-424,3939,0.40,-0.12,-29.74,0.20,-4.24,39.39,-4.88,-0.23,33.66,2.91,2.67,-13.00
-1,-8,-236,22,-372,3870,0.36,-0.16,-28.20,0.22,-3.72,38.70,-4.90,-0.25,33.77,4.06,1.08,-12.91
-14,-15,-255,-68,-238,3859,0.23,-0.23,-26.94,-0.68,-2.38,38.59,-4.88,-0.24,33.88,5.80,2.00,-9.97
-3,-13,-273,-148,-199,3947,0.19,-0.29,-25.91,-1.48,-1.99,39.47,-4.87,-0.24,33.98,4.04,1.59,-7.37
9,1,-321,-61,-302,3905,0.23,-0.26,-25.28,-0.61,-3.02,39.05,-4.86,-0.23,34.09,2.27,-0.48,-2.64
-2,-9,-329,3,-298,3951,0.19,-0.28,-24.76,0.03,-2.98,39.51,-4.84,-0.24,34.18,3.87,0.99,-1.42
-6,-13,-400,-89,-242,3891,0.14,-0.34,-24.72,-0.89,-2.42,38.91,-4.83,-0.23,34.28,4.36,1.50,4.63
5,-10,-420,-41,-368,3953,0.15,-0.36,-24.81,-0.41,-3.68,39.53,-4.84,-0.22,34.38,2.72,0.99,6.22
1,-10,-385,10,-310,3884,0.14,-0.39,-24.68,0.10,-3.10,38.84,-4.82,-0.23,34.48,3.30,0.94,3.38
-3,-12,-382,-8,-362,3932,0.11,-0.42,-24.54,-0.08,-3.62,39.32,-4.83,-0.23,34.58,3.86,1.18,3.27
3,4,-356,-56,-373,3838,0.12,-0.36,-24.26,-0.56,-3.73,38.38,-4.84,-0.22,34.67,2.96,-1.14,1.35
-2,-5,-335,-72,-357,3936,0.09,-0.35,-23.88,-0.72,-3.57,39.36,-4.85,-0.21,34.77,3.68,0.24,-0.03
-5,0,-266,-60,-359,3916,0.05,-0.32,-23.11,-0.60,-3.59,39.16,-4.85,-0.21,34.86,4.07,-0.46,-5.07
7,0,-265,-28,-359,3931,0.09,-0.28,-22.42,-0.28,-3.59,39.31,-4.86,-0.20,34.95,2.32,-0.41,-4.43
2,-2,-246,-146,-252,3862,0.10,-0.27,-21.68,-1.46,-2.52,38.62,-4.85,-0.19,35.04,3.08,-0.08,-5.26
-6,14,-282,-340,-236,3995,0.05,-0.16,-21.23,-3.40,-2.36,39.95,-4.85,-0.18,35.12,4.21,-2.31,-1.75
10,-2,-396,-54,-236,3848,0.11,-0.15,-21.52,-0.54,-2.36,38.48,-4.83,-0.18,35.21,1.86,0.13,7.59
4,3,-437,-13,-301,3869,0.12,-0.12,-22.03,-0.13,-3.01,38.69,-4.82,-0.17,35.29,2.79,-0.57,10.52
-2,1,-402,21,-313,3877,0.09,-0.10,-22.28,0.21,-3.13,38.77,-4.80,-0.19,35.38,3.65,-0.22,7.28
-4,-3,-369,50,-273,3815,0.06,-0.11,-22.31,0.50,-2.73,38.15,-4.79,-0.21,35.47,3.88,0.39,4.45
5,1,-316,18,-372,3923,0.09,-0.09,-22.00,0.18,-3.72,39.23,-4.80,-0.22,35.56,2.57,-0.18,0.27
8,-5,-308,-22,-391,3935,0.13,-0.11,-21.68,-0.22,-3.91,39.35,-4.82,-0.22,35.65,2.20,0.69,-0.07
8,-2,-247,27,-400,3940,0.16,-0.11,-21.02,0.27,-4.00,39.40,-4.84,-0.23,35.73,2.28,0.24,-4.55
3,6,-238,40,-393,3862,0.16,-0.07,-20.37,0.40,-3.93,38.62,-4.85,-0.24,35.81,3.06,-0.88,-4.63
2,0,-231,-65,-324,3915,0.16,-0.06,-19.74,-0.65,-3.24,39.15,-4.85,-0.23,35.89,3.20,0.04,-4.56
4,-1,-238,-34,-295,3862,0.17,-0.06,-19.22,-0.34,-2.95,38.62,-4.84,-0.22,35.97,2.90,0.19,-3.42
-2,4,-276,-169,-282,3941,0.14,-0.03,-18.98,-1.69,-2.82,39.41,-4.83,-0.21,36.04,3.76,-0.53,0.04
1,-13,-284,-58,-191,3793,0.13,-0.11,-18.82,-0.58,-1.91,37.93,-4.82,-0.21,36.12,3.27,1.92,0.89
2,-2,-325,-18,-358,3880,0.13,-0.11,-18.92,-0.18,-3.58,38.80,-4.83,-0.20,36.19,3.13,0.24,4.25
1,-5,-331,-35,-318,3932,0.12,-0.13,-19.04,-0.35,-3.18,39.32,-4.82,-0.19,36.27,3.26,0.65,4.61
3,-7,-313,46,-367,3944,0.13,-0.16,-19.05,0.46,-3.67,39.44,-4.83,-0.21,36.34,2.98,0.91,3.08
1,8,-300,36,-433,3859,0.12,-0.09,-18.97,0.36,-4.33,38.59,-4.85,-0.22,36.42,3.28,-1.25,2.05
-5,-1,-216,-87,-388,3990,0.08,-0.09,-18.39,-0.87,-3.88,39.90,-4.86,-0.21,36.49,4.12,0.12,-4.46
18,1,-188,-107,-342,3850,0.18,-0.07,-17.70,-1.07,-3.42,38.50,-4.86,-0.20,36.56,0.81,-0.16,-6.11
-7,-6,-65,-55,-324,3888,0.12,-0.10,-16.33,-0.55,-3.24,38.88,-4.86,-0.19,36.63,4.50,0.84,-15.08
-6,2,-49,-88,-335,3936,0.07,-0.08,-14.99,-0.88,-3.35,39.36,-4.86,-0.18,36.69,4.26,-0.34,-15.03
2,-4,-84,-127,-255,3955,0.08,-0.10,-14.01,-1.27,-2.55,39.55,-4.85,-0.16,36.74,3.04,0.53,-11.02
-2,3,-108,-189,-279,3868,0.06,-0.07,-13.27,-1.89,-2.79,38.68,-4.84,-0.15,36.80,3.61,-0.49,-8.21
-2,-18,-161,-175,-197,3998,0.04,-0.17,-12.92,-1.75,-1.97,39.98,-4.83,-0.14,36.85,3.57,2.51,-3.36
16,-10,-210,-345,-353,3906,0.13,-0.22,-12.91,-3.45,-3.53,39.06,-4.83,-0.13,36.90,1.00,1.20,0.80
-5,-22,-385,-78,-248,3827,0.09,-0.33,-13.97,-0.78,-2.48,38.27,-4.82,-0.12,36.95,4.11,2.81,14.50
22,-15,-388,-21,-309,3876,0.21,-0.39,-14.94,-0.21,-3.09,38.76,-4.81,-0.11,37.01,0.22,1.63,13.72
4,-14,-401,-14,-310,3943,0.22,-0.43,-15.89,-0.14,-3.10,39.43,-4.79,-0.11,37.08,2.97,1.38,13.81
7,-12,-410,-91,-298,3878,0.24,-0.46,-16.80,-0.91,-2.98,38.78,-4.79,-0.10,37.14,2.54,1.02,13.60
-5,-12,-432,-74,-403,3962,0.18,-0.49,-17.76,-0.74,-4.03,39.62,-4.80,-0.09,37.21,4.28,0.96,14.45
4,-6,-439,-38,-480,3927,0.19,-0.48,-18.66,-0.38,-4.80,39.27,-4.82,-0.09,37.29,2.93,0.07,14.08
8,-8,-470,3,-429,3928,0.22,-0.48,-19.66,0.03,-4.29,39.28,-4.83,-0.10,37.37,2.39,0.38,15.64
11,-9,-442,40,-278,3908,0.26,-0.49,-20.39,0.40,-2.78,39.08,-4.82,-0.12,37.45,2.00,0.53,12.49
1,-11,-314,66,-281,3851,0.24,-0.50,-20.27,0.66,-2.81,38.51,-4.81,-0.14,37.53,3.48,0.82,1.77
0,-13,-287,13,-356,3945,0.22,-0.53,-19.99,0.13,-3.56,39.45,-4.82,-0.15,37.61,3.60,1.07,-0.24
1,-6,-303,-71,-307,3935,0.20,-0.52,-19.84,-0.71,-3.07,39.35,-4.82,-0.15,37.69,3.41,0.03,1.27
2,-5,-333,-67,-272,3942,0.20,-0.50,-19.89,-0.67,-2.72,39.42,-4.80,-0.14,37.77,3.24,-0.08,3.76
-4,1,-558,-164,-348,3959,0.15,-0.44,-21.30,-1.64,-3.48,39.59,-4.80,-0.13,37.85,4.07,-0.90,21.31
8,0,-597,-158,-365,3912,0.19,-0.40,-22.81,-1.58,-3.65,39.12,-4.81,-0.12,37.94,2.30,-0.67,23.01
-1,-4,-590,-10,-312,3846,0.16,-0.38,-24.13,-0.10,-3.12,38.46,-4.80,-0.12,38.04,3.62,-0.03,21.01
-3,-16,-646,-177,-180,3966,0.13,-0.44,-25.66,-1.77,-1.80,39.66,-4.78,-0.11,38.14,3.85,1.68,24.13
35,12,-681,-193,-384,3336,0.33,-0.32,-27.25,-1.93,-3.84,33.36,-4.79,-0.11,38.25,-1.56,-2.37,25.40
22,-1,-706,-102,-357,3990,0.43,-0.30,-28.83,-1.02,-3.57,39.90,-4.79,-0.10,38.36,0.62,-0.34,25.83
15,-16,-586,327,-37,3891,0.48,-0.36,-29.52,3.27,-0.37,38.91,-4.78,-0.12,38.48,1.77,1.83,14.92
15,-14,-487,288,-277,3813,0.52,-0.41,-29.54,2.88,-2.77,38.13,-4.77,-0.15,38.60,1.85,1.45,6.51
5,-6,-528,-190,-506,3997,0.50,-0.41,-29.81,-1.90,-5.06,39.97,-4.78,-0.15,38.72,3.34,0.24,9.69
4,-8,-550,-134,-307,3932,0.47,-0.42,-30.18,-1.34,-3.07,39.32,-4.78,-0.14,38.84,3.44,0.53,11.14
21,-2,-441,158,-233,3840,0.55,-0.39,-29.85,1.58,-2.33,38.40,-4.77,-0.17,38.96,0.99,-0.32,2.25
-2,9,-374,13,-363,3859,0.49,-0.29,-29.15,0.13,-3.63,38.59,-4.78,-0.18,39.07,4.38,-1.81,-2.70
2,-2,-281,-91,-299,3907,0.45,-0.28,-27.95,-0.91,-2.99,39.07,-4.78,-0.18,39.18,3.70,-0.10,-9.31
-4,-3,-310,-132,-357,3939,0.38,-0.27,-27.04,-1.32,-3.57,39.39,-4.78,-0.17,39.29,4.48,0.06,-5.91
3,-5,-463,-113,-299,3910,0.36,-0.27,-27.16,-1.13,-2.99,39.10,-4.77,-0.16,39.40,3.38,0.36,6.92
-2,-1,-515,-126,-232,3852,0.31,-0.25,-27.59,-1.26,-2.32,38.52,-4.76,-0.15,39.51,4.04,-0.22,10.86
8,-7,-545,11,-259,3909,0.33,-0.27,-28.15,0.11,-2.59,39.09,-4.74,-0.17,39.62,2.53,0.67,12.79
12,-3,-512,79,-254,3863,0.37,-0.26,-28.46,0.79,-2.54,38.63,-4.73,-0.19,39.74,1.99,0.09,9.66
2,-9,-382,50,-317,3896,0.35,-0.29,-27.95,0.50,-3.17,38.96,-4.72,-0.22,39.85,3.47,0.97,-0.81
-1,-1,-349,17,-368,3890,0.31,-0.27,-27.28,0.17,-3.68,38.90,-4.74,-0.23,39.96,3.86,-0.20,-2.92
7,-4,-237,26,-416,3954,0.32,-0.26,-26.00,0.26,-4.16,39.54,-4.75,-0.24,40.06,2.67,0.27,-11.06
0,1,-203,32,-358,3894,0.29,-0.23,-24.64,0.32,-3.58,38.94,-4.77,-0.26,40.16,3.69,-0.42,-12.50
1,0,-130,-15,-355,3933,0.26,-0.21,-22.97,-0.15,-3.55,39.33,-4.78,-0.25,40.25,3.50,-0.23,-16.93
1,-1,-121,-34,-353,3917,0.24,-0.19,-21.41,-0.34,-3.53,39.17,-4.79,-0.24,40.33,3.47,-0.05,-16.05
-1,2,-124,-51,-295,3901,0.21,-0.16,-20.02,-0.51,-2.95,39.01,-4.78,-0.23,40.41,3.71,-0.46,-14.33
2,0,-114,-12,-319,3902,0.20,-0.15,-18.72,-0.12,-3.19,39.02,-4.77,-0.22,40.49,3.23,-0.13,-13.80
0,-1,-58,-23,-354,3908,0.18,-0.14,-17.20,-0.23,-3.54,39.08,-4.78,-0.21,40.56,3.50,0.03,-16.95
0,0,-48,-29,-348,3918,0.16,-0.12,-15.77,-0.29,-3.48,39.18,-4.79,-0.20,40.62,3.47,-0.10,-16.29
-1,1,-35,-26,-270,3917,0.14,-0.10,-14.41,-0.26,-2.70,39.17,-4.77,-0.20,40.68,3.57,-0.22,-15.95
-1,0,-46,-40,-235,3917,0.12,-0.09,-13.25,-0.40,-2.35,39.17,-4.76,-0.19,40.73,3.52,-0.05,-13.80
-1,-5,-118,-9,-160,3916,0.10,-0.12,-12.64,-0.09,-1.60,39.16,-4.74,-0.20,40.78,3.48,0.67,-7.06
0,-4,-139,5,-149,3897,0.09,-0.13,-12.23,0.05,-1.49,38.97,-4.72,-0.20,40.83,3.29,0.50,-4.84
3,3,-200,8,-273,3855,0.10,-0.10,-12.22,0.08,-2.73,38.55,-4.70,-0.20,40.88,2.84,-0.51,0.32
-1,7,-197,2,-294,3906,0.09,-0.04,-12.20,0.02,-2.94,39.06,-4.68,-0.20,40.93,3.41,-1.02,0.09
3,-2,-111,12,-396,3898,0.10,-0.05,-11.66,0.12,-3.96,38.98,-4.70,-0.20,40.97,2.83,0.34,-6.63
0,-7,-104,-86,-333,3929,0.09,-0.09,-11.13,-0.86,-3.33,39.29,-4.70,-0.19,41.02,3.27,1.02,-6.66
2,-6,-123,-16,-305,3900,0.09,-0.12,-10.77,-0.16,-3.05,39.00,-4.69,-0.18,41.06,2.96,0.81,-4.67
-3,-2,-112,33,-287,3914,0.06,-0.12,-10.37,0.33,-2.87,39.14,-4.68,-0.19,41.10,3.66,0.21,-5.19
-4,-3,-73,-14,-440,3838,0.03,-0.12,-9.78,-0.14,-4.40,38.38,-4.69,-0.19,41.14,3.77,0.35,-7.87
-5,-2,-59,-51,-388,3942,-0.00,-0.12,-9.16,-0.51,-3.88,39.42,-4.71,-0.18,41.18,3.87,0.19,-8.41
1,-9,-83,-21,-299,3903,0.00,-0.17,-8.75,-0.21,-2.99,39.03,-4.70,-0.17,41.21,2.96,1.17,-5.94
0,-9,-82,-17,-343,3892,0.00,-0.20,-8.38,-0.17,-3.43,38.92,-4.71,-0.16,41.24,3.11,1.09,-5.64
3,1,-64,3,-316,3893,0.02,-0.18,-7.93,0.03,-3.16,38.93,-4.70,-0.14,41.28,2.68,-0.39,-6.69
2,0,-60,-23,-298,3894,0.03,-0.16,-7.50,-0.23,-2.98,38.94,-4.69,-0.13,41.31,2.85,-0.22,-6.58
1,-1,-66,-13,-270,3918,0.03,-0.15,-7.16,-0.13,-2.70,39.18,-4.67,-0.13,41.33,3.00,-0.05,-5.71
1,-5,-80,22,-267,3924,0.04,-0.17,-6.93,0.22,-2.67,39.24,-4.65,-0.14,41.36,2.99,0.54,-4.28
4,-4,-125,15,-250,3899,0.06,-0.17,-7.00,0.15,-2.50,38.99,-4.63,-0.14,41.39,2.56,0.37,-0.54
3,3,-127,3,-272,3890,0.07,-0.14,-7.07,0.03,-2.72,38.90,-4.62,-0.14,41.42,2.72,-0.63,-0.46
-2,1,-116,-33,-371,3907,0.05,-0.12,-7.07,-0.33,-3.71,39.07,-4.63,-0.13,41.45,3.46,-0.29,-1.39
5,3,-116,-72,-377,3904,0.08,-0.09,-7.07,-0.72,-3.77,39.04,-4.64,-0.12,41.47,2.45,-0.55,-1.39
-1,-1,-87,-23,-319,3921,0.06,-0.09,-6.90,-0.23,-3.19,39.21,-4.64,-0.10,41.50,3.33,0.06,-3.67
1,0,-92,-17,-297,3910,0.06,-0.08,-6.77,-0.17,-2.97,39.10,-4.63,-0.09,41.53,3.02,-0.08,-3.11
-3,-1,-51,-49,-318,3890,0.04,-0.08,-6.40,-0.49,-3.18,38.90,-4.63,-0.08,41.55,3.59,0.06,-6.20
-2,1,-44,-79,-343,3900,0.02,-0.06,-6.03,-0.79,-3.43,39.00,-4.64,-0.06,41.58,3.41,-0.23,-6.40
0,1,-30,-47,-304,3919,0.02,-0.05,-5.61,-0.47,-3.04,39.19,-4.63,-0.05,41.60,3.09,-0.22,-7.14
-1,1,-30,-29,-288,3911,0.01,-0.04,-5.23,-0.29,-2.88,39.11,-4.62,-0.03,41.62,3.22,-0.20,-6.74
-1,0,-78,-77,-256,3916,0.00,-0.03,-5.18,-0.77,-2.56,39.16,-4.61,-0.02,41.64,3.20,-0.05,-2.63
3,-2,-88,-66,-270,3904,0.02,-0.04,-5.20,-0.66,-2.70,39.04,-4.60,-0.01,41.66,2.62,0.23,-1.80
2,2,-101,-32,-295,3906,0.03,-0.03,-5.30,-0.32,-2.95,39.06,-4.59,0.01,41.68,2.78,-0.36,-0.81
-1,6,-100,-42,-319,3887,0.02,0.01,-5.38,-0.42,-3.19,38.87,-4.59,0.02,41.71,3.23,-0.91,-0.98
7,13,-102,-22,-384,3892,0.06,0.09,-5.46,-0.22,-3.84,38.92,-4.61,0.03,41.73,2.09,-1.83,-0.90
5,14,-78,47,-396,3862,0.09,0.17,-5.39,0.47,-3.96,38.62,-4.62,0.02,41.75,2.45,-1.83,-2.86
-4,5,-9,-14,-331,3900,0.05,0.18,-4.91,-0.14,-3.31,39.00,-4.64,0.03,41.77,3.77,-0.44,-8.19
-2,4,-3,-17,-331,3900,0.04,0.19,-4.44,-0.17,-3.31,39.00,-4.65,0.04,41.79,3.44,-0.28,-8.20
-1,3,4,-29,-307,3897,0.03,0.19,-3.97,-0.29,-3.07,38.97,-4.64,0.06,41.80,3.27,-0.14,-8.30
0,4,6,-33,-309,3897,0.02,0.19,-3.53,-0.33,-3.09,38.97,-4.64,0.07,41.82,3.11,-0.29,-8.01
0,8,7,-33,-297,3897,0.02,0.22,-3.14,-0.33,-2.97,38.97,-4.63,0.09,41.83,3.10,-0.86,-7.68
2,10,5,-36,-296,3900,0.03,0.26,-2.79,-0.36,-2.96,39.00,-4.62,0.10,41.84,2.80,-1.10,-7.15
1,10,4,-24,-310,3892,0.03,0.30,-2.49,-0.24,-3.10,38.92,-4.61,0.12,41.85,2.96,-1.05,-6.74
-3,10,2,-34,-309,3924,0.01,0.33,-2.23,-0.34,-3.09,39.24,-4.61,0.14,41.86,3.52,-1.00,-6.30
9,3,2,-82,-392,3911,0.07,0.31,-1.99,-0.82,-3.92,39.11,-4.62,0.15,41.87,1.80,0.03,-6.05
-5,9,-13,-151,-454,3947,0.03,0.34,-1.87,-1.51,-4.54,39.47,-4.63,0.17,41.87,3.88,-0.85,-4.65
-2,-2,13,96,-291,3834,0.01,0.29,-1.61,0.96,-2.91,38.34,-4.63,0.15,41.88,3.39,0.76,-6.57
5,-10,4,-47,-307,3864,0.04,0.20,-1.42,-0.47,-3.07,38.64,-4.63,0.17,41.89,2.37,1.79,-5.61
5,4,6,-21,-261,3883,0.07,0.20,-1.24,-0.21,-2.61,38.83,-4.61,0.17,41.89,2.41,-0.34,-5.60
0,2,17,-10,-320,3907,0.06,0.20,-1.02,-0.10,-3.20,39.07,-4.63,0.17,41.90,3.17,-0.04,-6.29
0,1,5,-37,-316,3896,0.06,0.18,-0.88,-0.37,-3.16,38.96,-4.63,0.19,41.90,3.16,0.07,-5.13
0,0,3,-40,-312,3908,0.05,0.16,-0.78,-0.40,-3.12,39.08,-4.62,0.20,41.90,3.15,0.18,-4.85
-2,-2,6,-36,-316,3918,0.03,0.14,-0.66,-0.36,-3.16,39.18,-4.62,0.22,41.91,3.42,0.42,-4.98
-3,-2,7,-27,-306,3919,0.01,0.11,-0.55,-0.27,-3.06,39.19,-4.61,0.24,41.91,3.52,0.36,-4.95
-4,-4,7,-22,-308,3899,-0.01,0.07,-0.46,-0.22,-3.08,38.99,-4.60,0.25,41.91,3.62,0.59,-4.85
-4,-5,8,-18,-305,3907,-0.04,0.04,-0.36,-0.18,-3.05,39.07,-4.58,0.25,41.91,3.56,0.67,-4.83
-3,-5,12,-29,-314,3902,-0.05,0.00,-0.25,-0.29,-3.14,39.02,-4.58,0.27,41.91,3.38,0.59,-5.06
-2,-4,13,-36,-320,3905,-0.06,-0.02,-0.15,-0.36,-3.20,39.05,-4.59,0.29,41.91,3.22,0.38,-5.03
-3,-4,19,-19,-306,3904,-0.07,-0.04,-0.02,-0.19,-3.06,39.04,-4.57,0.28,41.91,3.34,0.34,-5.40
-2,-5,19,-31,-307,3908,-0.08,-0.07,0.10,-0.31,-3.07,39.08,-4.56,0.30,41.91,3.17,0.43,-5.27
-2,-2,19,-25,-307,3900,-0.08,-0.08,0.21,-0.25,-3.07,39.00,-4.55,0.31,41.91,3.16,-0.04,-5.16
-2,-2,19,-19,-303,3904,-0.08,-0.08,0.30,-0.19,-3.03,39.04,-4.53,0.31,41.91,3.14,-0.05,-5.06
3,1,72,45,-361,3921,-0.06,-0.07,0.71,0.45,-3.61,39.21,-4.54,0.29,41.91,2.43,-0.47,-9.12
0,-2,90,68,-377,3893,-0.05,-0.07,1.19,0.68,-3.77,38.93,-4.56,0.28,41.90,2.91,-0.01,-10.14
-1,-2,172,28,-375,3923,-0.05,-0.08,2.12,0.28,-3.75,39.23,-4.57,0.27,41.89,3.07,-0.02,-16.10
-5,3,185,-8,-381,3891,-0.08,-0.05,3.04,-0.08,-3.81,38.91,-4.59,0.27,41.88,3.64,-0.73,-16.23
-7,2,166,-90,-320,3897,-0.11,-0.03,3.74,-0.90,-3.20,38.97,-4.59,0.29,41.87,3.88,-0.56,-13.87
-2,1,152,-132,-316,3932,-0.11,-0.02,4.30,-1.32,-3.16,39.32,-4.59,0.31,41.85,3.12,-0.40,-12.09
-2,1,106,-43,-283,3894,-0.11,-0.02,4.51,-0.43,-2.83,38.94,-4.58,0.32,41.83,3.11,-0.39,-7.97
-2,0,96,-19,-280,3894,-0.12,-0.01,4.65,-0.19,-2.80,38.94,-4.56,0.32,41.81,3.10,-0.24,-6.97
-1,0,54,-55,-264,3900,-0.11,-0.01,4.51,-0.55,-2.64,39.00,-4.55,0.33,41.80,2.94,-0.24,-3.56
1,1,45,-33,-275,3909,-0.09,-0.01,4.34,-0.33,-2.75,39.09,-4.53,0.34,41.78,2.66,-0.38,-2.98
-1,-4,53,-11,-344,3907,-0.09,-0.03,4.23,-0.11,-3.44,39.07,-4.55,0.33,41.76,2.98,0.34,-3.77
-1,-6,59,-17,-363,3895,-0.09,-0.06,4.16,-0.17,-3.63,38.95,-4.56,0.33,41.74,3.00,0.58,-4.35
-2,-4,84,-72,-321,3908,-0.09,-0.08,4.26,-0.72,-3.21,39.08,-4.57,0.35,41.73,3.15,0.23,-6.36
0,-4,77,-78,-304,3911,-0.08,-0.10,4.30,-0.78,-3.04,39.11,-4.56,0.37,41.71,2.86,0.18,-5.72
-7,-9,78,-171,-276,3894,-0.12,-0.14,4.35,-1.71,-2.76,38.94,-4.56,0.39,41.69,3.86,0.85,-5.76
-6,-13,96,-151,-315,3881,-0.14,-0.21,4.50,-1.51,-3.15,38.81,-4.56,0.41,41.67,3.66,1.32,-7.12
-6,-4,133,-103,-359,3904,-0.16,-0.21,4.86,-1.03,-3.59,39.04,-4.57,0.42,41.66,3.62,-0.07,-9.87
-3,0,151,-108,-370,3938,-0.17,-0.19,5.30,-1.08,-3.70,39.38,-4.58,0.44,41.63,3.17,-0.65,-10.93
-7,0,158,-68,-393,3881,-0.19,-0.17,5.73,-0.68,-3.93,38.81,-4.60,0.45,41.61,3.74,-0.62,-11.06
-11,0,153,-59,-336,3918,-0.24,-0.15,6.09,-0.59,-3.36,39.18,-4.61,0.46,41.59,4.27,-0.60,-10.26
-6,-8,113,24,-262,3963,-0.25,-0.19,6.17,0.24,-2.62,39.63,-4.60,0.45,41.56,3.47,0.57,-6.78
-8,-9,104,40,-250,3906,-0.28,-0.22,6.19,0.40,-2.50,39.06,-4.59,0.44,41.54,3.73,0.66,-6.00
0,-7,109,-62,-281,3911,-0.25,-0.24,6.23,-0.62,-2.81,39.11,-4.58,0.45,41.51,2.55,0.31,-6.37
-7,-6,102,-53,-280,3885,-0.27,-0.26,6.23,-0.53,-2.80,38.85,-4.56,0.46,41.49,3.57,0.12,-5.78
-4,-5,123,-17,-313,3901,-0.26,-0.26,6.36,-0.17,-3.13,39.01,-4.57,0.45,41.46,3.12,-0.03,-7.42
-6,-3,131,4,-310,3916,-0.27,-0.25,6.52,0.04,-3.10,39.16,-4.56,0.43,41.44,3.41,-0.31,-7.92
-14,11,183,-17,-305,3912,-0.33,-0.16,6.99,-0.17,-3.05,39.12,-4.56,0.42,41.41,4.51,-2.26,-11.83
-3,10,165,-27,-292,3895,-0.32,-0.08,7.29,-0.27,-2.92,38.95,-4.54,0.42,41.38,2.85,-1.96,-9.98
8,-1,120,-36,-266,3866,-0.24,-0.08,7.30,-0.36,-2.66,38.66,-4.52,0.42,41.35,1.32,-0.28,-6.16
4,0,122,-13,-275,3901,-0.19,-0.07,7.31,-0.13,-2.75,39.01,-4.51,0.42,41.32,2.01,-0.41,-6.31
-1,2,124,58,-293,3941,-0.18,-0.05,7.34,0.58,-2.93,39.41,-4.50,0.40,41.29,2.79,-0.67,-6.45
2,2,103,71,-310,3932,-0.15,-0.04,7.23,0.71,-3.10,39.32,-4.50,0.38,41.26,2.39,-0.63,-4.78
-1,4,78,-6,-357,3893,-0.14,-0.01,6.98,-0.06,-3.57,38.93,-4.52,0.38,41.23,2.88,-0.88,-2.92
0,3,82,-11,-333,3891,-0.12,0.01,6.79,-0.11,-3.33,38.91,-4.54,0.37,41.21,2.76,-0.68,-3.47
2,3,54,1,-289,3913,-0.10,0.03,6.44,0.01,-2.89,39.13,-4.53,0.36,41.18,2.49,-0.64,-1.47
2,3,48,-8,-276,3886,-0.08,0.04,6.09,-0.08,-2.76,38.86,-4.51,0.35,41.16,2.53,-0.61,-1.33
1,1,38,13,-304,3904,-0.06,0.05,5.71,0.13,-3.04,39.04,-4.51,0.34,41.13,2.70,-0.29,-0.88
0,1,32,1,-309,3911,-0.06,0.05,5.33,0.01,-3.09,39.11,-4.51,0.32,41.11,2.87,-0.28,-0.76
1,-1,83,25,-306,3899,-0.05,0.04,5.31,0.25,-3.06,38.99,-4.51,0.30,41.09,2.74,0.02,-5.11
-1,0,108,36,-303,3903,-0.05,0.03,5.43,0.36,-3.03,39.03,-4.51,0.29,41.07,3.04,-0.13,-7.09
5,11,195,34,-400,3897,-0.01,0.10,6.08,0.34,-4.00,38.97,-4.52,0.28,41.05,2.20,-1.68,-13.78
-1,4,224,73,-371,3929,-0.02,0.11,6.84,0.73,-3.71,39.29,-4.53,0.27,41.02,3.11,-0.58,-15.43
-10,-2,304,32,-425,3911,-0.08,0.09,8.01,0.32,-4.25,39.11,-4.55,0.26,40.99,4.38,0.30,-20.96
-6,5,320,-27,-366,3903,-0.10,0.11,9.16,-0.27,-3.66,39.03,-4.57,0.27,40.95,3.73,-0.73,-21.10
7,12,324,-26,-389,3953,-0.05,0.17,10.22,-0.26,-3.89,39.53,-4.59,0.28,40.91,1.86,-1.69,-20.31
9,20,336,-39,-273,3870,0.01,0.28,11.25,-0.39,-2.73,38.70,-4.57,0.29,40.87,1.66,-2.72,-20.23
-18,3,339,29,-549,3865,-0.10,0.27,12.19,0.29,-5.49,38.65,-4.59,0.29,40.82,5.58,-0.14,-19.49
-10,-2,307,-108,-374,3899,-0.15,0.23,12.84,-1.08,-3.74,38.99,-4.60,0.31,40.77,4.27,0.53,-16.08
-8,1,329,-153,-353,3880,-0.19,0.21,13.57,-1.53,-3.53,38.80,-4.60,0.33,40.71,3.91,0.03,-17.17
-1,7,351,-131,-304,3927,-0.17,0.23,14.35,-1.31,-3.04,39.27,-4.60,0.36,40.65,2.86,-0.86,-18.20
-9,11,492,37,-128,3846,-0.21,0.28,15.92,0.37,-1.28,38.46,-4.59,0.36,40.59,4.00,-1.39,-28.48
7,2,507,38,-103,4036,-0.15,0.26,17.42,0.38,-1.03,40.36,-4.57,0.36,40.52,1.67,-0.05,-28.16
-5,-4,556,-40,-361,3923,-0.16,0.21,19.07,-0.40,-3.61,39.23,-4.59,0.37,40.45,3.48,0.76,-30.55
-13,13,527,-83,-446,3950,-0.23,0.27,20.38,-0.83,-4.46,39.50,-4.60,0.39,40.36,4.59,-1.73,-26.71
-13,-4,477,-29,-397,3957,-0.28,0.22,21.25,-0.29,-3.97,39.57,-4.62,0.40,40.28,4.50,0.76,-21.54
-22,-4,451,30,-436,3817,-0.39,0.17,21.87,0.30,-4.36,38.17,-4.64,0.40,40.19,5.68,0.67,-18.66
-14,13,371,82,-335,3823,-0.44,0.23,21.95,0.82,-3.35,38.23,-4.64,0.39,40.11,4.38,-1.79,-11.80
-15,16,308,-129,-268,3999,-0.48,0.31,21.63,-1.29,-2.68,39.99,-4.64,0.41,40.02,4.43,-2.13,-6.79
1,6,233,32,-252,3855,-0.43,0.31,20.89,0.32,-2.52,38.55,-4.62,0.40,39.94,2.09,-0.59,-1.21
-5,0,222,-8,-295,3898,-0.42,0.28,20.16,-0.08,-2.95,38.98,-4.61,0.40,39.86,3.02,0.27,-1.05
18,4,159,-93,-235,3969,-0.27,0.28,19.11,-0.93,-2.35,39.69,-4.60,0.42,39.78,-0.21,-0.36,3.19
2,4,141,-34,-222,3892,-0.23,0.28,18.06,-0.34,-2.22,38.92,-4.58,0.43,39.71,2.29,-0.37,3.60
-6,8,174,17,-329,3885,-0.24,0.30,17.32,0.17,-3.29,38.85,-4.59,0.42,39.64,3.49,-0.93,0.03
-11,5,219,82,-328,3902,-0.28,0.30,16.92,0.82,-3.28,39.02,-4.59,0.40,39.57,4.17,-0.47,-4.20
-11,-12,441,-10,-367,3850,-0.32,0.19,17.92,-0.10,-3.67,38.50,-4.61,0.41,39.50,4.11,1.93,-21.94
-21,-7,500,95,-321,3952,-0.42,0.13,19.18,0.95,-3.21,39.52,-4.61,0.39,39.42,5.45,1.06,-25.60
-4,12,623,149,-326,3979,-0.40,0.19,21.06,1.49,-3.26,39.79,-4.61,0.38,39.34,2.90,-1.72,-34.02
-20,0,672,143,-300,3888,-0.48,0.17,23.05,1.43,-3.00,38.88,-4.61,0.37,39.25,5.18,0.08,-36.06
-20,-5,712,64,-217,3939,-0.56,0.13,25.09,0.64,-2.17,39.39,-4.60,0.37,39.15,5.03,0.76,-37.28
-9,2,710,111,-388,3935,-0.56,0.12,26.91,1.11,-3.88,39.35,-4.61,0.36,39.04,3.36,-0.31,-35.17
-3,4,636,-27,-339,3931,-0.52,0.14,28.10,-0.27,-3.39,39.31,-4.63,0.37,38.93,2.53,-0.60,-27.63
-30,-6,611,-60,-445,3833,-0.65,0.09,29.02,-0.60,-4.45,38.33,-4.65,0.39,38.81,6.41,0.82,-24.53
-29,-25,528,-190,-240,3869,-0.76,-0.07,29.34,-1.90,-2.40,38.69,-4.64,0.41,38.70,6.05,3.40,-17.15
-31,-35,520,-193,-205,3929,-0.87,-0.28,29.57,-1.93,-2.05,39.29,-4.64,0.44,38.58,6.13,4.52,-16.21
-28,-15,383,-267,-415,3854,-0.96,-0.34,28.95,-2.67,-4.15,38.54,-4.65,0.46,38.46,5.52,1.33,-5.25
-48,-12,329,-435,-354,3853,-1.15,-0.38,28.07,-4.35,-3.54,38.53,-4.65,0.49,38.35,8.20,0.78,-1.61
-6,12,232,75,-337,3858,-1.08,-0.27,26.67,0.75,-3.37,38.58,-4.66,0.48,38.24,1.95,-2.66,5.15
-2,18,347,228,-449,3853,-0.98,-0.13,26.12,2.28,-4.49,38.53,-4.67,0.47,38.14,1.53,-3.31,-5.17
3,10,566,38,-297,3966,-0.86,-0.06,26.96,0.38,-2.97,39.66,-4.67,0.46,38.03,0.99,-1.94,-22.82
-38,9,584,-206,-376,3699,-1.01,0.00,27.83,-2.06,-3.76,36.99,-4.68,0.49,37.92,6.97,-1.69,-23.42
-30,-20,568,-200,-451,3830,-1.09,-0.12,28.51,-2.00,-4.51,38.30,-4.69,0.51,37.81,5.60,2.48,-21.33
-24,-27,550,-49,-357,3982,-1.13,-0.27,29.02,-0.49,-3.57,39.82,-4.71,0.53,37.69,4.63,3.25,-19.27
-76,-63,505,-66,-374,4153,-1.48,-0.63,29.19,-0.66,-3.74,41.53,-4.73,0.54,37.58,11.91,8.05,-15.25
-76,-59,461,-169,-406,3831,-1.80,-0.93,29.09,-1.69,-4.06,38.31,-4.75,0.57,37.46,11.32,6.87,-11.63
-61,-43,331,54,-463,3842,-1.99,-1.10,28.20,0.54,-4.63,38.42,-4.77,0.56,37.35,8.69,4.11,-1.55
-64,-40,310,35,-488,3934,-2.18,-1.23,27.27,0.35,-4.88,39.34,-4.79,0.56,37.24,8.80,3.40,-0.74
-60,-52,252,25,-403,3871,-2.33,-1.43,26.08,0.25,-4.03,38.71,-4.82,0.55,37.13,7.92,4.87,2.92
-59,-62,240,-22,-291,3920,-2.45,-1.66,24.94,-0.22,-2.91,39.20,-4.81,0.54,37.03,7.52,5.95,2.74
-32,-27,287,0,-347,3869,-2.40,-1.66,24.19,0.00,-3.47,38.69,-4.83,0.53,36.94,3.51,0.62,-2.02
-12,-1,300,-49,-373,3965,-2.24,-1.50,23.60,-0.49,-3.73,39.65,-4.85,0.54,36.84,0.79,-3.04,-3.74
1,13,363,-23,-321,3928,-2.01,-1.27,23.46,-0.23,-3.21,39.28,-4.85,0.53,36.75,-0.76,-4.74,-9.22
-4,10,396,25,-400,3885,-1.83,-1.08,23.53,0.25,-4.00,38.85,-4.87,0.52,36.65,0.35,-3.92,-11.94
-15,12,486,23,-324,3879,-1.74,-0.90,24.14,0.23,-3.24,38.79,-4.87,0.50,36.56,2.21,-3.87,-18.90
2,12,495,-4,-352,3955,-1.55,-0.74,24.74,-0.04,-3.52,39.55,-4.88,0.49,36.46,-0.02,-3.55,-19.02
-11,6,495,1,-383,3961,-1.47,-0.63,25.29,0.01,-3.83,39.61,-4.90,0.49,36.36,2.14,-2.43,-18.43
5,17,471,-56,-408,3922,-1.29,-0.46,25.63,-0.56,-4.08,39.22,-4.92,0.50,36.26,0.05,-3.80,-16.02
8,14,424,-42,-420,3900,-1.11,-0.33,25.66,-0.42,-4.20,39.00,-4.95,0.51,36.15,-0.06,-3.10,-12.01
-3,16,409,-81,-373,3869,-1.02,-0.20,25.59,-0.81,-3.73,38.69,-4.96,0.53,36.05,1.80,-3.17,-10.80
0,14,417,3,-440,3858,-0.92,-0.09,25.57,0.03,-4.40,38.58,-4.98,0.53,35.95,1.55,-2.66,-11.49
12,33,419,-34,-373,3941,-0.75,0.12,25.57,-0.34,-3.73,39.41,-5.00,0.54,35.85,0.05,-5.17,-11.65
20,26,442,-33,-428,4009,-0.55,0.26,25.71,-0.33,-4.28,40.09,-5.02,0.55,35.75,-0.79,-3.83,-13.44
7,19,450,57,-413,3833,-0.46,0.35,25.88,0.57,-4.13,38.33,-5.03,0.55,35.64,1.39,-2.59,-13.93
1,29,531,199,-472,3775,-0.40,0.50,26.53,1.99,-4.72,37.75,-5.04,0.54,35.54,2.41,-3.84,-20.09
44,38,562,99,-481,4001,-0.10,0.68,27.31,0.99,-4.81,40.01,-5.05,0.54,35.43,-3.55,-4.87,-21.89
14,28,616,157,-448,3847,-0.00,0.78,28.34,1.57,-4.48,38.47,-5.06,0.54,35.32,1.21,-3.15,-25.36
29,37,648,135,-425,3968,0.18,0.93,29.45,1.35,-4.25,39.68,-5.07,0.54,35.20,-0.74,-4.24,-26.88
20,47,741,-41,-339,3874,0.28,1.12,31.03,-0.41,-3.39,38.74,-5.05,0.56,35.08,0.82,-5.41,-33.08
4,41,764,-45,-259,3885,0.28,1.26,32.59,-0.45,-2.59,38.85,-5.03,0.58,34.95,3.24,-4.25,-33.37
5,33,821,-50,-341,3934,0.28,1.34,34.34,-0.50,-3.41,39.34,-5.02,0.62,34.81,3.08,-2.91,-36.33
4,36,830,-87,-180,3987,0.28,1.42,35.97,-0.87,-1.80,39.87,-5.00,0.64,34.67,3.21,-3.22,-35.36
-3,25,821,-167,-206,3972,0.23,1.43,37.38,-1.67,-2.06,39.72,-4.98,0.67,34.52,4.18,-1.54,-33.09
-13,11,810,-91,-198,3853,0.13,1.36,38.58,-0.91,-1.98,38.53,-4.96,0.69,34.37,5.50,0.43,-30.87
3,35,829,25,-270,3929,0.13,1.43,39.78,0.25,-2.70,39.29,-4.95,0.70,34.21,3.06,-3.08,-31.19
-7,31,834,-67,-173,3837,0.08,1.48,40.89,-0.67,-1.73,38.37,-4.93,0.72,34.04,4.47,-2.40,-30.43
-6,27,804,3,-385,3890,0.03,1.50,41.70,0.03,-3.85,38.90,-4.94,0.73,33.88,4.24,-1.77,-27.01
-23,19,787,24,-352,3873,-0.11,1.46,42.33,0.24,-3.52,38.73,-4.94,0.73,33.71,6.56,-0.61,-24.88
-5,24,809,-111,-42,3736,-0.13,1.46,43.04,-1.11,-0.42,37.36,-4.92,0.76,33.54,3.77,-1.39,-25.99
-5,27,864,21,-159,3843,-0.15,1.48,44.00,0.21,-1.59,38.43,-4.90,0.77,33.36,3.72,-1.82,-29.61
29,56,919,43,-163,3884,0.04,1.67,45.21,0.43,-1.63,38.84,-4.89,0.78,33.18,-1.11,-5.89,-32.98
27,67,907,-41,-246,3910,0.20,1.92,46.22,-0.41,-2.46,39.10,-4.86,0.80,33.00,-0.52,-7.12,-30.87
38,70,759,-190,-380,3733,0.42,2.15,46.23,-1.90,-3.80,37.33,-4.87,0.85,32.82,-1.80,-7.16,-18.31
33,53,735,-140,-393,4045,0.58,2.26,46.09,-1.40,-3.93,40.45,-4.87,0.89,32.63,-0.73,-4.39,-16.40
43,57,744,-54,-260,3918,0.78,2.38,46.02,-0.54,-2.60,39.18,-4.85,0.91,32.45,-1.88,-4.78,-17.23
49,59,744,-2,-347,3925,1.00,2.50,45.95,-0.02,-3.47,39.25,-4.84,0.92,32.27,-2.38,-4.86,-17.28
2,15,650,-202,-271,3964,0.91,2.34,45.32,-2.02,-2.71,39.64,-4.83,0.96,32.09,4.61,1.52,-9.96
11,12,619,-157,-371,3910,0.89,2.18,44.57,-1.57,-3.71,39.10,-4.83,1.00,31.91,3.19,1.65,-8.12
0,13,462,-185,-395,3919,0.80,2.04,42.93,-1.85,-3.95,39.19,-4.83,1.04,31.74,4.71,1.20,3.46
-5,5,399,-99,-438,3894,0.69,1.87,41.07,-0.99,-4.38,38.94,-4.85,1.06,31.58,5.27,2.08,6.84
-18,-3,327,-69,-342,3917,0.51,1.66,38.96,-0.69,-3.42,39.17,-4.86,1.08,31.43,6.92,2.90,10.72
-15,-5,328,-13,-382,3857,0.37,1.47,37.06,-0.13,-3.82,38.57,-4.87,1.08,31.28,6.20,2.83,8.64
-10,-2,393,-6,-335,3900,0.27,1.31,35.75,-0.06,-3.35,39.00,-4.86,1.08,31.14,5.25,2.07,1.76
6,6,404,-45,-344,3978,0.28,1.21,34.64,-0.45,-3.44,39.78,-4.86,1.08,31.00,2.82,0.67,-0.33
-1,3,459,-19,-382,3962,0.25,1.11,33.98,-0.19,-3.82,39.62,-4.87,1.08,30.86,3.83,0.93,-5.69
-6,16,458,-81,-352,3900,0.18,1.10,33.37,-0.81,-3.52,39.00,-4.88,1.10,30.73,4.49,-1.09,-6.23
9,14,429,-94,-286,3966,0.22,1.07,32.65,-0.94,-2.86,39.66,-4.86,1.12,30.60,2.26,-0.84,-4.52
2,24,430,-105,-159,3850,0.21,1.11,32.01,-1.05,-1.59,38.50,-4.84,1.14,30.47,3.29,-2.31,-5.28
0,14,433,-131,-225,3864,0.19,1.09,31.45,-1.31,-2.25,38.64,-4.82,1.16,30.35,3.54,-0.85,-6.11
3,3,452,-87,-256,3893,0.19,1.00,31.06,-0.87,-2.56,38.93,-4.80,1.18,30.22,3.07,0.65,-8.12
-8,-20,466,-40,-364,3871,0.12,0.77,30.80,-0.40,-3.64,38.71,-4.81,1.18,30.10,4.63,3.74,-9.58
-6,-9,496,-27,-322,3858,0.07,0.64,30.75,-0.27,-3.22,38.58,-4.81,1.18,29.98,4.23,1.81,-12.16
-16,2,552,117,-488,3941,-0.03,0.59,31.04,1.17,-4.88,39.41,-4.82,1.17,29.86,5.56,0.04,-16.59
-19,9,542,-6,-502,3913,-0.14,0.59,31.24,-0.06,-5.02,39.13,-4.83,1.18,29.73,5.81,-1.04,-15.52
-78,-55,535,70,-405,3859,-0.61,0.19,31.38,0.70,-4.05,38.59,-4.84,1.18,29.61,13.94,7.98,-14.76
-89,-55,567,22,-478,4054,-1.09,-0.16,31.70,0.22,-4.78,40.54,-4.86,1.17,29.48,14.72,7.30,-17.12
-29,-8,677,2,-306,3822,-1.16,-0.20,32.66,0.02,-3.06,38.22,-4.85,1.17,29.35,5.44,0.08,-25.41
-22,-10,710,7,-266,3839,-1.17,-0.24,33.73,0.07,-2.66,38.39,-4.84,1.16,29.22,4.33,0.31,-27.07
-20,-4,776,-132,-226,3840,-1.18,-0.24,35.09,-1.32,-2.26,38.40,-4.83,1.18,29.08,4.00,-0.62,-31.21
-20,7,764,-59,-263,3927,-1.18,-0.17,36.24,-0.59,-2.63,39.27,-4.81,1.19,28.93,3.99,-2.17,-28.96
-15,-2,656,-94,-426,4038,-1.16,-0.17,36.62,-0.94,-4.26,40.38,-4.83,1.20,28.79,3.29,-0.80,-19.40
-6,2,621,-173,-343,3926,-1.08,-0.14,36.74,-1.73,-3.43,39.26,-4.84,1.23,28.64,2.07,-1.38,-16.28
2,3,575,-108,-274,3918,-0.96,-0.11,36.58,-1.08,-2.74,39.18,-4.82,1.25,28.49,1.06,-1.48,-12.55
-11,4,564,-53,-301,3820,-0.93,-0.07,36.36,-0.53,-3.01,38.20,-4.81,1.25,28.35,3.09,-1.57,-11.83
3,-2,536,-22,-360,3840,-0.82,-0.08,35.99,-0.22,-3.60,38.40,-4.82,1.24,28.20,1.18,-0.66,-9.84
-7,2,514,-137,-368,4064,-0.78,-0.06,35.53,-1.37,-3.68,40.64,-4.83,1.27,28.06,2.78,-1.25,-8.45
-6,21,524,-37,-339,3894,-0.74,0.08,35.17,-0.37,-3.39,38.94,-4.83,1.26,27.92,2.71,-3.89,-9.66
-4,19,541,-18,-341,3939,-0.69,0.19,34.95,-0.18,-3.41,39.39,-4.83,1.26,27.78,2.50,-3.38,-11.32
-5,19,565,-124,-381,3940,-0.65,0.28,34.91,-1.24,-3.81,39.40,-4.85,1.28,27.64,2.73,-3.21,-13.39
-2,9,588,-85,-314,3890,-0.60,0.31,35.00,-0.85,-3.14,38.90,-4.83,1.29,27.50,2.36,-1.64,-15.23
-1,9,622,3,-491,3909,-0.54,0.33,35.30,0.03,-4.91,39.09,-4.84,1.30,27.36,2.32,-1.60,-17.79
-15,5,631,0,-413,3949,-0.58,0.33,35.62,0.00,-4.13,39.49,-4.86,1.30,27.22,4.39,-0.99,-18.20
-9,9,724,4,-410,3928,-0.58,0.35,36.47,0.04,-4.10,39.28,-4.87,1.30,27.08,3.49,-1.56,-25.16
-16,7,732,23,-401,3892,-0.62,0.36,37.29,0.23,-4.01,38.92,-4.88,1.30,26.93,4.49,-1.24,-24.96
-12,6,697,-223,-399,3969,-0.63,0.36,37.81,-2.23,-3.99,39.69,-4.88,1.33,26.78,3.86,-1.11,-21.42
-8,13,693,-162,-361,3867,-0.61,0.40,38.26,-1.62,-3.61,38.67,-4.89,1.36,26.63,3.28,-2.11,-20.60
-17,3,623,-134,-380,3841,-0.66,0.38,38.23,-1.34,-3.80,38.41,-4.90,1.38,26.48,4.58,-0.65,-14.68
1,16,600,-114,-330,3862,-0.59,0.44,38.07,-1.14,-3.30,38.62,-4.90,1.42,26.32,1.97,-2.54,-12.89
-3,14,514,-151,-295,3908,-0.54,0.48,37.40,-1.51,-2.95,39.08,-4.89,1.45,26.17,2.65,-2.18,-6.30
4,18,464,-232,-206,3980,-0.47,0.54,36.49,-2.32,-2.06,39.80,-4.87,1.47,26.03,1.72,-2.69,-3.02
3,12,415,-79,-202,3899,-0.40,0.56,35.37,-0.79,-2.02,38.99,-4.85,1.49,25.89,1.98,-1.74,-0.04
-2,20,424,-96,-183,3891,-0.37,0.63,34.42,-0.96,-1.83,38.91,-4.83,1.50,25.75,2.79,-2.85,-1.79
6,14,449,10,-318,3911,-0.30,0.65,33.72,0.10,-3.18,39.11,-4.83,1.49,25.62,1.70,-1.89,-4.64
-6,10,430,6,-326,3898,-0.31,0.65,32.97,0.06,-3.26,38.98,-4.82,1.49,25.48,3.52,-1.28,-3.81
-5,3,275,-85,-369,3922,-0.31,0.60,31.35,-0.85,-3.69,39.22,-4.84,1.50,25.36,3.38,-0.31,7.61
1,7,255,-78,-360,3928,-0.27,0.58,29.77,-0.78,-3.60,39.28,-4.85,1.50,25.24,2.54,-0.95,7.65
-10,6,296,-7,-345,3892,-0.30,0.56,28.60,-0.07,-3.45,38.92,-4.85,1.49,25.13,4.15,-0.83,2.94
-10,7,306,-67,-340,3901,-0.33,0.55,27.60,-0.67,-3.40,39.01,-4.85,1.48,25.02,4.10,-1.01,1.05
-7,-6,206,51,-486,3845,-0.34,0.46,26.10,0.51,-4.86,38.45,-4.87,1.48,24.91,3.63,0.80,7.94
-9,4,295,-50,-521,3956,-0.36,0.44,25.29,-0.50,-5.21,39.56,-4.88,1.49,24.81,3.91,-0.77,-0.45
-8,0,457,82,-403,3873,-0.38,0.39,25.55,0.82,-4.03,38.73,-4.89,1.48,24.71,3.73,-0.23,-13.89
-12,-6,460,13,-448,3935,-0.41,0.32,25.80,0.13,-4.48,39.35,-4.90,1.48,24.61,4.28,0.54,-13.87
-9,1,492,-4,-398,3913,-0.43,0.29,26.22,-0.04,-3.98,39.13,-4.91,1.47,24.51,3.81,-0.57,-16.12
-2,6,505,21,-419,3926,-0.40,0.30,26.68,0.21,-4.19,39.26,-4.92,1.47,24.40,2.80,-1.32,-16.73
-10,8,498,-88,-313,3888,-0.42,0.32,27.05,-0.88,-3.13,38.88,-4.90,1.47,24.29,3.97,-1.59,-15.74
-8,1,489,-94,-324,3895,-0.42,0.29,27.33,-0.94,-3.24,38.95,-4.88,1.47,24.18,3.64,-0.57,-14.67
-5,1,449,-115,-232,3943,-0.41,0.27,27.33,-1.15,-2.32,39.43,-4.86,1.48,24.07,3.19,-0.62,-11.26
2,-2,446,-94,-328,3857,-0.36,0.23,27.32,-0.94,-3.28,38.57,-4.86,1.47,23.96,2.23,-0.23,-11.01
-6,-13,369,-21,-348,3884,-0.36,0.13,26.84,-0.21,-3.48,38.84,-4.87,1.46,23.86,3.45,1.26,-4.99
-5,0,329,-191,-448,4087,-0.35,0.11,26.16,-1.91,-4.48,40.87,-4.88,1.49,23.75,3.31,-0.76,-2.31
-3,-3,321,-88,-381,3876,-0.34,0.08,25.50,-0.88,-3.81,38.76,-4.89,1.49,23.65,3.05,-0.37,-2.32
-6,3,318,-40,-365,3896,-0.34,0.09,24.89,-0.40,-3.65,38.96,-4.90,1.48,23.55,3.51,-1.26,-2.70
-9,-5,280,-30,-392,3902,-0.36,0.05,24.11,-0.30,-3.92,39.02,-4.91,1.48,23.46,3.93,-0.11,-0.30
-7,-4,277,-65,-451,3876,-0.37,0.02,23.39,-0.65,-4.51,38.76,-4.93,1.48,23.37,3.62,-0.32,-0.80
2,4,283,68,-339,3955,-0.32,0.05,22.78,0.68,-3.39,39.55,-4.93,1.47,23.27,2.34,-1.49,-1.95
-1,1,305,103,-340,3884,-0.29,0.05,22.36,1.03,-3.40,38.84,-4.93,1.46,23.19,2.85,-1.02,-4.25
-13,-5,458,99,-409,3956,-0.34,0.01,22.92,0.99,-4.09,39.56,-4.93,1.45,23.09,4.59,-0.17,-16.61
-13,-1,492,136,-523,3899,-0.39,0.01,23.63,1.36,-5.23,38.99,-4.94,1.44,23.00,4.51,-0.79,-18.73
-21,9,618,110,-475,3906,-0.48,0.06,25.03,1.10,-4.75,39.06,-4.95,1.44,22.90,5.57,-2.21,-27.91
-13,11,695,42,-404,3906,-0.51,0.12,26.77,0.42,-4.04,39.06,-4.96,1.43,22.79,4.29,-2.39,-32.59
-12,14,816,-59,-212,3841,-0.53,0.19,29.07,-0.59,-2.12,38.41,-4.94,1.44,22.68,4.08,-2.71,-40.39
4,19,822,-130,-250,3938,-0.45,0.29,31.18,-1.30,-2.50,39.38,-4.92,1.45,22.55,1.78,-3.31,-38.66
-7,24,799,-249,-450,4049,-0.45,0.41,32.93,-2.49,-4.50,40.49,-4.93,1.48,22.42,3.47,-3.87,-34.84
-12,2,811,-226,-401,3795,-0.48,0.38,34.59,-2.26,-4.01,37.95,-4.94,1.51,22.28,4.18,-0.58,-34.09
1,15,742,-182,-284,3962,-0.42,0.43,35.66,-1.82,-2.84,39.62,-4.92,1.54,22.14,2.29,-2.48,-27.10
-2,12,687,-170,-263,3886,-0.39,0.46,36.28,-1.70,-2.63,38.86,-4.91,1.57,22.00,2.80,-1.99,-21.77
-4,11,587,-206,-289,3923,-0.38,0.48,36.23,-2.06,-2.89,39.23,-4.90,1.60,21.85,3.12,-1.82,-13.33
-13,-3,553,-241,-294,3885,-0.42,0.42,35.98,-2.41,-2.94,38.85,-4.89,1.63,21.71,4.41,0.17,-10.70
-7,15,406,-192,-254,3912,-0.42,0.47,34.86,-1.92,-2.54,39.12,-4.88,1.66,21.57,3.49,-2.50,0.58
-4,5,342,-138,-250,3913,-0.40,0.45,33.46,-1.38,-2.50,39.13,-4.86,1.67,21.44,3.05,-1.01,4.53
0,6,309,-77,-228,3827,-0.36,0.44,32.00,-0.77,-2.28,38.27,-4.84,1.68,21.31,2.50,-1.19,5.79
0,16,331,-28,-304,3908,-0.33,0.50,30.82,-0.28,-3.04,39.08,-4.83,1.67,21.19,2.57,-2.61,2.68
-3,25,425,-147,-296,3902,-0.31,0.60,30.33,-1.47,-2.96,39.02,-4.81,1.70,21.06,3.04,-3.80,-5.79
6,29,445,-127,-272,3846,-0.24,0.72,30.01,-1.27,-2.72,38.46,-4.79,1.72,20.94,1.78,-4.20,-7.81
1,22,424,-102,-413,3960,-0.21,0.78,29.60,-1.02,-4.13,39.60,-4.81,1.73,20.83,2.62,-3.02,-6.46
5,25,396,-112,-372,3865,-0.16,0.85,29.05,-1.12,-3.72,38.65,-4.82,1.74,20.71,2.11,-3.34,-4.65
-2,3,323,-75,-386,3959,-0.16,0.79,28.12,-0.75,-3.86,39.59,-4.83,1.74,20.60,3.20,-0.12,0.55
-8,4,350,-65,-283,3882,-0.19,0.73,27.44,-0.65,-2.83,38.82,-4.82,1.74,20.49,4.04,-0.37,-2.44
-11,7,398,55,-392,3915,-0.24,0.70,27.12,0.55,-3.92,39.15,-4.82,1.73,20.38,4.41,-0.88,-6.83
-12,5,383,18,-367,3916,-0.29,0.66,26.75,0.18,-3.67,39.16,-4.83,1.72,20.28,4.47,-0.65,-5.95
-10,9,344,-25,-379,3888,-0.32,0.65,26.17,-0.25,-3.79,38.88,-4.83,1.72,20.17,4.11,-1.28,-3.25
-4,6,349,-33,-380,3920,-0.31,0.62,25.68,-0.33,-3.80,39.20,-4.84,1.72,20.07,3.21,-0.87,-4.18
-9,11,393,-110,-349,3910,-0.34,0.63,25.51,-1.10,-3.49,39.10,-4.86,1.72,19.97,3.94,-1.63,-8.08
-6,12,421,-76,-284,3825,-0.34,0.64,25.53,-0.76,-2.84,38.25,-4.84,1.72,19.87,3.47,-1.76,-10.42
6,10,459,-84,-254,3880,-0.27,0.63,25.78,-0.84,-2.54,38.80,-4.82,1.72,19.77,1.76,-1.46,-13.37
-1,19,469,-94,-274,3855,-0.25,0.69,26.06,-0.94,-2.74,38.55,-4.80,1.73,19.66,2.85,-2.74,-13.91
1,16,507,-63,-281,3843,-0.22,0.72,26.55,-0.63,-2.81,38.43,-4.79,1.72,19.56,2.60,-2.22,-16.60
-2,13,505,-84,-330,3955,-0.21,0.72,26.97,-0.84,-3.30,39.55,-4.79,1.72,19.45,3.07,-1.75,-15.97
-2,13,523,-80,-354,3861,-0.20,0.73,27.47,-0.80,-3.54,38.61,-4.80,1.72,19.34,3.09,-1.73,-16.97
6,11,515,-14,-415,3938,-0.14,0.72,27.86,-0.14,-4.15,39.38,-4.80,1.71,19.23,1.99,-1.44,-15.86
-12,6,490,65,-513,3938,-0.20,0.69,28.06,0.65,-5.13,39.38,-4.82,1.71,19.12,4.63,-0.74,-13.52
-14,4,469,-4,-539,3961,-0.27,0.64,28.12,-0.04,-5.39,39.61,-4.83,1.72,19.01,4.82,-0.52,-11.67
1,6,445,6,-426,3920,-0.23,0.62,28.02,0.06,-4.26,39.20,-4.84,1.71,18.89,2.60,-0.88,-9.73
-18,-6,453,11,-423,3916,-0.32,0.52,27.98,0.11,-4.23,39.16,-4.85,1.71,18.78,5.34,0.77,-10.44
-11,-10,464,-30,-366,3946,-0.36,0.41,28.01,-0.30,-3.66,39.46,-4.85,1.70,18.67,4.21,1.17,-11.33
-2,1,464,-31,-435,3862,-0.33,0.37,28.04,-0.31,-4.35,38.62,-4.86,1.70,18.56,2.89,-0.57,-11.29
-8,3,518,-22,-403,3901,-0.35,0.35,28.40,-0.22,-4.03,39.01,-4.87,1.70,18.45,3.78,-0.91,-15.48
0,8,539,-59,-403,3952,-0.31,0.37,28.85,-0.59,-4.03,39.52,-4.88,1.70,18.33,2.63,-1.65,-16.77
-6,11,586,-197,-379,3980,-0.32,0.40,29.54,-1.97,-3.79,39.80,-4.89,1.73,18.22,3.54,-2.07,-20.01
2,9,609,-171,-440,3883,-0.27,0.41,30.30,-1.71,-4.40,38.83,-4.90,1.75,18.10,2.41,-1.75,-21.14
-1,7,636,-87,-355,3936,-0.25,0.41,31.15,-0.87,-3.55,39.36,-4.91,1.74,17.97,2.91,-1.43,-22.52
-7,1,652,-107,-323,3906,-0.27,0.38,32.01,-1.07,-3.23,39.06,-4.89,1.74,17.84,3.78,-0.59,-22.95
-9,12,754,-102,-391,3998,-0.30,0.41,33.41,-1.02,-3.91,39.98,-4.91,1.75,17.71,4.05,-2.20,-30.10
-11,13,818,-117,-370,3776,-0.34,0.45,35.06,-1.17,-3.70,37.76,-4.92,1.76,17.57,4.29,-2.29,-33.76
0,5,931,-34,-468,3831,-0.30,0.44,37.23,-0.34,-4.68,38.31,-4.93,1.77,17.43,2.68,-1.10,-41.02
-39,-3,955,-211,-559,3939,-0.51,0.37,39.33,-2.11,-5.59,39.39,-4.95,1.79,17.27,8.25,-0.01,-40.81
13,23,1100,-11,-481,3968,-0.38,0.48,42.11,-0.11,-4.81,39.68,-4.96,1.79,17.10,0.57,-3.79,-50.14
-1,18,1126,24,-447,3882,-0.35,0.54,44.77,0.24,-4.47,38.82,-4.97,1.80,16.92,2.77,-2.91,-49.52
-14,15,1138,26,-555,3818,-0.40,0.58,47.23,0.26,-5.55,38.18,-4.98,1.81,16.74,4.67,-2.39,-47.91
-1,17,1117,71,-526,3946,-0.36,0.62,49.32,0.71,-5.26,39.46,-4.98,1.81,16.54,2.75,-2.61,-43.90
-3,22,1097,-27,-486,3845,-0.35,0.69,51.08,-0.27,-4.86,38.45,-4.99,1.82,16.34,3.10,-3.24,-40.32
-1,7,1076,-33,-423,3962,-0.32,0.67,52.54,-0.33,-4.23,39.62,-5.00,1.83,16.13,2.85,-1.01,-36.98
-21,8,975,-113,-407,3935,-0.41,0.65,53.23,-1.13,-4.07,39.35,-5.01,1.85,15.92,5.73,-1.21,-27.67
-7,14,957,-89,-296,3829,-0.42,0.67,53.75,-0.89,-2.96,38.29,-4.99,1.86,15.70,3.58,-2.09,-25.58
-16,13,857,-21,-249,3941,-0.47,0.68,53.60,-0.21,-2.49,39.41,-4.98,1.86,15.49,4.83,-1.92,-17.25
-7,6,817,-40,-258,3892,-0.47,0.65,53.22,-0.40,-2.58,38.92,-4.96,1.87,15.28,3.46,-0.92,-14.24
5,19,749,-146,-195,3932,-0.39,0.70,52.47,-1.46,-1.95,39.32,-4.94,1.89,15.07,1.76,-2.82,-9.25
-25,1,737,-100,-234,3906,-0.50,0.64,51.72,-1.00,-2.34,39.06,-4.91,1.91,14.86,6.10,-0.20,-9.01
-11,11,722,-110,-213,3816,-0.52,0.64,50.95,-1.10,-2.13,38.16,-4.89,1.93,14.66,3.92,-1.73,-8.54
2,21,696,-146,-202,3949,-0.46,0.71,50.10,-1.46,-2.02,39.49,-4.87,1.95,14.46,2.04,-3.15,-7.22
0,12,620,-104,-280,3888,-0.41,0.71,48.87,-1.04,-2.80,38.88,-4.85,1.96,14.26,2.42,-1.78,-2.06
-6,10,590,-136,-252,3927,-0.41,0.70,47.58,-1.36,-2.52,39.27,-4.82,1.98,14.07,3.33,-1.51,-0.87
-7,8,502,-79,-337,3922,-0.41,0.68,45.89,-0.79,-3.37,39.22,-4.82,1.98,13.89,3.48,-1.24,4.81
5,11,482,-88,-355,3923,-0.34,0.68,44.24,-0.88,-3.55,39.23,-4.82,1.98,13.71,1.78,-1.70,4.77
0,8,446,-122,-347,3839,-0.30,0.66,42.54,-1.22,-3.47,38.39,-4.84,1.99,13.54,2.62,-1.29,6.04
0,11,450,-71,-302,3911,-0.27,0.66,41.03,-0.71,-3.02,39.11,-4.82,1.99,13.38,2.67,-1.74,4.11
4,1,416,14,-248,3891,-0.22,0.60,39.46,0.14,-2.48,38.91,-4.81,1.99,13.22,2.15,-0.33,5.35
-12,10,389,-18,-315,3878,-0.27,0.60,37.89,-0.18,-3.15,38.78,-4.81,1.98,13.07,4.49,-1.70,5.99
-10,3,366,5,-322,3903,-0.31,0.56,36.33,0.05,-3.22,39.03,-4.80,1.98,12.93,4.11,-0.71,6.30
-4,-1,368,-5,-336,3886,-0.30,0.50,34.94,-0.05,-3.36,38.86,-4.80,1.98,12.79,3.21,-0.21,4.67
-6,6,398,60,-368,3935,-0.31,0.48,33.88,0.60,-3.68,39.35,-4.80,1.97,12.65,3.50,-1.30,1.01
-4,3,404,67,-362,3880,-0.30,0.45,32.95,0.67,-3.62,38.80,-4.80,1.97,12.52,3.21,-0.90,-0.46
1,6,418,-9,-370,3873,-0.26,0.44,32.21,-0.09,-3.70,38.73,-4.80,1.96,12.39,2.52,-1.37,-2.42
-7,3,430,8,-407,3946,-0.28,0.42,31.61,0.08,-4.07,39.46,-4.81,1.96,12.27,3.71,-0.96,-4.06
-15,1,487,-5,-398,3872,-0.34,0.38,31.42,-0.05,-3.98,38.72,-4.81,1.95,12.14,4.81,-0.72,-9.08
-9,4,503,-58,-431,3901,-0.36,0.37,31.35,-0.58,-4.31,39.01,-4.82,1.95,12.02,3.87,-1.20,-10.50
-12,-3,556,-62,-351,3896,-0.40,0.31,31.60,-0.62,-3.51,38.96,-4.83,1.95,11.89,4.26,-0.23,-14.71
-1,3,562,-1,-356,3907,-0.37,0.30,31.87,-0.01,-3.56,39.07,-4.83,1.94,11.77,2.64,-1.17,-14.92
-6,8,605,-76,-319,3915,-0.37,0.32,32.37,-0.76,-3.19,39.15,-4.82,1.94,11.64,3.40,-1.89,-18.02
-5,21,666,-41,-241,3884,-0.36,0.42,33.20,-0.41,-2.41,38.84,-4.81,1.94,11.50,3.25,-3.69,-22.31
-3,27,844,-89,-280,3749,-0.34,0.54,35.03,-0.89,-2.80,37.49,-4.79,1.94,11.36,2.97,-4.38,-35.44
-4,36,896,-72,-259,3878,-0.33,0.70,36.99,-0.72,-2.59,38.78,-4.77,1.94,11.22,3.13,-5.44,-37.75
3,29,994,-66,-262,3942,-0.28,0.81,39.36,-0.66,-2.62,39.42,-4.76,1.94,11.06,2.15,-4.17,-43.54
-15,22,997,-87,-331,3839,-0.34,0.86,41.50,-0.87,-3.31,38.39,-4.76,1.94,10.89,4.77,-3.00,-41.50
-6,23,1026,-78,-240,3803,-0.35,0.92,43.61,-0.78,-2.40,38.03,-4.74,1.95,10.72,3.38,-3.06,-41.71
-5,29,1036,-62,-316,4005,-0.34,1.00,45.57,-0.62,-3.16,40.05,-4.73,1.95,10.54,3.23,-3.81,-40.47
-14,8,1004,-53,-388,3963,-0.39,0.95,47.14,-0.53,-3.88,39.63,-4.73,1.96,10.35,4.51,-0.71,-36.08
-23,22,1011,-149,-456,4087,-0.49,0.99,48.59,-1.49,-4.56,40.87,-4.75,1.98,10.16,5.70,-2.78,-35.12
-23,8,1012,-39,-391,3808,-0.59,0.94,49.90,-0.39,-3.91,38.08,-4.75,1.98,9.96,5.54,-0.75,-33.79
-20,5,1001,-117,-433,3912,-0.65,0.88,51.02,-1.17,-4.33,39.12,-4.77,2.00,9.76,4.97,-0.42,-31.66
1,20,1020,-74,-380,3946,-0.58,0.91,52.14,-0.74,-3.80,39.46,-4.77,2.01,9.55,1.90,-2.65,-32.07
-15,3,1016,30,-366,3847,-0.61,0.84,53.12,0.30,-3.66,38.47,-4.77,2.01,9.34,4.28,-0.20,-30.67
-14,24,1014,-65,-350,3792,-0.64,0.90,54.00,-0.65,-3.50,37.92,-4.78,2.02,9.12,4.08,-3.28,-29.55
-7,21,1013,-123,-439,3879,-0.62,0.94,54.78,-1.23,-4.39,38.79,-4.79,2.04,8.91,3.06,-2.77,-28.62
0,26,1010,-177,-443,3823,-0.55,1.00,55.46,-1.77,-4.43,38.23,-4.80,2.06,8.69,2.12,-3.43,-27.63
-11,28,1019,-9,-523,3827,-0.57,1.07,56.13,-0.09,-5.23,38.27,-4.81,2.08,8.46,3.78,-3.61,-27.66
-12,19,951,1,-537,4028,-0.58,1.08,56.32,0.01,-5.37,40.28,-4.82,2.09,8.24,3.91,-2.23,-21.68
-7,15,922,-45,-482,3862,-0.57,1.07,56.31,-0.45,-4.82,38.62,-4.83,2.10,8.02,3.18,-1.66,-19.21
-17,5,800,-84,-509,3941,-0.61,0.99,55.56,-0.84,-5.09,39.41,-4.84,2.12,7.79,4.63,-0.29,-9.65
-12,7,755,-125,-422,3900,-0.63,0.93,54.61,-1.25,-4.22,39.00,-4.85,2.14,7.58,3.85,-0.71,-6.82
-11,11,681,-285,-319,3871,-0.63,0.91,53.30,-2.85,-3.19,38.71,-4.85,2.18,7.37,3.68,-1.40,-1.92
-20,3,667,-233,-323,3818,-0.69,0.83,52.04,-2.33,-3.23,38.18,-4.84,2.22,7.16,4.94,-0.34,-2.05
-10,13,593,-239,-291,3874,-0.68,0.83,50.45,-2.39,-2.91,38.74,-4.83,2.25,6.96,3.42,-1.90,2.56
-6,14,578,-209,-266,3897,-0.65,0.83,48.93,-2.09,-2.66,38.97,-4.81,2.29,6.76,2.86,-2.07,2.24
-7,3,505,-169,-311,3929,-0.63,0.77,47.12,-1.69,-3.11,39.29,-4.79,2.31,6.57,3.04,-0.53,6.52
-1,13,485,-165,-320,3924,-0.57,0.77,45.37,-1.65,-3.20,39.24,-4.77,2.34,6.39,2.22,-2.07,6.37
-3,16,470,-91,-390,3863,-0.53,0.79,43.70,-0.91,-3.90,38.63,-4.78,2.35,6.22,2.60,-2.49,5.89
-16,17,485,43,-326,3811,-0.58,0.82,42.29,0.43,-3.26,38.11,-4.77,2.35,6.05,4.50,-2.60,3.14
-4,6,483,-57,-244,3937,-0.54,0.77,41.00,-0.57,-2.44,39.37,-4.76,2.35,5.89,2.72,-1.01,1.97
-2,8,427,-129,-245,3904,-0.50,0.74,39.51,-1.29,-2.45,39.04,-4.74,2.36,5.73,2.48,-1.37,5.14
-9,9,311,-213,-327,3898,-0.51,0.72,37.45,-2.13,-3.27,38.98,-4.73,2.39,5.58,3.54,-1.58,12.81
-11,1,303,-142,-314,3839,-0.52,0.66,35.56,-1.42,-3.14,38.39,-4.73,2.39,5.44,3.81,-0.48,11.49
-4,5,303,-74,-351,3927,-0.49,0.62,33.85,-0.74,-3.51,39.27,-4.73,2.38,5.30,2.79,-1.16,9.70
0,4,310,-68,-363,3927,-0.45,0.58,32.36,-0.68,-3.63,39.27,-4.73,2.38,5.17,2.28,-1.07,7.53
-4,-3,301,-73,-436,3906,-0.42,0.51,30.96,-0.73,-4.36,39.06,-4.74,2.38,5.05,2.93,-0.15,6.82
-5,0,291,-103,-438,3900,-0.41,0.46,29.64,-1.03,-4.38,39.00,-4.75,2.38,4.93,3.12,-0.71,6.28
-4,2,242,-176,-467,3919,-0.40,0.42,28.15,-1.76,-4.67,39.19,-4.77,2.40,4.82,3.01,-1.09,8.87
-4,-1,225,-138,-393,3846,-0.38,0.37,26.71,-1.38,-3.93,38.46,-4.78,2.40,4.72,3.05,-0.72,8.79
-2,0,165,-74,-334,3918,-0.35,0.34,25.04,-0.74,-3.34,39.18,-4.78,2.39,4.62,2.79,-0.94,12.12
-1,2,154,-67,-288,3901,-0.33,0.32,23.48,-0.67,-2.88,39.01,-4.77,2.38,4.52,2.69,-1.28,11.41
-6,-7,136,-24,-196,3894,-0.33,0.24,21.96,-0.24,-1.96,38.94,-4.76,2.38,4.44,3.43,-0.05,11.33
-5,-7,138,-12,-170,3922,-0.33,0.17,20.61,-0.12,-1.70,39.22,-4.74,2.37,4.35,3.27,-0.17,9.74
-2,5,158,-113,-208,3910,-0.31,0.19,19.51,-1.13,-2.08,39.10,-4.72,2.37,4.27,2.84,-1.97,6.89
-10,8,164,-130,-210,3896,-0.34,0.22,18.56,-1.30,-2.10,38.96,-4.71,2.38,4.20,3.99,-2.38,5.38
-11,-4,170,1,-265,3938,-0.37,0.17,17.74,0.01,-2.65,39.38,-4.70,2.37,4.13,4.08,-0.63,4.01
-11,-5,167,15,-273,3898,-0.40,0.12,16.98,0.15,-2.73,38.98,-4.69,2.35,4.06,4.02,-0.56,3.47
-15,-14,117,-34,-393,3878,-0.45,0.03,16.00,-0.34,-3.93,38.78,-4.70,2.34,4.00,4.53,0.64,6.67
-11,-13,109,-51,-409,3890,-0.47,-0.06,15.06,-0.51,-4.09,38.90,-4.71,2.33,3.94,3.89,0.34,6.36
-5,-6,131,-144,-446,3875,-0.46,-0.09,14.36,-1.44,-4.46,38.75,-4.73,2.34,3.88,3.02,-0.79,3.75
-5,-5,155,-139,-435,3895,-0.44,-0.11,13.87,-1.39,-4.35,38.95,-4.75,2.34,3.83,3.06,-0.99,1.21
-14,0,241,-135,-370,3860,-0.48,-0.10,13.95,-1.35,-3.70,38.60,-4.76,2.33,3.77,4.36,-1.73,-5.99
-2,6,256,-125,-408,3928,-0.45,-0.05,14.12,-1.25,-4.08,39.28,-4.78,2.33,3.72,2.61,-2.55,-7.08
1,11,300,-47,-448,3898,-0.40,0.02,14.54,-0.47,-4.48,38.98,-4.79,2.32,3.66,2.26,-3.17,-10.35
-6,8,305,-9,-443,3883,-0.39,0.07,14.94,-0.09,-4.43,38.83,-4.80,2.31,3.60,3.34,-2.62,-10.34
-1,2,263,42,-477,3887,-0.36,0.07,15.05,0.42,-4.77,38.87,-4.81,2.30,3.54,2.65,-1.69,-6.66
4,3,236,13,-525,3907,-0.30,0.08,14.99,0.13,-5.25,39.07,-4.82,2.30,3.48,2.01,-1.81,-4.44
-1,0,175,-21,-470,3899,-0.28,0.08,14.56,-0.21,-4.70,38.99,-4.84,2.29,3.42,2.82,-1.37,0.28
0,4,187,-6,-434,3885,-0.25,0.09,14.24,-0.06,-4.34,38.85,-4.85,2.28,3.37,2.73,-1.94,-1.07
5,4,251,-76,-424,3904,-0.19,0.11,14.35,-0.76,-4.24,39.04,-4.86,2.27,3.31,2.08,-1.91,-6.37
-8,-4,278,-59,-415,3911,-0.22,0.07,14.61,-0.59,-4.15,39.11,-4.87,2.26,3.25,4.01,-0.75,-8.38
-5,2,376,-107,-358,3931,-0.23,0.08,15.44,-1.07,-3.58,39.31,-4.87,2.25,3.19,3.54,-1.65,-15.79
-2,3,405,-143,-401,3892,-0.22,0.09,16.37,-1.43,-4.01,38.92,-4.89,2.26,3.13,3.12,-1.78,-17.26
-4,8,482,-166,-369,3878,-0.22,0.13,17.67,-1.66,-3.69,38.78,-4.91,2.27,3.06,3.43,-2.48,-22.40
-4,7,501,-123,-358,3881,-0.22,0.16,18.96,-1.23,-3.58,38.81,-4.92,2.26,2.98,3.43,-2.26,-22.64
-10,-1,517,-105,-410,3894,-0.26,0.14,20.22,-1.05,-4.10,38.94,-4.93,2.26,2.90,4.28,-1.08,-22.65
-1,1,502,-96,-373,3924,-0.24,0.13,21.26,-0.96,-3.73,39.24,-4.94,2.25,2.82,2.95,-1.39,-20.27
-7,0,440,-125,-341,3889,-0.26,0.12,21.82,-1.25,-3.41,38.89,-4.94,2.24,2.73,3.83,-1.26,-14.42
-2,-5,422,-130,-360,3900,-0.25,0.07,22.21,-1.30,-3.60,39.00,-4.95,2.24,2.64,3.10,-0.57,-12.47
0,-9,342,-13,-544,3897,-0.22,0.01,22.07,-0.13,-5.44,38.97,-4.96,2.23,2.55,2.85,-0.08,-5.83
-5,-10,301,23,-453,3903,-0.23,-0.05,21.70,0.23,-4.53,39.03,-4.97,2.23,2.47,3.60,-0.04,-2.74
-9,-9,302,46,-392,3925,-0.26,-0.10,21.37,0.46,-3.92,39.25,-4.97,2.21,2.38,4.16,-0.28,-3.17
1,-11,316,59,-383,3937,-0.23,-0.16,21.16,0.59,-3.83,39.37,-4.97,2.20,2.30,2.69,-0.08,-4.57
-5,-5,321,-70,-416,3916,-0.24,-0.17,21.01,-0.70,-4.16,39.16,-4.98,2.20,2.22,3.60,-1.01,-5.15
-4,-11,312,-104,-399,3907,-0.24,-0.22,20.81,-1.04,-3.99,39.07,-4.99,2.19,2.13,3.45,-0.19,-4.59
1,13,261,-189,-442,3919,-0.21,-0.12,20.32,-1.89,-4.42,39.19,-5.01,2.20,2.05,2.76,-3.67,-0.78
0,6,244,-169,-348,3931,-0.19,-0.07,19.78,-1.69,-3.48,39.31,-5.01,2.23,1.97,2.95,-2.52,0.09
-2,11,202,-162,-320,3943,-0.18,0.00,19.03,-1.62,-3.20,39.43,-4.99,2.24,1.90,3.26,-3.15,2.87
-3,10,193,-120,-296,3911,-0.18,0.06,18.31,-1.20,-2.96,39.11,-4.97,2.24,1.82,3.40,-2.88,2.87
-3,12,200,-89,-505,3882,-0.18,0.13,17.69,-0.89,-5.05,38.82,-4.99,2.24,1.75,3.41,-3.06,1.63
-3,12,177,-93,-492,3904,-0.18,0.19,17.01,-0.93,-4.92,39.04,-5.00,2.24,1.69,3.42,-2.95,2.86
0,12,132,-66,-524,3892,-0.16,0.24,16.11,-0.66,-5.24,38.92,-5.02,2.24,1.62,3.00,-2.84,5.73
-4,10,114,-68,-525,3906,-0.17,0.28,15.19,-0.68,-5.25,39.06,-5.03,2.23,1.56,3.61,-2.47,6.29
2,5,30,-79,-416,3902,-0.14,0.28,13.86,-0.79,-4.16,39.02,-5.04,2.23,1.51,2.75,-1.70,12.00
-1,4,23,-63,-402,3913,-0.13,0.28,12.61,-0.63,-4.02,39.13,-5.05,2.22,1.46,3.23,-1.54,11.28
-1,2,10,-70,-401,3912,-0.13,0.26,11.41,-0.70,-4.01,39.12,-5.06,2.21,1.41,3.25,-1.26,11.11
-1,2,11,-76,-394,3905,-0.12,0.25,10.34,-0.76,-3.94,39.05,-5.07,2.20,1.37,3.27,-1.28,9.89
1,2,11,-77,-392,3900,-0.10,0.24,9.37,-0.77,-3.92,39.00,-5.08,2.18,1.34,3.01,-1.30,8.87
2,4,13,-76,-401,3897,-0.08,0.24,8.51,-0.76,-4.01,38.97,-5.09,2.17,1.30,2.90,-1.60,7.80
16,11,49,-118,-305,3911,0.03,0.28,7.96,-1.18,-3.05,39.11,-5.07,2.17,1.27,0.96,-2.58,4.16
6,13,149,-117,-343,3898,0.06,0.33,8.07,-1.17,-3.43,38.98,-5.07,2.15,1.24,2.54,-2.77,-4.19
11,21,389,-127,-388,3885,0.12,0.43,9.64,-1.27,-3.88,38.85,-5.08,2.15,1.20,1.91,-3.81,-22.86
-3,14,433,-69,-438,3905,0.09,0.47,11.32,-0.69,-4.38,39.05,-5.10,2.14,1.16,3.99,-2.66,-24.81
10,36,435,-108,-380,3932,0.14,0.64,12.84,-1.08,-3.80,39.32,-5.10,2.14,1.11,2.11,-5.68,-23.36
0,14,418,-54,-451,3878,0.13,0.66,14.10,-0.54,-4.51,38.78,-5.12,2.13,1.05,3.62,-2.29,-20.57
6,16,413,10,-477,3880,0.15,0.69,15.21,0.10,-4.77,38.80,-5.12,2.13,0.99,2.75,-2.53,-18.97
-6,7,425,19,-453,3944,0.10,0.67,16.28,0.19,-4.53,39.44,-5.13,2.12,0.93,4.49,-1.20,-18.85
-12,-2,459,10,-406,3916,0.02,0.59,17.46,0.10,-4.06,39.16,-5.13,2.11,0.86,5.25,0.03,-20.48
3,11,468,-1,-388,3940,0.03,0.60,18.57,-0.01,-3.88,39.40,-5.14,2.10,0.78,3.00,-1.93,-20.06
-13,5,527,-34,-264,3884,-0.05,0.57,19.92,-0.34,-2.64,38.84,-5.12,2.10,0.70,5.27,-1.07,-23.62
-15,10,551,-13,-285,3922,-0.14,0.57,21.29,-0.13,-2.85,39.22,-5.11,2.09,0.62,5.40,-1.82,-24.19
-4,11,554,-47,-387,3915,-0.15,0.58,22.54,-0.47,-3.87,39.15,-5.11,2.08,0.53,3.71,-1.95,-23.11
2,12,544,-66,-396,3877,-0.12,0.60,23.61,-0.66,-3.96,38.77,-5.12,2.08,0.44,2.85,-2.07,-21.13
4,12,473,-78,-612,3930,-0.08,0.61,24.13,-0.78,-6.12,39.30,-5.14,2.09,0.34,2.62,-2.05,-14.55
-4,9,448,-111,-593,3884,-0.10,0.60,24.45,-1.11,-5.93,38.84,-5.15,2.09,0.24,3.82,-1.61,-12.09
7,15,436,-68,-586,3890,-0.05,0.64,24.67,-0.68,-5.86,38.90,-5.16,2.10,0.15,2.25,-2.47,-10.83
-2,5,438,-24,-624,3894,-0.05,0.60,24.87,-0.24,-6.24,38.94,-5.18,2.10,0.05,3.62,-1.01,-10.78
3,14,427,-52,-435,3905,-0.03,0.63,24.99,-0.52,-4.35,39.05,-5.19,2.10,-0.05,2.91,-2.33,-9.71
2,5,418,-76,-419,3944,-0.02,0.60,25.04,-0.76,-4.19,39.44,-5.20,2.10,-0.15,3.10,-1.02,-8.89
-1,4,340,-112,-389,3907,-0.02,0.56,24.61,-1.12,-3.89,39.07,-5.21,2.10,-0.25,3.55,-0.93,-2.72
1,3,319,-183,-392,3917,-0.01,0.52,24.09,-1.83,-3.92,39.17,-5.21,2.12,-0.34,3.27,-0.87,-1.48
-3,6,319,-135,-338,3914,-0.03,0.51,23.63,-1.35,-3.38,39.14,-5.19,2.12,-0.44,3.83,-1.36,-1.96
-3,3,326,-134,-328,3926,-0.04,0.47,23.26,-1.34,-3.28,39.26,-5.17,2.13,-0.53,3.79,-0.96,-2.95
0,21,385,-154,-346,3894,-0.04,0.56,23.28,-1.54,-3.46,38.94,-5.16,2.15,-0.62,3.33,-3.57,-7.91
5,19,406,-139,-314,3937,-0.01,0.62,23.43,-1.39,-3.14,39.37,-5.14,2.16,-0.72,2.62,-3.16,-9.53
-1,17,433,-64,-504,3909,-0.01,0.66,23.73,-0.64,-5.04,39.09,-5.15,2.16,-0.81,3.53,-2.77,-11.49
0,22,409,-97,-510,3923,-0.01,0.73,23.85,-0.97,-5.10,39.23,-5.17,2.17,-0.91,3.39,-3.41,-9.32
-2,24,370,-34,-475,3892,-0.02,0.80,23.72,-0.34,-4.75,38.92,-5.18,2.17,-1.00,3.68,-3.57,-6.14
7,22,373,-50,-393,3965,0.02,0.85,23.62,-0.50,-3.93,39.65,-5.18,2.16,-1.09,2.39,-3.16,-6.49
20,35,425,-24,-342,3866,0.14,0.98,23.85,-0.24,-3.42,38.66,-5.17,2.16,-1.19,0.64,-4.90,-10.64
21,38,458,-9,-357,3937,0.26,1.12,24.26,-0.09,-3.57,39.37,-5.17,2.15,-1.28,0.69,-5.10,-13.00
-1,9,476,0,-346,3917,0.23,1.06,24.74,0.00,-3.46,39.17,-5.16,2.14,-1.38,3.99,-0.78,-14.01
-10,4,466,0,-420,3902,0.14,0.98,25.11,0.00,-4.20,39.02,-5.17,2.14,-1.48,5.20,-0.17,-12.76
-16,-4,420,-84,-355,3911,0.03,0.86,25.16,-0.84,-3.55,39.11,-5.16,2.14,-1.58,5.90,0.82,-8.80
-9,-10,413,-87,-429,3903,-0.03,0.71,25.16,-0.87,-4.29,39.03,-5.17,2.14,-1.68,4.73,1.46,-8.19
-16,-6,389,-112,-425,3856,-0.12,0.60,25.02,-1.12,-4.25,38.56,-5.19,2.14,-1.78,5.63,0.64,-6.30
-19,-1,385,-179,-394,3898,-0.23,0.54,24.87,-1.79,-3.94,38.98,-5.20,2.16,-1.88,5.90,-0.26,-6.12
10,22,418,-141,-341,3925,-0.14,0.62,24.93,-1.41,-3.41,39.25,-5.18,2.17,-1.98,1.62,-3.62,-8.84
27,37,428,-115,-306,3915,0.04,0.78,25.05,-1.15,-3.06,39.15,-5.16,2.17,-2.08,-0.64,-5.60,-9.55
29,36,428,-127,-314,3915,0.21,0.92,25.15,-1.27,-3.14,39.15,-5.14,2.17,-2.18,-0.63,-5.18,-9.43
33,38,441,-53,-314,3934,0.39,1.06,25.33,-0.53,-3.14,39.34,-5.13,2.17,-2.28,-0.91,-5.22,-10.34
22,26,431,-41,-424,3909,0.49,1.11,25.42,-0.41,-4.24,39.09,-5.13,2.17,-2.38,0.95,-3.29,-9.38
12,17,423,-25,-425,3896,0.51,1.11,25.46,-0.25,-4.25,38.96,-5.13,2.16,-2.48,2.52,-1.93,-8.65
9,20,422,-44,-530,3891,0.51,1.12,25.49,-0.44,-5.30,38.91,-5.14,2.17,-2.58,3.00,-2.37,-8.53
5,9,417,20,-469,3926,0.49,1.06,25.48,0.20,-4.69,39.26,-5.15,2.17,-2.68,3.57,-0.79,-8.10
-40,-26,315,-144,-396,3844,0.20,0.80,24.86,-1.44,-3.96,38.44,-5.16,2.18,-2.78,9.89,4.03,-0.12
-38,-42,304,-133,-401,3930,-0.05,0.46,24.23,-1.33,-4.01,39.30,-5.18,2.18,-2.88,9.11,5.84,0.16
-44,-37,323,-70,-376,3939,-0.32,0.19,23.77,-0.70,-3.76,39.39,-5.18,2.17,-2.97,9.53,4.56,-1.92
-48,-35,334,-47,-400,3902,-0.58,-0.04,23.43,-0.47,-4.00,39.02,-5.18,2.17,-3.06,9.65,3.82,-3.21
3,12,435,-157,-241,4057,-0.50,0.03,23.74,-1.57,-2.41,40.57,-5.16,2.17,-3.16,2.00,-3.20,-11.43
16,31,439,-162,-338,3837,-0.35,0.22,24.05,-1.62,-3.38,38.37,-5.15,2.20,-3.26,0.29,-5.76,-11.44
48,62,432,-250,-335,3891,-0.02,0.58,24.28,-2.50,-3.35,38.91,-5.15,2.23,-3.35,-3.97,-9.84,-10.59
58,74,445,-227,-354,3890,0.33,0.97,24.56,-2.27,-3.54,38.90,-5.14,2.26,-3.45,-4.82,-10.94,-11.38
84,94,443,-142,-407,3910,0.81,1.45,24.81,-1.42,-4.07,39.10,-5.15,2.27,-3.55,-7.87,-13.10,-10.94
80,99,449,-161,-444,3894,1.22,1.91,25.07,-1.61,-4.44,38.94,-5.16,2.29,-3.65,-6.49,-13.00,-11.17
77,85,425,-115,-372,3896,1.57,2.23,25.15,-1.15,-3.72,38.96,-5.16,2.29,-3.75,-5.37,-10.24,-9.03
61,67,414,-96,-372,3916,1.78,2.42,25.16,-0.96,-3.72,39.16,-5.15,2.29,-3.84,-2.53,-7.15,-8.08
26,32,370,-75,-343,3901,1.76,2.37,24.90,-0.75,-3.43,39.01,-5.14,2.29,-3.94,2.76,-1.90,-4.62
14,23,358,-43,-387,3900,1.67,2.28,24.60,-0.43,-3.87,39.00,-5.14,2.29,-4.04,4.42,-0.71,-3.92
-11,-6,338,-47,-473,3883,1.44,2.01,24.20,-0.47,-4.73,38.83,-5.14,2.30,-4.14,7.79,3.21,-2.64
-11,-11,352,-82,-445,3923,1.23,1.74,23.93,-0.82,-4.45,39.23,-5.15,2.30,-4.23,7.40,3.46,-4.11
-31,-19,419,33,-488,3865,0.91,1.45,24.09,0.33,-4.88,38.65,-5.15,2.30,-4.32,9.86,4.13,-9.60
-24,-17,439,-15,-494,3933,0.68,1.20,24.36,-0.15,-4.94,39.33,-5.16,2.30,-4.42,8.34,3.35,-11.00
-29,-30,441,-84,-446,3908,0.43,0.90,24.61,-0.84,-4.46,39.08,-5.16,2.30,-4.52,8.65,4.76,-10.89
-36,-33,430,-66,-389,3872,0.17,0.61,24.78,-0.66,-3.89,38.72,-5.17,2.30,-4.62,9.22,4.67,-9.78
-33,-23,385,-218,-315,3897,-0.05,0.41,24.65,-2.18,-3.15,38.97,-5.15,2.32,-4.71,8.34,2.75,-6.10
-23,-19,381,-258,-303,3915,-0.18,0.25,24.51,-2.58,-3.03,39.15,-5.14,2.35,-4.81,6.55,1.82,-5.90
1,5,402,-156,-340,3939,-0.16,0.26,24.51,-1.56,-3.40,39.39,-5.12,2.35,-4.91,2.92,-1.83,-7.67
-1,9,407,-129,-297,3889,-0.15,0.29,24.54,-1.29,-2.97,38.89,-5.10,2.35,-5.01,3.24,-2.38,-8.05
-4,8,348,-126,-471,3870,-0.16,0.31,24.21,-1.26,-4.71,38.70,-5.12,2.36,-5.11,3.69,-2.20,-3.39
-10,-6,323,-71,-463,3895,-0.20,0.24,23.76,-0.71,-4.63,38.95,-5.13,2.35,-5.20,4.52,-0.19,-1.74
-33,2,341,19,-432,4042,-0.39,0.23,23.46,0.19,-4.32,40.42,-5.13,2.35,-5.29,7.69,-1.42,-3.57
23,-1,359,7,-367,4104,-0.21,0.20,23.31,0.07,-3.67,41.04,-5.13,2.34,-5.39,-0.51,-1.01,-5.25
19,16,418,-40,-404,3864,-0.07,0.28,23.52,-0.40,-4.04,38.64,-5.13,2.33,-5.48,0.36,-3.46,-10.01
0,24,420,-92,-401,3873,-0.06,0.39,23.73,-0.92,-4.01,38.73,-5.14,2.33,-5.57,3.27,-4.45,-9.95
23,25,432,-86,-334,3906,0.08,0.51,24.00,-0.86,-3.34,39.06,-5.13,2.32,-5.67,0.04,-4.38,-10.68
11,27,424,-103,-378,3876,0.14,0.62,24.18,-1.03,-3.78,38.76,-5.14,2.31,-5.76,1.98,-4.47,-9.80
10,13,390,-121,-296,3905,0.19,0.64,24.14,-1.21,-2.96,39.05,-5.12,2.31,-5.86,2.21,-2.30,-6.95
5,10,375,-77,-291,3932,0.20,0.64,24.02,-0.77,-2.91,39.32,-5.10,2.31,-5.96,2.99,-1.85,-5.80
9,21,348,-108,-371,3881,0.24,0.70,23.74,-1.08,-3.71,38.81,-5.11,2.31,-6.05,2.44,-3.40,-3.80
2,12,329,-130,-347,3873,0.22,0.70,23.37,-1.30,-3.47,38.73,-5.10,2.30,-6.14,3.49,-2.01,-2.57
17,23,315,-154,-390,3873,0.31,0.77,22.96,-1.54,-3.90,38.73,-5.12,2.31,-6.23,1.36,-3.57,-1.82
18,24,326,-118,-404,3865,0.38,0.84,22.65,-1.18,-4.04,38.65,-5.13,2.31,-6.32,1.37,-3.59,-3.07
17,18,369,-46,-375,3912,0.45,0.87,22.63,-0.46,-3.75,39.12,-5.12,2.30,-6.41,1.64,-2.62,-6.72
5,13,380,-24,-373,3879,0.44,0.86,22.69,-0.24,-3.73,38.79,-5.12,2.30,-6.50,3.44,-1.87,-7.58
4,-2,392,-22,-426,3916,0.42,0.76,22.81,-0.22,-4.26,39.16,-5.13,2.29,-6.59,3.56,0.24,-8.46
-18,-8,385,-89,-431,3873,0.26,0.64,22.88,-0.89,-4.31,38.73,-5.13,2.29,-6.68,6.64,0.91,-7.79
-13,-3,385,-91,-364,3909,0.16,0.56,22.94,-0.91,-3.64,39.09,-5.13,2.28,-6.78,5.67,0.00,-7.72
-14,-2,414,-60,-380,3885,0.06,0.49,23.17,-0.60,-3.80,38.85,-5.14,2.28,-6.87,5.63,-0.27,-9.92
-13,11,480,-36,-454,3885,-0.03,0.51,23.78,-0.36,-4.54,38.85,-5.14,2.27,-6.96,5.33,-2.22,-14.86
-13,2,492,27,-429,3856,-0.10,0.47,24.40,0.27,-4.29,38.56,-5.15,2.27,-7.06,5.18,-0.92,-15.21
-22,-6,518,19,-459,3899,-0.23,0.38,25.12,0.19,-4.59,38.99,-5.15,2.26,-7.16,6.33,0.15,-16.64
-12,1,537,-30,-451,3911,-0.28,0.35,25.89,-0.30,-4.51,39.11,-5.16,2.26,-7.26,4.71,-0.98,-17.43
-9,-3,606,-140,-510,3852,-0.31,0.30,27.00,-1.40,-5.10,38.52,-5.18,2.27,-7.37,4.21,-0.47,-22.09
-29,-8,583,-160,-524,3860,-0.45,0.22,27.85,-1.60,-5.24,38.60,-5.19,2.28,-7.48,7.00,0.13,-19.23
-23,-15,499,-139,-468,3944,-0.55,0.11,28.11,-1.39,-4.68,39.44,-5.21,2.29,-7.59,5.91,0.98,-11.83
-18,-1,520,-133,-466,3914,-0.60,0.09,28.47,-1.33,-4.66,39.14,-5.23,2.29,-7.70,5.05,-1.19,-13.21
-7,18,606,-138,-506,3881,-0.58,0.19,29.32,-1.38,-5.06,38.81,-5.24,2.30,-7.82,3.42,-3.90,-19.59
1,14,610,-160,-515,3905,-0.52,0.26,30.11,-1.60,-5.15,39.05,-5.26,2.32,-7.94,2.33,-3.18,-19.08
-3,14,576,-106,-370,3984,-0.49,0.32,30.61,-1.06,-3.70,39.84,-5.25,2.31,-8.06,3.00,-3.06,-15.66
10,32,584,-75,-337,3930,-0.38,0.48,31.11,-0.75,-3.37,39.30,-5.25,2.31,-8.18,1.22,-5.49,-15.80
2,26,601,-144,-465,3826,-0.33,0.59,31.67,-1.44,-4.65,38.26,-5.26,2.32,-8.31,2.55,-4.38,-16.64
0,25,600,-124,-425,3888,-0.29,0.68,32.16,-1.24,-4.25,38.88,-5.27,2.32,-8.44,2.92,-4.05,-16.02
13,29,615,-120,-419,3908,-0.19,0.79,32.70,-1.20,-4.19,39.08,-5.28,2.33,-8.57,1.15,-4.46,-16.71
8,24,628,-97,-475,3864,-0.12,0.86,33.26,-0.97,-4.75,38.64,-5.29,2.34,-8.70,2.05,-3.57,-17.21
5,17,665,-157,-430,3864,-0.08,0.88,33.99,-1.57,-4.30,38.64,-5.31,2.35,-8.83,2.60,-2.48,-19.56
9,20,689,-140,-422,3930,-0.01,0.91,34.79,-1.40,-4.22,39.30,-5.32,2.36,-8.97,2.11,-2.88,-20.72
-2,12,672,-134,-500,3860,-0.02,0.89,35.41,-1.34,-5.00,38.60,-5.33,2.37,-9.11,3.78,-1.70,-18.62
10,15,655,-131,-492,3894,0.04,0.90,35.87,-1.31,-4.92,38.94,-5.34,2.39,-9.25,2.08,-2.17,-16.68
-27,16,625,-126,-364,3781,-0.13,0.90,36.09,-1.26,-3.64,37.81,-5.34,2.39,-9.39,7.40,-2.30,-13.89
22,5,595,-201,-422,3948,0.02,0.84,36.11,-2.01,-4.22,39.48,-5.35,2.41,-9.54,0.21,-0.76,-11.31
14,26,616,-68,-415,3879,0.10,0.92,36.26,-0.68,-4.15,38.79,-5.35,2.41,-9.68,1.59,-3.82,-12.92
3,18,613,-30,-429,3939,0.11,0.94,36.37,-0.30,-4.29,39.39,-5.36,2.42,-9.83,3.28,-2.57,-12.54
15,16,584,-98,-429,3917,0.19,0.94,36.30,-0.98,-4.29,39.17,-5.36,2.42,-9.97,1.61,-2.26,-10.15
5,9,584,-78,-380,3875,0.20,0.90,36.23,-0.78,-3.80,38.75,-5.36,2.42,-10.11,3.16,-1.26,-10.20
-10,6,609,-144,-453,3818,0.12,0.85,36.32,-1.44,-4.53,38.18,-5.37,2.43,-10.26,5.30,-0.91,-12.21
-9,-1,608,-164,-428,3880,0.05,0.76,36.40,-1.64,-4.28,38.80,-5.38,2.45,-10.40,5.03,-0.03,-12.03
-16,-6,589,-175,-382,3904,-0.05,0.64,36.35,-1.75,-3.82,39.04,-5.39,2.47,-10.54,5.90,0.50,-10.46
-13,-9,579,-183,-322,3945,-0.12,0.53,36.25,-1.83,-3.22,39.45,-5.37,2.49,-10.69,5.29,0.72,-9.71
-9,-14,482,-128,-375,3938,-0.17,0.39,35.56,-1.28,-3.75,39.38,-5.36,2.49,-10.83,4.60,1.23,-2.20
-14,-15,460,-128,-401,3957,-0.24,0.26,34.81,-1.28,-4.01,39.57,-5.37,2.49,-10.97,5.23,1.13,-1.12
-11,3,459,-165,-342,3873,-0.28,0.25,34.13,-1.65,-3.42,38.73,-5.35,2.50,-11.11,4.68,-1.63,-1.75
-6,2,457,-135,-315,3973,-0.29,0.24,33.51,-1.35,-3.15,39.73,-5.33,2.50,-11.24,3.89,-1.51,-2.23
0,9,424,-26,-405,3817,-0.26,0.27,32.74,-0.26,-4.05,38.17,-5.33,2.50,-11.37,3.03,-2.51,-0.23
-4,9,421,-64,-413,3899,-0.26,0.30,32.04,-0.64,-4.13,38.99,-5.33,2.49,-11.50,3.64,-2.46,-0.71
10,8,463,-46,-467,3865,-0.17,0.32,31.66,-0.46,-4.67,38.65,-5.34,2.49,-11.62,1.68,-2.27,-4.66
-8,2,472,-66,-451,3853,-0.20,0.30,31.37,-0.66,-4.51,38.53,-5.35,2.49,-11.75,4.36,-1.39,-5.71
13,13,520,-87,-383,3942,-0.10,0.35,31.41,-0.87,-3.83,39.42,-5.34,2.49,-11.87,1.35,-2.97,-9.73
8,20,526,-120,-401,3832,-0.04,0.43,31.47,-1.20,-4.01,38.32,-5.35,2.49,-12.00,2.23,-3.87,-10.16
13,11,475,158,-154,3984,0.04,0.46,31.22,1.58,-1.54,39.84,-5.33,2.48,-12.12,1.61,-2.45,-6.09
-1,12,440,-54,-448,3847,0.03,0.48,30.79,-0.54,-4.48,38.47,-5.34,2.48,-12.24,3.73,-2.55,-3.58
0,9,414,-37,-387,3998,0.03,0.49,30.23,-0.37,-3.87,39.98,-5.34,2.48,-12.36,3.57,-2.08,-1.95
2,2,398,-109,-317,3891,0.04,0.45,29.64,-1.09,-3.17,38.91,-5.32,2.48,-12.48,3.28,-1.08,-1.21
-14,-11,335,-152,-414,3884,-0.05,0.34,28.72,-1.52,-4.14,38.84,-5.33,2.48,-12.60,5.56,0.69,3.16
-21,-20,330,-195,-391,3846,-0.18,0.19,27.86,-1.95,-3.91,38.46,-5.34,2.51,-12.71,6.40,1.75,2.68
-28,-24,321,1,-416,3907,-0.33,0.02,27.03,0.01,-4.16,39.07,-5.34,2.50,-12.81,7.17,2.05,2.58
-21,-21,319,-22,-414,3912,-0.42,-0.11,26.27,-0.22,-4.14,39.12,-5.35,2.49,-12.92,5.93,1.35,1.96
-15,-20,309,-80,-361,3896,-0.47,-0.22,25.53,-0.80,-3.61,38.96,-5.34,2.48,-13.02,4.92,0.99,2.03
-24,-14,312,-129,-395,3838,-0.57,-0.28,24.88,-1.29,-3.95,38.38,-5.35,2.48,-13.12,6.11,-0.04,1.09
0,-7,306,-47,-386,3945,-0.51,-0.30,24.26,-0.47,-3.86,39.45,-5.36,2.47,-13.22,2.56,-1.12,0.95
-17,-17,304,-84,-361,3943,-0.57,-0.37,23.69,-0.84,-3.61,39.43,-5.35,2.45,-13.31,5.05,0.27,0.53
-25,-31,298,-50,-424,3890,-0.66,-0.52,23.14,-0.50,-4.24,38.90,-5.36,2.44,-13.40,6.09,2.12,0.46
-44,-37,297,-71,-461,3870,-0.87,-0.70,22.63,-0.71,-4.61,38.70,-5.37,2.44,-13.49,8.62,2.71,0.02
-43,-40,337,-108,-304,3980,-1.04,-0.87,22.43,-1.08,-3.04,39.80,-5.36,2.43,-13.58,8.12,2.84,-3.58
-53,-43,339,-164,-269,3932,-1.26,-1.05,22.25,-1.64,-2.69,39.32,-5.34,2.43,-13.67,9.22,2.97,-3.93
-38,-28,333,-31,-357,3896,-1.37,-1.11,22.06,-0.31,-3.57,38.96,-5.34,2.42,-13.76,6.73,0.57,-3.62
-35,-22,343,-122,-424,3877,-1.44,-1.14,21.94,-1.22,-4.24,38.77,-5.36,2.41,-13.85,6.14,-0.39,-4.58
-12,-18,392,-39,-486,3924,-1.37,-1.13,22.14,-0.39,-4.86,39.24,-5.37,2.40,-13.94,2.78,-0.99,-8.51
-28,-22,400,2,-431,3823,-1.41,-1.15,22.37,0.02,-4.31,38.23,-5.38,2.39,-14.03,5.16,-0.41,-8.94
1,13,422,-32,-311,3973,-1.26,-0.96,22.70,-0.32,-3.11,39.73,-5.38,2.38,-14.12,1.01,-5.37,-10.44
19,40,446,-125,-443,3872,-1.02,-0.62,23.15,-1.25,-4.43,38.72,-5.39,2.38,-14.21,-1.26,-8.84,-11.99
32,41,448,-148,-514,3857,-0.72,-0.31,23.57,-1.48,-5.14,38.57,-5.41,2.38,-14.30,-2.67,-8.41,-11.71
20,35,431,-137,-470,3903,-0.53,-0.06,23.84,-1.37,-4.70,39.03,-5.43,2.39,-14.40,-0.47,-7.03,-9.97
6,13,389,-79,-406,3933,-0.44,0.02,23.83,-0.79,-4.06,39.33,-5.43,2.38,-14.49,1.84,-3.51,-6.42
1,11,382,-136,-423,3881,-0.39,0.09,23.78,-1.36,-4.23,38.81,-5.44,2.38,-14.59,2.71,-3.08,-5.87
-3,7,391,-91,-345,3935,-0.37,0.12,23.79,-0.91,-3.45,39.35,-5.43,2.37,-14.68,3.35,-2.40,-6.62
-2,7,392,-130,-390,3925,-0.34,0.15,23.80,-1.30,-3.90,39.25,-5.44,2.37,-14.78,3.25,-2.34,-6.68
12,33,433,-111,-459,3876,-0.23,0.34,24.06,-1.11,-4.59,38.76,-5.45,2.37,-14.87,1.32,-5.95,-9.87
21,38,439,-110,-455,3913,-0.08,0.54,24.33,-1.10,-4.55,39.13,-5.46,2.37,-14.97,0.25,-6.34,-10.08
9,24,446,-63,-500,3862,-0.02,0.63,24.62,-0.63,-5.00,38.62,-5.48,2.37,-15.06,2.20,-4.03,-10.36
7,25,467,-82,-553,3796,0.02,0.72,25.01,-0.82,-5.53,37.96,-5.49,2.38,-15.16,2.60,-4.02,-11.72
-10,-1,533,-46,-227,3983,-0.04,0.64,25.76,-0.46,-2.27,39.83,-5.47,2.38,-15.27,5.06,-0.20,-16.51
-7,12,568,-84,-384,3924,-0.08,0.65,26.65,-0.84,-3.84,39.24,-5.47,2.37,-15.37,4.53,-2.16,-18.52
24,38,583,-128,-664,3805,0.08,0.82,27.54,-1.28,-6.64,38.05,-5.48,2.38,-15.48,0.10,-5.82,-18.84
16,22,594,-70,-605,3904,0.17,0.87,28.41,-0.70,-6.05,39.04,-5.49,2.39,-15.59,1.50,-3.29,-18.84
6,14,598,-73,-410,3967,0.19,0.87,29.21,-0.73,-4.10,39.67,-5.49,2.39,-15.71,3.06,-2.07,-18.32
-1,5,586,-173,-376,3966,0.16,0.81,29.87,-1.73,-3.76,39.66,-5.48,2.42,-15.83,4.07,-0.82,-16.60
-1,19,564,-229,-362,3877,0.14,0.85,30.32,-2.29,-3.62,38.77,-5.47,2.45,-15.95,4.02,-2.91,-14.24
-6,16,559,-210,-235,3947,0.09,0.86,30.70,-2.10,-2.35,39.47,-5.44,2.47,-16.07,4.68,-2.44,-13.41
-9,15,497,-163,-330,3860,0.03,0.86,30.66,-1.63,-3.30,38.60,-5.42,2.48,-16.19,5.00,-2.29,-8.18
5,9,463,-59,-300,3889,0.05,0.83,30.42,-0.59,-3.00,38.89,-5.40,2.48,-16.31,2.91,-1.43,-5.55
-5,-5,425,-120,-365,3888,0.02,0.72,29.97,-1.20,-3.65,38.88,-5.40,2.48,-16.43,4.36,0.49,-2.79
-9,5,423,-105,-423,3820,-0.04,0.68,29.55,-1.05,-4.23,38.20,-5.41,2.48,-16.55,4.87,-1.11,-3.05
4,12,422,-94,-414,3922,-0.01,0.68,29.17,-0.94,-4.14,39.22,-5.41,2.48,-16.67,2.94,-2.17,-3.36
3,1,417,-123,-425,3874,0.01,0.62,28.80,-1.23,-4.25,38.74,-5.42,2.48,-16.78,3.14,-0.61,-3.32
-4,1,460,4,-371,3920,-0.02,0.57,28.72,0.04,-3.71,39.20,-5.42,2.47,-16.89,4.15,-0.71,-7.04
-20,7,485,89,-359,4019,-0.14,0.55,28.81,0.89,-3.59,40.19,-5.41,2.47,-17.01,6.36,-1.65,-9.05
-19,-15,503,-130,-616,3777,-0.24,0.40,29.00,-1.30,-6.16,37.77,-5.42,2.48,-17.12,6.02,1.42,-10.37
-26,-21,491,-90,-572,3865,-0.37,0.24,29.09,-0.90,-5.72,38.65,-5.44,2.48,-17.24,6.84,2.01,-9.24
-42,-38,452,-28,-59,4225,-0.59,-0.02,28.94,-0.28,-0.59,42.25,-5.42,2.49,-17.36,8.86,4.12,-6.09
-45,-25,444,-112,-290,3818,-0.81,-0.17,28.76,-1.12,-2.90,38.18,-5.40,2.49,-17.47,8.90,1.85,-5.60
-41,-35,419,-182,-580,3861,-0.98,-0.37,28.44,-1.82,-5.80,38.61,-5.42,2.50,-17.58,7.98,3.00,-3.81
-32,-31,428,-65,-451,3878,-1.07,-0.52,28.20,-0.65,-4.51,38.78,-5.43,2.49,-17.70,6.43,2.10,-4.80
-20,-9,427,60,-378,3962,-1.09,-0.52,27.99,0.60,-3.78,39.62,-5.43,2.48,-17.81,4.57,-1.25,-4.94
-9,-4,430,-29,-437,3952,-1.04,-0.49,27.81,-0.29,-4.37,39.52,-5.44,2.47,-17.92,3.00,-1.96,-5.37
-24,-7,453,21,-446,3923,-1.08,-0.49,27.79,0.21,-4.46,39.23,-5.44,2.46,-18.03,5.21,-1.48,-7.33
-20,-16,461,-46,-539,3920,-1.09,-0.54,27.83,-0.46,-5.39,39.20,-5.46,2.46,-18.14,4.58,-0.20,-7.96
-22,-15,458,-67,-419,3913,-1.12,-0.57,27.84,-0.67,-4.19,39.13,-5.46,2.45,-18.25,4.84,-0.42,-7.68
-27,-20,459,-116,-495,3904,-1.17,-0.64,27.85,-1.16,-4.95,39.04,-5.48,2.45,-18.36,5.52,0.22,-7.74
-20,-6,485,-48,-562,3885,-1.18,-0.61,28.03,-0.48,-5.62,38.85,-5.49,2.45,-18.47,4.45,-1.86,-9.75
-28,-17,501,-44,-476,3956,-1.23,-0.65,28.28,-0.44,-4.76,39.56,-5.51,2.45,-18.58,5.58,-0.26,-10.83
-36,-3,516,61,-331,4180,-1.33,-0.61,28.60,0.61,-3.31,41.80,-5.50,2.44,-18.70,6.61,-2.30,-11.75
-24,-15,508,-98,-302,3841,-1.34,-0.64,28.84,-0.98,-3.02,38.41,-5.49,2.43,-18.81,4.75,-0.53,-10.81
18,32,461,-178,-490,3949,-1.10,-0.38,28.77,-1.78,-4.90,39.49,-5.51,2.44,-18.93,-1.19,-7.21,-6.89
3,0,441,-279,-512,3719,-0.97,-0.34,28.58,-2.79,-5.12,37.19,-5.52,2.46,-19.04,1.35,-2.27,-5.39
11,46,419,-184,-457,3834,-0.80,-0.03,28.28,-1.84,-4.57,38.34,-5.54,2.48,-19.15,0.45,-8.70,-3.83
8,27,396,-242,-548,3819,-0.67,0.14,27.87,-2.42,-5.48,38.19,-5.55,2.50,-19.26,1.17,-5.50,-2.31
5,28,342,-14,-376,3967,-0.58,0.30,27.17,-0.14,-3.76,39.67,-5.55,2.49,-19.37,1.81,-5.35,1.53
21,38,325,7,-368,4001,-0.39,0.50,26.43,0.07,-3.68,40.01,-5.54,2.48,-19.48,-0.29,-6.49,2.21
3,18,263,-61,-455,3852,-0.33,0.56,25.39,-0.61,-4.55,38.52,-5.55,2.48,-19.58,2.57,-3.32,6.37
-1,15,248,-148,-416,3837,-0.31,0.60,24.37,-1.48,-4.16,38.37,-5.56,2.49,-19.67,3.24,-2.80,6.56
12,29,230,-159,-267,3893,-0.20,0.71,23.33,-1.59,-2.67,38.93,-5.54,2.50,-19.77,1.44,-4.72,7.00
11,34,223,-148,-240,3935,-0.12,0.85,22.36,-1.48,-2.40,39.35,-5.52,2.51,-19.86,1.75,-5.23,6.57
30,38,149,-142,-245,3883,0.08,1.00,21.03,-1.42,-2.45,38.83,-5.50,2.51,-19.94,-0.80,-5.57,11.44
32,33,145,-84,-250,3917,0.27,1.10,19.81,-0.84,-2.50,39.17,-5.48,2.52,-20.02,-0.76,-4.61,10.50
26,33,138,26,-319,3899,0.40,1.19,18.67,0.26,-3.19,38.99,-5.47,2.51,-20.09,0.40,-4.44,9.89
23,35,137,29,-376,3875,0.50,1.28,17.64,0.29,-3.76,38.75,-5.47,2.50,-20.16,1.04,-4.56,8.89
13,23,134,-24,-283,3911,0.53,1.30,16.70,-0.24,-2.83,39.11,-5.45,2.50,-20.23,2.62,-2.70,8.15
17,18,132,-35,-279,3960,0.58,1.28,15.83,-0.35,-2.79,39.60,-5.44,2.50,-20.29,2.09,-1.98,7.41
5,12,128,-56,-371,3841,0.55,1.22,15.03,-0.56,-3.71,38.41,-5.43,2.49,-20.35,3.87,-1.16,6.90
6,7,119,-4,-331,3941,0.53,1.14,14.25,-0.04,-3.31,39.41,-5.42,2.48,-20.41,3.67,-0.54,6.85
13,12,121,-82,-411,3851,0.56,1.10,13.56,-0.82,-4.11,38.51,-5.43,2.47,-20.46,2.66,-1.38,5.95
14,10,114,-27,-430,3912,0.59,1.05,12.90,-0.27,-4.30,39.12,-5.43,2.47,-20.51,2.56,-1.16,5.85
1,2,99,-80,-419,3877,0.54,0.96,12.22,-0.80,-4.19,38.77,-5.43,2.46,-20.56,4.45,-0.11,6.40
-1,-2,89,-95,-395,3920,0.48,0.85,11.54,-0.95,-3.95,39.20,-5.43,2.45,-20.61,4.64,0.30,6.53
-6,-19,43,-109,-457,3892,0.39,0.65,10.65,-1.09,-4.57,38.92,-5.45,2.44,-20.65,5.25,2.51,9.49
-12,-24,34,-52,-420,3922,0.28,0.44,9.79,-0.52,-4.20,39.22,-5.45,2.43,-20.69,5.96,2.88,9.35
-5,-2,17,-101,-359,3960,0.22,0.38,8.91,-1.01,-3.59,39.60,-5.44,2.42,-20.72,4.77,-0.57,9.86
1,6,16,-103,-394,3956,0.21,0.38,8.12,-1.03,-3.94,39.56,-5.45,2.41,-20.76,3.83,-1.78,9.11
9,26,23,-60,-477,3889,0.24,0.50,7.45,-0.60,-4.77,38.89,-5.46,2.40,-20.78,2.68,-4.60,7.81
13,29,32,-68,-473,3890,0.29,0.63,6.90,-0.68,-4.73,38.90,-5.47,2.39,-20.81,2.18,-4.81,6.47
11,22,59,-26,-571,3856,0.33,0.70,6.57,-0.26,-5.71,38.56,-5.48,2.39,-20.84,2.57,-3.61,3.83
10,25,75,-39,-575,3861,0.36,0.78,6.37,-0.39,-5.75,38.61,-5.49,2.38,-20.86,2.78,-3.90,2.27
21,32,133,-116,-422,3927,0.45,0.90,6.54,-1.16,-4.22,39.27,-5.50,2.38,-20.89,1.29,-4.74,-2.46
17,33,128,-138,-373,3879,0.51,1.01,6.67,-1.38,-3.73,38.79,-5.50,2.36,-20.91,2.00,-4.68,-1.90
25,33,112,-154,-377,3932,0.61,1.11,6.69,-1.54,-3.77,39.32,-5.49,2.35,-20.94,0.97,-4.48,-0.52
23,31,119,-97,-429,3904,0.69,1.19,6.74,-0.97,-4.29,39.04,-5.50,2.35,-20.96,1.43,-4.02,-1.05
-10,1,148,-83,-345,3954,0.56,1.08,6.97,-0.83,-3.45,39.54,-5.49,2.34,-20.99,6.21,0.34,-3.27
6,8,159,-50,-292,4035,0.54,1.02,7.24,-0.50,-2.92,40.35,-5.47,2.33,-21.02,3.72,-0.83,-3.91
3,9,186,-46,-499,3882,0.51,0.97,7.66,-0.46,-4.99,38.82,-5.49,2.32,-21.05,4.12,-1.07,-5.76
8,3,192,-74,-588,3868,0.50,0.89,8.06,-0.74,-5.88,38.68,-5.50,2.32,-21.08,3.36,-0.30,-5.83
11,7,246,-68,-460,3870,0.52,0.85,8.76,-0.68,-4.60,38.70,-5.51,2.32,-21.12,2.94,-1.00,-9.67
-1,14,247,-74,-361,3953,0.46,0.85,9.39,-0.74,-3.61,39.53,-5.50,2.31,-21.15,4.66,-2.05,-9.08
12,18,201,-140,-389,3908,0.49,0.87,9.67,-1.40,-3.89,39.08,-5.51,2.30,-21.19,2.73,-2.61,-4.88
10,16,194,-107,-424,3855,0.50,0.88,9.89,-1.07,-4.24,38.55,-5.52,2.29,-21.23,3.07,-2.28,-4.05
2,5,176,-14,-446,3853,0.46,0.82,9.97,-0.14,-4.46,38.53,-5.52,2.28,-21.27,4.22,-0.71,-2.44
2,0,184,16,-420,3938,0.43,0.74,10.10,0.16,-4.20,39.38,-5.52,2.27,-21.31,4.15,-0.10,-2.98
8,7,203,-54,-464,3885,0.44,0.71,10.33,-0.54,-4.64,38.85,-5.53,2.27,-21.35,3.26,-1.22,-4.34
2,1,211,-73,-412,3922,0.40,0.65,10.58,-0.73,-4.12,39.22,-5.54,2.26,-21.39,4.11,-0.42,-4.75
-5,-5,192,-87,-402,3949,0.33,0.55,10.70,-0.87,-4.02,39.49,-5.54,2.24,-21.43,5.05,0.32,-3.01
0,-8,179,-86,-400,3917,0.30,0.45,10.72,-0.86,-4.00,39.17,-5.54,2.23,-21.47,4.22,0.59,-1.88
-7,-10,175,-101,-357,3905,0.23,0.34,10.71,-1.01,-3.57,39.05,-5.53,2.22,-21.52,5.15,0.70,-1.55
-13,-12,176,-142,-405,3879,0.13,0.23,10.72,-1.42,-4.05,38.79,-5.55,2.22,-21.56,5.88,0.81,-1.62
-9,-7,153,-102,-320,3927,0.06,0.17,10.58,-1.02,-3.20,39.27,-5.53,2.21,-21.60,5.13,-0.08,0.18
-5,-11,142,-96,-350,3922,0.02,0.08,10.39,-0.96,-3.50,39.22,-5.52,2.20,-21.64,4.45,0.38,0.91
-15,-24,112,-48,-344,3894,-0.07,-0.07,10.03,-0.48,-3.44,38.94,-5.51,2.19,-21.68,5.79,2.08,3.08
-21,-28,102,-55,-404,3888,-0.19,-0.23,9.65,-0.55,-4.04,38.88,-5.52,2.17,-21.72,6.48,2.39,3.53
-15,-27,61,-107,-339,3904,-0.27,-0.38,9.06,-1.07,-3.39,39.04,-5.50,2.16,-21.76,5.42,1.98,6.38
-16,-26,54,-92,-384,3899,-0.34,-0.50,8.48,-0.92,-3.84,38.99,-5.51,2.14,-21.79,5.44,1.61,6.37
-9,-16,66,-76,-459,3923,-0.36,-0.54,8.03,-0.76,-4.59,39.23,-5.52,2.13,-21.82,4.34,-0.00,4.88
-8,-8,66,-101,-385,3915,-0.37,-0.54,7.63,-1.01,-3.85,39.15,-5.52,2.12,-21.85,4.16,-1.20,4.46
4,8,32,-88,-436,3902,-0.31,-0.44,7.07,-0.88,-4.36,39.02,-5.54,2.10,-21.88,2.46,-3.44,6.74
5,8,25,-59,-452,3912,-0.25,-0.34,6.51,-0.59,-4.52,39.12,-5.55,2.09,-21.91,2.43,-3.25,6.75
-2,2,-1,-83,-412,3907,-0.24,-0.30,5.85,-0.83,-4.12,39.07,-5.56,2.08,-21.93,3.53,-2.24,8.26
-1,5,-2,-115,-368,3899,-0.22,-0.24,5.26,-1.15,-3.68,38.99,-5.55,2.06,-21.95,3.40,-2.57,7.71
9,17,3,-111,-391,3894,-0.14,-0.11,4.75,-1.11,-3.91,38.94,-5.56,2.04,-21.97,2.03,-4.15,6.75
12,19,9,-99,-417,3908,-0.05,0.02,4.33,-0.99,-4.17,39.08,-5.57,2.03,-21.99,1.74,-4.21,5.80
10,16,33,-55,-522,3919,0.01,0.11,4.10,-0.55,-5.22,39.19,-5.58,2.03,-22.00,2.18,-3.56,3.52
9,17,50,-58,-531,3904,0.07,0.21,3.99,-0.58,-5.31,39.04,-5.60,2.02,-22.02,2.45,-3.54,1.97
4,15,87,-78,-474,3923,0.08,0.28,4.12,-0.78,-4.74,39.23,-5.61,2.01,-22.04,3.25,-3.09,-1.02
-9,24,98,-128,-432,3886,0.02,0.40,4.31,-1.28,-4.32,38.86,-5.63,2.01,-22.05,5.13,-4.24,-1.75
13,30,44,-119,-407,3916,0.10,0.54,4.15,-1.19,-4.07,39.16,-5.64,2.00,-22.07,1.93,-4.88,2.65
18,33,36,-90,-414,3870,0.20,0.69,3.95,-0.90,-4.14,38.70,-5.65,1.99,-22.08,1.36,-5.05,3.12
9,13,5,-192,-386,3844,0.23,0.70,3.59,-1.92,-3.86,38.44,-5.65,2.01,-22.10,2.80,-1.99,5.36
7,15,6,-127,-319,3899,0.25,0.72,3.27,-1.27,-3.19,38.99,-5.63,2.02,-22.11,3.13,-2.26,4.94
4,9,13,-45,-384,3897,0.25,0.70,3.02,-0.45,-3.84,38.97,-5.63,2.00,-22.12,3.58,-1.36,4.09
4,9,17,-30,-373,3907,0.25,0.69,2.82,-0.30,-3.73,39.07,-5.63,1.99,-22.13,3.58,-1.38,3.54
4,6,23,-40,-397,3893,0.25,0.65,2.68,-0.40,-3.97,38.93,-5.63,1.97,-22.14,3.58,-0.98,2.88
3,6,24,-67,-393,3899,0.24,0.63,2.56,-0.67,-3.93,38.99,-5.63,1.96,-22.15,3.72,-1.02,2.67
0,2,18,-78,-393,3903,0.22,0.58,2.41,-0.78,-3.93,39.03,-5.63,1.94,-22.16,4.13,-0.50,3.02
-2,-4,9,-83,-410,3899,0.18,0.49,2.22,-0.83,-4.10,38.99,-5.64,1.93,-22.17,4.38,0.27,3.59
-1,-5,4,-78,-425,3891,0.16,0.41,2.03,-0.78,-4.25,38.91,-5.65,1.92,-22.18,4.19,0.28,3.80
-1,-5,1,-95,-414,3894,0.14,0.34,1.83,-0.95,-4.14,38.94,-5.66,1.90,-22.18,4.15,0.15,3.85
1,-1,2,-75,-423,3901,0.13,0.30,1.66,-0.75,-4.23,39.01,-5.67,1.89,-22.19,3.84,-0.52,3.58
-1,-2,2,-78,-422,3899,0.11,0.26,1.51,-0.78,-4.22,38.99,-5.68,1.88,-22.20,4.11,-0.44,3.42
2,-3,2,-87,-420,3893,0.11,0.21,1.37,-0.87,-4.20,38.93,-5.69,1.86,-22.20,3.66,-0.37,3.28
1,-3,2,-72,-429,3889,0.11,0.17,1.24,-0.72,-4.29,38.89,-5.70,1.85,-22.21,3.81,-0.43,3.14
-5,-4,4,-72,-411,3851,0.07,0.13,1.14,-0.72,-4.11,38.51,-5.71,1.84,-22.21,4.65,-0.35,2.87
-6,-5,5,-86,-415,3917,0.02,0.09,1.06,-0.86,-4.15,39.17,-5.72,1.82,-22.21,4.73,-0.27,2.70
-3,-5,8,-57,-450,3921,0.00,0.05,1.00,-0.57,-4.50,39.21,-5.73,1.81,-22.22,4.24,-0.34,2.38
-6,-9,9,-72,-446,3896,-0.03,-0.01,0.96,-0.72,-4.46,38.96,-5.74,1.79,-22.22,4.64,0.17,2.25
-2,-9,7,-105,-435,3906,-0.04,-0.06,0.90,-1.05,-4.35,39.06,-5.76,1.79,-22.22,4.02,0.07,2.36
-3,-8,7,-100,-441,3934,-0.06,-0.11,0.86,-1.00,-4.41,39.34,-5.78,1.78,-22.23,4.16,-0.16,2.31
-7,-9,-6,8,-558,3888,-0.09,-0.15,0.73,0.08,-5.58,38.88,-5.79,1.77,-22.23,4.71,-0.08,3.29
-4,-12,-11,-17,-506,3929,-0.11,-0.21,0.59,-0.17,-5.06,39.29,-5.80,1.75,-22.23,4.23,0.28,3.56
2,-4,2,-176,-301,3962,-0.09,-0.21,0.55,-1.76,-3.01,39.62,-5.79,1.76,-22.23,3.35,-0.95,2.41
1,3,-2,-154,-314,3905,-0.07,-0.17,0.48,-1.54,-3.14,39.05,-5.77,1.77,-22.24,3.52,-1.95,2.68
5,15,-13,-76,-406,3904,-0.03,-0.06,0.35,-0.76,-4.06,39.04,-5.78,1.75,-22.24,2.99,-3.56,3.48
6,14,-12,-99,-421,3902,0.01,0.03,0.24,-0.99,-4.21,39.02,-5.79,1.74,-22.24,2.92,-3.23,3.28
8,18,-22,-56,-443,3887,0.05,0.13,0.09,-0.56,-4.43,38.87,-5.80,1.73,-22.24,2.71,-3.63,3.96
9,16,-18,-71,-416,3892,0.10,0.22,-0.03,-0.71,-4.16,38.92,-5.81,1.71,-22.24,2.66,-3.15,3.49
12,8,-20,-65,-419,3902,0.17,0.25,-0.15,-0.65,-4.19,39.02,-5.81,1.69,-22.24,2.32,-1.87,3.54
14,6,-19,-77,-414,3899,0.24,0.26,-0.25,-0.77,-4.14,38.99,-5.82,1.68,-22.24,2.15,-1.53,3.34
10,-1,-28,-64,-452,3907,0.27,0.23,-0.40,-0.64,-4.52,39.07,-5.83,1.67,-22.23,2.84,-0.52,3.95
8,-3,-31,-77,-432,3902,0.29,0.19,-0.55,-0.77,-4.32,39.02,-5.84,1.65,-22.23,3.19,-0.28,4.05
6,-3,-29,-99,-399,3907,0.30,0.15,-0.67,-0.99,-3.99,39.07,-5.84,1.63,-22.23,3.51,-0.34,3.75
4,-3,-27,-106,-382,3922,0.30,0.12,-0.77,-1.06,-3.82,39.22,-5.82,1.63,-22.23,3.79,-0.40,3.48
-4,-1,-14,-88,-410,3912,0.24,0.10,-0.78,-0.88,-4.10,39.12,-5.83,1.61,-22.22,4.92,-0.73,2.36
-2,-3,-9,-79,-409,3901,0.21,0.07,-0.75,-0.79,-4.09,39.01,-5.83,1.60,-22.22,4.55,-0.46,1.96
-6,-6,-19,-85,-397,3927,0.15,0.03,-0.79,-0.85,-3.97,39.27,-5.83,1.58,-22.22,5.04,-0.08,2.77
-5,-2,-18,-19,-386,3897,0.10,0.01,-0.82,-0.19,-3.86,38.97,-5.83,1.56,-22.21,4.80,-0.70,2.65
1,-8,-50,-18,-457,3912,0.10,-0.04,-1.05,-0.18,-4.57,39.12,-5.84,1.54,-22.21,3.89,0.13,5.13
1,-4,-52,-41,-458,3912,0.09,-0.06,-1.26,-0.41,-4.58,39.12,-5.85,1.53,-22.20,3.89,-0.51,5.07
-4,-5,-45,-137,-404,3897,0.06,-0.08,-1.41,-1.37,-4.04,38.97,-5.85,1.55,-22.20,4.59,-0.42,4.32
-5,-6,-45,-116,-413,3910,0.02,-0.11,-1.54,-1.16,-4.13,39.10,-5.87,1.56,-22.19,4.68,-0.32,4.18
-6,-10,-47,-73,-437,3903,-0.01,-0.16,-1.67,-0.73,-4.37,39.03,-5.88,1.54,-22.18,4.77,0.20,4.21
-9,-6,-49,-35,-415,3936,-0.07,-0.18,-1.81,-0.35,-4.15,39.36,-5.88,1.52,-22.18,5.13,-0.43,4.24
-11,-10,-80,-30,-440,3881,-0.13,-0.23,-2.11,-0.30,-4.40,38.81,-5.89,1.50,-22.17,5.32,0.11,6.54
-10,-9,-90,-64,-381,3912,-0.18,-0.26,-2.45,-0.64,-3.81,39.12,-5.88,1.49,-22.16,5.07,-0.10,7.02
-6,-4,-89,-114,-395,3894,-0.20,-0.26,-2.75,-1.14,-3.95,38.94,-5.88,1.50,-22.15,4.42,-0.87,6.62
-4,-1,-89,-129,-374,3904,-0.20,-0.24,-3.02,-1.29,-3.74,39.04,-5.87,1.51,-22.14,4.10,-1.29,6.34
-3,-8,-112,-49,-317,3914,-0.20,-0.26,-3.40,-0.49,-3.17,39.14,-5.85,1.50,-22.12,3.94,-0.26,7.88
-10,-3,-137,-52,-331,3864,-0.24,-0.25,-3.89,-0.52,-3.31,38.64,-5.84,1.48,-22.11,4.92,-1.00,9.47
-6,-13,-159,-78,-409,3925,-0.25,-0.31,-4.47,-0.78,-4.09,39.25,-5.84,1.46,-22.09,4.29,0.43,10.72
-8,-12,-157,-15,-404,3869,-0.28,-0.35,-4.98,-0.15,-4.04,38.69,-5.85,1.44,-22.07,4.56,0.21,10.01
-33,-43,-201,106,-545,3860,-0.45,-0.58,-5.71,1.06,-5.45,38.60,-5.86,1.42,-22.05,8.05,4.52,12.96
-50,-56,-224,45,-565,3873,-0.71,-0.86,-6.51,0.45,-5.65,38.73,-5.88,1.41,-22.02,10.16,5.98,14.07
-103,-141,-363,105,-783,3863,-1.27,-1.64,-8.07,1.05,-7.83,38.63,-5.90,1.39,-21.99,17.20,17.49,24.19
-117,-153,-392,62,-449,3985,-1.85,-2.41,-9.66,0.62,-4.49,39.85,-5.91,1.36,-21.95,18.23,17.88,24.96
-129,-148,-242,-60,-372,3888,-2.46,-3.07,-10.17,-0.60,-3.72,38.88,-5.91,1.33,-21.91,18.92,15.89,11.71
-80,-80,-185,-182,-419,3919,-2.70,-3.25,-10.28,-1.82,-4.19,39.19,-5.93,1.33,-21.87,11.00,5.17,6.76
-18,1,-161,-198,-321,3857,-2.54,-2.92,-10.23,-1.98,-3.21,38.57,-5.93,1.33,-21.84,1.85,-6.55,4.77
-13,11,-174,-175,-317,3853,-2.36,-2.56,-10.27,-1.75,-3.17,38.53,-5.92,1.32,-21.80,1.42,-7.40,5.83
-2,4,-182,-132,-452,3893,-2.14,-2.28,-10.35,-1.32,-4.52,38.93,-5.95,1.32,-21.76,0.18,-5.80,6.41
7,9,-171,-190,-473,3908,-1.88,-2.00,-10.36,-1.90,-4.73,39.08,-5.97,1.33,-21.71,-0.70,-6.03,5.47
-4,11,-127,-67,-400,3988,-1.72,-1.73,-10.10,-0.67,-4.00,39.88,-5.96,1.30,-21.68,1.29,-5.81,2.02
-18,2,-142,-12,-433,3957,-1.66,-1.54,-9.96,-0.12,-4.33,39.57,-5.98,1.27,-21.64,3.55,-4.07,3.44
-19,-13,-222,-95,-500,3902,-1.61,-1.47,-10.31,-0.95,-5.00,39.02,-6.00,1.26,-21.60,3.81,-1.63,9.83
-10,-18,-223,-122,-512,3930,-1.51,-1.43,-10.64,-1.22,-5.12,39.30,-6.02,1.26,-21.55,2.65,-0.80,9.56
-6,-5,-143,-129,-488,3893,-1.39,-1.32,-10.45,-1.29,-4.88,38.93,-6.05,1.26,-21.51,2.27,-2.57,2.98
-5,2,-139,-100,-511,3878,-1.28,-1.18,-10.25,-1.00,-5.11,38.78,-6.07,1.25,-21.47,2.34,-3.36,2.85
0,-1,-151,-19,-524,3885,-1.16,-1.06,-10.15,-0.19,-5.24,38.85,-6.09,1.23,-21.43,1.83,-2.68,3.97
4,5,-141,2,-487,3915,-1.02,-0.93,-9.99,0.02,-4.87,39.15,-6.11,1.21,-21.39,1.50,-3.32,3.29
6,1,-152,55,-566,3895,-0.88,-0.83,-9.92,0.55,-5.66,38.95,-6.13,1.19,-21.35,1.47,-2.51,4.29
4,-3,-167,69,-550,3886,-0.77,-0.76,-9.95,0.69,-5.50,38.86,-6.14,1.17,-21.31,1.99,-1.76,5.53
6,-6,-169,-8,-570,3883,-0.65,-0.72,-9.99,-0.08,-5.70,38.83,-6.16,1.16,-21.27,1.92,-1.22,5.66
2,-12,-178,-20,-544,3911,-0.57,-0.72,-10.07,-0.20,-5.44,39.11,-6.18,1.14,-21.23,2.69,-0.29,6.33
0,-6,-142,-55,-403,3931,-0.52,-0.69,-9.93,-0.55,-4.03,39.31,-6.17,1.12,-21.19,3.09,-1.13,3.42
0,-8,-148,-45,-441,3894,-0.47,-0.67,-9.84,-0.45,-4.41,38.94,-6.18,1.10,-21.15,3.20,-0.77,4.02
8,-17,-152,-109,-426,3909,-0.37,-0.71,-9.78,-1.09,-4.26,39.09,-6.19,1.11,-21.12,2.16,0.52,4.42
2,-12,-126,-154,-386,3904,-0.32,-0.71,-9.57,-1.54,-3.86,39.04,-6.18,1.12,-21.08,3.17,-0.25,2.43
-1,-9,-114,6,-376,3903,-0.30,-0.69,-9.31,0.06,-3.76,39.03,-6.18,1.10,-21.04,3.67,-0.66,1.69
-5,-8,-112,13,-382,3949,-0.30,-0.67,-9.06,0.13,-3.82,39.49,-6.17,1.07,-21.01,4.27,-0.76,1.78
-4,-5,-104,-62,-441,3890,-0.29,-0.64,-8.79,-0.62,-4.41,38.90,-6.19,1.06,-20.97,4.14,-1.14,1.39
1,-5,-93,-97,-455,3874,-0.26,-0.60,-8.48,-0.97,-4.55,38.74,-6.20,1.06,-20.94,3.46,-1.08,0.78
2,-11,-98,-83,-378,3946,-0.22,-0.61,-8.23,-0.83,-3.78,39.46,-6.19,1.06,-20.91,3.37,-0.18,1.47
0,-10,-90,-92,-373,3918,-0.20,-0.61,-7.96,-0.92,-3.73,39.18,-6.17,1.06,-20.87,3.70,-0.33,1.08
1,-13,-84,-215,-370,3878,-0.17,-0.63,-7.67,-2.15,-3.70,38.78,-6.17,1.07,-20.84,3.59,0.09,0.87
3,-12,-85,-204,-328,3888,-0.14,-0.64,-7.42,-2.04,-3.28,38.88,-6.16,1.08,-20.82,3.35,-0.09,1.21
8,-10,-114,-37,-392,3922,-0.07,-0.64,-7.38,-0.37,-3.92,39.22,-6.15,1.06,-20.79,2.70,-0.38,3.72
4,-18,-122,-45,-460,3881,-0.04,-0.68,-7.38,-0.45,-4.60,38.81,-6.16,1.05,-20.76,3.38,0.76,4.39
6,-18,-120,-55,-441,3889,-0.00,-0.72,-7.38,-0.55,-4.41,38.89,-6.18,1.03,-20.73,3.16,0.70,4.22
2,-14,-131,-35,-445,3880,0.01,-0.74,-7.44,-0.35,-4.45,38.80,-6.19,1.01,-20.70,3.80,0.08,5.08
3,-19,-143,-104,-496,3886,0.03,-0.78,-7.57,-1.04,-4.96,38.86,-6.20,1.01,-20.67,3.69,0.76,5.96
-1,-19,-125,-89,-542,3879,0.02,-0.82,-7.57,-0.89,-5.42,38.79,-6.22,1.00,-20.64,4.30,0.69,4.43
-5,-15,-99,-74,-581,3897,-0.01,-0.83,-7.42,-0.74,-5.81,38.97,-6.24,1.00,-20.61,4.86,0.06,2.39
-2,-14,-98,-59,-564,3900,-0.02,-0.83,-7.28,-0.59,-5.64,39.00,-6.26,0.99,-20.58,4.39,-0.09,2.45
-1,-3,-69,-108,-360,3906,-0.03,-0.76,-6.97,-1.08,-3.60,39.06,-6.25,0.99,-20.55,4.22,-1.65,0.32
-3,2,-51,-127,-354,3893,-0.04,-0.68,-6.58,-1.27,-3.54,38.93,-6.23,1.00,-20.53,4.49,-2.25,-0.80
1,22,-49,-40,-416,3928,-0.03,-0.47,-6.22,-0.40,-4.16,39.28,-6.23,0.98,-20.50,3.89,-4.90,-0.59
0,20,-72,-12,-536,3894,-0.03,-0.30,-6.04,-0.12,-5.36,38.94,-6.24,0.97,-20.48,4.06,-4.27,1.55
1,12,-147,-55,-465,3909,-0.02,-0.20,-6.33,-0.55,-4.65,39.09,-6.26,0.96,-20.45,3.94,-2.84,7.59
-3,14,-157,-125,-422,3908,-0.04,-0.10,-6.66,-1.25,-4.22,39.08,-6.26,0.97,-20.43,4.52,-2.96,8.09
-6,8,-198,-116,-564,3894,-0.07,-0.04,-7.20,-1.16,-5.64,38.94,-6.28,0.98,-20.40,4.93,-1.93,10.99
-4,-7,-239,-118,-537,3912,-0.09,-0.08,-7.94,-1.18,-5.37,39.12,-6.29,0.98,-20.37,4.60,0.28,13.68
-11,-24,-375,-82,-504,3854,-0.15,-0.21,-9.43,-0.82,-5.04,38.54,-6.31,0.98,-20.33,5.57,2.61,23.61
0,-16,-393,-125,-463,3911,-0.13,-0.29,-10.89,-1.25,-4.63,39.11,-6.32,0.99,-20.29,3.93,1.24,23.60
-2,-7,-333,-43,-369,3888,-0.13,-0.30,-11.83,-0.43,-3.69,38.88,-6.31,0.98,-20.24,4.22,-0.15,17.51
0,-5,-308,-37,-307,3915,-0.12,-0.30,-12.52,-0.37,-3.07,39.15,-6.29,0.96,-20.19,3.93,-0.45,14.65
-1,2,-288,11,-454,3881,-0.11,-0.26,-13.03,0.11,-4.54,38.81,-6.30,0.94,-20.14,4.10,-1.42,12.42
-3,1,-300,15,-373,3897,-0.12,-0.23,-13.56,0.15,-3.73,38.97,-6.29,0.92,-20.08,4.38,-1.19,12.87
8,8,-277,-26,-446,3897,-0.06,-0.16,-13.89,-0.26,-4.46,38.97,-6.30,0.90,-20.03,2.83,-2.11,10.56
0,8,-261,-76,-439,3877,-0.05,-0.09,-14.09,-0.76,-4.39,38.77,-6.31,0.90,-19.97,4.07,-1.99,8.99
5,7,-274,-106,-325,3921,-0.02,-0.04,-14.36,-1.06,-3.25,39.21,-6.29,0.90,-19.92,3.36,-1.74,9.81
3,3,-299,-111,-360,3922,0.00,-0.02,-14.74,-1.11,-3.60,39.22,-6.28,0.91,-19.86,3.69,-1.09,11.51
8,-7,-367,-83,-449,3933,0.05,-0.06,-15.51,-0.83,-4.49,39.33,-6.29,0.92,-19.80,3.03,0.35,16.45
2,-12,-372,-77,-408,3887,0.06,-0.13,-16.23,-0.77,-4.08,38.87,-6.28,0.92,-19.73,3.95,0.98,16.11
-9,-16,-398,-80,-358,3875,-0.00,-0.21,-17.03,-0.80,-3.58,38.75,-6.26,0.91,-19.66,5.50,1.44,17.45
0,-10,-393,-67,-378,3872,-0.00,-0.25,-17.73,-0.67,-3.78,38.72,-6.24,0.91,-19.59,4.12,0.45,16.29
-2,-9,-371,25,-452,3893,-0.01,-0.28,-18.22,0.25,-4.52,38.93,-6.25,0.88,-19.52,4.40,0.26,13.90
11,-23,-349,50,-561,3878,0.05,-0.39,-18.52,0.50,-5.61,38.78,-6.26,0.86,-19.45,2.56,2.19,11.70
2,-3,-291,102,-416,3869,0.06,-0.37,-18.45,1.02,-4.16,38.69,-6.26,0.83,-19.37,3.95,-0.80,6.87
5,2,-271,81,-434,3947,0.09,-0.32,-18.25,0.81,-4.34,39.47,-6.27,0.80,-19.30,3.54,-1.45,5.37
5,-5,-273,-66,-503,3882,0.11,-0.32,-18.09,-0.66,-5.03,38.82,-6.28,0.80,-19.23,3.59,-0.37,5.70
1,-3,-276,-92,-607,3836,0.10,-0.31,-17.97,-0.92,-6.07,38.36,-6.30,0.79,-19.16,4.20,-0.65,6.08
13,-4,-277,-127,-591,3872,0.17,-0.30,-17.86,-1.27,-5.91,38.72,-6.32,0.79,-19.09,2.51,-0.48,6.27
6,-4,-274,-127,-598,3901,0.19,-0.30,-17.75,-1.27,-5.98,39.01,-6.34,0.79,-19.02,3.63,-0.47,6.13
2,-6,-255,-88,-499,3938,0.18,-0.30,-17.53,-0.88,-4.99,39.38,-6.35,0.79,-18.95,4.24,-0.18,4.75
10,-17,-274,-89,-487,3963,0.23,-0.38,-17.45,-0.89,-4.87,39.63,-6.37,0.79,-18.88,3.11,1.36,6.44
0,-5,-227,-174,-460,3895,0.20,-0.37,-17.09,-1.74,-4.60,38.95,-6.37,0.80,-18.81,4.59,-0.46,2.83
-1,0,-168,-122,-427,3894,0.18,-0.33,-16.40,-1.22,-4.27,38.94,-6.37,0.81,-18.74,4.69,-1.16,-1.45
1,4,-138,-71,-485,3907,0.17,-0.27,-15.60,-0.71,-4.85,39.07,-6.39,0.81,-18.68,4.38,-1.66,-3.15
0,5,-143,-84,-472,3912,0.15,-0.22,-14.92,-0.84,-4.72,39.12,-6.40,0.81,-18.62,4.51,-1.71,-2.00
6,9,-159,-176,-443,3860,0.17,-0.14,-14.39,-1.76,-4.43,38.60,-6.40,0.82,-18.57,3.64,-2.18,-0.10
3,15,-133,-165,-436,3877,0.17,-0.03,-13.77,-1.65,-4.36,38.77,-6.40,0.83,-18.51,4.09,-2.90,-1.64
11,22,-127,-87,-433,3933,0.22,0.10,-13.16,-0.87,-4.33,39.33,-6.40,0.85,-18.46,2.97,-3.72,-1.52
17,26,-164,-91,-451,3919,0.30,0.25,-12.85,-0.91,-4.51,39.19,-6.40,0.86,-18.41,2.21,-4.06,1.95
4,-8,-318,-81,-532,3894,0.30,0.18,-13.50,-0.81,-5.32,38.94,-6.42,0.86,-18.35,4.19,0.99,14.30
-6,-11,-342,-63,-496,3900,0.23,0.09,-14.24,-0.63,-4.96,39.00,-6.44,0.85,-18.30,5.60,1.29,15.54
-7,-17,-359,-2,-353,3953,0.17,-0.02,-15.01,-0.02,-3.53,39.53,-6.42,0.84,-18.24,5.62,2.00,16.17
-1,-14,-347,-45,-400,3950,0.14,-0.10,-15.62,-0.45,-4.00,39.50,-6.41,0.82,-18.18,4.65,1.39,14.49
-4,-14,-335,-57,-371,3883,0.10,-0.18,-16.10,-0.57,-3.71,38.83,-6.39,0.82,-18.11,5.02,1.26,12.96
-4,-12,-323,-74,-360,3917,0.07,-0.23,-16.46,-0.74,-3.60,39.17,-6.37,0.81,-18.05,4.95,0.85,11.56
-2,-6,-364,-133,-461,3860,0.05,-0.25,-17.04,-1.33,-4.61,38.60,-6.38,0.82,-17.98,4.61,-0.10,14.42
1,-14,-368,-93,-431,3872,0.05,-0.31,-17.58,-0.93,-4.31,38.72,-6.38,0.83,-17.91,4.15,1.00,14.18
4,-16,-439,-63,-404,3911,0.07,-0.37,-18.50,-0.63,-4.04,39.11,-6.36,0.82,-17.84,3.72,1.19,19.21
-1,-24,-437,-2,-468,3865,0.06,-0.48,-19.31,-0.02,-4.68,38.65,-6.37,0.80,-17.76,4.47,2.22,18.17
2,-14,-408,-14,-445,3900,0.06,-0.52,-19.87,-0.14,-4.45,39.00,-6.38,0.77,-17.68,4.03,0.64,15.12
9,-11,-410,-43,-441,3912,0.11,-0.54,-20.39,-0.43,-4.41,39.12,-6.38,0.74,-17.60,3.05,0.17,14.73
7,-18,-436,-63,-422,3915,0.14,-0.59,-21.01,-0.63,-4.22,39.15,-6.37,0.74,-17.52,3.41,1.14,16.27
12,-18,-455,-119,-433,3916,0.20,-0.64,-21.68,-1.19,-4.33,39.16,-6.37,0.75,-17.43,2.76,1.04,17.16
