gyroADC_X,gyroADC_Y,gyroADC_Z,accADC_X,accADC_Y,accADC_Z,GyroX,GyroY,GyroZ,AccX,AccY,AccZ,roll_IMU,pitch_IMU,yaw_IMU,roll_PID,pitch_PID,yaw_PID
1,-3,2,-63,-380,3873,-0.07,-0.07,0.23,-0.63,-3.80,38.73,-5.19,0.53,56.78,3.42,-0.27,-5.03
-4,11,69,-53,-494,3790,-0.09,0.01,0.63,-0.53,-4.94,37.90,-5.21,0.53,56.78,3.54,-0.58,-10.29
9,0,107,-50,-368,3832,-0.03,0.01,1.22,-0.50,-3.68,38.32,-5.22,0.55,56.78,3.27,-0.36,-12.88
4,-3,103,-82,-313,4015,0.00,-0.01,1.73,-0.82,-3.13,40.15,-5.21,0.56,56.77,3.36,-0.30,-12.01
3,-6,64,8,-238,3946,0.02,-0.05,1.94,0.08,-2.38,39.46,-5.19,0.55,56.76,3.36,-0.23,-8.47
5,-7,59,-17,-306,3877,0.05,-0.09,2.11,-0.17,-3.06,38.77,-5.17,0.55,56.75,3.30,-0.19,-7.87
4,-10,75,-25,-364,3885,0.07,-0.14,2.36,-0.25,-3.64,38.85,-5.19,0.53,56.74,3.32,-0.11,-8.97
1,-9,81,-54,-349,3872,0.07,-0.18,2.61,-0.54,-3.49,38.72,-5.18,0.55,56.73,3.38,-0.13,-9.20
-2,-2,50,-64,-311,3870,0.05,-0.17,2.66,-0.64,-3.11,38.70,-5.17,0.56,56.72,3.44,-0.28,-6.53
-1,-3,37,-51,-326,3908,0.04,-0.17,2.62,-0.51,-3.26,39.08,-5.15,0.57,56.71,3.41,-0.27,-5.47
0,4,27,-40,-343,3934,0.03,-0.13,2.52,-0.40,-3.43,39.34,-5.13,0.57,56.70,3.38,-0.42,-4.72
1,4,20,-35,-329,3921,0.04,-0.10,2.39,-0.35,-3.29,39.21,-5.11,0.57,56.69,3.35,-0.43,-4.27
2,5,6,-29,-349,3930,0.04,-0.06,2.19,-0.29,-3.49,39.30,-5.11,0.55,56.68,3.32,-0.45,-3.29
-1,0,0,-22,-358,3915,0.03,-0.05,1.97,-0.22,-3.58,39.15,-5.12,0.53,56.67,3.39,-0.34,-3.02
-2,-1,0,-22,-355,3901,0.02,-0.05,1.77,-0.22,-3.55,39.01,-5.12,0.52,56.67,3.42,-0.31,-3.22
-5,-3,-4,-47,-357,3906,-0.01,-0.06,1.57,-0.47,-3.57,39.06,-5.13,0.53,56.66,3.49,-0.27,-3.10
-3,-4,-4,-60,-387,3900,-0.03,-0.08,1.39,-0.60,-3.87,39.00,-5.15,0.54,56.66,3.47,-0.26,-3.29
-7,-7,5,-36,-343,3916,-0.07,-0.12,1.28,-0.36,-3.43,39.16,-5.13,0.54,56.65,3.55,-0.18,-4.17
0,-4,4,-16,-350,3941,-0.06,-0.13,1.18,-0.16,-3.50,39.41,-5.13,0.52,56.65,3.40,-0.23,-4.19
-2,-3,2,-30,-329,3928,-0.07,-0.13,1.07,-0.30,-3.29,39.28,-5.11,0.52,56.64,3.43,-0.24,-4.13
-1,-1,0,-31,-334,3920,-0.07,-0.13,0.96,-0.31,-3.34,39.20,-5.09,0.51,56.64,3.40,-0.28,-4.08
-1,-2,-5,-31,-368,3889,-0.07,-0.13,0.84,-0.31,-3.68,38.89,-5.11,0.51,56.63,3.41,-0.26,-3.79
6,3,1,-25,-461,3955,-0.02,-0.10,0.76,-0.25,-4.61,39.55,-5.13,0.51,56.63,3.27,-0.37,-4.38
3,13,73,-101,-516,3893,-0.00,-0.01,1.13,-1.01,-5.16,38.93,-5.15,0.52,56.63,3.34,-0.60,-10.09
0,5,88,-79,-450,3952,-0.00,0.02,1.55,-0.79,-4.50,39.52,-5.16,0.52,56.62,3.41,-0.45,-10.91
-4,5,84,-16,-216,3932,-0.03,0.05,1.91,-0.16,-2.16,39.32,-5.15,0.52,56.61,3.48,-0.46,-10.19
-2,3,61,-8,-181,3888,-0.04,0.07,2.09,-0.08,-1.81,38.88,-5.13,0.52,56.60,3.43,-0.42,-8.05
-2,0,8,-33,-315,3914,-0.05,0.06,1.93,-0.33,-3.15,39.14,-5.11,0.52,56.60,3.42,-0.36,-3.73
-2,0,7,-27,-312,3904,-0.05,0.05,1.78,-0.27,-3.12,39.04,-5.09,0.52,56.59,3.42,-0.36,-3.80
-1,1,3,-27,-340,3917,-0.05,0.05,1.62,-0.27,-3.40,39.17,-5.08,0.50,56.58,3.39,-0.37,-3.63
1,-1,1,-29,-338,3907,-0.04,0.04,1.46,-0.29,-3.38,39.07,-5.06,0.50,56.58,3.33,-0.32,-3.63
3,1,1,-35,-357,3915,-0.02,0.04,1.32,-0.35,-3.57,39.15,-5.08,0.50,56.57,3.30,-0.36,-3.77
3,2,2,-38,-365,3911,0.00,0.05,1.20,-0.38,-3.65,39.11,-5.10,0.50,56.57,3.30,-0.39,-3.99
0,-1,0,-44,-363,3899,0.00,0.04,1.08,-0.44,-3.63,38.99,-5.11,0.51,56.56,3.38,-0.33,-3.94
-1,-2,0,-45,-358,3905,-0.01,0.02,0.98,-0.45,-3.58,39.05,-5.13,0.53,56.56,3.41,-0.31,-4.06
-3,-4,-1,-35,-348,3901,-0.02,-0.00,0.87,-0.35,-3.48,39.01,-5.11,0.52,56.55,3.44,-0.26,-4.08
-2,-4,-1,-36,-349,3912,-0.03,-0.03,0.78,-0.36,-3.49,39.12,-5.09,0.53,56.55,3.41,-0.26,-4.18
0,0,4,-14,-382,3938,-0.03,-0.02,0.73,-0.14,-3.82,39.38,-5.11,0.52,56.55,3.38,-0.33,-4.66
-2,-3,10,-30,-382,3914,-0.04,-0.04,0.71,-0.30,-3.82,39.14,-5.13,0.51,56.55,3.44,-0.27,-5.18
-5,-2,11,-51,-326,3901,-0.07,-0.05,0.71,-0.51,-3.26,39.01,-5.11,0.52,56.54,3.49,-0.29,-5.27
-3,-2,5,-51,-338,3903,-0.08,-0.06,0.67,-0.51,-3.38,39.03,-5.10,0.54,56.54,3.45,-0.30,-4.80
0,-1,-1,-46,-357,3906,-0.07,-0.06,0.60,-0.46,-3.57,39.06,-5.11,0.55,56.54,3.39,-0.33,-4.37
-1,-2,0,-36,-365,3907,-0.07,-0.06,0.54,-0.36,-3.65,39.07,-5.13,0.55,56.54,3.43,-0.31,-4.52
-4,-5,5,-32,-342,3897,-0.09,-0.09,0.51,-0.32,-3.42,38.97,-5.12,0.54,56.53,3.48,-0.23,-4.97
-4,-5,3,-27,-345,3910,-0.10,-0.11,0.48,-0.27,-3.45,39.10,-5.11,0.52,56.53,3.48,-0.21,-4.83
-2,-4,0,-38,-344,3899,-0.10,-0.12,0.43,-0.38,-3.44,38.99,-5.09,0.53,56.53,3.43,-0.24,-4.63
-1,-3,0,-39,-356,3916,-0.10,-0.13,0.39,-0.39,-3.56,39.16,-5.11,0.54,56.53,3.42,-0.26,-4.68
0,1,1,-39,-360,3904,-0.09,-0.11,0.36,-0.39,-3.60,39.04,-5.13,0.54,56.53,3.41,-0.35,-4.80
0,2,1,-49,-363,3913,-0.08,-0.09,0.33,-0.49,-3.63,39.13,-5.14,0.55,56.53,3.42,-0.38,-4.83
1,2,0,-42,-356,3892,-0.07,-0.07,0.29,-0.42,-3.56,38.92,-5.16,0.56,56.53,3.40,-0.39,-4.78
1,2,-1,-37,-357,3922,-0.05,-0.05,0.26,-0.37,-3.57,39.22,-5.17,0.55,56.52,3.41,-0.39,-4.73
0,1,-3,-40,-348,3895,-0.05,-0.04,0.21,-0.40,-3.48,38.95,-5.16,0.56,56.52,3.42,-0.38,-4.61
-1,2,-2,-32,-353,3903,-0.05,-0.02,0.18,-0.32,-3.53,39.03,-5.16,0.54,56.52,3.44,-0.39,-4.73
-1,0,-4,-27,-348,3907,-0.05,-0.02,0.14,-0.27,-3.48,39.07,-5.15,0.53,56.52,3.43,-0.34,-4.60
-1,-1,-2,-27,-356,3902,-0.05,-0.02,0.11,-0.27,-3.56,39.02,-5.16,0.51,56.52,3.44,-0.31,-4.80
-1,0,-1,-48,-353,3907,-0.05,-0.02,0.09,-0.48,-3.53,39.07,-5.16,0.53,56.52,3.44,-0.34,-4.90
-2,0,-2,-51,-355,3906,-0.06,-0.02,0.07,-0.51,-3.55,39.06,-5.16,0.55,56.52,3.46,-0.36,-4.84
-2,-1,-3,-36,-358,3906,-0.07,-0.02,0.05,-0.36,-3.58,39.06,-5.18,0.54,56.52,3.48,-0.33,-4.78
-2,-2,-4,-41,-352,3903,-0.07,-0.03,0.02,-0.41,-3.52,39.03,-5.17,0.56,56.52,3.47,-0.32,-4.73
-1,-1,-3,-31,-353,3914,-0.07,-0.04,-0.00,-0.31,-3.53,39.14,-5.17,0.54,56.52,3.45,-0.33,-4.83
-1,-1,-2,-26,-349,3916,-0.07,-0.04,-0.01,-0.26,-3.49,39.16,-5.16,0.52,56.52,3.45,-0.31,-4.93
1,-1,1,-35,-350,3903,-0.06,-0.04,-0.01,-0.35,-3.50,39.03,-5.15,0.52,56.52,3.39,-0.31,-5.18
1,-1,2,-30,-350,3885,-0.04,-0.04,0.01,-0.30,-3.50,38.85,-5.15,0.50,56.52,3.39,-0.30,-5.25
1,0,2,-43,-359,3915,-0.03,-0.04,0.02,-0.43,-3.59,39.15,-5.16,0.51,56.52,3.39,-0.33,-5.24
0,0,0,-44,-356,3906,-0.03,-0.03,0.02,-0.44,-3.56,39.06,-5.16,0.53,56.52,3.42,-0.34,-5.07
-2,1,-1,-43,-365,3907,-0.04,-0.02,0.01,-0.43,-3.65,39.07,-5.18,0.54,56.52,3.47,-0.37,-4.99
-2,1,-1,-43,-362,3902,-0.05,-0.02,0.00,-0.43,-3.62,39.02,-5.19,0.55,56.52,3.48,-0.38,-5.00
-1,0,-1,-48,-356,3919,-0.05,-0.01,-0.00,-0.48,-3.56,39.19,-5.19,0.57,56.52,3.46,-0.37,-5.01
-2,1,0,-41,-356,3911,-0.06,-0.01,-0.00,-0.41,-3.56,39.11,-5.20,0.59,56.52,3.49,-0.41,-5.09
-3,2,10,-41,-343,3926,-0.07,0.01,0.06,-0.41,-3.43,39.26,-5.18,0.59,56.52,3.50,-0.43,-5.87
-2,1,3,-40,-329,3908,-0.07,0.01,0.07,-0.40,-3.29,39.08,-5.16,0.59,56.52,3.47,-0.41,-5.27
1,2,-1,-31,-346,3922,-0.06,0.02,0.06,-0.31,-3.46,39.22,-5.15,0.57,56.52,3.40,-0.43,-4.94
0,2,-1,-31,-366,3902,-0.05,0.03,0.04,-0.31,-3.66,39.02,-5.17,0.56,56.52,3.43,-0.42,-4.95
-2,-1,-2,-41,-374,3901,-0.06,0.02,0.03,-0.41,-3.74,39.01,-5.19,0.57,56.52,3.48,-0.36,-4.89
-3,-2,0,-35,-373,3898,-0.07,0.01,0.03,-0.35,-3.73,38.98,-5.20,0.56,56.52,3.52,-0.33,-5.06
-3,-1,-5,-42,-355,3924,-0.08,0.00,-0.01,-0.42,-3.55,39.24,-5.19,0.58,56.52,3.51,-0.36,-4.67
-3,0,-5,-36,-354,3909,-0.09,0.00,-0.04,-0.36,-3.54,39.09,-5.19,0.56,56.52,3.51,-0.37,-4.70
1,1,-3,-51,-375,3883,-0.08,0.01,-0.05,-0.51,-3.75,38.83,-5.20,0.57,56.52,3.44,-0.40,-4.89
4,5,-3,-51,-383,3902,-0.05,0.04,-0.07,-0.51,-3.83,39.02,-5.22,0.58,56.52,3.38,-0.49,-4.90
2,1,-1,-30,-347,3923,-0.03,0.04,-0.06,-0.30,-3.47,39.23,-5.21,0.57,56.52,3.40,-0.40,-5.07
2,2,0,-39,-351,3896,-0.01,0.05,-0.06,-0.39,-3.51,38.96,-5.19,0.57,56.52,3.39,-0.43,-5.15
1,3,-3,-36,-362,3912,-0.01,0.06,-0.07,-0.36,-3.62,39.12,-5.21,0.56,56.52,3.42,-0.45,-4.91
0,3,-3,-43,-355,3908,-0.01,0.07,-0.08,-0.43,-3.55,39.08,-5.20,0.58,56.52,3.43,-0.46,-4.92
-1,0,-5,-46,-370,3905,-0.01,0.07,-0.10,-0.46,-3.70,39.05,-5.22,0.59,56.52,3.47,-0.41,-4.77
2,1,-4,-52,-385,3904,0.00,0.07,-0.12,-0.52,-3.85,39.04,-5.24,0.59,56.52,3.41,-0.43,-4.87
0,4,5,-27,-360,3933,0.00,0.08,-0.08,-0.27,-3.60,39.33,-5.23,0.58,56.52,3.45,-0.48,-5.59
0,-4,4,-35,-354,3917,0.00,0.05,-0.04,-0.35,-3.54,39.17,-5.22,0.56,56.52,3.45,-0.30,-5.47
-2,1,6,-24,-317,3921,-0.01,0.05,-0.00,-0.24,-3.17,39.21,-5.20,0.56,56.52,3.48,-0.40,-5.60
-1,0,5,-30,-342,3910,-0.02,0.05,0.03,-0.30,-3.42,39.10,-5.19,0.55,56.52,3.45,-0.37,-5.48
4,4,9,2,-421,3932,0.01,0.07,0.08,0.02,-4.21,39.32,-5.20,0.54,56.52,3.35,-0.46,-5.76
3,2,24,6,-429,3903,0.03,0.07,0.22,0.06,-4.29,39.03,-5.22,0.53,56.52,3.38,-0.41,-6.89
2,3,70,-66,-418,3894,0.04,0.08,0.62,-0.66,-4.18,38.94,-5.24,0.54,56.52,3.40,-0.44,-10.36
-3,4,84,-70,-441,3884,0.01,0.10,1.07,-0.70,-4.41,38.84,-5.25,0.55,56.52,3.52,-0.47,-11.07
1,1,78,-28,-287,3929,0.02,0.10,1.44,-0.28,-2.87,39.29,-5.23,0.54,56.51,3.43,-0.41,-10.17
-3,-2,65,-12,-278,3902,-0.00,0.07,1.69,-0.12,-2.78,39.02,-5.22,0.54,56.50,3.50,-0.34,-8.80
-1,1,38,-20,-293,3909,-0.01,0.07,1.76,-0.20,-2.93,39.09,-5.20,0.54,56.50,3.45,-0.39,-6.44
-1,1,33,-40,-305,3896,-0.01,0.07,1.78,-0.40,-3.05,38.96,-5.18,0.54,56.49,3.44,-0.40,-5.99
2,-1,35,-22,-369,3909,0.00,0.06,1.82,-0.22,-3.69,39.09,-5.19,0.53,56.48,3.39,-0.34,-6.12
2,1,41,-8,-386,3914,0.01,0.06,1.89,-0.08,-3.86,39.14,-5.21,0.51,56.47,3.39,-0.38,-6.56
-2,2,81,-51,-383,3911,-0.00,0.06,2.19,-0.51,-3.83,39.11,-5.22,0.52,56.47,3.49,-0.40,-9.62
-2,4,84,-50,-353,3890,-0.01,0.08,2.48,-0.50,-3.53,38.90,-5.22,0.54,56.46,3.49,-0.46,-9.57
-4,2,70,-56,-353,3878,-0.04,0.09,2.66,-0.56,-3.53,38.78,-5.22,0.56,56.44,3.54,-0.44,-8.19
-5,1,60,-76,-355,3915,-0.06,0.08,2.76,-0.76,-3.55,39.15,-5.22,0.58,56.43,3.56,-0.43,-7.24
-1,-4,38,-33,-361,3917,-0.06,0.05,2.72,-0.33,-3.61,39.17,-5.23,0.57,56.42,3.49,-0.31,-5.42
-1,-3,39,-57,-384,3914,-0.06,0.03,2.68,-0.57,-3.84,39.14,-5.24,0.58,56.41,3.50,-0.33,-5.54
-1,0,56,-54,-374,3912,-0.06,0.02,2.76,-0.54,-3.74,39.12,-5.25,0.59,56.40,3.50,-0.40,-6.90
-2,1,58,-41,-320,3895,-0.07,0.03,2.84,-0.41,-3.20,38.95,-5.24,0.59,56.39,3.51,-0.42,-6.99
-2,0,28,-15,-249,3900,-0.07,0.03,2.72,-0.15,-2.49,39.00,-5.22,0.59,56.38,3.50,-0.40,-4.56
1,1,16,-37,-283,3905,-0.06,0.03,2.55,-0.37,-2.83,39.05,-5.20,0.59,56.37,3.43,-0.42,-3.73
5,4,5,-33,-358,3926,-0.02,0.05,2.32,-0.33,-3.58,39.26,-5.20,0.57,56.36,3.34,-0.47,-3.04
3,2,5,-42,-355,3897,-0.00,0.06,2.12,-0.42,-3.55,38.97,-5.20,0.59,56.35,3.37,-0.45,-3.25
0,0,4,-45,-356,3917,-0.00,0.05,1.93,-0.45,-3.56,39.17,-5.20,0.61,56.34,3.43,-0.42,-3.36
0,0,3,-38,-360,3892,-0.00,0.05,1.76,-0.38,-3.60,38.92,-5.22,0.60,56.34,3.44,-0.41,-3.46
1,1,2,-44,-355,3913,0.00,0.05,1.60,-0.44,-3.55,39.13,-5.20,0.62,56.33,3.41,-0.44,-3.55
1,1,1,-42,-353,3901,0.01,0.05,1.44,-0.42,-3.53,39.01,-5.19,0.62,56.32,3.40,-0.44,-3.63
-1,-1,1,-33,-359,3924,0.00,0.04,1.30,-0.33,-3.59,39.24,-5.19,0.60,56.32,3.45,-0.39,-3.77
-1,-1,1,-40,-357,3899,-0.00,0.03,1.18,-0.40,-3.57,38.99,-5.21,0.59,56.31,3.46,-0.38,-3.90
1,0,1,-29,-378,3930,0.00,0.03,1.07,-0.29,-3.78,39.30,-5.22,0.59,56.31,3.43,-0.39,-4.02
6,4,4,-13,-382,3881,0.04,0.05,0.99,-0.13,-3.82,38.81,-5.24,0.57,56.31,3.32,-0.47,-4.36
0,-4,15,-46,-364,3881,0.04,0.02,0.98,-0.46,-3.64,38.81,-5.25,0.59,56.30,3.46,-0.31,-5.30
-2,0,18,-48,-352,3903,0.02,0.02,0.99,-0.48,-3.52,39.03,-5.24,0.60,56.30,3.49,-0.40,-5.54
0,-2,40,-27,-391,3905,0.02,0.00,1.14,-0.27,-3.91,39.05,-5.25,0.59,56.29,3.46,-0.35,-7.25
-4,-5,53,-52,-361,3853,-0.01,-0.03,1.35,-0.52,-3.61,38.53,-5.26,0.61,56.29,3.56,-0.29,-8.13
2,5,61,-35,-321,3855,0.00,0.01,1.58,-0.35,-3.21,38.55,-5.25,0.61,56.28,3.42,-0.50,-8.56
-1,5,54,-39,-311,3927,-0.00,0.04,1.75,-0.39,-3.11,39.27,-5.23,0.61,56.28,3.47,-0.51,-7.78
0,-1,21,-41,-341,3903,-0.00,0.03,1.71,-0.41,-3.41,39.03,-5.21,0.61,56.27,3.44,-0.39,-5.04
1,0,16,-45,-350,3904,0.00,0.02,1.63,-0.45,-3.50,39.04,-5.19,0.62,56.26,3.41,-0.41,-4.69
-2,-1,5,-38,-336,3904,-0.01,0.01,1.50,-0.38,-3.36,39.04,-5.18,0.61,56.26,3.46,-0.39,-3.90
-1,-1,4,-37,-348,3898,-0.01,0.01,1.37,-0.37,-3.48,38.98,-5.16,0.60,56.25,3.43,-0.38,-3.95
2,-4,22,-18,-443,3926,0.00,-0.02,1.37,-0.18,-4.43,39.26,-5.18,0.60,56.24,3.38,-0.31,-5.47
1,-4,45,-25,-471,3866,0.01,-0.04,1.51,-0.25,-4.71,38.66,-5.20,0.59,56.24,3.41,-0.30,-7.28
-7,-1,74,-53,-306,3915,-0.04,-0.04,1.81,-0.53,-3.06,39.15,-5.18,0.60,56.23,3.57,-0.36,-9.41
-7,0,45,-31,-253,3912,-0.08,-0.04,1.90,-0.31,-2.53,39.12,-5.16,0.60,56.22,3.57,-0.38,-6.86
-4,-2,3,-38,-323,3901,-0.09,-0.05,1.73,-0.38,-3.23,39.01,-5.14,0.60,56.22,3.50,-0.34,-3.48
-2,-1,-1,-27,-335,3927,-0.10,-0.05,1.55,-0.27,-3.35,39.27,-5.13,0.59,56.21,3.45,-0.35,-3.33
1,-1,-3,-46,-392,3886,-0.08,-0.05,1.38,-0.46,-3.92,38.86,-5.15,0.59,56.21,3.40,-0.36,-3.34
-3,-3,-2,-38,-368,3923,-0.09,-0.06,1.23,-0.38,-3.68,39.23,-5.17,0.59,56.20,3.50,-0.31,-3.59
-1,-3,2,-30,-330,3915,-0.09,-0.07,1.12,-0.30,-3.30,39.15,-5.15,0.58,56.20,3.44,-0.30,-4.04
0,-1,3,-24,-350,3922,-0.08,-0.07,1.02,-0.24,-3.50,39.22,-5.15,0.56,56.19,3.42,-0.33,-4.23
1,-1,6,-24,-358,3905,-0.06,-0.07,0.96,-0.24,-3.58,39.05,-5.15,0.54,56.19,3.40,-0.32,-4.55
0,-1,10,-30,-371,3918,-0.06,-0.07,0.92,-0.30,-3.71,39.18,-5.17,0.54,56.18,3.43,-0.32,-4.93
0,0,14,-26,-389,3893,-0.05,-0.06,0.92,-0.26,-3.89,38.93,-5.19,0.53,56.18,3.44,-0.33,-5.27
-4,-1,27,-24,-414,3939,-0.07,-0.06,0.99,-0.24,-4.14,39.39,-5.21,0.53,56.18,3.54,-0.31,-6.30
3,-3,53,-51,-400,3847,-0.05,-0.08,1.21,-0.51,-4.00,38.47,-5.22,0.53,56.17,3.40,-0.27,-8.26
-1,4,54,-60,-374,3894,-0.05,-0.04,1.42,-0.60,-3.74,38.94,-5.24,0.55,56.17,3.49,-0.43,-8.12
-1,-1,71,-68,-409,3923,-0.05,-0.05,1.71,-0.68,-4.09,39.23,-5.25,0.56,56.16,3.50,-0.34,-9.26
-1,-3,77,-70,-409,3920,-0.05,-0.06,2.01,-0.70,-4.09,39.20,-5.27,0.57,56.15,3.51,-0.30,-9.45
7,2,99,-44,-369,3910,-0.00,-0.04,2.41,-0.44,-3.69,39.10,-5.28,0.58,56.14,3.34,-0.41,-10.88
10,3,105,-35,-333,3904,0.06,-0.02,2.81,-0.35,-3.33,39.04,-5.26,0.58,56.13,3.26,-0.44,-10.97
-1,4,77,-13,-221,3929,0.05,0.01,3.00,-0.13,-2.21,39.29,-5.25,0.58,56.12,3.47,-0.46,-8.40
2,2,55,-14,-232,3909,0.05,0.02,3.04,-0.14,-2.32,39.09,-5.23,0.57,56.11,3.39,-0.42,-6.49
4,5,21,-35,-319,3902,0.07,0.05,2.86,-0.35,-3.19,39.02,-5.21,0.57,56.10,3.34,-0.49,-3.80
3,4,21,-23,-322,3891,0.08,0.07,2.70,-0.23,-3.22,38.91,-5.19,0.57,56.08,3.34,-0.47,-3.96
-1,1,21,-42,-362,3916,0.07,0.07,2.56,-0.42,-3.62,39.16,-5.21,0.57,56.07,3.44,-0.42,-4.11
-3,-1,20,-54,-365,3922,0.04,0.05,2.43,-0.54,-3.65,39.22,-5.22,0.59,56.06,3.49,-0.39,-4.17
-2,-2,19,-44,-362,3914,0.03,0.04,2.30,-0.44,-3.62,39.14,-5.23,0.60,56.06,3.49,-0.37,-4.22
-2,-4,16,-57,-376,3921,0.01,0.01,2.17,-0.57,-3.76,39.21,-5.24,0.62,56.05,3.50,-0.33,-4.10
0,-1,3,-58,-380,3904,0.01,0.00,1.97,-0.58,-3.80,39.04,-5.26,0.63,56.04,3.47,-0.39,-3.21
-2,-1,1,-54,-375,3894,-0.00,-0.00,1.78,-0.54,-3.75,38.94,-5.27,0.64,56.03,3.52,-0.40,-3.24
-2,0,-1,-37,-368,3894,-0.01,-0.00,1.59,-0.37,-3.68,38.94,-5.29,0.63,56.03,3.53,-0.41,-3.27
-3,-2,-2,-31,-356,3890,-0.03,-0.02,1.42,-0.31,-3.56,38.90,-5.28,0.61,56.02,3.56,-0.36,-3.37
-1,-2,0,-31,-352,3915,-0.03,-0.03,1.28,-0.31,-3.52,39.15,-5.27,0.60,56.02,3.51,-0.35,-3.69
-1,-2,4,-23,-346,3893,-0.04,-0.04,1.18,-0.23,-3.46,38.93,-5.26,0.58,56.01,3.50,-0.33,-4.13
0,-8,25,31,-360,3921,-0.03,-0.08,1.21,0.31,-3.60,39.21,-5.26,0.57,56.01,3.48,-0.19,-5.88
4,-41,24,2,-348,4035,-0.01,-0.32,1.24,0.02,-3.48,40.35,-5.25,0.55,56.00,3.39,0.56,-5.76
-7,-31,75,-10,-422,3859,-0.05,-0.48,1.57,-0.10,-4.22,38.59,-5.27,0.54,55.99,3.63,0.40,-9.73
-4,-26,87,-49,-431,3920,-0.07,-0.59,1.94,-0.49,-4.31,39.20,-5.29,0.54,55.99,3.59,0.33,-10.35
1,4,111,-31,-331,3900,-0.05,-0.51,2.43,-0.31,-3.31,39.00,-5.27,0.54,55.98,3.47,-0.30,-11.87
6,-4,109,-18,-346,3963,-0.01,-0.48,2.85,-0.18,-3.46,39.63,-5.26,0.52,55.97,3.35,-0.13,-11.25
-2,9,79,-77,-162,3818,-0.02,-0.38,3.05,-0.77,-1.62,38.18,-5.24,0.53,55.95,3.50,-0.43,-8.50
-3,4,60,-192,-253,4047,-0.04,-0.32,3.11,-1.92,-2.53,40.47,-5.23,0.54,55.94,3.52,-0.35,-6.83
-5,-1,10,-82,-373,3907,-0.07,-0.29,2.86,-0.82,-3.73,39.07,-5.23,0.56,55.93,3.57,-0.27,-2.85
0,1,6,-34,-374,3883,-0.06,-0.26,2.61,-0.34,-3.74,38.83,-5.25,0.55,55.92,3.48,-0.32,-2.78
-3,0,5,-47,-395,3918,-0.07,-0.23,2.38,-0.47,-3.95,39.18,-5.27,0.56,55.91,3.56,-0.31,-2.94
-3,-3,0,1,-384,3910,-0.08,-0.22,2.14,0.01,-3.84,39.10,-5.28,0.54,55.90,3.57,-0.24,-2.76
1,1,9,-42,-347,3888,-0.07,-0.20,1.98,-0.42,-3.47,38.88,-5.26,0.55,55.89,3.47,-0.33,-3.69
1,0,7,-51,-321,3912,-0.06,-0.18,1.83,-0.51,-3.21,39.12,-5.24,0.56,55.88,3.46,-0.32,-3.69
0,-1,-1,-33,-322,3891,-0.05,-0.17,1.64,-0.33,-3.22,38.91,-5.23,0.55,55.88,3.46,-0.30,-3.21
0,-1,-1,-28,-337,3903,-0.04,-0.15,1.47,-0.28,-3.37,39.03,-5.21,0.55,55.87,3.45,-0.30,-3.39
7,2,9,6,-412,3897,0.00,-0.13,1.38,0.06,-4.12,38.97,-5.22,0.53,55.87,3.30,-0.36,-4.33
6,5,25,-39,-430,3942,0.04,-0.08,1.39,-0.39,-4.30,39.42,-5.24,0.54,55.86,3.33,-0.43,-5.67
10,14,66,31,-433,3907,0.10,0.01,1.65,0.31,-4.33,39.07,-5.26,0.52,55.85,3.24,-0.63,-8.87
7,8,80,-7,-365,3894,0.13,0.06,1.98,-0.07,-3.65,38.94,-5.26,0.51,55.85,3.29,-0.51,-9.71
1,6,87,-91,-294,3867,0.12,0.09,2.31,-0.91,-2.94,38.67,-5.24,0.52,55.84,3.41,-0.49,-9.95
-1,3,78,-87,-269,3942,0.10,0.10,2.55,-0.87,-2.69,39.42,-5.23,0.53,55.83,3.44,-0.44,-8.93
-3,1,42,-55,-337,3911,0.08,0.09,2.56,-0.55,-3.37,39.11,-5.21,0.54,55.82,3.48,-0.40,-5.88
-1,2,39,-76,-350,3900,0.06,0.10,2.54,-0.76,-3.50,39.00,-5.21,0.56,55.81,3.44,-0.44,-5.64
-2,-2,29,-62,-351,3901,0.04,0.08,2.46,-0.62,-3.51,39.01,-5.21,0.58,55.80,3.47,-0.36,-4.87
-3,-1,27,-56,-342,3893,0.02,0.06,2.38,-0.56,-3.42,38.93,-5.20,0.60,55.79,3.48,-0.39,-4.79
0,0,8,-18,-289,3904,0.02,0.06,2.19,-0.18,-2.89,39.04,-5.18,0.59,55.78,3.41,-0.41,-3.38
1,0,2,-23,-322,3924,0.02,0.05,1.98,-0.23,-3.22,39.24,-5.16,0.59,55.77,3.38,-0.40,-3.09
3,2,0,-31,-356,3905,0.04,0.06,1.79,-0.31,-3.56,39.05,-5.17,0.57,55.76,3.34,-0.43,-3.13
2,2,0,-24,-358,3907,0.05,0.06,1.61,-0.24,-3.58,39.07,-5.17,0.55,55.76,3.36,-0.42,-3.32
3,3,3,-44,-359,3919,0.06,0.08,1.46,-0.44,-3.59,39.19,-5.18,0.57,55.75,3.34,-0.46,-3.72
1,1,0,-44,-356,3899,0.06,0.07,1.32,-0.44,-3.56,38.99,-5.19,0.59,55.75,3.39,-0.43,-3.62
1,0,-3,-29,-358,3915,0.06,0.07,1.17,-0.29,-3.58,39.15,-5.19,0.57,55.74,3.39,-0.39,-3.53
0,1,-1,-24,-348,3905,0.05,0.07,1.04,-0.24,-3.48,39.05,-5.19,0.55,55.74,3.41,-0.40,-3.83
-1,0,1,-28,-363,3912,0.04,0.06,0.95,-0.28,-3.63,39.12,-5.20,0.54,55.73,3.44,-0.37,-4.10
-1,-1,2,-24,-358,3892,0.03,0.05,0.86,-0.24,-3.58,38.92,-5.20,0.52,55.73,3.45,-0.34,-4.27
-1,0,0,-35,-367,3904,0.02,0.04,0.78,-0.35,-3.67,39.04,-5.22,0.52,55.73,3.46,-0.36,-4.19
-1,-1,0,-35,-359,3891,0.01,0.03,0.70,-0.35,-3.59,38.91,-5.24,0.52,55.72,3.47,-0.33,-4.27
-1,0,1,-35,-342,3933,0.01,0.03,0.64,-0.35,-3.42,39.33,-5.22,0.52,55.72,3.46,-0.35,-4.43
1,-1,3,-39,-347,3907,0.01,0.02,0.59,-0.39,-3.47,39.07,-5.20,0.52,55.72,3.41,-0.33,-4.64
-6,-6,12,-9,-310,3918,-0.03,-0.02,0.60,-0.09,-3.10,39.18,-5.19,0.52,55.72,3.55,-0.21,-5.39
-6,-4,11,-20,-350,3922,-0.06,-0.04,0.61,-0.20,-3.50,39.22,-5.18,0.50,55.71,3.56,-0.24,-5.30
-2,0,6,-68,-428,3920,-0.07,-0.04,0.59,-0.68,-4.28,39.20,-5.20,0.51,55.71,3.49,-0.32,-4.90
-3,-3,5,-62,-396,3907,-0.08,-0.05,0.56,-0.62,-3.96,39.07,-5.21,0.52,55.71,3.52,-0.27,-4.85
0,2,0,-48,-376,3929,-0.07,-0.03,0.50,-0.48,-3.76,39.29,-5.23,0.53,55.71,3.47,-0.38,-4.48
0,0,-2,-57,-379,3903,-0.06,-0.03,0.44,-0.57,-3.79,39.03,-5.24,0.54,55.71,3.48,-0.35,-4.38
-1,-2,-1,-45,-361,3916,-0.06,-0.04,0.39,-0.45,-3.61,39.16,-5.25,0.56,55.71,3.50,-0.32,-4.52
-1,-3,0,-40,-358,3892,-0.06,-0.05,0.35,-0.40,-3.58,38.92,-5.25,0.58,55.70,3.50,-0.30,-4.64
0,0,0,-32,-361,3923,-0.06,-0.05,0.32,-0.32,-3.61,39.23,-5.25,0.56,55.70,3.48,-0.35,-4.68
-1,0,0,-31,-357,3913,-0.06,-0.04,0.28,-0.31,-3.57,39.13,-5.25,0.54,55.70,3.50,-0.34,-4.71
-7,-2,8,-17,-357,3921,-0.09,-0.05,0.30,-0.17,-3.57,39.21,-5.24,0.52,55.70,3.63,-0.29,-5.37
-4,-3,6,-58,-356,3922,-0.11,-0.06,0.31,-0.58,-3.56,39.22,-5.24,0.54,55.70,3.57,-0.28,-5.19
-4,-3,-2,-50,-355,3893,-0.12,-0.08,0.27,-0.50,-3.55,38.93,-5.24,0.56,55.70,3.57,-0.29,-4.56
-3,-1,-2,-37,-360,3918,-0.13,-0.08,0.23,-0.37,-3.60,39.18,-5.25,0.54,55.70,3.56,-0.32,-4.60
-3,-1,-3,-26,-360,3907,-0.13,-0.07,0.19,-0.26,-3.60,39.07,-5.25,0.52,55.70,3.56,-0.30,-4.56
-2,-2,-2,-20,-365,3911,-0.13,-0.08,0.16,-0.20,-3.65,39.11,-5.26,0.51,55.70,3.55,-0.27,-4.68
-4,-3,-2,-34,-364,3908,-0.14,-0.09,0.13,-0.34,-3.64,39.08,-5.28,0.50,55.70,3.60,-0.25,-4.71
-4,-3,-2,-32,-361,3908,-0.15,-0.10,0.10,-0.32,-3.61,39.08,-5.28,0.48,55.69,3.61,-0.23,-4.73
-4,-2,0,-29,-369,3917,-0.16,-0.10,0.09,-0.29,-3.69,39.17,-5.29,0.47,55.69,3.62,-0.24,-4.91
3,-4,15,-1,-399,3916,-0.13,-0.12,0.18,-0.01,-3.99,39.16,-5.31,0.46,55.69,3.48,-0.19,-6.10
2,-4,47,-31,-369,3901,-0.10,-0.13,0.44,-0.31,-3.69,39.01,-5.33,0.46,55.69,3.50,-0.19,-8.52
2,-4,48,-14,-359,3901,-0.08,-0.14,0.69,-0.14,-3.59,39.01,-5.32,0.44,55.69,3.49,-0.17,-8.34
-3,-4,40,-62,-361,3915,-0.09,-0.15,0.87,-0.62,-3.61,39.15,-5.32,0.46,55.69,3.60,-0.18,-7.48
-2,-2,36,-53,-352,3913,-0.09,-0.15,1.00,-0.53,-3.52,39.13,-5.31,0.48,55.68,3.57,-0.23,-7.00
-2,-2,15,-34,-296,3910,-0.10,-0.14,0.99,-0.34,-2.96,39.10,-5.29,0.48,55.68,3.56,-0.23,-5.23
-1,-1,7,-42,-316,3916,-0.09,-0.14,0.94,-0.42,-3.16,39.16,-5.28,0.48,55.67,3.53,-0.26,-4.61
1,0,1,-32,-341,3901,-0.08,-0.12,0.85,-0.32,-3.41,39.01,-5.26,0.48,55.67,3.47,-0.28,-4.20
1,-1,2,-30,-353,3917,-0.06,-0.12,0.78,-0.30,-3.53,39.17,-5.24,0.47,55.67,3.46,-0.26,-4.36
1,0,23,-22,-410,3928,-0.05,-0.10,0.84,-0.22,-4.10,39.28,-5.26,0.47,55.66,3.47,-0.28,-6.07
4,-4,53,-31,-498,3869,-0.02,-0.12,1.08,-0.31,-4.98,38.69,-5.28,0.47,55.66,3.41,-0.19,-8.36
-6,6,134,-96,-394,3865,-0.06,-0.07,1.79,-0.96,-3.94,38.65,-5.29,0.48,55.65,3.63,-0.42,-14.47
-2,12,126,-77,-358,3938,-0.06,0.01,2.38,-0.77,-3.58,39.38,-5.28,0.50,55.64,3.55,-0.58,-13.17
-6,6,81,-5,-343,3932,-0.09,0.05,2.63,-0.05,-3.43,39.32,-5.27,0.49,55.63,3.63,-0.46,-9.08
-1,8,81,-31,-363,3927,-0.09,0.09,2.86,-0.31,-3.63,39.27,-5.28,0.47,55.62,3.53,-0.50,-8.84
1,5,64,-53,-264,3902,-0.07,0.11,2.97,-0.53,-2.64,39.02,-5.26,0.48,55.61,3.47,-0.45,-7.28
0,5,45,-22,-231,3889,-0.07,0.13,2.95,-0.22,-2.31,38.89,-5.24,0.48,55.60,3.48,-0.45,-5.70
-2,0,7,-20,-325,3908,-0.07,0.12,2.69,-0.20,-3.25,39.08,-5.23,0.47,55.59,3.51,-0.34,-2.74
-2,-1,5,-23,-319,3909,-0.08,0.10,2.46,-0.23,-3.19,39.09,-5.21,0.47,55.58,3.50,-0.32,-2.83
2,0,8,-25,-353,3900,-0.06,0.09,2.26,-0.25,-3.53,39.00,-5.20,0.45,55.57,3.41,-0.32,-3.29
0,-13,7,42,-322,3819,-0.05,0.00,2.08,0.42,-3.22,38.19,-5.20,0.44,55.56,3.44,-0.02,-3.40
-4,-27,23,30,-332,3901,-0.07,-0.16,2.01,0.30,-3.32,39.01,-5.19,0.42,55.55,3.53,0.32,-4.82
-2,-22,40,-33,-406,3931,-0.08,-0.28,2.05,-0.33,-4.06,39.31,-5.21,0.42,55.54,3.50,0.25,-6.22
-7,-15,38,-43,-317,3892,-0.11,-0.34,2.08,-0.43,-3.17,38.92,-5.19,0.43,55.53,3.60,0.12,-6.02
-9,-13,38,-31,-347,3915,-0.16,-0.39,2.10,-0.31,-3.47,39.15,-5.17,0.43,55.53,3.64,0.09,-5.99
-4,-6,33,-70,-395,3917,-0.16,-0.39,2.09,-0.70,-3.95,39.17,-5.19,0.44,55.52,3.55,-0.06,-5.58
-5,-3,27,-120,-402,3956,-0.18,-0.37,2.05,-1.20,-4.02,39.56,-5.20,0.46,55.51,3.58,-0.14,-5.11
-5,10,6,-76,-372,3955,-0.19,-0.27,1.88,-0.76,-3.72,39.55,-5.20,0.47,55.50,3.59,-0.44,-3.51
-7,5,7,-84,-394,3956,-0.21,-0.21,1.73,-0.84,-3.94,39.56,-5.21,0.49,55.49,3.64,-0.37,-3.75
5,24,34,-75,-374,3860,-0.16,-0.04,1.77,-0.75,-3.74,38.60,-5.22,0.51,55.49,3.39,-0.81,-6.00
3,11,40,-26,-406,3916,-0.13,0.03,1.84,-0.26,-4.06,39.16,-5.24,0.50,55.48,3.43,-0.56,-6.44
-7,15,71,11,-411,3861,-0.16,0.12,2.09,0.11,-4.11,38.61,-5.26,0.49,55.47,3.65,-0.66,-8.80
-2,23,83,-5,-365,3868,-0.15,0.24,2.38,-0.05,-3.65,38.68,-5.26,0.48,55.46,3.56,-0.85,-9.50
5,2,15,9,-275,3913,-0.11,0.23,2.24,0.09,-2.75,39.13,-5.25,0.47,55.45,3.39,-0.42,-3.89
0,-1,11,-30,-321,3876,-0.10,0.20,2.08,-0.30,-3.21,38.76,-5.23,0.47,55.45,3.48,-0.35,-3.72
0,1,1,-48,-362,3899,-0.09,0.19,1.88,-0.48,-3.62,38.99,-5.23,0.49,55.44,3.48,-0.40,-3.09
-2,1,1,-30,-342,3906,-0.09,0.18,1.70,-0.30,-3.42,39.06,-5.22,0.49,55.43,3.51,-0.39,-3.28
1,4,0,-43,-343,3870,-0.08,0.18,1.53,-0.43,-3.43,38.70,-5.20,0.50,55.43,3.43,-0.46,-3.37
6,12,-1,-38,-354,3917,-0.03,0.24,1.37,-0.38,-3.54,39.17,-5.19,0.52,55.42,3.31,-0.65,-3.45
1,172,77,-76,-399,3923,-0.02,1.26,1.70,-0.76,-3.99,39.23,-5.21,0.54,55.41,3.42,-4.20,-9.71
0,73,53,-101,-315,4004,-0.02,1.58,1.85,-1.01,-3.15,40.04,-5.19,0.56,55.41,3.43,-2.28,-7.51
4,21,12,-34,-338,3927,0.01,1.55,1.74,-0.34,-3.38,39.27,-5.18,0.56,55.40,3.33,-1.22,-4.16
6,16,10,-42,-364,3880,0.04,1.49,1.63,-0.42,-3.64,38.80,-5.19,0.57,55.39,3.29,-1.11,-4.11
4,16,10,-37,-345,3910,0.06,1.44,1.53,-0.37,-3.45,39.10,-5.18,0.58,55.39,3.32,-1.10,-4.22
4,12,7,-39,-347,3930,0.08,1.37,1.42,-0.39,-3.47,39.30,-5.16,0.58,55.38,3.30,-1.00,-4.08
6,-7,37,-22,-399,3933,0.11,1.19,1.50,-0.22,-3.99,39.33,-5.17,0.58,55.38,3.26,-0.56,-6.53
-4,-15,73,1,-447,3882,0.07,0.98,1.80,0.01,-4.47,38.82,-5.19,0.58,55.37,3.49,-0.34,-9.27
2,2,160,-101,-436,3857,0.08,0.90,2.59,-1.01,-4.36,38.57,-5.20,0.59,55.36,3.37,-0.67,-15.79
-1,8,169,-115,-411,3890,0.06,0.85,3.36,-1.15,-4.11,38.90,-5.21,0.61,55.35,3.44,-0.80,-15.74
7,12,147,-14,-244,3883,0.10,0.84,3.92,-0.14,-2.44,38.83,-5.20,0.61,55.33,3.26,-0.88,-13.28
5,7,120,32,-268,3926,0.12,0.80,4.26,0.32,-2.68,39.26,-5.18,0.60,55.32,3.29,-0.76,-10.63
2,-2,77,-16,-286,3935,0.12,0.71,4.31,-0.16,-2.86,39.35,-5.16,0.60,55.30,3.33,-0.55,-6.94
0,-4,64,-38,-324,3917,0.11,0.61,4.27,-0.38,-3.24,39.17,-5.14,0.60,55.28,3.37,-0.48,-5.88
-3,-5,-19,-162,-244,3922,0.08,0.52,3.72,-1.62,-2.44,39.22,-5.13,0.62,55.27,3.43,-0.45,0.58
-4,-3,-53,-113,-279,3947,0.05,0.45,3.03,-1.13,-2.79,39.47,-5.12,0.64,55.26,3.45,-0.48,2.72
-10,-8,37,-147,-397,3918,-0.02,0.36,2.95,-1.47,-3.97,39.18,-5.13,0.66,55.24,3.59,-0.37,-4.98
-9,-8,44,-224,-445,3873,-0.07,0.27,2.92,-2.24,-4.45,38.73,-5.13,0.67,55.23,3.59,-0.36,-5.60
-1,-12,113,-118,-473,3901,-0.07,0.17,3.32,-1.18,-4.73,39.01,-5.15,0.68,55.22,3.44,-0.25,-11.03
-9,-9,116,-134,-582,3784,-0.12,0.10,3.70,-1.34,-5.82,37.84,-5.17,0.69,55.20,3.63,-0.30,-10.88
-3,4,195,-154,-509,3922,-0.12,0.11,4.52,-1.54,-5.09,39.22,-5.18,0.71,55.19,3.52,-0.58,-16.70
0,8,252,-89,-459,3896,-0.11,0.15,5.60,-0.89,-4.59,38.96,-5.20,0.71,55.17,3.46,-0.68,-20.00
-5,-5,277,3,-337,3896,-0.13,0.11,6.73,0.03,-3.37,38.96,-5.19,0.70,55.14,3.57,-0.39,-20.00
-5,0,264,0,-304,3930,-0.15,0.10,7.67,0.00,-3.04,39.30,-5.18,0.69,55.11,3.56,-0.48,-19.21
-8,3,266,-119,-419,3874,-0.18,0.10,8.52,-1.19,-4.19,38.74,-5.19,0.71,55.07,3.64,-0.56,-18.47
-5,9,287,-168,-490,3891,-0.19,0.15,9.42,-1.68,-4.90,38.91,-5.21,0.72,55.04,3.59,-0.70,-19.29
-3,8,483,26,-911,3860,-0.19,0.18,11.43,0.26,-9.11,38.60,-5.23,0.73,54.99,3.56,-0.69,-20.00
5,16,560,306,-642,3720,-0.14,0.26,13.70,3.06,-6.42,37.20,-5.24,0.72,54.94,3.39,-0.87,-20.00
19,50,789,453,-177,3943,-0.01,0.54,17.14,4.53,-1.77,39.43,-5.23,0.71,54.87,3.07,-1.63,-20.00
10,37,703,469,-85,4021,0.05,0.71,19.72,4.69,-0.85,40.21,-5.22,0.70,54.79,3.23,-1.41,-20.00
12,7,483,77,22,3954,0.12,0.68,20.69,0.77,0.22,39.54,-5.20,0.71,54.71,3.16,-0.80,-20.00
9,14,406,-108,-8,3982,0.16,0.70,21.10,-1.08,-0.08,39.82,-5.18,0.72,54.62,3.19,-0.95,-16.97
2,11,283,-218,-425,3835,0.16,0.70,20.72,-2.18,-4.25,38.35,-5.19,0.75,54.54,3.34,-0.91,-6.95
-5,10,258,-198,-419,3906,0.11,0.69,20.22,-1.98,-4.19,39.06,-5.19,0.78,54.46,3.50,-0.90,-5.35
1,12,230,-229,-455,3872,0.11,0.69,19.60,-2.29,-4.55,38.72,-5.20,0.80,54.38,3.38,-0.96,-3.63
-4,15,256,-139,-500,3946,0.07,0.72,19.20,-1.39,-5.00,39.46,-5.22,0.82,54.31,3.51,-1.04,-6.25
-3,3,367,-177,-377,3966,0.05,0.66,19.52,-1.77,-3.77,39.66,-5.22,0.85,54.23,3.49,-0.80,-15.30
-3,5,355,-142,-399,3904,0.02,0.63,19.73,-1.42,-3.99,39.04,-5.22,0.87,54.15,3.50,-0.85,-14.06
-7,-8,401,-93,-395,3911,-0.02,0.52,20.21,-0.93,-3.95,39.11,-5.24,0.90,54.07,3.60,-0.57,-17.44
-10,-8,424,-23,-410,3925,-0.08,0.41,20.77,-0.23,-4.10,39.25,-5.25,0.89,53.99,3.69,-0.54,-18.79
-12,7,514,-13,-423,3905,-0.15,0.42,21.83,-0.13,-4.23,39.05,-5.26,0.89,53.90,3.76,-0.84,-20.00
-2,21,535,34,-370,3894,-0.14,0.50,22.91,0.34,-3.70,38.94,-5.27,0.88,53.81,3.56,-1.15,-20.00
-6,16,584,70,-419,3921,-0.17,0.55,24.18,0.70,-4.19,39.21,-5.27,0.88,53.72,3.65,-1.06,-20.00
-3,24,600,254,-536,3874,-0.17,0.64,25.42,2.54,-5.36,38.74,-5.28,0.87,53.61,3.59,-1.24,-20.00
-8,10,682,-60,-517,3907,-0.20,0.64,27.04,-0.60,-5.17,39.07,-5.30,0.89,53.51,3.71,-0.96,-20.00
-14,10,685,-132,-463,3890,-0.27,0.64,28.52,-1.32,-4.63,38.90,-5.31,0.91,53.39,3.86,-0.98,-20.00
-7,16,562,-285,-91,3941,-0.28,0.67,29.09,-2.85,-0.91,39.41,-5.30,0.94,53.28,3.72,-1.13,-20.00
-8,14,519,-212,-96,3940,-0.30,0.69,29.35,-2.12,-0.96,39.40,-5.28,0.96,53.16,3.73,-1.10,-17.68
11,33,399,-127,-221,3884,-0.20,0.82,28.85,-1.27,-2.21,38.84,-5.26,0.98,53.05,3.31,-1.54,-8.03
5,28,373,-44,-231,3919,-0.15,0.91,28.24,-0.44,-2.31,39.19,-5.24,0.99,52.93,3.40,-1.47,-6.46
107,137,311,155,-294,3933,0.51,1.65,27.31,1.55,-2.94,39.33,-5.23,0.99,52.83,1.14,-3.89,-2.18
148,160,312,74,-366,3897,1.37,2.46,26.48,0.74,-3.66,38.97,-5.23,0.99,52.72,0.07,-4.58,-3.13
56,56,329,-136,-384,3868,1.57,2.56,25.84,-1.36,-3.84,38.68,-5.23,1.03,52.62,1.88,-2.51,-5.25
32,35,329,-148,-457,3837,1.61,2.52,25.26,-1.48,-4.57,38.37,-5.23,1.06,52.52,2.36,-2.10,-5.85
-30,-26,329,-270,-357,3922,1.26,2.11,24.75,-2.70,-3.57,39.22,-5.23,1.09,52.42,3.71,-0.77,-6.39
-48,-37,340,-225,-398,3905,0.85,1.67,24.34,-2.25,-3.98,39.05,-5.23,1.13,52.33,4.19,-0.45,-7.74
-64,-28,359,-189,-289,3861,0.37,1.33,24.10,-1.89,-2.89,38.61,-5.21,1.16,52.23,4.64,-0.56,-9.60
-29,-32,364,-149,-182,3919,0.16,1.00,23.91,-1.49,-1.82,39.19,-5.19,1.18,52.14,3.98,-0.40,-10.21
-81,-60,469,-34,-234,3921,-0.35,0.54,24.38,-0.34,-2.34,39.21,-5.18,1.18,52.04,5.16,0.29,-18.60
-85,-75,458,19,-211,3912,-0.84,0.03,24.74,0.19,-2.11,39.12,-5.16,1.18,51.94,5.36,0.74,-17.28
-48,-35,472,87,-348,3971,-1.05,-0.19,25.14,0.87,-3.48,39.71,-5.16,1.17,51.84,4.67,-0.01,-18.03
-34,-22,517,47,-304,3879,-1.15,-0.30,25.78,0.47,-3.04,38.79,-5.16,1.16,51.74,4.41,-0.23,-20.00
-5,1,634,-23,-435,3880,-1.06,-0.27,27.07,-0.23,-4.35,38.80,-5.18,1.16,51.63,3.81,-0.71,-20.00
-31,5,650,-66,-512,3872,-1.15,-0.21,28.33,-0.66,-5.12,38.72,-5.20,1.17,51.52,4.37,-0.81,-20.00
-7,9,646,-85,-473,3959,-1.07,-0.13,29.44,-0.85,-4.73,39.59,-5.22,1.18,51.40,3.88,-0.92,-20.00
-11,15,648,-194,-383,3902,-1.03,-0.03,30.45,-1.94,-3.83,39.02,-5.22,1.21,51.28,3.95,-1.09,-20.00
-31,-10,680,-138,-592,4008,-1.12,-0.09,31.55,-1.38,-5.92,40.08,-5.24,1.22,51.15,4.40,-0.58,-20.00
-2,0,700,-102,-441,3912,-1.02,-0.08,32.66,-1.02,-4.41,39.12,-5.26,1.24,51.02,3.79,-0.79,-20.00
-6,2,861,-125,-455,3951,-0.95,-0.06,34.65,-1.25,-4.55,39.51,-5.28,1.26,50.88,3.87,-0.85,-20.00
-34,6,905,-97,-461,3896,-1.07,-0.02,36.71,-0.97,-4.61,38.96,-5.30,1.27,50.74,4.48,-0.96,-20.00
-1,35,1019,16,-488,3890,-0.97,0.20,39.25,0.16,-4.88,38.90,-5.31,1.28,50.58,3.79,-1.61,-20.00
-9,32,1068,22,-498,3876,-0.92,0.37,41.84,0.22,-4.98,38.76,-5.33,1.28,50.42,3.95,-1.60,-20.00
-25,18,1068,55,-544,3889,-0.98,0.45,44.17,0.55,-5.44,38.89,-5.34,1.29,50.24,4.30,-1.34,-20.00
6,39,1051,115,-526,3880,-0.85,0.64,46.17,1.15,-5.26,38.80,-5.35,1.29,50.06,3.64,-1.82,-20.00
-2,33,1024,-68,-393,3912,-0.78,0.78,47.79,-0.68,-3.93,39.12,-5.37,1.30,49.87,3.79,-1.74,-20.00
-13,26,1023,-73,-342,3882,-0.78,0.86,49.26,-0.73,-3.42,38.82,-5.35,1.31,49.67,4.01,-1.63,-20.00
-13,30,1097,-92,-340,3823,-0.78,0.96,51.02,-0.92,-3.40,38.23,-5.33,1.34,49.47,4.00,-1.76,-20.00
-29,17,1138,-68,-404,3961,-0.88,0.96,52.86,-0.68,-4.04,39.61,-5.34,1.35,49.26,4.36,-1.50,-20.00
-14,31,1129,-94,-402,3894,-0.88,1.06,54.46,-0.94,-4.02,38.94,-5.36,1.38,49.04,4.06,-1.83,-20.00
-9,39,1109,-96,-365,3872,-0.84,1.19,55.78,-0.96,-3.65,38.72,-5.37,1.42,48.82,3.96,-2.05,-20.00
-8,28,1028,39,-265,3898,-0.81,1.24,56.47,0.39,-2.65,38.98,-5.36,1.43,48.60,3.92,-1.85,-20.00
14,31,976,-85,-256,4002,-0.64,1.31,56.78,-0.85,-2.56,40.02,-5.33,1.45,48.37,3.41,-1.95,-20.00
4,37,896,-149,-221,3920,-0.55,1.40,56.57,-1.49,-2.21,39.20,-5.31,1.49,48.14,3.58,-2.12,-20.00
21,39,876,-7,-384,3888,-0.37,1.50,56.25,-0.07,-3.84,38.88,-5.31,1.50,47.92,3.18,-2.19,-18.96
-8,20,798,11,-400,3909,-0.38,1.47,55.50,0.11,-4.00,39.09,-5.31,1.51,47.70,3.77,-1.80,-13.14
1,14,768,64,-467,3896,-0.34,1.41,54.63,0.64,-4.67,38.96,-5.32,1.52,47.48,3.58,-1.67,-11.49
-2,16,696,322,-668,3854,-0.32,1.37,53.41,3.22,-6.68,38.54,-5.33,1.53,47.27,3.64,-1.70,-6.66
-4,16,683,261,-608,3912,-0.31,1.33,52.24,2.61,-6.08,39.12,-5.33,1.54,47.06,3.68,-1.70,-6.79
-12,23,639,135,-515,3857,-0.35,1.33,50.91,1.35,-5.15,38.57,-5.34,1.54,46.86,3.86,-1.85,-4.44
17,31,599,-65,-348,4038,-0.21,1.39,49.48,-0.65,-3.48,40.38,-5.32,1.55,46.67,3.23,-2.03,-2.56
40,55,374,-189,-118,3967,0.05,1.59,46.81,-1.89,-1.18,39.67,-5.30,1.58,46.48,2.67,-2.60,13.70
53,58,264,-368,-31,3923,0.37,1.78,43.74,-3.68,-0.31,39.23,-5.28,1.62,46.30,2.31,-2.73,19.78
70,71,174,-458,10,4006,0.76,2.04,40.43,-4.58,0.10,40.06,-5.26,1.65,46.14,1.84,-3.09,20.00
64,62,160,-514,-31,3958,1.08,2.21,37.36,-5.14,-0.31,39.58,-5.24,1.69,46.00,1.86,-2.98,20.00
32,34,123,-232,-391,3857,1.16,2.20,34.37,-2.32,-3.91,38.57,-5.24,1.73,45.86,2.49,-2.43,20.00
17,31,136,-176,-432,3832,1.15,2.17,31.77,-1.76,-4.32,38.32,-5.24,1.76,45.73,2.80,-2.38,18.00
10,28,187,-213,-501,3953,1.10,2.12,29.73,-2.13,-5.01,39.53,-5.25,1.79,45.62,2.96,-2.33,11.53
7,25,205,-111,-482,3770,1.03,2.06,28.01,-1.11,-4.82,37.70,-5.26,1.81,45.51,3.05,-2.26,8.19
12,22,235,-157,-339,3933,1.00,1.99,26.64,-1.57,-3.39,39.33,-5.24,1.84,45.40,2.94,-2.20,4.21
15,13,237,-122,-278,3916,0.99,1.87,25.42,-1.22,-2.78,39.16,-5.22,1.85,45.30,2.87,-2.00,2.76
6,13,232,-134,-174,3924,0.93,1.76,24.30,-1.34,-1.74,39.24,-5.19,1.87,45.20,3.05,-1.98,2.00
7,20,217,-96,-287,3898,0.88,1.71,23.19,-0.96,-2.87,38.98,-5.17,1.88,45.11,3.03,-2.11,2.11
2,10,228,-93,-295,3955,0.80,1.60,22.26,-0.93,-2.95,39.55,-5.15,1.88,45.02,3.14,-1.88,0.20
2,6,237,-96,-350,3905,0.73,1.47,21.48,-0.96,-3.50,39.05,-5.14,1.88,44.94,3.15,-1.76,-1.38
-23,-5,309,-49,-507,3875,0.52,1.30,21.22,-0.49,-5.07,38.75,-5.15,1.88,44.85,3.73,-1.49,-7.75
-10,6,357,-8,-484,3891,0.41,1.20,21.27,-0.08,-4.84,38.91,-5.16,1.88,44.77,3.50,-1.69,-11.75
1,16,577,20,-408,3995,0.37,1.18,22.67,0.20,-4.08,39.95,-5.16,1.88,44.68,3.28,-1.89,-20.00
-1,17,664,-2,-389,3905,0.33,1.17,24.45,-0.02,-3.89,39.05,-5.16,1.87,44.58,3.34,-1.90,-20.00
-1,25,944,-124,-540,3873,0.29,1.20,27.76,-1.24,-5.40,38.73,-5.18,1.89,44.47,3.36,-2.08,-20.00
4,30,973,-285,-508,3912,0.29,1.27,30.92,-2.85,-5.08,39.12,-5.18,1.92,44.35,3.26,-2.22,-20.00
26,29,1029,-291,-398,3975,0.42,1.32,34.11,-2.91,-3.98,39.75,-5.18,1.95,44.22,2.78,-2.24,-20.00
-27,1,1016,-122,-457,3996,0.21,1.19,36.89,-1.22,-4.57,39.96,-5.19,1.97,44.07,3.92,-1.64,-20.00
-11,21,955,-130,-375,3930,0.12,1.20,39.03,-1.30,-3.75,39.30,-5.20,1.98,43.92,3.63,-2.06,-20.00
8,-7,910,-30,-265,3825,0.16,1.04,40.68,-0.30,-2.65,38.25,-5.19,1.99,43.75,3.22,-1.45,-20.00
-23,2,759,34,-234,3932,0.00,0.95,41.24,0.34,-2.34,39.32,-5.17,1.99,43.59,3.88,-1.61,-20.00
6,3,738,140,-166,3983,0.04,0.87,41.62,1.40,-1.66,39.83,-5.15,1.99,43.42,3.27,-1.61,-20.00
-1,4,756,-8,-202,3896,0.03,0.81,42.07,-0.08,-2.02,38.96,-5.13,2.00,43.25,3.40,-1.62,-20.00
-2,5,748,29,-387,3927,0.01,0.76,42.42,0.29,-3.87,39.27,-5.13,2.00,43.09,3.42,-1.63,-20.00
24,18,655,-78,-381,3934,0.16,0.79,42.18,-0.78,-3.81,39.34,-5.13,2.00,42.92,2.86,-1.90,-14.70
-2,29,632,-163,-414,3894,0.13,0.89,41.81,-1.63,-4.14,38.94,-5.14,2.03,42.75,3.40,-2.17,-13.12
-6,4,508,-141,-419,3957,0.08,0.82,40.73,-1.41,-4.19,39.57,-5.16,2.05,42.59,3.50,-1.66,-3.74
-16,33,496,-221,-388,3822,-0.02,0.94,39.68,-2.21,-3.88,38.22,-5.16,2.08,42.43,3.74,-2.30,-3.82
-30,-11,455,-53,-380,3930,-0.21,0.78,38.49,-0.53,-3.80,39.30,-5.16,2.08,42.28,4.07,-1.36,-1.60
-25,-5,444,-76,-370,3965,-0.34,0.67,37.35,-0.76,-3.70,39.65,-5.16,2.08,42.13,4.00,-1.45,-1.86
-18,-5,404,-123,-404,3822,-0.41,0.57,36.08,-1.23,-4.04,38.22,-5.17,2.09,41.99,3.89,-1.43,0.20
-2,2,386,-103,-450,3947,-0.38,0.53,34.83,-1.03,-4.50,39.47,-5.19,2.09,41.85,3.57,-1.57,0.41
-7,2,293,-45,-276,3931,-0.39,0.49,33.13,-0.45,-2.76,39.31,-5.17,2.09,41.72,3.66,-1.56,6.50
-13,5,277,-175,-256,3839,-0.43,0.47,31.51,-1.75,-2.56,38.39,-5.15,2.11,41.59,3.78,-1.62,6.15
11,20,175,78,-93,4009,-0.32,0.55,29.42,0.78,-0.93,40.09,-5.13,2.11,41.48,3.25,-1.95,12.60
15,11,164,116,-105,3997,-0.20,0.56,27.48,1.16,-1.05,39.97,-5.12,2.11,41.37,3.13,-1.77,11.48
15,15,161,-86,-361,3999,-0.08,0.59,25.72,-0.86,-3.61,39.99,-5.12,2.11,41.26,3.09,-1.86,9.88
11,1,146,-35,-350,3918,-0.01,0.54,24.04,-0.35,-3.50,39.18,-5.11,2.10,41.17,3.15,-1.55,9.38
2,2,138,-52,-287,3934,0.00,0.50,22.47,-0.52,-2.87,39.34,-5.10,2.09,41.08,3.32,-1.56,8.41
10,9,147,-83,-412,3916,0.06,0.50,21.12,-0.83,-4.12,39.16,-5.11,2.09,40.99,3.15,-1.70,6.22
-7,1,206,-106,-371,3926,0.02,0.46,20.27,-1.06,-3.71,39.26,-5.11,2.08,40.91,3.51,-1.52,0.33
-4,-1,201,-177,-260,3905,-0.01,0.41,19.47,-1.77,-2.60,39.05,-5.09,2.10,40.84,3.45,-1.48,-0.09
-10,3,277,-200,-323,3922,-0.07,0.38,19.21,-2.00,-3.23,39.22,-5.08,2.12,40.76,3.58,-1.57,-6.80
-9,6,335,-287,-321,3900,-0.12,0.38,19.33,-2.87,-3.21,39.00,-5.08,2.15,40.68,3.57,-1.65,-11.57
-27,4,515,-172,-312,3846,-0.27,0.37,20.54,-1.72,-3.12,38.46,-5.06,2.17,40.60,3.96,-1.62,-20.00
-1,1,541,-199,-197,3987,-0.25,0.34,21.79,-1.99,-1.97,39.87,-5.04,2.19,40.51,3.42,-1.56,-20.00
1,14,485,-10,-251,3920,-0.22,0.39,22.57,-0.10,-2.51,39.20,-5.03,2.18,40.42,3.36,-1.83,-20.00
6,5,424,-140,-290,3905,-0.16,0.38,22.90,-1.40,-2.90,39.05,-5.01,2.19,40.33,3.23,-1.65,-15.31
0,12,354,-242,-342,3858,-0.14,0.42,22.77,-2.42,-3.42,38.58,-5.01,2.21,40.24,3.34,-1.82,-9.51
-13,9,341,-252,-328,3887,-0.21,0.43,22.57,-2.52,-3.28,38.87,-5.00,2.24,40.15,3.62,-1.78,-8.61
14,22,361,-251,-341,3896,-0.10,0.52,22.51,-2.51,-3.41,38.96,-5.00,2.27,40.06,3.04,-2.09,-10.35
-1,5,368,-168,-341,3929,-0.10,0.50,22.51,-1.68,-3.41,39.29,-4.99,2.30,39.97,3.34,-1.75,-10.94
-5,15,400,-166,-342,3937,-0.12,0.54,22.70,-1.66,-3.42,39.37,-4.98,2.33,39.88,3.42,-1.99,-13.44
9,9,410,43,-365,3854,-0.05,0.54,22.93,0.43,-3.65,38.54,-4.98,2.32,39.79,3.12,-1.86,-14.04
-6,-1,317,-38,-382,3913,-0.08,0.48,22.57,-0.38,-3.82,39.13,-4.99,2.31,39.70,3.44,-1.64,-6.53
-9,-1,302,-81,-427,3898,-0.13,0.43,22.15,-0.81,-4.27,38.98,-5.00,2.31,39.61,3.52,-1.62,-5.69
-12,-6,365,-191,-536,3905,-0.19,0.35,22.17,-1.91,-5.36,39.05,-5.01,2.32,39.52,3.60,-1.50,-11.01
-14,3,427,-238,-429,3930,-0.26,0.33,22.55,-2.38,-4.29,39.30,-5.02,2.34,39.43,3.67,-1.70,-15.84
2,7,517,-143,-210,3951,-0.22,0.34,23.45,-1.43,-2.10,39.51,-5.00,2.35,39.34,3.32,-1.79,-20.00
11,18,534,-55,-258,3900,-0.13,0.42,24.36,-0.55,-2.58,39.00,-4.99,2.34,39.24,3.10,-2.03,-20.00
13,19,749,-297,-472,3870,-0.04,0.49,26.50,-2.97,-4.72,38.70,-4.99,2.37,39.14,3.04,-2.08,-20.00
4,24,812,-159,-540,3875,-0.01,0.59,28.80,-1.59,-5.40,38.75,-5.01,2.38,39.02,3.23,-2.22,-20.00
-36,20,876,-116,-494,3976,-0.23,0.65,31.26,-1.16,-4.94,39.76,-5.02,2.39,38.90,4.11,-2.16,-20.00
-3,1,841,-5,-378,3891,-0.22,0.59,33.27,-0.05,-3.78,38.91,-5.02,2.38,38.77,3.44,-1.76,-20.00
-11,21,714,129,-373,3904,-0.27,0.66,34.30,1.29,-3.73,39.04,-5.02,2.38,38.63,3.61,-2.18,-20.00
-11,12,670,-11,-380,3915,-0.31,0.67,34.95,-0.11,-3.80,39.15,-5.02,2.38,38.49,3.62,-2.00,-20.00
-3,5,619,44,-204,3990,-0.30,0.63,35.23,0.44,-2.04,39.90,-5.00,2.38,38.35,3.44,-1.84,-18.59
-2,10,640,127,-326,3940,-0.28,0.63,35.61,1.27,-3.26,39.40,-5.00,2.37,38.21,3.41,-1.94,-19.95
17,30,543,-7,-383,3947,-0.15,0.75,35.37,-0.07,-3.83,39.47,-5.00,2.37,38.07,2.99,-2.38,-11.98
17,29,569,-17,-374,3898,-0.03,0.85,35.30,-0.17,-3.74,38.98,-4.99,2.37,37.93,2.96,-2.39,-14.24
-12,32,680,38,-708,3918,-0.10,0.96,35.92,0.38,-7.08,39.18,-5.00,2.38,37.79,3.57,-2.48,-20.00
8,35,705,53,-624,3876,-0.04,1.08,36.63,0.53,-6.24,38.76,-5.01,2.38,37.64,3.16,-2.58,-20.00
13,20,663,-265,-615,3871,0.04,1.09,37.01,-2.65,-6.15,38.71,-5.02,2.41,37.49,3.04,-2.29,-20.00
1,-7,659,-186,-669,3946,0.04,0.94,37.33,-1.86,-6.69,39.46,-5.04,2.42,37.35,3.29,-1.71,-19.67
-25,-9,713,-387,-735,3826,-0.11,0.79,37.94,-3.87,-7.35,38.26,-5.05,2.45,37.20,3.87,-1.65,-20.00
-16,-19,727,-289,-646,3901,-0.20,0.60,38.58,-2.89,-6.46,39.01,-5.06,2.47,37.04,3.72,-1.41,-20.00
-18,3,765,-185,-382,3964,-0.29,0.56,39.39,-1.85,-3.82,39.64,-5.07,2.50,36.89,3.79,-1.86,-20.00
-23,6,712,-88,-265,3956,-0.40,0.54,39.80,-0.88,-2.65,39.56,-5.05,2.50,36.73,3.91,-1.92,-20.00
24,8,700,-122,-305,3850,-0.21,0.53,40.09,-1.22,-3.05,38.50,-5.03,2.50,36.57,2.89,-1.96,-20.00
-17,3,701,-118,-444,3965,-0.30,0.50,40.35,-1.18,-4.44,39.65,-5.04,2.51,36.41,3.75,-1.85,-19.94
1,14,671,-129,-261,3897,-0.26,0.53,40.41,-1.29,-2.61,38.97,-5.02,2.52,36.25,3.36,-2.09,-17.32
-6,8,682,-80,-277,3906,-0.27,0.53,40.53,-0.80,-2.77,39.06,-5.00,2.52,36.08,3.50,-1.97,-18.11
-2,19,691,-198,-271,4003,-0.26,0.59,40.69,-1.98,-2.71,40.03,-4.98,2.54,35.92,3.40,-2.22,-18.69
-7,11,671,-85,-336,3886,-0.27,0.60,40.72,-0.85,-3.36,38.86,-4.97,2.54,35.76,3.50,-2.06,-16.95
8,30,580,-88,-168,3990,-0.20,0.72,40.18,-0.88,-1.68,39.90,-4.95,2.55,35.60,3.16,-2.49,-9.79
2,14,568,-123,-146,3885,-0.17,0.74,39.63,-1.23,-1.46,38.85,-4.93,2.56,35.44,3.26,-2.17,-9.35
17,13,600,-227,-385,3906,-0.04,0.74,39.33,-2.27,-3.85,39.06,-4.93,2.59,35.28,2.92,-2.17,-12.37
2,16,611,-273,-311,3959,-0.03,0.76,39.12,-2.73,-3.11,39.59,-4.92,2.62,35.13,3.21,-2.26,-13.50
-4,25,692,-84,-321,3876,-0.05,0.84,39.43,-0.84,-3.21,38.76,-4.91,2.62,34.97,3.34,-2.47,-20.00
-17,29,685,-132,-289,3948,-0.15,0.93,39.67,-1.32,-2.89,39.48,-4.89,2.62,34.81,3.61,-2.58,-19.17
-13,8,782,-240,-385,3850,-0.21,0.89,40.47,-2.40,-3.85,38.50,-4.90,2.66,34.65,3.55,-2.16,-20.00
-6,-4,827,-162,-463,3965,-0.23,0.78,41.47,-1.62,-4.63,39.65,-4.91,2.67,34.49,3.42,-1.89,-20.00
-21,6,890,-216,-627,3771,-0.33,0.73,42.75,-2.16,-6.27,37.71,-4.92,2.69,34.32,3.76,-2.10,-20.00
-34,9,884,-192,-517,3853,-0.51,0.72,43.87,-1.92,-5.17,38.53,-4.93,2.71,34.14,4.08,-2.17,-20.00
-1,-15,853,138,-80,4020,-0.46,0.55,44.68,1.38,-0.80,40.20,-4.91,2.71,33.97,3.39,-1.64,-20.00
-9,-10,835,63,14,4029,-0.47,0.44,45.31,0.63,0.14,40.29,-4.89,2.72,33.78,3.54,-1.71,-20.00
-4,-20,646,-85,-319,3999,-0.45,0.27,44.72,-0.85,-3.19,39.99,-4.88,2.72,33.61,3.42,-1.46,-10.40
-3,-18,504,42,-226,3952,-0.42,0.13,43.32,0.42,-2.26,39.52,-4.87,2.72,33.43,3.39,-1.46,0.16
11,1,291,-92,-154,3883,-0.31,0.13,40.76,-0.92,-1.54,38.83,-4.84,2.72,33.27,3.06,-1.85,15.52
5,13,274,-141,-232,3840,-0.25,0.19,38.36,-1.41,-2.32,38.40,-4.82,2.73,33.12,3.15,-2.12,14.42
-11,-5,222,100,-322,3929,-0.29,0.14,35.88,1.00,-3.22,39.29,-4.81,2.72,32.97,3.48,-1.73,16.21
-13,-15,193,80,-348,3950,-0.34,0.04,33.47,0.80,-3.48,39.50,-4.81,2.71,32.84,3.53,-1.50,16.13
6,-2,291,-81,-256,3917,-0.27,0.02,31.90,-0.81,-2.56,39.17,-4.79,2.71,32.71,3.12,-1.75,6.18
8,4,320,-74,-344,3890,-0.20,0.04,30.66,-0.74,-3.44,38.90,-4.79,2.70,32.59,3.05,-1.88,2.42
21,0,272,-150,-253,3988,-0.05,0.04,29.25,-1.50,-2.53,39.88,-4.77,2.70,32.47,2.73,-1.80,5.01
38,-2,257,-146,-245,3904,0.19,0.02,27.89,-1.46,-2.45,39.04,-4.75,2.71,32.36,2.31,-1.75,4.85
25,4,198,-225,-557,3840,0.32,0.05,26.31,-2.25,-5.57,38.40,-4.76,2.72,32.25,2.55,-1.89,8.18
12,10,160,-66,-625,3859,0.36,0.10,24.66,-0.66,-6.25,38.59,-4.77,2.72,32.16,2.81,-2.03,9.66
0,7,97,-44,-455,3923,0.33,0.13,22.78,-0.44,-4.55,39.23,-4.78,2.71,32.07,3.06,-1.97,13.02
2,6,113,-79,-440,3917,0.31,0.16,21.19,-0.79,-4.40,39.17,-4.79,2.71,31.98,3.03,-1.95,9.99
4,15,133,-107,-437,3906,0.30,0.23,19.89,-1.07,-4.37,39.06,-4.80,2.71,31.90,3.00,-2.15,6.92
1,10,132,-86,-459,3875,0.28,0.27,18.70,-0.86,-4.59,38.75,-4.81,2.70,31.83,3.08,-2.06,5.76
-12,1,126,-88,-382,3913,0.18,0.25,17.60,-0.88,-3.82,39.13,-4.81,2.69,31.76,3.37,-1.87,5.10
-7,-2,102,-127,-288,3944,0.12,0.21,16.46,-1.27,-2.88,39.44,-4.80,2.69,31.69,3.28,-1.79,5.94
-3,-6,21,-94,-384,3910,0.09,0.15,14.94,-0.94,-3.84,39.10,-4.80,2.68,31.64,3.21,-1.69,11.20
3,0,25,-28,-406,3890,0.09,0.14,13.60,-0.28,-4.06,38.90,-4.81,2.66,31.58,3.09,-1.80,9.44
-5,2,43,-98,-489,3950,0.05,0.14,12.50,-0.98,-4.89,39.50,-4.82,2.66,31.53,3.27,-1.83,6.76
6,-4,82,-130,-623,3909,0.09,0.10,11.75,-1.30,-6.23,39.09,-4.84,2.66,31.49,3.05,-1.70,2.67
7,-9,258,-71,-717,3889,0.12,0.03,12.15,-0.71,-7.17,38.89,-4.85,2.66,31.44,3.03,-1.58,-11.82
-4,-1,311,-75,-612,3940,0.08,0.03,12.83,-0.75,-6.12,39.40,-4.87,2.66,31.39,3.27,-1.74,-15.58
-17,-12,420,-109,-446,3875,-0.03,-0.05,14.11,-1.09,-4.46,38.75,-4.88,2.65,31.33,3.57,-1.49,-20.00
-13,-13,437,-55,-406,3828,-0.10,-0.12,15.37,-0.55,-4.06,38.28,-4.89,2.64,31.27,3.52,-1.45,-20.00
-14,-8,452,-55,-249,3929,-0.18,-0.16,16.59,-0.55,-2.49,39.29,-4.87,2.63,31.21,3.55,-1.53,-20.00
-13,-2,435,-127,-233,3970,-0.24,-0.16,17.58,-1.27,-2.33,39.70,-4.86,2.63,31.13,3.53,-1.65,-20.00
-8,-7,376,-109,-183,3935,-0.27,-0.18,18.12,-1.09,-1.83,39.35,-4.84,2.63,31.06,3.43,-1.54,-15.47
9,-13,341,-113,-104,4012,-0.18,-0.25,18.39,-1.13,-1.04,40.12,-4.82,2.63,30.99,3.05,-1.40,-12.21
-36,-38,227,-130,-163,3934,-0.39,-0.45,17.93,-1.30,-1.63,39.34,-4.80,2.63,30.91,4.00,-0.84,-3.03
-80,-76,226,-365,-161,3865,-0.83,-0.87,17.52,-3.65,-1.61,38.65,-4.79,2.64,30.84,5.01,0.04,-3.37
-73,-74,324,-106,-284,3918,-1.20,-1.24,17.74,-1.06,-2.84,39.18,-4.78,2.63,30.77,4.96,0.11,-11.43
-75,-66,344,-102,-324,3903,-1.53,-1.51,18.07,-1.02,-3.24,39.03,-4.78,2.61,30.70,5.10,0.03,-12.78
-63,-52,443,-182,-381,3925,-1.77,-1.68,18.96,-1.82,-3.81,39.25,-4.80,2.61,30.62,4.93,-0.21,-20.00
-57,-52,480,-123,-278,3884,-1.94,-1.83,19.99,-1.23,-2.78,38.84,-4.79,2.59,30.54,4.85,-0.16,-20.00
-24,6,551,-128,-468,4006,-1.89,-1.61,21.36,-1.28,-4.68,40.06,-4.81,2.59,30.46,4.18,-1.39,-20.00
-13,7,562,-88,-425,3935,-1.78,-1.41,22.65,-0.88,-4.25,39.35,-4.83,2.58,30.37,3.94,-1.46,-20.00
-4,2,690,-123,-567,3873,-1.63,-1.25,24.59,-1.23,-5.67,38.73,-4.85,2.58,30.27,3.73,-1.40,-20.00
-26,3,746,-99,-471,3926,-1.62,-1.11,26.68,-0.99,-4.71,39.26,-4.87,2.57,30.16,4.18,-1.46,-20.00
-12,17,881,-68,-484,3916,-1.53,-0.89,29.39,-0.68,-4.84,39.16,-4.88,2.57,30.05,3.89,-1.80,-20.00
-7,11,883,-49,-495,3852,-1.42,-0.74,31.84,-0.49,-4.95,38.52,-4.90,2.57,29.92,3.76,-1.72,-20.00
-31,1,891,-74,-323,3873,-1.47,-0.66,34.09,-0.74,-3.23,38.73,-4.90,2.56,29.78,4.26,-1.53,-20.00
-3,10,886,-36,-264,3980,-1.34,-0.53,36.08,-0.36,-2.64,39.80,-4.89,2.55,29.64,3.65,-1.74,-20.00
-10,26,874,-101,-282,3886,-1.27,-0.32,37.81,-1.01,-2.82,38.86,-4.88,2.55,29.49,3.77,-2.12,-20.00
-8,17,867,-91,-298,3934,-1.19,-0.18,39.32,-0.91,-2.98,39.34,-4.87,2.54,29.33,3.70,-1.97,-20.00
-21,18,783,-58,-301,3913,-1.20,-0.06,40.16,-0.58,-3.01,39.13,-4.86,2.54,29.17,3.96,-2.03,-20.00
14,36,754,11,-212,3984,-0.99,0.17,40.74,0.11,-2.12,39.84,-4.84,2.54,29.01,3.18,-2.45,-20.00
-8,11,654,-55,-334,3958,-0.94,0.22,40.66,-0.55,-3.34,39.58,-4.84,2.53,28.85,3.61,-1.96,-14.95
-14,8,598,-63,-274,3917,-0.93,0.25,40.24,-0.63,-2.74,39.17,-4.83,2.53,28.68,3.73,-1.90,-10.64
-19,-1,513,-23,-471,3965,-0.96,0.22,39.35,-0.23,-4.71,39.65,-4.84,2.53,28.53,3.84,-1.71,-4.37
-8,1,489,-80,-336,3922,-0.91,0.20,38.39,-0.80,-3.36,39.22,-4.84,2.53,28.38,3.60,-1.74,-3.33
-20,-16,487,-43,-425,3863,-0.94,0.08,37.53,-0.43,-4.25,38.63,-4.84,2.53,28.23,3.86,-1.36,-4.07
-9,-4,486,-58,-493,3940,-0.90,0.05,36.74,-0.58,-4.93,39.40,-4.86,2.53,28.08,3.63,-1.60,-4.80
-4,-11,453,-114,-655,3918,-0.84,-0.02,35.83,-1.14,-6.55,39.18,-4.87,2.54,27.94,3.52,-1.44,-2.96
-17,-19,433,-70,-673,3953,-0.86,-0.14,34.89,-0.70,-6.73,39.53,-4.89,2.54,27.80,3.80,-1.25,-2.25
-18,-5,506,-77,-549,3891,-0.88,-0.15,34.48,-0.77,-5.49,38.91,-4.90,2.55,27.66,3.84,-1.54,-8.84
-5,5,523,-110,-565,3949,-0.82,-0.11,34.23,-1.10,-5.65,39.49,-4.91,2.55,27.53,3.57,-1.76,-10.55
-35,-15,550,-63,-594,3917,-0.95,-0.19,34.16,-0.63,-5.94,39.17,-4.93,2.56,27.39,4.23,-1.33,-12.89
-7,0,580,-6,-513,3885,-0.90,-0.17,34.28,-0.06,-5.13,38.85,-4.94,2.55,27.26,3.65,-1.64,-15.29
-30,-2,662,-114,-585,3898,-0.99,-0.16,34.89,-1.14,-5.85,38.98,-4.96,2.56,27.12,4.15,-1.60,-20.00
-14,14,671,-42,-538,3848,-0.98,-0.06,35.49,-0.42,-5.38,38.48,-4.97,2.56,26.98,3.83,-1.96,-20.00
-3,23,691,-114,-357,3930,-0.90,0.08,36.16,-1.14,-3.57,39.30,-4.97,2.56,26.83,3.59,-2.18,-20.00
-3,27,688,-225,-433,3875,-0.83,0.24,36.74,-2.25,-4.33,38.75,-4.98,2.58,26.69,3.58,-2.32,-20.00
6,23,673,-121,-337,3888,-0.71,0.36,37.17,-1.21,-3.37,38.88,-4.98,2.58,26.54,3.36,-2.27,-20.00
-8,9,676,-127,-434,3879,-0.69,0.38,37.58,-1.27,-4.34,38.79,-4.99,2.58,26.39,3.64,-1.99,-19.86
-9,21,634,-40,-266,3902,-0.67,0.47,37.69,-0.40,-2.66,39.02,-4.98,2.58,26.24,3.65,-2.26,-16.17
-11,15,625,-37,-316,3950,-0.67,0.51,37.73,-0.37,-3.16,39.50,-4.97,2.58,26.09,3.69,-2.15,-15.35
-20,-1,575,-136,-445,3835,-0.73,0.45,37.47,-1.36,-4.45,38.35,-4.98,2.59,25.94,3.89,-1.81,-11.38
-7,2,571,-82,-385,3985,-0.70,0.42,37.20,-0.82,-3.85,39.85,-4.99,2.59,25.79,3.62,-1.86,-11.30
-6,3,518,-78,-459,3943,-0.66,0.40,36.64,-0.78,-4.59,39.43,-5.00,2.59,25.65,3.60,-1.88,-7.39
2,-3,487,-76,-391,3920,-0.59,0.34,35.95,-0.76,-3.91,39.20,-5.00,2.59,25.50,3.42,-1.74,-5.49
-15,1,471,-65,-339,3885,-0.62,0.31,35.23,-0.65,-3.39,38.85,-5.00,2.58,25.36,3.77,-1.81,-4.89
9,2,455,-43,-223,3935,-0.50,0.29,34.48,-0.43,-2.23,39.35,-4.98,2.58,25.22,3.24,-1.82,-4.31
4,11,389,-43,-421,3899,-0.43,0.33,33.40,-0.43,-4.21,38.99,-4.98,2.58,25.09,3.33,-2.01,0.16
-12,-1,381,-10,-403,3936,-0.46,0.29,32.39,-0.10,-4.03,39.36,-4.99,2.57,24.96,3.66,-1.76,-0.23
-13,6,360,-40,-505,3919,-0.49,0.30,31.35,-0.40,-5.05,39.19,-5.00,2.57,24.84,3.70,-1.90,0.46
-4,10,342,-47,-512,3904,-0.47,0.33,30.30,-0.47,-5.12,39.04,-5.01,2.57,24.72,3.51,-1.99,0.88
-2,-1,317,-54,-528,3925,-0.43,0.29,29.20,-0.54,-5.28,39.25,-5.02,2.57,24.60,3.47,-1.76,1.85
-4,2,327,-58,-492,3932,-0.41,0.27,28.28,-0.58,-4.92,39.32,-5.03,2.57,24.49,3.51,-1.81,0.03
-4,0,361,-4,-577,3911,-0.40,0.25,27.65,-0.04,-5.77,39.11,-5.04,2.57,24.38,3.52,-1.77,-3.50
-13,-4,388,-59,-551,3877,-0.44,0.20,27.25,-0.59,-5.51,38.77,-5.06,2.57,24.27,3.72,-1.67,-6.20
-7,-5,444,-45,-613,3906,-0.44,0.15,27.24,-0.45,-6.13,39.06,-5.07,2.58,24.17,3.61,-1.64,-10.95
-10,-1,463,-31,-654,3864,-0.45,0.13,27.34,-0.31,-6.54,38.64,-5.08,2.58,24.06,3.68,-1.72,-12.45
-10,5,522,-41,-585,3916,-0.47,0.14,27.79,-0.41,-5.85,39.16,-5.09,2.58,23.95,3.69,-1.84,-16.96
-9,9,524,-94,-574,3902,-0.48,0.18,28.20,-0.94,-5.74,39.02,-5.11,2.59,23.84,3.68,-1.94,-16.67
-7,26,555,-100,-364,3933,-0.47,0.32,28.77,-1.00,-3.64,39.33,-5.11,2.58,23.72,3.64,-2.32,-18.69
1,29,569,-95,-355,3889,-0.42,0.47,29.36,-0.95,-3.55,38.89,-5.11,2.57,23.60,3.46,-2.42,-19.24
3,20,580,-87,-389,3887,-0.36,0.54,29.97,-0.87,-3.89,38.87,-5.11,2.57,23.49,3.41,-2.25,-19.52
-14,19,585,-78,-380,3899,-0.41,0.61,30.54,-0.78,-3.80,38.99,-5.11,2.56,23.36,3.77,-2.24,-19.33
19,28,592,-92,-463,3886,-0.25,0.72,31.09,-0.92,-4.63,38.86,-5.12,2.57,23.24,3.06,-2.46,-19.32
7,19,586,75,-453,3928,-0.18,0.76,31.56,0.75,-4.53,39.28,-5.12,2.57,23.12,3.29,-2.29,-18.31
-26,18,555,-36,-461,3836,-0.32,0.79,31.79,-0.36,-4.61,38.36,-5.13,2.57,22.99,4.00,-2.28,-15.43
-7,18,569,-57,-270,3992,-0.33,0.82,32.08,-0.57,-2.70,39.92,-5.12,2.57,22.86,3.61,-2.28,-16.29
-13,-1,622,-133,-299,3886,-0.38,0.74,32.67,-1.33,-2.99,38.86,-5.10,2.57,22.73,3.73,-1.88,-20.00
-21,-9,633,-99,-284,3931,-0.47,0.61,33.26,-0.99,-2.84,39.31,-5.08,2.57,22.60,3.91,-1.68,-20.00
-3,3,529,-84,-255,4007,-0.44,0.56,33.16,-0.84,-2.55,40.07,-5.07,2.57,22.47,3.52,-1.91,-11.72
-2,-2,481,-54,-276,3897,-0.41,0.50,32.78,-0.54,-2.76,38.97,-5.05,2.57,22.33,3.49,-1.79,-8.05
-7,-14,289,-122,-163,3895,-0.41,0.36,31.27,-1.22,-1.63,38.95,-5.03,2.58,22.21,3.57,-1.51,6.62
-3,-14,230,-119,-114,3938,-0.39,0.24,29.54,-1.19,-1.14,39.38,-5.01,2.58,22.09,3.47,-1.48,9.81
2,-4,152,-75,-101,3896,-0.34,0.19,27.51,-0.75,-1.01,38.96,-4.99,2.59,21.98,3.34,-1.68,14.28
-5,0,160,-78,-318,3915,-0.33,0.17,25.74,-0.78,-3.18,39.15,-4.98,2.58,21.88,3.48,-1.75,11.73
-5,-9,117,-75,-433,3887,-0.33,0.10,23.88,-0.75,-4.33,38.87,-4.99,2.57,21.78,3.49,-1.54,13.41
-3,-3,113,-52,-408,3927,-0.32,0.07,22.18,-0.52,-4.08,39.27,-5.00,2.56,21.69,3.44,-1.65,11.96
-3,0,98,6,-447,3935,-0.30,0.06,20.56,0.06,-4.47,39.35,-5.00,2.56,21.61,3.45,-1.70,11.52
-1,-1,88,-21,-443,3944,-0.28,0.05,19.04,-0.21,-4.43,39.44,-5.01,2.55,21.54,3.40,-1.67,10.77
5,-12,98,-117,-250,3946,-0.22,-0.03,17.73,-1.17,-2.50,39.46,-4.99,2.54,21.47,3.25,-1.43,8.54
-1,-25,100,-126,-265,3913,-0.20,-0.18,16.57,-1.26,-2.65,39.13,-4.97,2.54,21.40,3.36,-1.12,7.15
2,-53,125,-165,-471,3815,-0.17,-0.48,15.68,-1.65,-4.71,38.15,-4.99,2.54,21.34,3.30,-0.47,4.09
-28,-45,122,-82,-567,3929,-0.33,-0.71,14.85,-0.82,-5.67,39.29,-5.01,2.54,21.28,3.96,-0.57,3.48
-6,-10,134,-8,-467,3865,-0.33,-0.70,14.19,-0.08,-4.67,38.65,-5.02,2.52,21.22,3.52,-1.27,1.76
-7,-10,114,-25,-497,3883,-0.34,-0.69,13.46,-0.25,-4.97,38.83,-5.03,2.51,21.17,3.55,-1.27,2.69
-5,-7,83,-40,-417,3837,-0.34,-0.66,12.62,-0.40,-4.17,38.37,-5.04,2.50,21.12,3.52,-1.33,4.43
-5,5,89,-44,-414,3851,-0.33,-0.57,11.90,-0.44,-4.14,38.51,-5.05,2.49,21.07,3.52,-1.59,3.17
-3,-2,107,-65,-439,3872,-0.32,-0.52,11.37,-0.65,-4.39,38.72,-5.06,2.47,21.03,3.49,-1.45,1.08
-3,0,115,-71,-438,3927,-0.30,-0.47,10.93,-0.71,-4.38,39.27,-5.07,2.46,20.98,3.49,-1.50,-0.06
-2,6,176,-18,-544,3916,-0.29,-0.39,10.91,-0.18,-5.44,39.16,-5.08,2.45,20.94,3.47,-1.64,-5.24
-7,-2,189,3,-614,3899,-0.30,-0.36,10.97,0.03,-6.14,38.99,-5.10,2.45,20.90,3.59,-1.48,-6.27
-2,0,248,49,-696,3916,-0.28,-0.32,11.39,0.49,-6.96,39.16,-5.11,2.44,20.85,3.49,-1.52,-10.83
-7,12,268,12,-738,3925,-0.30,-0.22,11.88,0.12,-7.38,39.25,-5.13,2.44,20.81,3.61,-1.79,-11.99
-7,14,442,-37,-644,3927,-0.31,-0.11,13.39,-0.37,-6.44,39.27,-5.14,2.43,20.75,3.62,-1.86,-20.00
-13,6,516,-54,-762,3854,-0.36,-0.06,15.20,-0.54,-7.62,38.54,-5.16,2.43,20.69,3.77,-1.71,-20.00
-4,3,676,-28,-814,3886,-0.35,-0.04,17.80,-0.28,-8.14,38.86,-5.18,2.43,20.62,3.59,-1.66,-20.00
-21,7,728,-17,-800,3871,-0.44,0.01,20.46,-0.17,-8.00,38.71,-5.19,2.44,20.54,3.97,-1.75,-20.00
-4,19,889,62,-756,3927,-0.42,0.12,23.84,0.62,-7.56,39.27,-5.21,2.44,20.45,3.63,-2.03,-20.00
-4,28,948,-33,-761,3952,-0.40,0.28,27.24,-0.33,-7.61,39.52,-5.22,2.44,20.34,3.64,-2.26,-20.00
-19,29,1152,-17,-798,3900,-0.48,0.43,31.54,-0.17,-7.98,39.00,-5.23,2.45,20.21,3.97,-2.32,-20.00
-16,23,1202,-42,-796,3915,-0.53,0.53,35.72,-0.42,-7.96,39.15,-5.25,2.46,20.07,3.93,-2.23,-20.00
-29,30,1344,-52,-557,3973,-0.65,0.66,40.35,-0.52,-5.57,39.73,-5.26,2.47,19.91,4.24,-2.42,-20.00
-30,17,1369,-114,-529,3975,-0.77,0.70,44.66,-1.14,-5.29,39.75,-5.27,2.48,19.74,4.30,-2.17,-20.00
-15,14,1372,-130,-380,4077,-0.78,0.71,48.57,-1.30,-3.80,40.77,-5.27,2.48,19.54,4.00,-2.12,-20.00
-39,38,1369,-18,-80,4128,-0.94,0.87,52.06,-0.18,-0.80,41.28,-5.25,2.49,19.34,4.51,-2.66,-20.00
-32,19,1336,-185,-250,4063,-1.04,0.90,55.00,-1.85,-2.50,40.63,-5.22,2.52,19.12,4.38,-2.29,-20.00
-46,28,1320,-114,-255,3729,-1.22,0.98,57.56,-1.14,-2.55,37.29,-5.20,2.53,18.89,4.70,-2.51,-20.00
-12,28,1210,-217,-377,3842,-1.17,1.05,59.18,-2.17,-3.77,38.42,-5.21,2.58,18.65,4.00,-2.56,-20.00
-11,26,1173,-231,-366,3860,-1.12,1.11,60.42,-2.31,-3.66,38.60,-5.20,2.62,18.41,3.96,-2.56,-20.00
-20,30,1022,-65,-273,3905,-1.13,1.18,60.61,-0.65,-2.73,39.05,-5.19,2.63,18.17,4.14,-2.67,-20.00
-21,14,978,-62,-233,3944,-1.15,1.15,60.52,-0.62,-2.33,39.44,-5.17,2.65,17.93,4.15,-2.34,-20.00
-3,15,832,-81,-162,3839,-1.05,1.12,59.54,-0.81,-1.62,38.39,-5.14,2.66,17.69,3.74,-2.37,-9.04
-18,-1,762,-52,-200,3981,-1.06,1.01,58.23,-0.52,-2.00,39.81,-5.12,2.68,17.46,4.03,-2.02,-4.47
-27,-1,639,-25,-287,3833,-1.11,0.90,56.31,-0.25,-2.87,38.33,-5.11,2.68,17.23,4.23,-2.00,3.94
-16,13,628,-84,-447,4019,-1.10,0.89,54.51,-0.84,-4.47,40.19,-5.12,2.69,17.02,4.00,-2.28,2.98
-8,7,650,-105,-356,3959,-1.04,0.84,53.02,-1.05,-3.56,39.59,-5.11,2.70,16.80,3.82,-2.15,-0.44
-18,2,667,-84,-549,3890,-1.05,0.77,51.79,-0.84,-5.49,38.90,-5.12,2.71,16.60,4.03,-2.04,-3.17
-19,26,775,-33,-671,3834,-1.06,0.85,51.34,-0.33,-6.71,38.34,-5.13,2.72,16.39,4.06,-2.56,-12.77
-24,15,808,55,-747,3924,-1.10,0.86,51.13,0.55,-7.47,39.24,-5.14,2.74,16.19,4.18,-2.34,-15.77
-8,-1,932,14,-533,3895,-1.04,0.77,51.70,0.14,-5.33,38.95,-5.15,2.74,15.99,3.84,-2.00,-20.00
-23,18,965,-43,-609,3858,-1.07,0.80,52.42,-0.43,-6.09,38.58,-5.16,2.76,15.78,4.17,-2.40,-20.00
-16,7,1052,-50,-504,3925,-1.06,0.76,53.60,-0.50,-5.04,39.25,-5.17,2.77,15.57,4.03,-2.18,-20.00
-28,21,1062,0,-518,3872,-1.13,0.81,54.71,0.00,-5.18,38.72,-5.17,2.78,15.35,4.29,-2.48,-20.00
-24,-5,996,-82,-579,4019,-1.16,0.70,55.32,-0.82,-5.79,40.19,-5.18,2.79,15.13,4.23,-1.93,-20.00
-23,17,1035,-99,-430,3824,-1.19,0.74,56.10,-0.99,-4.30,38.24,-5.19,2.80,14.91,4.22,-2.39,-20.00
-30,20,1045,-39,-494,3805,-1.25,0.78,56.86,-0.39,-4.94,38.05,-5.20,2.81,14.68,4.38,-2.48,-20.00
-35,17,1033,32,-557,3939,-1.34,0.81,57.48,0.32,-5.57,39.39,-5.20,2.82,14.45,4.51,-2.43,-20.00
-26,18,999,-38,-570,3906,-1.36,0.84,57.83,-0.38,-5.70,39.06,-5.21,2.83,14.22,4.34,-2.46,-20.00
-18,21,994,-36,-588,3864,-1.34,0.88,58.11,-0.36,-5.88,38.64,-5.22,2.85,13.99,4.18,-2.55,-20.00
-13,25,1017,-46,-502,3981,-1.28,0.95,58.50,-0.46,-5.02,39.81,-5.23,2.86,13.76,4.06,-2.65,-20.00
4,22,998,-46,-572,3961,-1.13,0.99,58.74,-0.46,-5.72,39.61,-5.23,2.87,13.53,3.68,-2.61,-20.00
-12,23,922,11,-359,3947,-1.09,1.03,58.49,0.11,-3.59,39.47,-5.23,2.88,13.29,3.99,-2.65,-17.38
-8,28,950,-54,-438,3854,-1.03,1.10,58.43,-0.54,-4.38,38.54,-5.23,2.89,13.06,3.89,-2.78,-19.79
-26,30,939,-33,-455,4089,-1.09,1.17,58.32,-0.33,-4.55,40.89,-5.23,2.90,12.83,4.28,-2.84,-18.96
-16,16,961,-130,-324,3691,-1.07,1.15,58.35,-1.30,-3.24,36.91,-5.22,2.91,12.60,4.06,-2.56,-20.00
-26,4,922,-13,-437,3772,-1.13,1.06,58.14,-0.13,-4.37,37.72,-5.22,2.92,12.37,4.28,-2.30,-17.67
-20,21,905,-34,-682,3968,-1.14,1.08,57.84,-0.34,-6.82,39.68,-5.23,2.93,12.14,4.17,-2.66,-16.51
0,12,871,80,-513,4107,-1.02,1.05,57.37,0.80,-5.13,41.07,-5.23,2.94,11.91,3.73,-2.47,-14.11
-4,17,902,26,-372,3796,-0.94,1.05,57.14,0.26,-3.72,37.96,-5.22,2.95,11.68,3.79,-2.58,-16.97
-13,21,946,-47,-502,3860,-0.93,1.07,57.19,-0.47,-5.02,38.60,-5.23,2.96,11.45,3.97,-2.67,-20.00
-20,18,951,-3,-423,3896,-0.96,1.07,57.28,-0.03,-4.23,38.96,-5.22,2.97,11.23,4.12,-2.62,-20.00
-35,29,891,-59,-322,4164,-1.08,1.14,56.98,-0.59,-3.22,41.64,-5.21,2.98,11.00,4.44,-2.87,-16.14
-15,-2,892,-85,-175,3939,-1.06,1.02,56.73,-0.85,-1.75,39.39,-5.19,2.99,10.77,4.02,-2.21,-16.47
-25,-3,896,-123,-178,4035,-1.11,0.90,56.52,-1.23,-1.78,40.35,-5.16,3.01,10.55,4.22,-2.17,-17.01
-13,15,866,-126,-243,3807,-1.07,0.90,56.15,-1.26,-2.43,38.07,-5.14,3.02,10.32,3.95,-2.54,-14.84
-1,7,752,-8,-412,3904,-0.97,0.85,55.12,-0.08,-4.12,39.04,-5.14,3.03,10.10,3.68,-2.37,-6.25
-10,23,699,57,-581,3862,-0.94,0.91,53.87,0.57,-5.81,38.62,-5.14,3.04,9.89,3.85,-2.72,-3.06
-22,8,588,35,-572,3857,-0.98,0.86,52.07,0.35,-5.72,38.57,-5.15,3.04,9.68,4.11,-2.41,4.45
-4,24,592,-15,-517,3771,-0.90,0.92,50.48,-0.15,-5.17,37.71,-5.15,3.05,9.48,3.73,-2.76,2.44
6,18,693,52,-633,3831,-0.78,0.94,49.66,0.52,-6.33,38.31,-5.16,3.06,9.28,3.50,-2.64,-6.97
-14,35,724,-8,-685,3900,-0.78,1.06,49.11,-0.08,-6.85,39.00,-5.17,3.07,9.09,3.91,-3.03,-10.16
-4,36,780,-65,-434,3931,-0.73,1.17,48.95,-0.65,-4.34,39.31,-5.17,3.08,8.89,3.69,-3.09,-15.05
-17,1,802,-67,-453,4017,-0.76,1.06,48.95,-0.67,-4.53,40.17,-5.17,3.09,8.70,3.97,-2.35,-16.90
-32,-2,812,-98,-570,3999,-0.88,0.94,49.01,-0.98,-5.70,39.99,-5.18,3.10,8.51,4.31,-2.26,-17.66
-29,8,819,-104,-683,3814,-0.97,0.90,49.10,-1.04,-6.83,38.14,-5.19,3.12,8.31,4.28,-2.46,-18.14
-30,6,821,-196,-345,3962,-1.06,0.85,49.20,-1.96,-3.45,39.62,-5.17,3.12,8.11,4.31,-2.41,-18.19
3,22,828,-121,-474,3971,-0.93,0.90,49.33,-1.21,-4.74,39.71,-5.18,3.13,7.92,3.61,-2.76,-18.62
-4,24,823,50,-613,3958,-0.86,0.95,49.42,0.50,-6.13,39.58,-5.19,3.14,7.72,3.74,-2.82,-18.09
-20,12,815,7,-615,3942,-0.90,0.93,49.45,0.07,-6.15,39.42,-5.19,3.15,7.53,4.08,-2.58,-17.36
-7,16,813,117,-489,3863,-0.85,0.93,49.46,1.17,-4.89,38.63,-5.19,3.15,7.33,3.80,-2.66,-17.16
-8,15,813,107,-397,3941,-0.82,0.93,49.48,1.07,-3.97,39.41,-5.19,3.16,7.13,3.81,-2.64,-17.13
-4,24,720,-12,-410,4027,-0.76,0.99,48.92,-0.12,-4.10,40.27,-5.18,3.16,6.94,3.71,-2.84,-9.82
-13,13,693,-64,-297,3950,-0.76,0.97,48.26,-0.64,-2.97,39.50,-5.17,3.17,6.75,3.88,-2.62,-8.22
-3,21,554,-47,-336,3893,-0.70,1.00,46.81,-0.47,-3.36,38.93,-5.16,3.17,6.56,3.66,-2.79,2.04
-7,14,518,19,-270,3979,-0.68,0.98,45.29,0.19,-2.70,39.79,-5.15,3.17,6.38,3.72,-2.65,3.50
-5,18,469,-31,-535,3896,-0.64,1.00,43.62,-0.31,-5.35,38.96,-5.15,3.18,6.21,3.68,-2.73,5.90
-3,21,467,-109,-497,3944,-0.59,1.02,42.11,-1.09,-4.97,39.44,-5.16,3.19,6.04,3.63,-2.81,4.48
-10,18,527,-147,-579,4028,-0.59,1.03,41.11,-1.47,-5.79,40.28,-5.17,3.20,5.88,3.78,-2.76,-1.65
-6,10,566,-41,-473,3809,-0.57,0.99,40.45,-0.41,-4.73,38.09,-5.17,3.20,5.72,3.69,-2.59,-5.63
-1,12,646,-56,-462,3886,-0.52,0.96,40.35,-0.56,-4.62,38.86,-5.18,3.20,5.56,3.58,-2.62,-12.51
-33,33,657,-16,-533,3731,-0.67,1.07,40.32,-0.16,-5.33,37.31,-5.18,3.21,5.40,4.28,-3.08,-13.45
-9,18,681,-19,-371,3898,-0.66,1.07,40.44,-0.19,-3.71,38.98,-5.18,3.21,5.24,3.78,-2.78,-15.34
-2,23,683,-81,-429,3982,-0.60,1.10,40.57,-0.81,-4.29,39.82,-5.18,3.21,5.07,3.63,-2.89,-15.37
15,16,668,-132,-454,3976,-0.45,1.09,40.58,-1.32,-4.54,39.76,-5.19,3.22,4.91,3.24,-2.75,-14.06
-24,4,664,-26,-528,3795,-0.55,1.01,40.58,-0.26,-5.28,37.95,-5.19,3.23,4.75,4.07,-2.48,-13.72
-11,7,681,-46,-488,3950,-0.57,0.95,40.67,-0.46,-4.88,39.50,-5.20,3.23,4.59,3.81,-2.53,-15.04
-8,8,694,38,-455,3796,-0.56,0.90,40.84,0.38,-4.55,37.96,-5.20,3.23,4.43,3.74,-2.54,-15.95
2,2,690,61,-388,3861,-0.49,0.82,40.96,0.61,-3.88,38.61,-5.19,3.23,4.27,3.52,-2.40,-15.47
-9,12,682,-23,-382,3895,-0.50,0.82,41.03,-0.23,-3.82,38.95,-5.19,3.23,4.10,3.74,-2.60,-14.71
-2,13,582,-46,-298,4045,-0.46,0.81,40.47,-0.46,-2.98,40.45,-5.17,3.23,3.94,3.58,-2.62,-6.80
-3,1,544,-6,-269,3935,-0.43,0.74,39.75,-0.06,-2.69,39.35,-5.16,3.23,3.78,3.58,-2.35,-4.34
-14,-8,443,-21,-293,3913,-0.47,0.62,38.47,-0.21,-2.93,39.13,-5.15,3.23,3.63,3.81,-2.14,2.88
-14,-3,415,-12,-303,3842,-0.51,0.54,37.16,-0.12,-3.03,38.42,-5.14,3.23,3.48,3.81,-2.22,3.87
-7,6,316,-93,-359,3875,-0.50,0.52,35.37,-0.93,-3.59,38.75,-5.13,3.22,3.34,3.67,-2.39,10.38
-9,-2,286,-81,-381,3973,-0.51,0.45,33.58,-0.81,-3.81,39.73,-5.13,3.22,3.21,3.71,-2.21,11.04
-11,-9,246,-28,-491,3960,-0.52,0.35,31.72,-0.28,-4.91,39.60,-5.14,3.22,3.08,3.76,-2.04,12.47
0,0,246,-23,-521,3875,-0.47,0.32,30.05,-0.23,-5.21,38.75,-5.14,3.22,2.96,3.52,-2.21,10.71
-8,-1,269,-8,-526,3899,-0.47,0.28,28.68,-0.08,-5.26,38.99,-5.15,3.21,2.85,3.69,-2.18,7.33
0,0,280,19,-532,3947,-0.43,0.25,27.52,0.19,-5.32,39.47,-5.16,3.21,2.74,3.52,-2.19,5.18
4,13,272,-26,-438,3880,-0.36,0.31,26.43,-0.26,-4.38,38.80,-5.16,3.20,2.63,3.42,-2.46,4.71
-10,5,270,-54,-436,3950,-0.38,0.31,25.43,-0.54,-4.36,39.50,-5.16,3.20,2.53,3.72,-2.30,3.83
-3,3,249,-67,-376,3994,-0.36,0.29,24.41,-0.67,-3.76,39.94,-5.16,3.19,2.44,3.57,-2.25,4.53
-3,3,240,-72,-366,3890,-0.35,0.28,23.43,-0.72,-3.66,38.90,-5.16,3.18,2.34,3.56,-2.24,4.27
2,-2,184,-191,-326,3910,-0.30,0.24,22.21,-1.91,-3.26,39.10,-5.14,3.18,2.25,3.44,-2.12,7.73
-1,-3,173,-124,-389,3881,-0.28,0.20,21.05,-1.24,-3.89,38.81,-5.15,3.17,2.17,3.49,-2.08,7.43
-6,-3,230,15,-505,3872,-0.28,0.16,20.34,0.15,-5.05,38.72,-5.15,3.16,2.09,3.60,-2.07,1.87
-6,10,241,-17,-608,3957,-0.29,0.21,19.78,-0.17,-6.08,39.57,-5.16,3.16,2.01,3.61,-2.34,0.35
-8,4,285,-26,-576,3917,-0.31,0.21,19.54,-0.26,-5.76,39.17,-5.18,3.15,1.93,3.66,-2.22,-3.63
-4,13,312,-5,-650,3943,-0.31,0.27,19.49,-0.05,-6.50,39.43,-5.19,3.15,1.86,3.59,-2.42,-5.96
-9,13,401,16,-556,3841,-0.33,0.32,19.99,0.16,-5.56,38.41,-5.20,3.14,1.78,3.70,-2.43,-12.97
3,17,419,1,-557,3931,-0.28,0.39,20.54,0.01,-5.57,39.31,-5.21,3.14,1.70,3.45,-2.53,-13.90
-10,16,473,-54,-556,3923,-0.31,0.45,21.38,-0.54,-5.56,39.23,-5.22,3.14,1.61,3.73,-2.52,-17.58
-8,6,486,35,-480,4008,-0.33,0.44,22.20,0.35,-4.80,40.08,-5.22,3.13,1.52,3.70,-2.31,-17.80
-19,2,538,56,-580,3926,-0.41,0.41,23.26,0.56,-5.80,39.26,-5.23,3.13,1.43,3.95,-2.22,-20.00
-10,7,567,13,-577,3919,-0.43,0.41,24.40,0.13,-5.77,39.19,-5.24,3.12,1.34,3.78,-2.32,-20.00
-13,9,621,10,-581,3877,-0.47,0.43,25.74,0.10,-5.81,38.77,-5.25,3.12,1.23,3.85,-2.36,-20.00
-20,8,636,-60,-510,3921,-0.54,0.43,27.05,-0.60,-5.10,39.21,-5.26,3.12,1.13,4.02,-2.34,-20.00
8,17,680,-40,-543,3863,-0.44,0.49,28.49,-0.40,-5.43,38.63,-5.26,3.12,1.01,3.43,-2.54,-20.00
-17,12,682,-11,-558,3934,-0.50,0.52,29.80,-0.11,-5.58,39.34,-5.27,3.12,0.90,3.96,-2.44,-20.00
3,22,721,-18,-404,3926,-0.43,0.60,31.22,-0.18,-4.04,39.26,-5.27,3.12,0.77,3.54,-2.67,-20.00
-17,6,722,24,-519,3926,-0.49,0.58,32.50,0.24,-5.19,39.26,-5.28,3.12,0.64,3.96,-2.34,-20.00
-18,6,757,-40,-535,3946,-0.55,0.55,33.87,-0.40,-5.35,39.46,-5.28,3.12,0.51,4.00,-2.33,-20.00
-11,9,761,-73,-550,3856,-0.56,0.55,35.13,-0.73,-5.50,38.56,-5.29,3.12,0.37,3.87,-2.39,-20.00
-9,23,789,-150,-493,3854,-0.56,0.64,36.43,-1.50,-4.93,38.54,-5.30,3.13,0.23,3.84,-2.71,-20.00
-20,6,798,-251,-416,3865,-0.63,0.61,37.65,-2.51,-4.16,38.65,-5.31,3.16,0.08,4.09,-2.37,-20.00
-1,29,814,-136,-488,3899,-0.57,0.73,38.85,-1.36,-4.88,38.99,-5.32,3.16,-0.08,3.69,-2.88,-20.00
-12,30,835,-115,-504,3851,-0.59,0.84,40.06,-1.15,-5.04,38.51,-5.33,3.17,-0.24,3.92,-2.93,-20.00
-7,20,868,21,-573,3884,-0.57,0.88,41.35,0.21,-5.73,38.84,-5.34,3.18,-0.40,3.82,-2.74,-20.00
-11,17,862,89,-588,3824,-0.58,0.89,42.47,0.89,-5.88,38.24,-5.34,3.18,-0.57,3.91,-2.69,-20.00
-23,17,801,240,-473,3846,-0.66,0.91,43.11,2.40,-4.73,38.46,-5.34,3.18,-0.74,4.17,-2.69,-20.00
2,18,765,228,-453,4010,-0.59,0.93,43.47,2.28,-4.53,40.10,-5.33,3.19,-0.91,3.64,-2.72,-18.70
-27,-3,647,223,-481,3914,-0.69,0.81,43.07,2.23,-4.81,39.14,-5.33,3.19,-1.08,4.26,-2.26,-9.12
-11,11,629,159,-402,3878,-0.69,0.80,42.60,1.59,-4.02,38.78,-5.33,3.19,-1.25,3.93,-2.55,-8.07
-1,20,564,-48,-431,3811,-0.63,0.84,41.78,-0.48,-4.31,38.11,-5.33,3.19,-1.42,3.71,-2.74,-3.42
2,16,545,-145,-310,4024,-0.55,0.86,40.92,-1.45,-3.10,40.24,-5.31,3.19,-1.58,3.61,-2.67,-2.70
-5,16,484,-162,-312,3956,-0.53,0.87,39.78,-1.62,-3.12,39.56,-5.29,3.20,-1.74,3.74,-2.67,1.28
-7,13,464,-193,-297,3889,-0.52,0.86,38.64,-1.93,-2.97,38.89,-5.27,3.21,-1.90,3.76,-2.62,1.77
-12,11,390,-61,-221,3882,-0.54,0.84,37.15,-0.61,-2.21,38.82,-5.25,3.21,-2.05,3.86,-2.57,6.48
1,20,366,-68,-263,3851,-0.48,0.88,35.67,-0.68,-2.63,38.51,-5.23,3.21,-2.19,3.56,-2.77,6.96
-3,7,273,15,-425,3887,-0.45,0.83,33.77,0.15,-4.25,38.87,-5.23,3.21,-2.32,3.64,-2.49,12.84
3,4,254,32,-432,3906,-0.39,0.78,31.94,0.32,-4.32,39.06,-5.23,3.21,-2.45,3.50,-2.41,12.52
-4,3,260,12,-491,3952,-0.37,0.72,30.33,0.12,-4.91,39.52,-5.24,3.21,-2.57,3.64,-2.37,10.32
-4,3,264,30,-487,3861,-0.36,0.66,28.91,0.30,-4.87,38.61,-5.24,3.20,-2.68,3.64,-2.36,8.49
-9,-1,266,87,-542,3916,-0.38,0.59,27.64,0.87,-5.42,39.16,-5.24,3.20,-2.79,3.75,-2.25,6.98
-2,5,253,117,-504,3948,-0.35,0.56,26.42,1.17,-5.04,39.48,-5.25,3.20,-2.90,3.60,-2.36,6.80
-3,17,288,31,-646,3942,-0.34,0.61,25.53,0.31,-6.46,39.42,-5.26,3.20,-3.00,3.62,-2.62,2.91
-1,15,313,26,-634,3929,-0.31,0.64,24.89,0.26,-6.34,39.29,-5.27,3.19,-3.10,3.58,-2.59,0.12
6,16,389,-98,-551,3914,-0.24,0.67,24.77,-0.98,-5.51,39.14,-5.28,3.20,-3.20,3.43,-2.62,-6.44
-8,11,397,-100,-486,3872,-0.27,0.67,24.72,-1.00,-4.86,38.72,-5.29,3.20,-3.29,3.72,-2.52,-7.16
-12,16,390,-58,-373,3840,-0.31,0.70,24.63,-0.58,-3.73,38.40,-5.28,3.19,-3.39,3.82,-2.62,-6.66
-2,21,374,-94,-306,3900,-0.29,0.76,24.44,-0.94,-3.06,39.00,-5.27,3.19,-3.49,3.60,-2.74,-5.49
-1,22,340,-23,-518,3956,-0.27,0.82,24.07,-0.23,-5.18,39.56,-5.28,3.18,-3.58,3.58,-2.77,-2.99
-5,6,351,50,-575,3979,-0.27,0.77,23.81,0.50,-5.75,39.79,-5.29,3.18,-3.68,3.67,-2.43,-4.20
-12,3,388,50,-532,3821,-0.32,0.71,23.79,0.50,-5.32,38.21,-5.29,3.18,-3.77,3.82,-2.35,-7.34
-14,2,383,8,-496,4040,-0.37,0.66,23.75,0.08,-4.96,40.40,-5.30,3.17,-3.87,3.88,-2.31,-6.95
5,10,408,-55,-510,3948,-0.30,0.65,23.86,-0.55,-5.10,39.48,-5.31,3.17,-3.96,3.48,-2.47,-8.94
-8,-3,419,-79,-546,3831,-0.32,0.57,24.03,-0.79,-5.46,38.31,-5.32,3.17,-4.05,3.76,-2.19,-9.68
0,2,472,28,-494,3835,-0.29,0.52,24.51,0.28,-4.94,38.35,-5.32,3.16,-4.15,3.59,-2.27,-13.66
-8,-1,484,32,-509,3976,-0.31,0.46,25.01,0.32,-5.09,39.76,-5.33,3.16,-4.25,3.76,-2.19,-14.14
-18,6,563,31,-691,3963,-0.39,0.45,25.94,0.31,-6.91,39.63,-5.34,3.16,-4.35,3.99,-2.33,-19.83
-13,1,588,27,-630,3972,-0.43,0.42,26.94,0.27,-6.30,39.72,-5.34,3.16,-4.46,3.91,-2.22,-20.00
0,11,703,-105,-588,3918,-0.39,0.44,28.53,-1.05,-5.88,39.18,-5.36,3.16,-4.57,3.64,-2.43,-20.00
5,12,726,-117,-582,3895,-0.32,0.47,30.11,-1.17,-5.82,38.95,-5.37,3.17,-4.69,3.53,-2.46,-20.00
-11,7,730,48,-424,3998,-0.35,0.47,31.55,0.48,-4.24,39.98,-5.37,3.16,-4.82,3.86,-2.36,-20.00
3,16,692,93,-420,3837,-0.30,0.52,32.62,0.93,-4.20,38.37,-5.36,3.16,-4.95,3.56,-2.55,-20.00
-18,9,636,93,-467,3894,-0.38,0.52,33.23,0.93,-4.67,38.94,-5.36,3.16,-5.08,4.01,-2.41,-18.24
-25,5,615,103,-460,3848,-0.49,0.50,33.66,1.03,-4.60,38.48,-5.36,3.15,-5.21,4.18,-2.32,-15.99
-19,8,586,-36,-469,3896,-0.56,0.50,33.87,-0.36,-4.69,38.96,-5.37,3.15,-5.35,4.08,-2.38,-13.30
-13,13,567,-16,-410,3946,-0.58,0.53,33.94,-0.16,-4.10,39.46,-5.37,3.15,-5.48,3.96,-2.49,-11.60
-8,-4,454,-61,-242,3914,-0.57,0.45,33.32,-0.61,-2.42,39.14,-5.35,3.15,-5.62,3.85,-2.12,-2.68
-15,9,422,-78,-246,3758,-0.61,0.46,32.56,-0.78,-2.46,37.58,-5.33,3.15,-5.75,3.99,-2.39,-0.76
-12,8,320,-93,-294,3822,-0.62,0.46,31.26,-0.93,-2.94,38.22,-5.32,3.15,-5.87,3.92,-2.37,6.51
-6,4,296,-103,-349,4000,-0.60,0.44,29.94,-1.03,-3.49,40.00,-5.31,3.14,-5.99,3.79,-2.28,7.16
-2,2,240,-21,-386,4039,-0.55,0.41,28.41,-0.21,-3.86,40.39,-5.31,3.14,-6.10,3.69,-2.22,10.29
-3,8,225,12,-394,3840,-0.51,0.42,26.94,0.12,-3.94,38.40,-5.31,3.13,-6.21,3.70,-2.34,10.02
1,6,195,27,-478,3968,-0.45,0.41,25.43,0.27,-4.78,39.68,-5.31,3.12,-6.31,3.61,-2.30,10.98
0,0,197,15,-483,3945,-0.41,0.37,24.09,0.15,-4.83,39.45,-5.32,3.12,-6.41,3.62,-2.16,9.40
-11,-6,214,-5,-465,3891,-0.43,0.30,22.99,-0.05,-4.65,38.91,-5.32,3.11,-6.50,3.85,-2.01,6.80
-1,5,212,-2,-457,3870,-0.40,0.30,21.98,-0.02,-4.57,38.70,-5.33,3.10,-6.58,3.64,-2.23,5.91
-5,0,216,72,-510,3919,-0.39,0.27,21.10,0.72,-5.10,39.19,-5.33,3.10,-6.67,3.73,-2.12,4.64
-4,1,225,71,-563,3955,-0.37,0.25,20.36,0.71,-5.63,39.55,-5.34,3.09,-6.75,3.71,-2.13,3.11
-2,11,284,62,-608,3885,-0.35,0.29,20.06,0.62,-6.08,38.85,-5.35,3.08,-6.83,3.67,-2.34,-2.21
0,6,307,60,-632,3945,-0.31,0.30,19.93,0.60,-6.32,39.45,-5.36,3.08,-6.91,3.62,-2.24,-4.29
5,11,378,-47,-477,4017,-0.25,0.33,20.24,-0.47,-4.77,40.17,-5.36,3.07,-6.99,3.51,-2.34,-9.96
4,29,385,-100,-380,3870,-0.20,0.48,20.56,-1.00,-3.80,38.70,-5.36,3.06,-7.07,3.51,-2.74,-10.21
12,34,292,-131,-309,3970,-0.11,0.64,20.29,-1.31,-3.09,39.70,-5.35,3.06,-7.15,3.31,-2.88,-2.61
10,25,258,-122,-337,4003,-0.04,0.73,19.83,-1.22,-3.37,40.03,-5.34,3.05,-7.23,3.33,-2.72,-0.21
18,32,207,37,-458,3923,0.08,0.85,19.11,0.37,-4.58,39.23,-5.34,3.05,-7.30,3.14,-2.89,3.36
11,27,210,84,-493,3914,0.14,0.93,18.48,0.84,-4.93,39.14,-5.34,3.04,-7.38,3.26,-2.81,2.44
7,21,254,140,-593,3865,0.17,0.96,18.18,1.40,-5.93,38.65,-5.35,3.04,-7.45,3.34,-2.69,-1.59
12,26,258,147,-534,3889,0.22,1.03,17.94,1.47,-5.34,38.89,-5.35,3.03,-7.52,3.23,-2.81,-2.19
5,20,263,-23,-455,3911,0.23,1.05,17.75,-0.23,-4.55,39.11,-5.35,3.02,-7.59,3.37,-2.69,-2.80
7,24,255,-84,-429,3913,0.25,1.09,17.53,-0.84,-4.29,39.13,-5.36,3.02,-7.66,3.33,-2.78,-2.35
3,13,266,-132,-486,3945,0.24,1.06,17.40,-1.32,-4.86,39.45,-5.37,3.02,-7.73,3.42,-2.55,-3.42
-6,2,269,-106,-429,3891,0.18,0.96,17.30,-1.06,-4.29,38.91,-5.37,3.01,-7.80,3.62,-2.29,-3.77
-5,6,262,-8,-468,3855,0.13,0.90,17.17,-0.08,-4.68,38.55,-5.38,3.01,-7.86,3.61,-2.35,-3.31
-2,12,263,5,-524,3920,0.11,0.89,17.06,0.05,-5.24,39.20,-5.38,3.00,-7.93,3.57,-2.47,-3.51
1,13,260,-10,-436,4094,0.10,0.88,16.94,-0.10,-4.36,40.94,-5.38,3.00,-8.00,3.51,-2.48,-3.37
2,-4,244,12,-413,3917,0.11,0.77,16.73,0.12,-4.13,39.17,-5.38,2.99,-8.06,3.48,-2.10,-2.23
6,9,236,-24,-454,3867,0.13,0.74,16.50,-0.24,-4.54,38.67,-5.39,2.98,-8.13,3.40,-2.35,-1.79
-14,2,239,-2,-428,3869,0.03,0.68,16.31,-0.02,-4.28,38.69,-5.39,2.97,-8.19,3.83,-2.19,-2.24
3,5,210,21,-403,3909,0.05,0.64,15.96,0.21,-4.03,39.09,-5.39,2.96,-8.26,3.48,-2.23,-0.15
-2,4,203,19,-433,3927,0.03,0.60,15.60,0.19,-4.33,39.27,-5.39,2.95,-8.32,3.59,-2.19,0.07
0,6,207,-49,-437,3963,0.03,0.58,15.30,-0.49,-4.37,39.63,-5.40,2.94,-8.38,3.55,-2.22,-0.58
-1,2,200,-22,-477,3872,0.02,0.53,14.99,-0.22,-4.77,38.72,-5.40,2.93,-8.44,3.58,-2.12,-0.31
0,4,197,26,-466,3882,0.02,0.51,14.69,0.26,-4.66,38.82,-5.41,2.93,-8.50,3.56,-2.15,-0.37
-2,5,200,23,-464,3905,0.00,0.49,14.44,0.23,-4.64,39.05,-5.41,2.92,-8.55,3.61,-2.16,-0.88
3,7,186,-5,-404,3850,0.02,0.48,14.13,-0.05,-4.04,38.50,-5.41,2.91,-8.61,3.50,-2.19,-0.02
-3,2,179,11,-427,3935,0.00,0.44,13.81,0.11,-4.27,39.35,-5.41,2.89,-8.66,3.63,-2.07,0.24
-4,-2,144,-30,-381,3923,-0.02,0.39,13.31,-0.30,-3.81,39.23,-5.41,2.88,-8.72,3.66,-1.97,2.68
1,0,132,-49,-416,3921,-0.02,0.35,12.78,-0.49,-4.16,39.21,-5.41,2.87,-8.77,3.56,-1.99,3.14
-9,-7,114,-52,-413,3953,-0.07,0.27,12.20,-0.52,-4.13,39.53,-5.42,2.86,-8.82,3.78,-1.82,4.06
-1,-3,99,-54,-374,3837,-0.07,0.23,11.59,-0.54,-3.74,38.37,-5.42,2.85,-8.86,3.61,-1.88,4.68
4,3,32,21,-420,3883,-0.04,0.22,10.62,0.21,-4.20,38.83,-5.42,2.83,-8.90,3.50,-1.99,9.34
-1,2,26,6,-445,3895,-0.04,0.21,9.72,0.06,-4.45,38.95,-5.42,2.82,-8.94,3.61,-1.96,8.89
1,0,17,3,-448,3922,-0.03,0.19,8.85,0.03,-4.48,39.22,-5.43,2.81,-8.98,3.57,-1.91,8.74
1,-1,16,10,-458,3924,-0.02,0.17,8.06,0.10,-4.58,39.24,-5.43,2.79,-9.01,3.57,-1.87,7.99
1,-2,9,16,-458,3899,-0.01,0.14,7.31,0.16,-4.58,38.99,-5.44,2.78,-9.04,3.57,-1.83,7.79
2,-1,8,14,-468,3900,0.00,0.12,6.63,0.14,-4.68,39.00,-5.45,2.77,-9.06,3.55,-1.84,7.16
1,-1,14,-16,-491,3899,0.01,0.10,6.05,-0.16,-4.91,38.99,-5.45,2.75,-9.09,3.58,-1.82,6.04
0,0,19,-19,-484,3897,0.01,0.09,5.56,-0.19,-4.84,38.97,-5.46,2.74,-9.11,3.60,-1.83,5.10
3,9,27,-4,-474,3900,0.02,0.13,5.17,-0.04,-4.74,39.00,-5.47,2.73,-9.13,3.54,-2.02,4.01
3,12,27,8,-472,3905,0.04,0.19,4.82,0.08,-4.72,39.05,-5.48,2.71,-9.15,3.54,-2.09,3.64
8,12,22,-26,-408,3974,0.08,0.25,4.47,-0.26,-4.08,39.74,-5.48,2.70,-9.16,3.43,-2.09,3.69
1,-2,13,31,-463,3919,0.08,0.21,4.10,0.31,-4.63,39.19,-5.49,2.68,-9.18,3.58,-1.79,4.07
-10,-13,13,-13,-510,3881,0.01,0.11,3.77,-0.13,-5.10,38.81,-5.50,2.67,-9.20,3.83,-1.53,3.72
-3,-10,25,-49,-558,3823,-0.01,0.04,3.55,-0.49,-5.58,38.23,-5.51,2.66,-9.21,3.70,-1.57,2.47
-17,-11,101,-35,-563,3924,-0.11,-0.03,3.81,-0.35,-5.63,39.24,-5.53,2.65,-9.22,4.02,-1.52,-3.69
-18,-21,124,57,-573,3955,-0.21,-0.16,4.18,0.57,-5.73,39.55,-5.54,2.64,-9.24,4.08,-1.27,-5.24
-1,-16,146,88,-470,3839,-0.19,-0.24,4.66,0.88,-4.70,38.39,-5.54,2.62,-9.26,3.73,-1.34,-6.61
-10,-22,153,152,-494,3874,-0.24,-0.35,5.12,1.52,-4.94,38.74,-5.55,2.61,-9.28,3.93,-1.18,-6.70
0,-16,208,163,-583,3915,-0.21,-0.41,5.88,1.63,-5.83,39.15,-5.56,2.59,-9.30,3.73,-1.27,-10.56
9,0,224,103,-615,3848,-0.14,-0.37,6.66,1.03,-6.15,38.48,-5.57,2.58,-9.33,3.53,-1.60,-11.09
0,-1,264,16,-507,3894,-0.12,-0.34,7.60,0.16,-5.07,38.94,-5.58,2.57,-9.36,3.72,-1.58,-13.47
3,5,261,-26,-465,3988,-0.09,-0.28,8.44,-0.26,-4.65,39.88,-5.59,2.55,-9.39,3.65,-1.71,-12.34
-3,-1,230,-116,-347,3982,-0.10,-0.25,8.99,-1.16,-3.47,39.82,-5.57,2.54,-9.43,3.77,-1.59,-9.11
-3,-4,213,-133,-377,3897,-0.11,-0.25,9.39,-1.33,-3.77,38.97,-5.57,2.52,-9.46,3.77,-1.51,-7.25
-5,-6,133,-71,-296,3911,-0.13,-0.26,9.27,-0.71,-2.96,39.11,-5.56,2.51,-9.50,3.81,-1.46,-0.60
-4,-4,106,-46,-305,3899,-0.14,-0.26,8.99,-0.46,-3.05,38.99,-5.55,2.50,-9.54,3.78,-1.50,1.39
-3,-1,33,-13,-372,3924,-0.14,-0.24,8.29,-0.13,-3.72,39.24,-5.55,2.48,-9.57,3.76,-1.55,6.84
-1,-2,19,19,-401,3915,-0.14,-0.23,7.58,0.19,-4.01,39.15,-5.55,2.47,-9.60,3.72,-1.52,7.28
-2,-6,10,17,-507,3954,-0.13,-0.24,6.88,0.17,-5.07,39.54,-5.56,2.45,-9.63,3.74,-1.43,7.30
-3,-10,14,21,-516,3914,-0.14,-0.28,6.28,0.21,-5.16,39.14,-5.57,2.44,-9.65,3.77,-1.33,6.33
-11,-19,34,13,-457,3887,-0.19,-0.37,5.86,0.13,-4.57,38.87,-5.57,2.42,-9.68,3.96,-1.11,4.19
-7,-16,25,-28,-392,3877,-0.22,-0.43,5.42,-0.28,-3.92,38.77,-5.58,2.40,-9.70,3.88,-1.14,4.50
0,-8,0,18,-464,3883,-0.19,-0.43,4.88,0.18,-4.64,38.83,-5.58,2.39,-9.72,3.74,-1.29,6.04
-2,-8,2,-2,-468,3904,-0.19,-0.44,4.41,-0.02,-4.68,39.04,-5.59,2.37,-9.74,3.78,-1.28,5.37
-3,-6,2,10,-464,3894,-0.19,-0.43,3.98,0.10,-4.64,38.94,-5.60,2.36,-9.75,3.81,-1.31,4.92
-2,-4,1,11,-470,3889,-0.18,-0.41,3.59,0.11,-4.70,38.89,-5.61,2.34,-9.76,3.79,-1.35,4.59
0,2,1,10,-473,3895,-0.16,-0.36,3.23,0.10,-4.73,38.95,-5.62,2.32,-9.78,3.75,-1.48,4.22
0,4,2,18,-475,3899,-0.15,-0.30,2.92,0.18,-4.75,38.99,-5.63,2.31,-9.79,3.75,-1.52,3.81
7,8,3,4,-499,3878,-0.09,-0.22,2.65,0.04,-4.99,38.78,-5.64,2.29,-9.80,3.60,-1.61,3.43
2,6,6,13,-485,3903,-0.07,-0.16,2.42,0.13,-4.85,39.03,-5.65,2.28,-9.81,3.70,-1.58,2.94
5,9,7,12,-474,3891,-0.03,-0.09,2.22,0.12,-4.74,38.91,-5.65,2.26,-9.82,3.64,-1.65,2.64
6,11,7,1,-473,3897,0.01,-0.01,2.04,0.01,-4.73,38.97,-5.66,2.24,-9.82,3.61,-1.70,2.45
8,12,2,16,-450,3919,0.06,0.06,1.85,0.16,-4.50,39.19,-5.67,2.23,-9.83,3.56,-1.73,2.67
10,10,-2,-5,-402,3945,0.11,0.11,1.65,-0.05,-4.02,39.45,-5.67,2.21,-9.84,3.51,-1.69,2.80
8,6,-43,-72,-341,3923,0.15,0.14,1.22,-0.72,-3.41,39.23,-5.66,2.20,-9.84,3.53,-1.61,5.83
7,-2,-61,-82,-334,3875,0.18,0.11,0.73,-0.82,-3.34,38.75,-5.65,2.18,-9.85,3.54,-1.43,6.83
6,9,-105,19,-426,3844,0.20,0.16,0.02,0.19,-4.26,38.44,-5.65,2.17,-9.85,3.55,-1.66,9.80
7,7,-101,45,-520,3949,0.22,0.18,-0.60,0.45,-5.20,39.49,-5.66,2.15,-9.84,3.53,-1.61,8.81
-2,-5,-43,55,-541,3954,0.19,0.14,-0.80,0.55,-5.41,39.54,-5.67,2.14,-9.84,3.73,-1.35,3.68
-4,-11,-36,34,-491,3948,0.14,0.05,-0.94,0.34,-4.91,39.48,-5.68,2.12,-9.84,3.79,-1.19,2.94
-2,-5,-81,-37,-354,3895,0.12,0.02,-1.34,-0.37,-3.54,38.95,-5.67,2.10,-9.83,3.75,-1.29,6.33
5,4,-113,-54,-367,3903,0.13,0.04,-1.90,-0.54,-3.67,39.03,-5.67,2.08,-9.82,3.60,-1.47,8.45
4,5,-141,5,-463,3927,0.15,0.07,-2.57,0.05,-4.63,39.27,-5.68,2.07,-9.81,3.63,-1.48,10.11
2,2,-139,11,-499,3928,0.14,0.07,-3.16,0.11,-4.99,39.28,-5.69,2.05,-9.80,3.67,-1.41,9.31
-2,-6,-88,56,-537,3902,0.12,0.03,-3.38,0.56,-5.37,39.02,-5.70,2.03,-9.79,3.77,-1.23,4.76
-3,-6,-80,48,-490,3883,0.09,-0.01,-3.53,0.48,-4.90,38.83,-5.71,2.02,-9.77,3.80,-1.21,3.92
0,-9,-79,4,-466,3929,0.08,-0.06,-3.66,0.04,-4.66,39.29,-5.72,2.00,-9.76,3.75,-1.12,3.70
-1,-9,-80,-9,-456,3907,0.06,-0.11,-3.78,-0.09,-4.56,39.07,-5.72,1.98,-9.74,3.78,-1.09,3.65
-1,1,-94,-32,-410,3884,0.05,-0.10,-3.98,-0.32,-4.10,38.84,-5.73,1.96,-9.73,3.79,-1.29,4.63
3,5,-103,-53,-415,3901,0.06,-0.06,-4.21,-0.53,-4.15,39.01,-5.73,1.94,-9.71,3.71,-1.37,5.15
9,10,-128,-35,-420,3926,0.11,0.01,-4.57,-0.35,-4.20,39.26,-5.74,1.92,-9.69,3.57,-1.47,6.88
8,8,-134,-8,-448,3891,0.15,0.06,-4.93,-0.08,-4.48,38.91,-5.75,1.90,-9.67,3.59,-1.43,7.01
4,1,-116,35,-536,3880,0.16,0.06,-5.14,0.35,-5.36,38.80,-5.76,1.89,-9.65,3.68,-1.28,5.25
3,4,-101,57,-538,3903,0.16,0.08,-5.24,0.57,-5.38,39.03,-5.77,1.87,-9.63,3.70,-1.34,3.87
-4,-9,-40,35,-571,3919,0.12,0.01,-4.96,0.35,-5.71,39.19,-5.78,1.86,-9.61,3.86,-1.05,-1.00
-9,-13,-21,8,-547,3912,0.05,-0.07,-4.60,0.08,-5.47,39.12,-5.80,1.84,-9.59,3.99,-0.93,-2.22
-15,-21,0,-39,-427,3922,-0.04,-0.19,-4.14,-0.39,-4.27,39.22,-5.80,1.82,-9.57,4.15,-0.72,-3.52
-16,-24,-1,-34,-450,3908,-0.14,-0.32,-3.73,-0.34,-4.50,39.08,-5.81,1.80,-9.56,4.20,-0.62,-3.00
-24,-40,18,-4,-493,3924,-0.27,-0.53,-3.25,-0.04,-4.93,39.24,-5.83,1.79,-9.54,4.41,-0.22,-4.10
-24,-40,20,5,-500,3924,-0.39,-0.72,-2.80,0.05,-5.00,39.24,-5.84,1.77,-9.53,4.45,-0.16,-3.80
-12,-18,23,13,-473,3891,-0.42,-0.76,-2.38,0.13,-4.73,38.91,-5.85,1.75,-9.52,4.22,-0.58,-3.61
-9,-14,19,39,-490,3884,-0.44,-0.77,-2.03,0.39,-4.90,38.84,-5.86,1.73,-9.52,4.17,-0.65,-2.90
-2,2,20,26,-469,3866,-0.40,-0.68,-1.70,0.26,-4.69,38.66,-5.87,1.71,-9.51,4.03,-0.98,-2.64
5,10,17,19,-470,3879,-0.33,-0.55,-1.43,0.19,-4.70,38.79,-5.88,1.69,-9.50,3.87,-1.17,-2.10
11,28,21,56,-475,3862,-0.23,-0.32,-1.16,0.56,-4.75,38.62,-5.89,1.67,-9.50,3.73,-1.58,-2.15
16,32,22,79,-501,3919,-0.11,-0.10,-0.91,0.79,-5.01,39.19,-5.90,1.65,-9.50,3.60,-1.72,-1.97
18,26,42,69,-502,3876,0.01,0.07,-0.56,0.69,-5.02,38.76,-5.91,1.64,-9.49,3.53,-1.63,-3.30
17,27,51,82,-524,3883,0.11,0.23,-0.19,0.82,-5.24,38.83,-5.92,1.62,-9.49,3.53,-1.68,-3.67
15,26,78,-35,-477,3911,0.19,0.37,0.30,-0.35,-4.77,39.11,-5.93,1.61,-9.49,3.56,-1.69,-5.43
19,29,77,-62,-445,3935,0.29,0.51,0.74,-0.62,-4.45,39.35,-5.94,1.60,-9.49,3.45,-1.78,-4.88
18,27,52,-49,-440,3920,0.37,0.62,0.99,-0.49,-4.40,39.20,-5.94,1.58,-9.50,3.46,-1.76,-2.51
15,24,44,-26,-447,3925,0.42,0.70,1.15,-0.26,-4.47,39.25,-5.95,1.57,-9.50,3.51,-1.72,-1.65
4,7,47,47,-492,3926,0.41,0.68,1.33,0.47,-4.92,39.26,-5.96,1.56,-9.51,3.74,-1.36,-1.72
2,5,53,58,-489,3913,0.38,0.64,1.52,0.58,-4.89,39.13,-5.96,1.55,-9.51,3.79,-1.30,-2.03
-1,-3,61,-9,-440,3895,0.33,0.56,1.74,-0.09,-4.40,38.95,-5.97,1.53,-9.52,3.87,-1.10,-2.47
-2,-4,56,-33,-412,3907,0.29,0.48,1.91,-0.33,-4.12,39.07,-5.97,1.52,-9.53,3.90,-1.05,-1.87
-1,-7,22,-67,-390,3918,0.25,0.39,1.85,-0.67,-3.90,39.18,-5.96,1.50,-9.53,3.88,-0.95,0.95
0,-5,12,-32,-415,3907,0.23,0.32,1.74,-0.32,-4.15,39.07,-5.96,1.49,-9.54,3.87,-0.97,1.68
-2,-8,7,-16,-454,3900,0.19,0.24,1.61,-0.16,-4.54,39.00,-5.97,1.47,-9.55,3.93,-0.87,1.97
-2,-9,7,-5,-440,3900,0.16,0.16,1.49,-0.05,-4.40,39.00,-5.97,1.45,-9.55,3.94,-0.82,1.84
-2,-6,5,-2,-469,3911,0.13,0.11,1.37,-0.02,-4.69,39.11,-5.98,1.44,-9.56,3.95,-0.86,1.89
-3,-3,4,-2,-461,3913,0.10,0.08,1.26,-0.02,-4.61,39.13,-5.99,1.42,-9.56,3.99,-0.90,1.85
-3,0,5,15,-470,3922,0.07,0.07,1.16,0.15,-4.70,39.22,-6.00,1.41,-9.57,4.00,-0.95,1.67
-1,-2,5,10,-466,3895,0.06,0.05,1.08,0.10,-4.66,38.95,-6.00,1.39,-9.57,3.97,-0.89,1.58
-7,-3,-1,26,-438,3994,0.01,0.03,0.96,0.26,-4.38,39.94,-6.01,1.38,-9.57,4.10,-0.85,1.97
-3,-8,-6,25,-438,3873,-0.01,-0.02,0.83,0.25,-4.38,38.73,-6.01,1.36,-9.58,4.03,-0.73,2.25
-5,-5,0,-21,-490,3896,-0.04,-0.05,0.75,-0.21,-4.90,38.96,-6.03,1.35,-9.58,4.09,-0.77,1.65
-5,-4,1,-27,-465,3909,-0.06,-0.07,0.68,-0.27,-4.65,39.09,-6.04,1.33,-9.58,4.10,-0.78,1.50
-3,-7,0,-26,-485,3950,-0.08,-0.11,0.61,-0.26,-4.85,39.50,-6.05,1.32,-9.59,4.08,-0.70,1.51
-9,-14,5,-29,-481,3912,-0.12,-0.18,0.58,-0.29,-4.81,39.12,-6.06,1.31,-9.59,4.22,-0.53,1.05
-8,-14,8,30,-437,3885,-0.16,-0.25,0.57,0.30,-4.37,38.85,-6.07,1.29,-9.59,4.21,-0.50,0.79
-3,-11,1,9,-453,3887,-0.16,-0.29,0.52,0.09,-4.53,38.87,-6.08,1.27,-9.59,4.12,-0.53,1.33
-3,-7,-2,-4,-461,3911,-0.16,-0.30,0.46,-0.04,-4.61,39.11,-6.09,1.25,-9.59,4.12,-0.60,1.52
-2,-10,-2,1,-482,3922,-0.16,-0.34,0.40,0.01,-4.82,39.22,-6.10,1.24,-9.59,4.11,-0.52,1.45
-5,-10,4,4,-459,3892,-0.17,-0.36,0.38,0.04,-4.59,38.92,-6.11,1.22,-9.60,4.18,-0.50,0.93
-2,-7,2,12,-459,3893,-0.17,-0.37,0.36,0.12,-4.59,38.93,-6.11,1.20,-9.60,4.12,-0.55,1.07
-1,-4,2,8,-469,3907,-0.16,-0.36,0.33,0.08,-4.69,39.07,-6.12,1.18,-9.60,4.10,-0.60,1.05
-1,-2,2,8,-469,3906,-0.15,-0.33,0.31,0.08,-4.69,39.06,-6.13,1.17,-9.60,4.11,-0.64,1.02
1,1,0,5,-465,3896,-0.13,-0.29,0.28,0.05,-4.65,38.96,-6.14,1.15,-9.60,4.07,-0.70,1.16
0,2,0,6,-463,3897,-0.12,-0.25,0.25,0.06,-4.63,38.97,-6.15,1.13,-9.60,4.09,-0.72,1.13
1,5,-2,-2,-465,3909,-0.10,-0.20,0.22,-0.02,-4.65,39.09,-6.16,1.11,-9.60,4.07,-0.78,1.26
0,5,-1,2,-470,3900,-0.09,-0.15,0.19,0.02,-4.70,39.00,-6.17,1.10,-9.60,4.10,-0.79,1.15
3,6,-1,8,-465,3908,-0.06,-0.10,0.16,0.08,-4.65,39.08,-6.18,1.08,-9.60,4.03,-0.81,1.12
7,9,-1,23,-490,3919,-0.01,-0.03,0.14,0.23,-4.90,39.19,-6.19,1.07,-9.60,3.95,-0.88,1.10
7,11,4,-7,-452,3903,0.03,0.04,0.15,-0.07,-4.52,39.03,-6.20,1.05,-9.60,3.94,-0.93,0.69
11,10,1,-17,-462,3851,0.10,0.10,0.14,-0.17,-4.62,38.51,-6.21,1.04,-9.61,3.85,-0.91,0.93
10,10,-7,0,-425,3916,0.15,0.15,0.08,0.00,-4.25,39.16,-6.21,1.02,-9.61,3.85,-0.92,1.55
11,8,-12,-3,-446,3910,0.20,0.18,0.00,-0.03,-4.46,39.10,-6.21,1.00,-9.61,3.82,-0.87,1.88
4,4,-4,-17,-485,3898,0.20,0.19,-0.02,-0.17,-4.85,38.98,-6.22,0.99,-9.60,3.97,-0.79,1.18
2,7,1,-1,-496,3890,0.20,0.21,-0.01,-0.01,-4.96,38.90,-6.24,0.98,-9.60,4.02,-0.85,0.77
15,29,14,11,-505,3835,0.27,0.37,0.07,0.11,-5.05,38.35,-6.25,0.97,-9.60,3.75,-1.33,-0.24
17,36,24,8,-504,3922,0.34,0.55,0.21,0.08,-5.04,39.22,-6.26,0.96,-9.60,3.69,-1.51,-0.94
12,22,16,-26,-395,3989,0.38,0.63,0.29,-0.26,-3.95,39.89,-6.25,0.95,-9.61,3.77,-1.24,-0.19
11,10,2,-39,-381,3965,0.41,0.63,0.27,-0.39,-3.81,39.65,-6.23,0.94,-9.61,3.77,-1.00,0.98
1,-6,-7,23,-449,3902,0.38,0.53,0.20,0.23,-4.49,39.02,-6.23,0.93,-9.61,3.99,-0.63,1.67
2,7,-4,62,-458,3819,0.35,0.52,0.16,0.62,-4.58,38.19,-6.24,0.91,-9.61,3.98,-0.88,1.37
17,31,27,30,-486,3859,0.42,0.66,0.31,0.30,-4.86,38.59,-6.24,0.90,-9.61,3.66,-1.40,-1.10
16,30,32,3,-471,3895,0.48,0.77,0.47,0.03,-4.71,38.95,-6.25,0.89,-9.61,3.67,-1.41,-1.35
-3,-2,14,-67,-367,4012,0.41,0.68,0.51,-0.67,-3.67,40.12,-6.23,0.89,-9.61,4.06,-0.73,0.22
-10,-15,-2,-73,-368,3997,0.31,0.52,0.45,-0.73,-3.68,39.97,-6.21,0.90,-9.61,4.22,-0.43,1.51
-15,-19,-34,32,-479,3860,0.19,0.36,0.19,0.32,-4.79,38.60,-6.22,0.88,-9.61,4.36,-0.29,3.95
-3,-1,-30,36,-469,3829,0.15,0.31,-0.01,0.36,-4.69,38.29,-6.23,0.87,-9.61,4.13,-0.64,3.40
11,16,-22,2,-456,3923,0.20,0.38,-0.14,0.02,-4.56,39.23,-6.24,0.85,-9.61,3.84,-0.99,2.58
6,9,-24,7,-444,3972,0.22,0.40,-0.27,0.07,-4.44,39.72,-6.24,0.84,-9.61,3.94,-0.84,2.61
-8,-15,-51,-46,-451,3918,0.15,0.27,-0.56,-0.46,-4.51,39.18,-6.25,0.83,-9.61,4.25,-0.31,4.60
-7,-16,-55,-59,-483,3900,0.09,0.14,-0.84,-0.59,-4.83,39.00,-6.27,0.83,-9.61,4.26,-0.26,4.64
-5,-8,-40,-36,-504,3891,0.05,0.08,-1.00,-0.36,-5.04,38.91,-6.29,0.82,-9.60,4.24,-0.40,3.20
-3,-3,-35,-16,-503,3871,0.03,0.05,-1.11,-0.16,-5.03,38.71,-6.31,0.81,-9.60,4.22,-0.49,2.65
6,8,-29,-3,-437,3925,0.06,0.10,-1.18,-0.03,-4.37,39.25,-6.31,0.80,-9.59,4.02,-0.71,2.07
1,1,-34,2,-409,3962,0.06,0.09,-1.27,0.02,-4.09,39.62,-6.30,0.78,-9.59,4.12,-0.56,2.40
-3,-6,-60,12,-439,3879,0.04,0.05,-1.51,0.12,-4.39,38.79,-6.30,0.76,-9.58,4.21,-0.39,4.35
4,-2,-66,-7,-503,3936,0.06,0.03,-1.76,-0.07,-5.03,39.36,-6.32,0.75,-9.57,4.07,-0.46,4.59
-7,-9,-55,-39,-458,3921,0.01,-0.03,-1.92,-0.39,-4.58,39.21,-6.33,0.74,-9.57,4.32,-0.30,3.49
-7,-10,-54,-15,-444,3902,-0.03,-0.09,-2.06,-0.15,-4.44,39.02,-6.34,0.72,-9.56,4.34,-0.25,3.26
-1,-6,-84,7,-359,3927,-0.04,-0.11,-2.36,0.07,-3.59,39.27,-6.32,0.71,-9.55,4.20,-0.32,5.47
0,-6,-99,-17,-340,3893,-0.03,-0.14,-2.73,-0.17,-3.40,38.93,-6.31,0.70,-9.54,4.17,-0.30,6.36
-9,-18,-175,-19,-290,3863,-0.09,-0.24,-3.52,-0.19,-2.90,38.63,-6.29,0.70,-9.52,4.36,-0.03,11.95
-6,-10,-200,-75,-285,3883,-0.11,-0.27,-4.39,-0.75,-2.85,38.83,-6.27,0.70,-9.51,4.29,-0.18,13.15
0,1,-168,-52,-674,4003,-0.10,-0.24,-4.98,-0.52,-6.74,40.03,-6.29,0.69,-9.49,4.18,-0.41,9.82
-2,-2,-134,-33,-641,3923,-0.10,-0.23,-5.30,-0.33,-6.41,39.23,-6.31,0.69,-9.47,4.23,-0.35,6.60
-2,-4,-75,85,-562,3942,-0.11,-0.23,-5.23,0.85,-5.62,39.42,-6.32,0.67,-9.45,4.24,-0.30,1.67
-3,0,-69,29,-469,3920,-0.11,-0.21,-5.12,0.29,-4.69,39.20,-6.33,0.65,-9.42,4.27,-0.37,1.27
4,-2,-76,18,-496,3875,-0.08,-0.20,-5.07,0.18,-4.96,38.75,-6.35,0.64,-9.40,4.13,-0.33,1.91
6,0,-77,-21,-491,3884,-0.03,-0.18,-5.04,-0.21,-4.91,38.84,-6.36,0.63,-9.38,4.09,-0.37,2.03
-1,-9,-68,23,-464,3912,-0.04,-0.22,-4.95,0.23,-4.64,39.12,-6.37,0.61,-9.36,4.23,-0.16,1.36
-1,-10,-77,46,-434,3882,-0.04,-0.25,-4.92,0.46,-4.34,38.82,-6.37,0.59,-9.35,4.24,-0.11,2.15
-2,-6,-100,0,-419,3886,-0.05,-0.27,-5.04,0.00,-4.19,38.86,-6.36,0.57,-9.33,4.25,-0.18,3.97
-2,-14,-117,-32,-413,3885,-0.05,-0.32,-5.25,-0.32,-4.13,38.85,-6.35,0.56,-9.30,4.25,0.01,5.19
-3,-7,-147,-134,-361,3909,-0.07,-0.33,-5.62,-1.34,-3.61,39.09,-6.34,0.57,-9.28,4.26,-0.14,7.34
-1,-8,-161,-89,-391,3914,-0.07,-0.35,-6.04,-0.89,-3.91,39.14,-6.33,0.58,-9.26,4.21,-0.12,8.08
5,-1,-179,-14,-512,3926,-0.03,-0.32,-6.53,-0.14,-5.12,39.26,-6.34,0.57,-9.23,4.09,-0.27,9.08
2,-2,-171,42,-517,3939,-0.01,-0.30,-6.92,0.42,-5.17,39.39,-6.36,0.55,-9.21,4.16,-0.24,7.99
-2,0,-145,17,-471,3922,-0.03,-0.27,-7.11,0.17,-4.71,39.22,-6.37,0.53,-9.18,4.25,-0.28,5.58
3,1,-139,20,-485,3905,-0.00,-0.24,-7.25,0.20,-4.85,39.05,-6.38,0.51,-9.15,4.15,-0.29,4.92
4,1,-130,5,-467,3898,0.02,-0.21,-7.32,0.05,-4.67,38.98,-6.39,0.49,-9.12,4.13,-0.29,4.09
3,0,-131,-5,-448,3911,0.04,-0.19,-7.38,-0.05,-4.48,39.11,-6.40,0.47,-9.09,4.15,-0.26,4.10
-2,-9,-148,7,-402,3906,0.02,-0.22,-7.55,0.07,-4.02,39.06,-6.38,0.45,-9.06,4.25,-0.06,5.36
-6,-15,-158,63,-424,3885,-0.02,-0.29,-7.76,0.63,-4.24,38.85,-6.38,0.43,-9.03,4.34,0.10,5.98
3,-11,-162,-1,-511,3866,0.00,-0.33,-7.97,-0.01,-5.11,38.66,-6.40,0.42,-9.00,4.16,0.04,6.10
1,-5,-154,-31,-509,3933,0.01,-0.33,-8.11,-0.31,-5.09,39.33,-6.42,0.42,-8.97,4.21,-0.08,5.26
-1,1,-137,-88,-423,3958,0.00,-0.29,-8.14,-0.88,-4.23,39.58,-6.41,0.43,-8.93,4.25,-0.22,3.79
6,4,-154,-31,-424,3849,0.04,-0.24,-8.26,-0.31,-4.24,38.49,-6.39,0.43,-8.90,4.09,-0.30,5.10
4,1,-192,-53,-387,3909,0.06,-0.21,-8.61,-0.53,-3.87,39.09,-6.38,0.43,-8.87,4.11,-0.25,7.95
-8,-14,-184,26,-500,3931,0.00,-0.27,-8.87,0.26,-5.00,39.31,-6.39,0.41,-8.83,4.38,0.09,6.99
-4,-6,-142,70,-544,3821,-0.02,-0.28,-8.85,0.70,-5.44,38.21,-6.41,0.40,-8.80,4.31,-0.06,3.45
1,-3,-129,44,-568,3929,-0.01,-0.27,-8.75,0.44,-5.68,39.29,-6.42,0.38,-8.76,4.22,-0.12,2.45
2,-1,-98,65,-483,3923,0.00,-0.25,-8.47,0.65,-4.83,39.23,-6.43,0.36,-8.73,4.20,-0.15,0.12
2,0,-103,78,-422,3909,0.01,-0.22,-8.25,0.78,-4.22,39.09,-6.43,0.34,-8.70,4.20,-0.16,0.77
4,3,-150,20,-405,3899,0.04,-0.18,-8.34,0.20,-4.05,38.99,-6.42,0.32,-8.66,4.14,-0.22,4.65
2,5,-166,27,-392,3906,0.04,-0.14,-8.52,0.27,-3.92,39.06,-6.40,0.30,-8.63,4.17,-0.26,5.82
6,8,-191,33,-475,3915,0.08,-0.07,-8.83,0.33,-4.75,39.15,-6.41,0.28,-8.59,4.09,-0.33,7.60
0,-1,-199,76,-489,3887,0.07,-0.07,-9.17,0.76,-4.89,38.87,-6.42,0.26,-8.56,4.22,-0.13,7.92
0,10,-186,28,-566,3838,0.06,-0.00,-9.38,0.28,-5.66,38.38,-6.44,0.25,-8.52,4.23,-0.37,6.59
-16,-13,-167,-44,-575,4120,-0.04,-0.08,-9.46,-0.44,-5.75,41.20,-6.46,0.25,-8.48,4.60,0.12,4.89
-13,-15,-134,-34,-469,3787,-0.12,-0.17,-9.33,-0.34,-4.69,37.87,-6.47,0.25,-8.45,4.57,0.18,2.23
-7,-9,-121,-2,-516,3875,-0.15,-0.20,-9.14,-0.02,-5.16,38.75,-6.49,0.25,-8.41,4.47,0.08,1.33
-2,-1,-64,-8,-541,3901,-0.15,-0.19,-8.62,-0.08,-5.41,39.01,-6.51,0.24,-8.37,4.38,-0.09,-2.95
-1,2,-57,-4,-506,3864,-0.14,-0.16,-8.10,-0.04,-5.06,38.64,-6.53,0.23,-8.34,4.37,-0.15,-3.00
1,-3,-39,-84,-477,3871,-0.12,-0.16,-7.53,-0.84,-4.77,38.71,-6.54,0.24,-8.31,4.33,-0.06,-3.92
0,-3,-33,-101,-481,3906,-0.11,-0.16,-6.98,-1.01,-4.81,39.06,-6.55,0.26,-8.28,4.35,-0.06,-3.85
-3,-16,-46,-32,-411,3957,-0.11,-0.24,-6.56,-0.32,-4.11,39.57,-6.53,0.26,-8.26,4.40,0.22,-2.31
-7,-22,-73,-52,-318,3868,-0.14,-0.35,-6.35,-0.52,-3.18,38.68,-6.51,0.26,-8.23,4.48,0.37,0.20
-10,-34,-178,-131,-250,3924,-0.19,-0.53,-6.80,-1.31,-2.50,39.24,-6.50,0.26,-8.21,4.54,0.66,8.62
-17,-31,-219,-144,-252,3901,-0.28,-0.66,-7.46,-1.44,-2.52,39.01,-6.48,0.27,-8.18,4.70,0.63,11.39
-11,-19,-353,-95,-279,3767,-0.32,-0.71,-8.86,-0.95,-2.79,37.67,-6.47,0.27,-8.14,4.58,0.40,20.00
-6,-14,-389,-6,-389,3836,-0.32,-0.73,-10.35,-0.06,-3.89,38.36,-6.45,0.26,-8.10,4.47,0.31,20.00
-7,-54,-267,116,-315,3406,-0.33,-0.98,-10.94,1.16,-3.15,34.06,-6.45,0.23,-8.06,4.49,1.21,11.76
-8,18,-291,38,-331,3326,-0.35,-0.78,-11.63,0.38,-3.31,33.26,-6.43,0.21,-8.01,4.50,-0.29,13.07
0,-2,-364,-40,-303,3439,-0.31,-0.71,-12.68,-0.40,-3.03,34.39,-6.42,0.21,-7.96,4.32,0.10,18.13
-11,-22,-377,-51,-395,4247,-0.35,-0.77,-13.71,-0.51,-3.95,42.47,-6.40,0.20,-7.91,4.55,0.52,18.13
3,10,-418,-24,-571,4022,-0.29,-0.63,-14.89,-0.24,-5.71,40.22,-6.42,0.20,-7.85,4.26,-0.16,20.00
-5,-27,-409,0,-595,3745,-0.30,-0.74,-15.90,0.00,-5.95,37.45,-6.44,0.19,-7.79,4.43,0.63,18.52
2,-18,-386,40,-391,3740,-0.25,-0.77,-16.66,0.40,-3.91,37.40,-6.43,0.16,-7.72,4.28,0.47,15.75
22,3,-405,22,-321,3779,-0.09,-0.68,-17.47,0.22,-3.21,37.79,-6.42,0.14,-7.65,3.81,0.03,16.51
8,-4,-459,-53,-422,3916,-0.04,-0.63,-18.52,-0.53,-4.22,39.16,-6.41,0.15,-7.58,4.08,0.16,19.96
-1,-25,-444,-85,-378,4156,-0.04,-0.72,-19.38,-0.85,-3.78,41.56,-6.40,0.15,-7.50,4.25,0.61,17.77
3,-19,-484,8,-447,4129,-0.02,-0.77,-20.39,0.08,-4.47,41.29,-6.39,0.12,-7.42,4.16,0.51,20.00
16,-13,-502,34,-419,3846,0.08,-0.77,-21.41,0.34,-4.19,38.46,-6.38,0.09,-7.34,3.86,0.41,20.00
7,-8,-513,-40,-486,3870,0.12,-0.74,-22.40,-0.40,-4.86,38.70,-6.40,0.09,-7.25,4.05,0.31,20.00
16,-11,-505,7,-511,3923,0.20,-0.73,-23.24,0.07,-5.11,39.23,-6.41,0.07,-7.16,3.85,0.38,18.82
7,-3,-484,-23,-527,3904,0.23,-0.68,-23.87,-0.23,-5.27,39.04,-6.43,0.06,-7.06,4.04,0.20,16.36
10,-7,-469,51,-527,3892,0.26,-0.65,-24.34,0.51,-5.27,38.92,-6.44,0.04,-6.97,3.98,0.29,14.58
15,-13,-444,44,-496,4019,0.33,-0.67,-24.62,0.44,-4.96,40.19,-6.46,0.01,-6.87,3.87,0.44,12.17
19,-3,-436,-6,-459,3915,0.41,-0.62,-24.82,-0.06,-4.59,39.15,-6.47,0.00,-6.77,3.77,0.23,11.27
3,-19,-436,15,-475,3926,0.39,-0.67,-24.99,0.15,-4.75,39.26,-6.49,-0.02,-6.67,4.11,0.58,11.07
8,-13,-442,-3,-468,3840,0.40,-0.69,-25.19,-0.03,-4.68,38.40,-6.50,-0.03,-6.57,4.02,0.47,11.36
8,9,-421,36,-433,3825,0.41,-0.56,-25.24,0.36,-4.33,38.25,-6.50,-0.06,-6.47,4.02,0.01,9.52
7,-8,-412,116,-470,3988,0.41,-0.55,-25.23,1.16,-4.70,39.88,-6.50,-0.09,-6.37,4.04,0.38,8.76
6,-12,-362,132,-648,3877,0.41,-0.57,-24.91,1.32,-6.48,38.77,-6.51,-0.12,-6.27,4.07,0.48,4.85
10,6,-343,101,-621,3788,0.43,-0.48,-24.52,1.01,-6.21,37.88,-6.53,-0.14,-6.17,3.99,0.10,3.66
0,-7,-259,-18,-592,3813,0.38,-0.47,-23.64,-0.18,-5.92,38.13,-6.54,-0.15,-6.08,4.21,0.37,-2.55
-3,-5,-228,-65,-595,4007,0.33,-0.46,-22.67,-0.65,-5.95,40.07,-6.56,-0.15,-5.99,4.30,0.32,-4.15
0,0,-199,-74,-442,4004,0.29,-0.41,-21.62,-0.74,-4.42,40.04,-6.55,-0.14,-5.91,4.25,0.21,-5.50
-2,-6,-208,-17,-444,3861,0.25,-0.41,-20.72,-0.17,-4.44,38.61,-6.55,-0.14,-5.82,4.30,0.32,-3.80
1,-7,-252,-7,-396,3866,0.23,-0.41,-20.19,-0.07,-3.96,38.66,-6.53,-0.14,-5.74,4.23,0.35,0.49
0,-7,-260,-46,-391,3943,0.21,-0.41,-19.76,-0.46,-3.91,39.43,-6.52,-0.14,-5.66,4.25,0.35,1.62
3,-9,-297,-32,-419,3938,0.21,-0.42,-19.59,-0.32,-4.19,39.38,-6.51,-0.14,-5.59,4.18,0.39,4.92
2,-13,-309,-14,-432,3922,0.20,-0.46,-19.52,-0.14,-4.32,39.22,-6.50,-0.13,-5.51,4.19,0.48,6.01
6,-10,-303,-10,-488,3927,0.22,-0.48,-19.41,-0.10,-4.88,39.27,-6.51,-0.13,-5.43,4.12,0.42,5.60
1,-8,-302,10,-506,3854,0.20,-0.48,-19.32,0.10,-5.06,38.54,-6.53,-0.14,-5.36,4.23,0.39,5.62
0,-2,-289,-16,-486,3887,0.18,-0.44,-19.15,-0.16,-4.86,38.87,-6.54,-0.15,-5.28,4.27,0.26,4.69
2,-2,-291,37,-469,3977,0.17,-0.41,-19.01,0.37,-4.69,39.77,-6.55,-0.17,-5.20,4.24,0.27,5.00
-1,-9,-331,-79,-346,3941,0.15,-0.42,-19.13,-0.79,-3.46,39.41,-6.54,-0.17,-5.13,4.29,0.41,8.25
0,-1,-350,-65,-367,3832,0.14,-0.39,-19.35,-0.65,-3.67,38.32,-6.52,-0.17,-5.05,4.27,0.24,9.62
-4,-11,-406,-48,-428,3914,0.10,-0.42,-19.89,-0.48,-4.28,39.14,-6.52,-0.16,-4.97,4.36,0.44,13.78
2,-14,-417,-36,-407,3887,0.10,-0.46,-20.44,-0.36,-4.07,38.87,-6.50,-0.16,-4.89,4.23,0.51,14.12
6,-17,-447,55,-507,3954,0.13,-0.52,-21.13,0.55,-5.07,39.54,-6.52,-0.18,-4.81,4.15,0.61,15.93
9,-3,-448,23,-471,3780,0.17,-0.48,-21.75,0.23,-4.71,37.80,-6.53,-0.20,-4.72,4.08,0.32,15.35
9,-14,-430,38,-547,3783,0.21,-0.52,-22.20,0.38,-5.47,37.83,-6.55,-0.21,-4.63,4.08,0.57,13.35
5,-13,-422,50,-547,3968,0.22,-0.55,-22.55,0.50,-5.47,39.68,-6.57,-0.23,-4.55,4.17,0.57,12.28
1,-19,-373,93,-615,3941,0.20,-0.61,-22.57,0.93,-6.15,39.41,-6.58,-0.25,-4.46,4.27,0.72,8.10
10,-14,-341,52,-531,3890,0.24,-0.63,-22.39,0.52,-5.31,38.90,-6.60,-0.27,-4.37,4.09,0.64,5.57
3,-8,-296,-84,-392,3914,0.24,-0.62,-21.96,-0.84,-3.92,39.14,-6.59,-0.27,-4.28,4.22,0.51,2.21
1,-2,-290,-91,-409,3862,0.22,-0.57,-21.53,-0.91,-4.09,38.62,-6.58,-0.26,-4.19,4.26,0.37,2.15
9,0,-315,-16,-396,3961,0.25,-0.51,-21.30,-0.16,-3.96,39.61,-6.56,-0.27,-4.11,4.08,0.32,4.50
0,-8,-330,16,-437,4027,0.23,-0.51,-21.18,0.16,-4.37,40.27,-6.54,-0.28,-4.03,4.26,0.48,5.89
3,-9,-396,-150,-347,4006,0.22,-0.51,-21.48,-1.50,-3.47,40.06,-6.53,-0.27,-3.94,4.19,0.50,11.16
-2,-11,-408,-115,-428,3712,0.19,-0.53,-21.82,-1.15,-4.28,37.12,-6.53,-0.27,-3.85,4.30,0.54,11.81
4,-3,-429,-85,-436,3736,0.19,-0.49,-22.26,-0.85,-4.36,37.36,-6.53,-0.26,-3.77,4.18,0.37,13.12
6,8,-433,-87,-397,3927,0.21,-0.40,-22.67,-0.87,-3.97,39.27,-6.52,-0.26,-3.68,4.13,0.11,13.01
9,3,-436,-18,-446,4011,0.24,-0.34,-23.06,-0.18,-4.46,40.11,-6.51,-0.25,-3.59,4.05,0.20,12.84
-2,-5,-433,-4,-485,3824,0.21,-0.34,-23.40,-0.04,-4.85,38.24,-6.53,-0.26,-3.49,4.29,0.36,12.22
6,1,-440,8,-457,3879,0.22,-0.30,-23.74,0.08,-4.57,38.79,-6.54,-0.26,-3.40,4.14,0.23,12.44
6,-9,-442,-4,-461,3965,0.24,-0.32,-24.07,-0.04,-4.61,39.65,-6.55,-0.25,-3.30,4.13,0.44,12.26
11,-5,-441,-38,-497,3897,0.28,-0.32,-24.35,-0.38,-4.97,38.97,-6.56,-0.25,-3.21,4.03,0.35,11.87
11,-10,-444,6,-476,3956,0.32,-0.35,-24.62,0.06,-4.76,39.56,-6.57,-0.25,-3.11,4.03,0.47,11.82
3,-7,-435,-6,-486,3947,0.31,-0.36,-24.81,-0.06,-4.86,39.47,-6.59,-0.26,-3.01,4.20,0.41,10.85
12,-6,-432,-15,-515,3885,0.35,-0.36,-24.97,-0.15,-5.15,38.85,-6.60,-0.26,-2.91,4.02,0.39,10.42
7,-5,-388,13,-515,3813,0.36,-0.35,-24.84,0.13,-5.15,38.13,-6.62,-0.27,-2.81,4.13,0.38,6.83
8,-11,-383,31,-604,3997,0.37,-0.38,-24.69,0.31,-6.04,39.97,-6.63,-0.29,-2.71,4.11,0.52,6.55
0,-11,-321,-42,-535,3957,0.33,-0.41,-24.18,-0.42,-5.35,39.57,-6.64,-0.29,-2.62,4.29,0.53,1.83
-9,-15,-305,-40,-470,3857,0.24,-0.46,-23.62,-0.40,-4.70,38.57,-6.65,-0.28,-2.53,4.50,0.62,1.05
4,-11,-324,2,-413,3898,0.24,-0.48,-23.24,0.02,-4.13,38.98,-6.63,-0.29,-2.43,4.23,0.55,3.06
11,-15,-328,6,-378,3926,0.29,-0.53,-22.91,0.06,-3.78,39.26,-6.61,-0.30,-2.34,4.06,0.65,3.74
6,-14,-390,-11,-317,3918,0.30,-0.56,-23.00,-0.11,-3.17,39.18,-6.59,-0.31,-2.25,4.15,0.64,8.89
3,-10,-415,-54,-303,3930,0.28,-0.56,-23.23,-0.54,-3.03,39.30,-6.57,-0.31,-2.16,4.20,0.56,10.75
3,-18,-512,-87,-285,4108,0.27,-0.62,-24.03,-0.87,-2.85,41.08,-6.56,-0.32,-2.06,4.19,0.74,18.12
-2,-15,-536,-65,-314,3802,0.23,-0.65,-24.90,-0.65,-3.14,38.02,-6.54,-0.32,-1.96,4.29,0.69,19.22
8,-19,-667,-55,-305,3795,0.26,-0.70,-26.48,-0.55,-3.05,37.95,-6.52,-0.33,-1.86,4.07,0.79,20.00
-4,-5,-691,-109,-283,3739,0.21,-0.66,-28.04,-1.09,-2.83,37.39,-6.51,-0.33,-1.75,4.32,0.50,20.00
6,-12,-729,-82,-444,3784,0.22,-0.67,-29.69,-0.82,-4.44,37.84,-6.51,-0.33,-1.63,4.11,0.64,20.00
8,-20,-746,-90,-418,3927,0.25,-0.72,-31.27,-0.90,-4.18,39.27,-6.50,-0.33,-1.51,4.06,0.82,20.00
6,-16,-744,-37,-434,3951,0.26,-0.75,-32.68,-0.37,-4.34,39.51,-6.50,-0.33,-1.38,4.09,0.74,20.00
12,-10,-742,-9,-482,3775,0.31,-0.73,-33.94,-0.09,-4.82,37.75,-6.51,-0.33,-1.24,3.97,0.62,20.00
12,-8,-772,41,-415,3751,0.35,-0.71,-35.25,0.41,-4.15,37.51,-6.50,-0.37,-1.10,3.95,0.60,20.00
12,8,-804,23,-373,3869,0.39,-0.59,-36.63,0.23,-3.73,38.69,-6.48,-0.39,-0.96,3.92,0.25,20.00
10,-18,-964,-47,-248,3983,0.41,-0.64,-38.85,-0.47,-2.48,39.83,-6.46,-0.40,-0.80,3.95,0.81,20.00
20,-33,-1004,-101,-294,3995,0.49,-0.78,-41.09,-1.01,-2.94,39.95,-6.44,-0.41,-0.64,3.71,1.15,20.00
8,-35,-1094,-108,-343,3866,0.49,-0.91,-43.65,-1.08,-3.43,38.66,-6.43,-0.42,-0.47,3.94,1.24,20.00
32,-26,-1109,-139,-317,3820,0.64,-0.98,-46.05,-1.39,-3.17,38.20,-6.41,-0.43,-0.28,3.41,1.08,20.00
38,-20,-1120,-196,-506,3840,0.81,-1.00,-48.28,-1.96,-5.06,38.40,-6.41,-0.44,-0.09,3.24,0.97,20.00
5,-17,-1104,-46,-497,3892,0.76,-1.01,-50.19,-0.46,-4.97,38.92,-6.42,-0.45,0.11,3.93,0.92,20.00
13,-15,-1060,-4,-361,3896,0.76,-1.00,-51.63,-0.04,-3.61,38.96,-6.40,-0.47,0.31,3.75,0.89,20.00
7,-30,-1050,-38,-538,3934,0.73,-1.08,-52.88,-0.38,-5.38,39.34,-6.41,-0.48,0.52,3.89,1.22,20.00
24,-32,-1040,-77,-442,4111,0.80,-1.17,-53.93,-0.77,-4.42,41.11,-6.40,-0.50,0.73,3.52,1.30,20.00
23,-39,-1022,-67,-458,3879,0.86,-1.29,-54.77,-0.67,-4.58,38.79,-6.40,-0.51,0.95,3.52,1.48,20.00
8,-37,-976,-36,-551,3821,0.82,-1.39,-55.25,-0.36,-5.51,38.21,-6.41,-0.53,1.17,3.84,1.48,20.00
13,-20,-967,-58,-485,3823,0.82,-1.37,-55.62,-0.58,-4.85,38.23,-6.41,-0.54,1.39,3.74,1.14,20.00
19,13,-927,-94,-565,3787,0.85,-1.15,-55.72,-0.94,-5.65,37.87,-6.42,-0.56,1.61,3.62,0.42,19.40
14,-1,-904,-83,-512,4027,0.85,-1.04,-55.66,-0.83,-5.12,40.27,-6.42,-0.57,1.83,3.72,0.68,17.49
16,-3,-815,-38,-648,3952,0.87,-0.96,-55.06,-0.38,-6.48,39.52,-6.43,-0.59,2.05,3.68,0.71,10.56
14,1,-760,-33,-519,3847,0.87,-0.86,-54.19,-0.33,-5.19,38.47,-6.44,-0.61,2.27,3.73,0.62,6.80
17,-2,-677,-5,-499,3877,0.88,-0.78,-52.90,-0.05,-4.99,38.77,-6.45,-0.63,2.48,3.67,0.67,1.11
11,11,-671,-37,-496,3990,0.86,-0.64,-51.71,-0.37,-4.96,39.90,-6.45,-0.64,2.68,3.80,0.37,1.86
14,-10,-671,14,-521,3988,0.86,-0.63,-50.63,0.14,-5.21,39.88,-6.47,-0.65,2.88,3.75,0.81,2.98
6,-14,-670,-39,-446,3961,0.81,-0.66,-49.65,-0.39,-4.46,39.61,-6.46,-0.66,3.08,3.92,0.90,3.91
7,-20,-665,-45,-350,3890,0.77,-0.71,-48.74,-0.45,-3.50,38.90,-6.44,-0.67,3.27,3.90,1.04,4.43
25,-15,-666,-49,-323,3819,0.85,-0.73,-47.93,-0.49,-3.23,38.19,-6.42,-0.68,3.46,3.50,0.96,5.36
5,-21,-746,66,-588,3967,0.79,-0.79,-47.69,0.66,-5.88,39.67,-6.43,-0.71,3.65,3.93,1.11,12.38
-3,-27,-750,59,-469,3963,0.70,-0.87,-47.50,0.59,-4.69,39.63,-6.45,-0.74,3.84,4.13,1.28,12.90
31,-5,-697,-70,-470,4033,0.82,-0.82,-47.00,-0.70,-4.70,40.33,-6.44,-0.75,4.03,3.40,0.82,8.92
8,-13,-678,-25,-577,3800,0.78,-0.81,-46.43,-0.25,-5.77,38.00,-6.45,-0.76,4.21,3.88,0.99,7.89
7,-15,-676,43,-662,3932,0.75,-0.82,-45.91,0.43,-6.62,39.32,-6.47,-0.79,4.39,3.92,1.05,8.26
10,-17,-650,39,-593,3963,0.73,-0.85,-45.29,0.39,-5.93,39.63,-6.48,-0.81,4.57,3.87,1.11,6.70
4,-21,-531,-55,-459,3913,0.68,-0.89,-44.00,-0.55,-4.59,39.13,-6.48,-0.81,4.75,4.01,1.21,-2.03
8,-7,-514,-56,-453,3835,0.66,-0.84,-42.73,-0.56,-4.53,38.35,-6.47,-0.82,4.91,3.93,0.91,-2.15
16,-11,-524,-52,-497,3907,0.70,-0.83,-41.66,-0.52,-4.97,39.07,-6.48,-0.83,5.08,3.76,0.99,-0.17
-1,-33,-548,17,-570,4020,0.62,-0.94,-40.83,0.17,-5.70,40.20,-6.49,-0.84,5.24,4.13,1.48,2.72
-2,-9,-602,29,-485,3935,0.55,-0.91,-40.42,0.29,-4.85,39.35,-6.50,-0.85,5.40,4.18,0.99,7.71
9,-15,-601,-13,-477,3950,0.55,-0.91,-40.05,-0.13,-4.77,39.50,-6.50,-0.86,5.56,3.96,1.12,8.01
9,-12,-586,-18,-488,3800,0.55,-0.89,-39.62,-0.18,-4.88,38.00,-6.51,-0.86,5.72,3.96,1.06,7.18
5,-17,-618,8,-451,3965,0.52,-0.90,-39.42,0.08,-4.51,39.65,-6.50,-0.87,5.87,4.05,1.16,10.08
-2,-26,-673,-125,-316,3912,0.46,-0.97,-39.59,-1.25,-3.16,39.12,-6.49,-0.87,6.03,4.20,1.37,14.56
8,-4,-683,-70,-347,3788,0.46,-0.90,-39.79,-0.70,-3.47,37.88,-6.47,-0.88,6.19,3.98,0.91,15.17
-14,-16,-792,-82,-396,3795,0.33,-0.91,-40.65,-0.82,-3.96,37.95,-6.46,-0.88,6.35,4.46,1.16,20.00
1,-27,-820,-101,-380,3954,0.30,-0.98,-41.58,-1.01,-3.80,39.54,-6.45,-0.89,6.51,4.16,1.40,20.00
7,-25,-768,-85,-549,3946,0.32,-1.04,-42.11,-0.85,-5.49,39.46,-6.46,-0.90,6.68,4.04,1.38,19.88
15,-35,-750,-45,-529,3933,0.38,-1.15,-42.47,-0.45,-5.29,39.33,-6.47,-0.91,6.85,3.86,1.62,17.95
0,-24,-655,-59,-634,3863,0.34,-1.18,-42.22,-0.59,-6.34,38.63,-6.48,-0.92,7.02,4.18,1.42,10.15
-2,-19,-634,-36,-644,3964,0.29,-1.18,-41.87,-0.36,-6.44,39.64,-6.49,-0.94,7.18,4.25,1.32,8.73
10,-16,-572,-15,-541,3805,0.32,-1.16,-41.17,-0.15,-5.41,38.05,-6.50,-0.95,7.35,4.00,1.27,4.21
3,-7,-520,-57,-548,4063,0.31,-1.08,-40.23,-0.57,-5.48,40.63,-6.51,-0.96,7.50,4.15,1.07,0.79
3,-13,-433,-28,-500,4075,0.30,-1.05,-38.84,-0.28,-5.00,40.75,-6.51,-0.96,7.66,4.16,1.18,-5.14
0,-19,-421,-37,-509,3879,0.27,-1.06,-37.53,-0.37,-5.09,38.79,-6.52,-0.97,7.81,4.23,1.31,-4.77
2,-20,-412,-55,-424,3794,0.25,-1.08,-36.29,-0.55,-4.24,37.94,-6.51,-0.97,7.95,4.19,1.34,-4.23
15,-13,-425,-8,-425,3917,0.32,-1.05,-35.25,-0.08,-4.25,39.17,-6.50,-0.97,8.09,3.90,1.19,-2.05
5,-11,-464,-72,-346,3859,0.32,-1.01,-34.56,-0.72,-3.46,38.59,-6.49,-0.98,8.23,4.09,1.14,1.98
20,-17,-478,-67,-386,4067,0.41,-1.02,-34.02,-0.67,-3.86,40.67,-6.48,-0.98,8.36,3.76,1.27,3.72
-3,-7,-519,-49,-393,3937,0.35,-0.96,-33.78,-0.49,-3.93,39.37,-6.47,-0.98,8.50,4.23,1.05,7.44
-1,-20,-531,-33,-431,4048,0.31,-0.98,-33.64,-0.33,-4.31,40.48,-6.46,-0.98,8.63,4.20,1.32,8.59
16,-11,-555,-50,-464,4044,0.37,-0.95,-33.66,-0.50,-4.64,40.44,-6.45,-0.98,8.76,3.83,1.13,10.59
15,-10,-550,-52,-440,3846,0.43,-0.92,-33.65,-0.52,-4.40,38.46,-6.45,-0.98,8.90,3.84,1.10,10.16
3,-12,-523,-6,-515,3791,0.40,-0.90,-33.48,-0.06,-5.15,37.91,-6.46,-0.99,9.03,4.09,1.14,8.05
-6,0,-505,-14,-572,3988,0.33,-0.81,-33.21,-0.14,-5.72,39.88,-6.47,-1.00,9.16,4.30,0.88,6.79
-2,-8,-442,-9,-581,3976,0.28,-0.78,-32.59,-0.09,-5.81,39.76,-6.48,-1.01,9.29,4.24,1.04,2.11
15,1,-424,-40,-601,3971,0.35,-0.69,-31.91,-0.40,-6.01,39.71,-6.50,-1.01,9.42,3.89,0.84,1.28
28,-6,-375,-62,-436,3919,0.48,-0.66,-31.01,-0.62,-4.36,39.19,-6.49,-1.01,9.54,3.58,0.97,-1.92
15,-6,-354,-89,-445,3809,0.52,-0.63,-30.07,-0.89,-4.45,38.09,-6.49,-1.01,9.66,3.83,0.96,-2.72
4,-15,-355,-18,-637,3790,0.50,-0.66,-29.23,-0.18,-6.37,37.90,-6.50,-1.02,9.77,4.07,1.16,-1.75
9,-5,-357,0,-606,3960,0.50,-0.62,-28.48,0.00,-6.06,39.60,-6.51,-1.03,9.89,3.98,0.95,-0.80
0,-8,-304,-37,-461,3956,0.45,-0.61,-27.49,-0.37,-4.61,39.56,-6.51,-1.02,9.99,4.17,1.00,-4.25
9,-6,-269,-41,-429,3894,0.46,-0.59,-26.38,-0.41,-4.29,38.94,-6.50,-1.02,10.10,3.98,0.95,-6.05
8,-1,-233,-63,-404,3972,0.46,-0.53,-25.16,-0.63,-4.04,39.72,-6.49,-1.01,10.20,4.00,0.84,-7.82
-3,-2,-222,-67,-407,3924,0.40,-0.49,-24.00,-0.67,-4.07,39.24,-6.49,-1.01,10.29,4.23,0.84,-7.53
-2,2,-262,-48,-356,3873,0.35,-0.43,-23.20,-0.48,-3.56,38.73,-6.47,-1.01,10.39,4.22,0.74,-3.30
1,-1,-286,-23,-312,3932,0.32,-0.39,-22.62,-0.23,-3.12,39.32,-6.45,-1.01,10.48,4.15,0.79,-0.67
5,-13,-354,-80,-261,3998,0.32,-0.43,-22.52,-0.80,-2.61,39.98,-6.44,-1.01,10.57,4.06,1.05,5.19
9,-9,-380,-68,-272,3845,0.34,-0.45,-22.59,-0.68,-2.72,38.45,-6.42,-1.01,10.66,3.96,0.97,7.32
6,-17,-479,-43,-382,3807,0.34,-0.50,-23.25,-0.43,-3.82,38.07,-6.41,-1.00,10.75,4.02,1.15,15.00
-2,-10,-498,-33,-393,3877,0.30,-0.52,-23.96,-0.33,-3.93,38.77,-6.40,-1.00,10.84,4.18,1.00,15.84
16,-16,-563,-46,-347,3864,0.36,-0.56,-25.00,-0.46,-3.47,38.64,-6.39,-1.00,10.94,3.79,1.14,20.00
2,-31,-589,-51,-454,3900,0.34,-0.69,-26.09,-0.51,-4.54,39.00,-6.39,-1.00,11.05,4.08,1.48,20.00
-2,-26,-623,-4,-501,3949,0.29,-0.78,-27.28,-0.04,-5.01,39.49,-6.39,-1.00,11.15,4.18,1.40,20.00
11,-9,-597,-29,-455,3771,0.33,-0.76,-28.20,-0.29,-4.55,37.71,-6.40,-0.99,11.27,3.91,1.05,19.71
-1,-11,-515,-76,-558,3768,0.29,-0.75,-28.52,-0.76,-5.58,37.68,-6.41,-1.00,11.38,4.17,1.09,12.41
0,-33,-513,-33,-438,4001,0.26,-0.88,-28.80,-0.33,-4.38,40.01,-6.40,-1.00,11.49,4.15,1.57,11.94
24,-5,-559,-76,-287,4085,0.38,-0.82,-29.33,-0.76,-2.87,40.85,-6.38,-1.00,11.61,3.62,0.98,15.26
9,-37,-577,-64,-182,4052,0.40,-0.96,-29.91,-0.64,-1.82,40.52,-6.36,-1.01,11.73,3.91,1.68,16.15
8,-23,-725,-80,-274,3919,0.41,-1.01,-31.35,-0.80,-2.74,39.19,-6.35,-1.01,11.85,3.91,1.41,20.00
9,-23,-761,-100,-259,3798,0.42,-1.05,-32.85,-1.00,-2.59,37.98,-6.33,-1.02,11.98,3.88,1.43,20.00
10,-14,-844,-65,-381,3796,0.44,-1.03,-34.72,-0.65,-3.81,37.96,-6.32,-1.02,12.12,3.85,1.24,20.00
9,-17,-873,-73,-440,3899,0.45,-1.03,-36.57,-0.73,-4.40,38.99,-6.32,-1.02,12.27,3.86,1.30,20.00
18,-27,-882,-65,-402,3985,0.52,-1.09,-38.29,-0.65,-4.02,39.85,-6.31,-1.03,12.42,3.66,1.52,20.00
12,-10,-871,-53,-426,3667,0.54,-1.04,-39.78,-0.53,-4.26,36.67,-6.31,-1.03,12.58,3.77,1.17,20.00
9,-4,-842,-58,-564,3752,0.54,-0.96,-40.94,-0.58,-5.64,37.52,-6.31,-1.04,12.74,3.84,1.03,20.00
18,-10,-831,-98,-592,3968,0.60,-0.93,-41.91,-0.98,-5.92,39.68,-6.32,-1.05,12.90,3.64,1.15,20.00
19,-23,-738,-14,-564,3970,0.65,-0.97,-42.22,-0.14,-5.64,39.70,-6.33,-1.06,13.07,3.61,1.43,16.64
-2,-10,-715,-49,-567,3833,0.57,-0.94,-42.36,-0.49,-5.67,38.33,-6.34,-1.07,13.24,4.07,1.17,14.53
24,2,-624,-17,-578,3922,0.66,-0.83,-41.93,-0.17,-5.78,39.22,-6.35,-1.08,13.40,3.52,0.90,7.26
18,-17,-597,-20,-584,3993,0.71,-0.85,-41.38,-0.20,-5.84,39.93,-6.36,-1.09,13.57,3.64,1.30,5.54
14,-16,-540,2,-502,4000,0.72,-0.87,-40.54,0.02,-5.02,40.00,-6.36,-1.10,13.73,3.72,1.29,1.59
10,-15,-523,-35,-498,3791,0.71,-0.87,-39.67,-0.35,-4.98,37.91,-6.37,-1.11,13.89,3.81,1.27,1.05
19,-12,-504,8,-474,3913,0.76,-0.86,-38.78,0.08,-4.74,39.13,-6.37,-1.11,14.04,3.61,1.21,0.37
17,-6,-499,-29,-502,3975,0.78,-0.81,-37.95,-0.29,-5.02,39.75,-6.37,-1.12,14.19,3.65,1.08,0.82
5,-5,-481,-65,-530,3815,0.74,-0.76,-37.09,-0.65,-5.30,38.15,-6.38,-1.12,14.34,3.91,1.05,0.19
12,-21,-482,-20,-579,4103,0.74,-0.81,-36.32,-0.20,-5.79,41.03,-6.39,-1.13,14.48,3.77,1.39,1.08
18,-12,-441,-22,-516,4095,0.77,-0.80,-35.38,-0.22,-5.16,40.95,-6.39,-1.13,14.62,3.64,1.21,-1.41
1,-16,-421,-93,-504,3729,0.70,-0.82,-34.41,-0.93,-5.04,37.29,-6.39,-1.13,14.76,4.01,1.30,-2.09
-5,-12,-351,-73,-435,3801,0.60,-0.81,-33.11,-0.73,-4.35,38.01,-6.39,-1.13,14.89,4.15,1.21,-6.66
-1,-15,-340,-28,-456,4043,0.53,-0.82,-31.87,-0.28,-4.56,40.43,-6.38,-1.13,15.01,4.09,1.28,-6.29
9,-8,-311,-71,-461,4022,0.54,-0.79,-30.58,-0.71,-4.61,40.22,-6.38,-1.13,15.14,3.88,1.12,-7.39
-5,-3,-286,-45,-469,3848,0.45,-0.73,-29.27,-0.45,-4.69,38.48,-6.38,-1.13,15.25,4.19,1.00,-8.13
3,1,-227,-42,-547,3818,0.42,-0.65,-27.72,-0.42,-5.47,38.18,-6.39,-1.13,15.36,4.04,0.90,-11.51
4,0,-203,-44,-588,3971,0.41,-0.58,-26.19,-0.44,-5.88,39.71,-6.40,-1.13,15.46,4.03,0.91,-11.93
6,1,-93,-4,-577,3929,0.40,-0.52,-24.14,-0.04,-5.77,39.29,-6.41,-1.14,15.56,4.00,0.87,-19.08
4,-2,-70,-10,-545,3888,0.39,-0.48,-22.15,-0.10,-5.45,38.88,-6.42,-1.14,15.65,4.05,0.92,-18.93
5,-4,-53,-35,-404,3886,0.38,-0.46,-20.26,-0.35,-4.04,38.86,-6.42,-1.13,15.73,4.03,0.95,-18.38
6,-6,-67,-39,-383,3913,0.38,-0.45,-18.64,-0.39,-3.83,39.13,-6.40,-1.12,15.80,4.00,0.99,-15.49
3,-8,-130,-77,-354,3920,0.36,-0.45,-17.57,-0.77,-3.54,39.20,-6.39,-1.12,15.87,4.06,1.02,-9.02
3,-6,-150,-92,-302,3884,0.34,-0.44,-16.73,-0.92,-3.02,38.84,-6.38,-1.11,15.94,4.06,0.98,-6.44
4,-7,-239,-89,-280,3884,0.33,-0.44,-16.51,-0.89,-2.80,38.84,-6.36,-1.11,16.00,4.03,0.99,1.32
6,-8,-294,-50,-551,3934,0.33,-0.45,-16.66,-0.50,-5.51,39.34,-6.37,-1.10,16.07,3.99,1.01,5.82
0,-6,-325,-20,-435,3960,0.30,-0.44,-16.97,-0.20,-4.35,39.60,-6.37,-1.09,16.14,4.12,0.96,8.11
-1,-16,-301,-15,-462,3943,0.26,-0.49,-17.11,-0.15,-4.62,39.43,-6.37,-1.09,16.21,4.15,1.18,5.92
-6,-9,-277,-27,-435,3920,0.20,-0.50,-17.09,-0.27,-4.35,39.20,-6.37,-1.08,16.27,4.27,1.03,3.91
-3,-6,-305,-41,-381,3857,0.16,-0.48,-17.24,-0.41,-3.81,38.57,-6.36,-1.07,16.34,4.21,0.96,6.11
-1,-15,-421,-49,-198,3859,0.14,-0.53,-18.09,-0.49,-1.98,38.59,-6.34,-1.07,16.41,4.17,1.16,15.04
25,-16,-467,-94,-234,3937,0.28,-0.57,-19.13,-0.94,-2.34,39.37,-6.33,-1.07,16.49,3.59,1.19,17.83
8,-8,-630,-99,-367,3805,0.30,-0.56,-21.06,-0.99,-3.67,38.05,-6.32,-1.06,16.57,3.92,1.02,20.00
4,-19,-637,-33,-453,4027,0.29,-0.62,-22.84,-0.33,-4.53,40.27,-6.32,-1.06,16.66,4.01,1.26,20.00
11,-16,-649,-35,-491,3961,0.33,-0.66,-24.51,-0.35,-4.91,39.61,-6.32,-1.06,16.76,3.86,1.20,20.00
7,-13,-629,-63,-428,3843,0.34,-0.67,-25.90,-0.63,-4.28,38.43,-6.32,-1.05,16.86,3.93,1.14,20.00
2,-13,-596,-42,-427,3863,0.32,-0.68,-26.94,-0.42,-4.27,38.63,-6.31,-1.05,16.97,4.04,1.14,20.00
14,-17,-572,-91,-436,4062,0.37,-0.72,-27.74,-0.91,-4.36,40.62,-6.31,-1.04,17.08,3.78,1.23,17.55
14,-11,-517,-79,-459,3961,0.42,-0.71,-28.12,-0.79,-4.59,39.61,-6.31,-1.04,17.19,3.76,1.11,12.48
2,-14,-501,-33,-565,3838,0.39,-0.73,-28.36,-0.33,-5.65,38.38,-6.32,-1.05,17.30,4.02,1.17,10.86
14,-30,-534,0,-390,3951,0.44,-0.84,-28.78,0.00,-3.90,39.51,-6.30,-1.05,17.42,3.76,1.53,13.20
2,-17,-545,-77,-325,3896,0.41,-0.86,-29.23,-0.77,-3.25,38.96,-6.29,-1.05,17.53,4.00,1.27,13.64
0,-30,-592,-71,-330,3911,0.37,-0.96,-29.92,-0.71,-3.30,39.11,-6.28,-1.05,17.65,4.04,1.56,16.89
23,-14,-625,-39,-382,3995,0.47,-0.95,-30.74,-0.39,-3.82,39.95,-6.26,-1.05,17.77,3.54,1.24,18.80
-6,-25,-672,-90,-322,3894,0.39,-1.00,-31.76,-0.90,-3.22,38.94,-6.25,-1.05,17.90,4.14,1.48,20.00
-12,-24,-698,-60,-316,3902,0.27,-1.05,-32.85,-0.60,-3.16,39.02,-6.24,-1.06,18.03,4.28,1.47,20.00
10,-10,-667,-81,-471,3794,0.31,-1.01,-33.63,-0.81,-4.71,37.94,-6.24,-1.06,18.16,3.83,1.18,19.27
6,-10,-661,-80,-511,3884,0.31,-0.97,-34.30,-0.80,-5.11,38.84,-6.24,-1.06,18.30,3.91,1.17,18.04
5,4,-607,-50,-414,3905,0.31,-0.84,-34.57,-0.50,-4.14,39.05,-6.24,-1.06,18.44,3.93,0.85,13.16
13,-20,-572,-79,-429,4040,0.36,-0.88,-34.60,-0.79,-4.29,40.40,-6.23,-1.06,18.57,3.75,1.35,10.15
16,-9,-560,-106,-529,3894,0.42,-0.85,-34.56,-1.06,-5.29,38.94,-6.24,-1.06,18.71,3.68,1.12,9.17
17,-16,-564,-35,-517,3880,0.48,-0.86,-34.54,-0.35,-5.17,38.80,-6.24,-1.07,18.85,3.64,1.27,9.51
19,-13,-528,-67,-429,3813,0.55,-0.85,-34.31,-0.67,-4.29,38.13,-6.24,-1.07,18.98,3.58,1.20,6.69
23,-15,-531,-34,-441,3934,0.64,-0.86,-34.12,-0.34,-4.41,39.34,-6.24,-1.07,19.12,3.48,1.25,7.14
14,-9,-510,-54,-655,4020,0.66,-0.83,-33.82,-0.54,-6.55,40.20,-6.25,-1.08,19.25,3.66,1.12,5.67
2,-9,-490,-75,-581,3902,0.60,-0.80,-33.42,-0.75,-5.81,39.02,-6.26,-1.08,19.39,3.92,1.12,4.38
2,5,-487,-61,-383,3839,0.56,-0.69,-33.05,-0.61,-3.83,38.39,-6.25,-1.08,19.52,3.93,0.80,4.50
10,2,-504,18,-289,3999,0.56,-0.61,-32.82,0.18,-2.89,39.99,-6.23,-1.09,19.65,3.75,0.85,6.18
7,-8,-560,-37,-208,4011,0.55,-0.60,-32.96,-0.37,-2.08,40.11,-6.20,-1.10,19.78,3.80,1.05,10.77
5,-21,-569,-66,-232,3909,0.52,-0.67,-33.13,-0.66,-2.32,39.09,-6.18,-1.11,19.91,3.84,1.34,11.33
-6,-18,-615,-82,-441,3891,0.43,-0.71,-33.57,-0.82,-4.41,38.91,-6.18,-1.11,20.04,4.08,1.29,14.75
10,-14,-610,-61,-409,3952,0.45,-0.72,-33.93,-0.61,-4.09,39.52,-6.18,-1.11,20.18,3.75,1.21,13.93
14,-12,-577,-3,-570,3856,0.49,-0.72,-34.06,-0.03,-5.70,38.56,-6.19,-1.11,20.31,3.66,1.18,10.99
3,-23,-558,67,-497,3898,0.46,-0.79,-34.06,0.67,-4.97,38.98,-6.20,-1.13,20.45,3.91,1.43,9.37
16,-67,-553,6,-589,3975,0.51,-1.12,-34.03,0.06,-5.89,39.75,-6.21,-1.14,20.58,3.64,2.42,8.97
14,-50,-541,-23,-465,3944,0.55,-1.31,-33.92,-0.23,-4.65,39.44,-6.21,-1.14,20.72,3.67,2.13,8.05
-7,-16,-446,-154,-305,3908,0.45,-1.28,-33.25,-1.54,-3.05,39.08,-6.20,-1.15,20.85,4.11,1.43,0.70
4,-5,-435,-240,-273,4029,0.43,-1.18,-32.58,-2.40,-2.73,40.29,-6.19,-1.15,20.98,3.89,1.18,0.47
6,12,-426,-89,-215,3865,0.42,-0.99,-31.92,-0.89,-2.15,38.65,-6.17,-1.16,21.10,3.83,0.79,0.39
35,26,-442,-57,-258,3804,0.59,-0.73,-31.42,-0.57,-2.58,38.04,-6.15,-1.16,21.23,3.19,0.44,2.26
12,-22,-465,-3,-483,3850,0.61,-0.79,-31.12,-0.03,-4.83,38.50,-6.16,-1.16,21.35,3.65,1.43,4.52
16,-32,-465,-44,-582,3747,0.64,-0.91,-30.84,-0.44,-5.82,37.47,-6.17,-1.17,21.48,3.57,1.67,4.80
8,3,-407,-28,-540,3718,0.63,-0.80,-30.24,-0.28,-5.40,37.18,-6.18,-1.17,21.59,3.74,0.93,0.52
6,6,-384,-26,-516,4033,0.60,-0.68,-29.56,-0.26,-5.16,40.33,-6.18,-1.18,21.71,3.79,0.84,-0.72
8,-1,-349,-68,-445,4118,0.59,-0.62,-28.73,-0.68,-4.45,41.18,-6.18,-1.17,21.83,3.75,0.96,-2.82
7,7,-397,-68,-460,3799,0.57,-0.52,-28.28,-0.68,-4.60,37.99,-6.18,-1.17,21.94,3.78,0.77,1.71
13,15,-416,-55,-445,3805,0.60,-0.37,-27.99,-0.55,-4.45,38.05,-6.18,-1.16,22.05,3.65,0.57,3.62
1,5,-424,-79,-485,4051,0.54,-0.31,-27.78,-0.79,-4.85,40.51,-6.18,-1.16,22.16,3.91,0.75,4.51
10,-15,-446,-51,-419,4024,0.55,-0.37,-27.72,-0.51,-4.19,40.24,-6.17,-1.16,22.27,3.72,1.17,6.43
14,-15,-445,-33,-451,3848,0.58,-0.42,-27.66,-0.33,-4.51,38.48,-6.17,-1.15,22.38,3.63,1.18,6.40
7,-6,-441,-60,-556,3863,0.56,-0.42,-27.59,-0.60,-5.56,38.63,-6.18,-1.15,22.49,3.78,1.00,6.13
6,-12,-431,-38,-436,3947,0.54,-0.45,-27.46,-0.38,-4.36,39.47,-6.18,-1.15,22.60,3.81,1.12,5.41
6,-10,-356,-58,-426,3843,0.53,-0.46,-26.88,-0.58,-4.26,38.43,-6.18,-1.14,22.70,3.81,1.08,-0.35
15,-4,-352,-40,-420,3884,0.57,-0.44,-26.34,-0.40,-4.20,38.84,-6.17,-1.14,22.81,3.61,0.95,-0.12
9,-12,-354,-51,-530,3963,0.56,-0.47,-25.87,-0.51,-5.30,39.63,-6.18,-1.14,22.91,3.74,1.12,0.54
9,-4,-323,-52,-528,3856,0.56,-0.45,-25.25,-0.52,-5.28,38.56,-6.19,-1.13,23.01,3.75,0.95,-1.44
2,-2,-321,-47,-500,3891,0.52,-0.42,-24.68,-0.47,-5.00,38.91,-6.19,-1.13,23.11,3.91,0.90,-1.02
-3,-19,-325,-60,-462,3995,0.45,-0.49,-24.20,-0.60,-4.62,39.95,-6.19,-1.13,23.20,4.03,1.26,-0.18
7,-9,-272,-51,-508,3898,0.45,-0.50,-23.44,-0.51,-5.08,38.98,-6.20,-1.12,23.30,3.83,1.06,-3.87
6,5,-257,-60,-565,3894,0.44,-0.42,-22.66,-0.60,-5.65,38.94,-6.21,-1.12,23.39,3.86,0.75,-4.33
2,4,-272,-93,-439,3970,0.41,-0.35,-22.05,-0.93,-4.39,39.70,-6.21,-1.11,23.48,3.94,0.75,-2.42
5,-8,-287,-52,-408,3934,0.40,-0.36,-21.60,-0.52,-4.08,39.34,-6.20,-1.11,23.56,3.88,0.99,-0.68
-4,-10,-290,-65,-401,3894,0.33,-0.39,-21.21,-0.65,-4.01,38.94,-6.19,-1.10,23.65,4.08,1.03,-0.02
-5,-13,-305,-56,-398,3904,0.27,-0.43,-20.95,-0.56,-3.98,39.04,-6.19,-1.09,23.73,4.11,1.10,1.52
9,-15,-395,-69,-315,3880,0.30,-0.48,-21.26,-0.69,-3.15,38.80,-6.17,-1.09,23.81,3.81,1.15,8.81
8,-13,-419,-52,-390,3924,0.32,-0.51,-21.69,-0.52,-3.90,39.24,-6.17,-1.08,23.90,3.82,1.12,10.38
14,-23,-455,-63,-520,3915,0.37,-0.60,-22.30,-0.63,-5.20,39.15,-6.17,-1.08,23.99,3.69,1.34,12.78
0,-26,-434,-25,-448,3853,0.33,-0.70,-22.72,-0.25,-4.48,38.53,-6.18,-1.07,24.08,3.99,1.43,10.55
6,-22,-386,-67,-563,3879,0.34,-0.76,-22.80,-0.67,-5.63,38.79,-6.19,-1.07,24.17,3.87,1.36,6.39
15,-7,-394,-64,-522,3903,0.39,-0.73,-22.92,-0.64,-5.22,39.03,-6.19,-1.07,24.26,3.68,1.05,6.92
0,-22,-463,-146,-587,3870,0.35,-0.79,-23.45,-1.46,-5.87,38.70,-6.20,-1.07,24.35,4.00,1.37,12.20
22,-31,-510,-95,-471,3979,0.45,-0.90,-24.22,-0.95,-4.71,39.79,-6.20,-1.07,24.45,3.52,1.58,15.36
3,-3,-516,-125,-517,3952,0.43,-0.83,-24.95,-1.25,-5.17,39.52,-6.21,-1.06,24.55,3.92,0.99,15.09
8,5,-514,-79,-524,3897,0.43,-0.71,-25.59,-0.79,-5.24,38.97,-6.21,-1.06,24.65,3.82,0.79,14.24
7,2,-449,19,-293,3885,0.43,-0.63,-25.77,0.19,-2.93,38.85,-6.19,-1.07,24.75,3.83,0.84,8.53
8,-6,-415,18,-306,3854,0.44,-0.60,-25.72,0.18,-3.06,38.54,-6.17,-1.07,24.85,3.79,1.00,5.69
-12,-37,-333,83,-183,3835,0.32,-0.77,-25.18,0.83,-1.83,38.35,-6.15,-1.09,24.95,4.22,1.68,-0.70
-19,-36,-318,8,-247,3974,0.17,-0.91,-24.60,0.08,-2.47,39.74,-6.13,-1.10,25.05,4.39,1.70,-1.36
14,-42,-279,-48,-469,3848,0.24,-1.08,-23.84,-0.48,-4.69,38.48,-6.14,-1.09,25.14,3.70,1.87,-3.87
-8,-9,-276,-55,-450,3820,0.17,-1.02,-23.14,-0.55,-4.50,38.20,-6.14,-1.09,25.24,4.17,1.18,-3.39
-9,-18,-261,-7,-224,3904,0.10,-1.03,-22.42,-0.07,-2.24,39.04,-6.12,-1.10,25.32,4.20,1.37,-3.91
0,-18,-271,-27,-222,3841,0.09,-1.04,-21.83,-0.27,-2.22,38.41,-6.10,-1.10,25.41,4.00,1.38,-2.45
5,-4,-370,-56,-338,3967,0.11,-0.96,-21.91,-0.56,-3.38,39.67,-6.09,-1.10,25.50,3.89,1.07,5.86
-2,-15,-374,-22,-281,4002,0.09,-0.95,-22.00,-0.22,-2.81,40.02,-6.07,-1.10,25.59,4.03,1.29,6.09
-7,-19,-372,-37,-500,3938,0.03,-0.98,-22.07,-0.37,-5.00,39.38,-6.08,-1.10,25.67,4.15,1.38,5.84
-2,-54,-336,-60,-513,3949,0.02,-1.21,-21.91,-0.60,-5.13,39.49,-6.09,-1.10,25.76,4.06,2.15,2.95
0,-77,-309,-77,-431,3845,0.02,-1.56,-21.60,-0.77,-4.31,38.45,-6.09,-1.10,25.84,4.02,2.71,0.98
1,-52,-308,-64,-354,3910,0.02,-1.72,-21.32,-0.64,-3.54,39.10,-6.08,-1.10,25.93,3.99,2.25,1.18
2,-43,-309,7,-377,3951,0.03,-1.81,-21.07,0.07,-3.77,39.51,-6.07,-1.10,26.01,3.96,2.09,1.52
6,-50,-292,24,-434,3970,0.06,-1.93,-20.75,0.24,-4.34,39.70,-6.07,-1.10,26.09,3.87,2.27,0.42
3,-86,-187,-17,-560,3826,0.08,-2.26,-19.81,-0.17,-5.60,38.26,-6.09,-1.10,26.17,3.94,3.09,-7.49
4,-64,-159,23,-549,3863,0.09,-2.43,-18.80,0.23,-5.49,38.63,-6.10,-1.12,26.24,3.92,2.70,-8.80
11,5,-111,-65,-683,3854,0.15,-2.15,-17.60,-0.65,-6.83,38.54,-6.12,-1.12,26.31,3.77,1.23,-11.60
2,31,-90,-36,-550,3785,0.15,-1.75,-16.39,-0.36,-5.50,37.85,-6.13,-1.13,26.38,3.96,0.59,-12.10
-17,51,-88,-70,-286,3940,0.03,-1.26,-15.29,-0.70,-2.86,39.40,-6.11,-1.12,26.44,4.37,0.05,-11.11
2,0,-155,-82,-279,4055,0.04,-1.14,-14.70,-0.82,-2.79,40.55,-6.10,-1.12,26.50,3.98,1.05,-4.82
29,-90,-245,-41,-424,3913,0.21,-1.57,-14.73,-0.41,-4.24,39.13,-6.10,-1.12,26.55,3.38,3.00,2.77
41,-101,-245,-51,-493,3849,0.44,-2.03,-14.75,-0.51,-4.93,38.49,-6.11,-1.11,26.61,3.08,3.34,2.74
-7,-28,-256,-71,-387,3711,0.35,-2.00,-14.84,-0.71,-3.87,37.11,-6.10,-1.11,26.67,4.07,1.85,3.58
-7,24,-274,-44,-364,3796,0.28,-1.65,-15.02,-0.44,-3.64,37.96,-6.09,-1.11,26.73,4.09,0.69,4.90
3,18,-354,-56,-428,4072,0.27,-1.38,-15.68,-0.56,-4.28,40.72,-6.09,-1.10,26.79,3.89,0.74,10.98
11,-20,-371,-45,-460,4105,0.31,-1.36,-16.38,-0.45,-4.60,41.05,-6.09,-1.09,26.86,3.71,1.50,11.67
25,-64,-357,58,-478,3812,0.43,-1.62,-16.92,0.58,-4.78,38.12,-6.11,-1.10,26.92,3.41,2.47,9.91
6,-55,-322,34,-500,3801,0.42,-1.79,-17.19,0.34,-5.00,38.01,-6.12,-1.11,26.99,3.80,2.34,6.65
0,21,-291,23,-409,3934,0.38,-1.48,-17.24,0.23,-4.09,39.34,-6.11,-1.11,27.06,3.93,0.71,3.96
-3,-12,-272,-6,-450,4000,0.32,-1.41,-17.18,-0.06,-4.50,40.00,-6.12,-1.10,27.12,4.01,1.36,2.41
18,-54,-295,-28,-477,3872,0.40,-1.60,-17.26,-0.28,-4.77,38.72,-6.12,-1.10,27.19,3.57,2.26,4.27
22,-56,-296,-40,-470,3874,0.50,-1.78,-17.34,-0.40,-4.70,38.74,-6.13,-1.10,27.26,3.46,2.35,4.26
-8,10,-356,-119,-478,3852,0.40,-1.54,-17.78,-1.19,-4.78,38.52,-6.13,-1.09,27.33,4.10,0.94,8.88
0,22,-384,-68,-446,3858,0.36,-1.25,-18.34,-0.68,-4.46,38.58,-6.13,-1.09,27.40,3.95,0.61,10.64
22,-17,-412,-42,-496,3961,0.46,-1.23,-19.02,-0.42,-4.96,39.61,-6.14,-1.09,27.48,3.48,1.40,12.29
11,-30,-410,-65,-572,3929,0.48,-1.29,-19.62,-0.65,-5.72,39.29,-6.15,-1.09,27.55,3.70,1.68,11.48
8,25,-388,48,-470,3840,0.48,-1.01,-20.03,0.48,-4.70,38.40,-6.16,-1.09,27.63,3.77,0.49,9.18
-11,37,-366,52,-490,3789,0.36,-0.68,-20.26,0.52,-4.90,37.89,-6.17,-1.10,27.71,4.20,0.16,7.07
0,32,-347,15,-508,3956,0.33,-0.42,-20.35,0.15,-5.08,39.56,-6.19,-1.10,27.79,3.99,0.19,5.35
-3,19,-333,-32,-496,3928,0.28,-0.26,-20.34,-0.32,-4.96,39.28,-6.19,-1.09,27.87,4.07,0.41,4.16
0,28,-333,-60,-419,3835,0.25,-0.06,-20.34,-0.60,-4.19,38.35,-6.19,-1.08,27.96,4.02,0.16,4.16
5,41,-336,-17,-425,3870,0.25,0.19,-20.36,-0.17,-4.25,38.70,-6.19,-1.07,28.04,3.91,-0.18,4.39
1,49,-221,-37,-520,3919,0.23,0.47,-19.67,-0.37,-5.20,39.19,-6.20,-1.07,28.11,4.01,-0.42,-4.63
-8,48,-218,-87,-567,3865,0.16,0.72,-19.03,-0.87,-5.67,38.65,-6.21,-1.06,28.19,4.22,-0.47,-4.22
3,65,-303,-69,-421,3872,0.16,1.04,-18.98,-0.69,-4.21,38.72,-6.21,-1.04,28.27,3.99,-0.92,3.03
10,58,-312,-12,-347,3932,0.21,1.29,-18.98,-0.12,-3.47,39.32,-6.19,-1.03,28.34,3.83,-0.85,3.78
21,-67,-306,-208,-592,3988,0.32,0.75,-18.95,-2.08,-5.92,39.88,-6.20,-1.02,28.42,3.58,1.83,3.30
23,-60,-331,-167,-621,3853,0.42,0.31,-19.07,-1.67,-6.21,38.53,-6.21,-1.02,28.49,3.51,1.81,5.28
