gyroADC_X,gyroADC_Y,gyroADC_Z,accADC_X,accADC_Y,accADC_Z,GyroX,GyroY,GyroZ,AccX,AccY,AccZ,roll_IMU,pitch_IMU,yaw_IMU,roll_PID,pitch_PID,yaw_PID
2,-1,0,-63,-376,3915,0.09,-0.05,0.02,-0.63,-3.76,39.15,-5.61,0.91,-1.79,3.23,-0.49,0.09
1,-1,0,-82,-363,3907,0.09,-0.05,0.02,-0.82,-3.63,39.07,-5.60,0.92,-1.79,3.37,-0.50,0.09
1,2,1,-84,-364,3896,0.09,-0.03,0.02,-0.84,-3.64,38.96,-5.58,0.94,-1.79,3.36,-0.93,0.08
-1,0,0,-68,-387,3899,0.07,-0.03,0.02,-0.68,-3.87,38.99,-5.60,0.95,-1.79,3.65,-0.62,0.09
-3,0,2,-79,-399,3893,0.05,-0.03,0.03,-0.79,-3.99,38.93,-5.61,0.96,-1.79,3.91,-0.62,0.07
-2,2,3,-80,-379,3896,0.03,-0.01,0.04,-0.80,-3.79,38.96,-5.61,0.98,-1.79,3.72,-0.91,0.06
0,1,1,-54,-388,3893,0.03,-0.00,0.05,-0.54,-3.88,38.93,-5.62,0.96,-1.79,3.42,-0.74,0.08
0,0,2,-55,-398,3879,0.02,-0.00,0.05,-0.55,-3.98,38.79,-5.63,0.95,-1.79,3.42,-0.58,0.07
2,-2,1,-52,-394,3884,0.03,-0.02,0.05,-0.52,-3.94,38.84,-5.64,0.94,-1.79,3.14,-0.29,0.07
3,-2,1,-35,-377,3895,0.05,-0.03,0.06,-0.35,-3.77,38.95,-5.64,0.92,-1.79,3.02,-0.30,0.07
3,-1,1,-49,-383,3896,0.06,-0.03,0.06,-0.49,-3.83,38.96,-5.64,0.90,-1.79,3.04,-0.44,0.07
2,-2,1,-62,-379,3907,0.07,-0.04,0.06,-0.62,-3.79,39.07,-5.62,0.90,-1.79,3.19,-0.31,0.07
2,-1,1,-84,-370,3887,0.07,-0.04,0.06,-0.84,-3.70,38.87,-5.61,0.92,-1.79,3.20,-0.48,0.07
2,0,2,-82,-365,3902,0.08,-0.04,0.06,-0.82,-3.65,39.02,-5.60,0.93,-1.79,3.20,-0.63,0.07
-1,0,1,-78,-368,3909,0.06,-0.03,0.06,-0.78,-3.68,39.09,-5.58,0.94,-1.79,3.62,-0.63,0.07
-1,0,2,-79,-372,3887,0.05,-0.03,0.07,-0.79,-3.72,38.87,-5.57,0.96,-1.79,3.59,-0.63,0.06
-1,0,3,-63,-361,3898,0.04,-0.03,0.08,-0.63,-3.61,38.98,-5.55,0.96,-1.80,3.56,-0.62,0.06
-1,0,3,-63,-363,3904,0.03,-0.02,0.09,-0.63,-3.63,39.04,-5.54,0.95,-1.80,3.53,-0.62,0.05
0,1,4,-54,-371,3894,0.03,-0.02,0.11,-0.54,-3.71,38.94,-5.53,0.94,-1.80,3.37,-0.74,0.05
1,0,4,-54,-369,3891,0.03,-0.01,0.12,-0.54,-3.69,38.91,-5.52,0.92,-1.80,3.22,-0.58,0.04
0,-1,2,-70,-378,3908,0.03,-0.02,0.12,-0.70,-3.78,39.08,-5.52,0.94,-1.80,3.36,-0.45,0.06
1,-1,2,-68,-376,3917,0.03,-0.02,0.12,-0.68,-3.76,39.17,-5.51,0.96,-1.80,3.21,-0.46,0.06
2,-1,1,-68,-370,3911,0.04,-0.03,0.11,-0.68,-3.70,39.11,-5.49,0.96,-1.80,3.06,-0.48,0.06
2,-1,1,-71,-379,3905,0.05,-0.03,0.11,-0.71,-3.79,39.05,-5.50,0.98,-1.80,3.09,-0.49,0.07
3,0,1,-57,-408,3903,0.06,-0.03,0.10,-0.57,-4.08,39.03,-5.52,0.97,-1.80,2.97,-0.63,0.07
1,-2,0,-60,-415,3887,0.06,-0.04,0.09,-0.60,-4.15,38.87,-5.54,0.97,-1.80,3.29,-0.35,0.07
0,-1,1,-70,-437,3888,0.06,-0.04,0.09,-0.70,-4.37,38.88,-5.55,0.97,-1.80,3.44,-0.50,0.07
1,0,1,-62,-423,3911,0.06,-0.04,0.09,-0.62,-4.23,39.11,-5.57,0.97,-1.80,3.30,-0.65,0.07
1,0,1,-50,-410,3906,0.06,-0.03,0.08,-0.50,-4.10,39.06,-5.59,0.96,-1.80,3.31,-0.64,0.07
1,-1,0,-56,-431,3895,0.06,-0.03,0.08,-0.56,-4.31,38.95,-5.60,0.95,-1.80,3.32,-0.49,0.08
1,-1,-1,-68,-408,3900,0.06,-0.04,0.06,-0.68,-4.08,39.00,-5.62,0.96,-1.80,3.33,-0.49,0.09
0,-1,-1,-59,-390,3905,0.05,-0.04,0.05,-0.59,-3.90,39.05,-5.63,0.94,-1.80,3.48,-0.49,0.09
0,-1,-1,-48,-370,3896,0.05,-0.04,0.04,-0.48,-3.70,38.96,-5.62,0.93,-1.80,3.46,-0.48,0.09
1,-1,-1,-61,-383,3891,0.05,-0.04,0.03,-0.61,-3.83,38.91,-5.62,0.91,-1.80,3.31,-0.48,0.09
0,0,0,-71,-382,3900,0.04,-0.04,0.03,-0.71,-3.82,39.00,-5.62,0.93,-1.80,3.45,-0.63,0.09
-1,0,1,-66,-373,3917,0.03,-0.04,0.03,-0.66,-3.73,39.17,-5.60,0.93,-1.80,3.57,-0.63,0.08
0,-1,-1,-68,-384,3912,0.03,-0.04,0.02,-0.68,-3.84,39.12,-5.60,0.95,-1.80,3.42,-0.49,0.09
1,-1,-1,-69,-384,3905,0.03,-0.04,0.01,-0.69,-3.84,39.05,-5.61,0.97,-1.80,3.27,-0.50,0.09
0,-1,0,-66,-394,3901,0.03,-0.04,0.01,-0.66,-3.94,39.01,-5.62,0.97,-1.80,3.43,-0.51,0.09
-1,-1,0,-63,-390,3903,0.02,-0.04,0.01,-0.63,-3.90,39.03,-5.64,0.96,-1.80,3.57,-0.51,0.09
-1,-1,0,-61,-374,3896,0.01,-0.05,0.01,-0.61,-3.74,38.96,-5.62,0.95,-1.80,3.55,-0.50,0.09
0,-1,-1,-56,-376,3889,0.01,-0.05,0.00,-0.56,-3.76,38.89,-5.61,0.94,-1.80,3.39,-0.50,0.10
1,-1,-2,-66,-389,3889,0.02,-0.05,-0.01,-0.66,-3.89,38.89,-5.63,0.94,-1.80,3.26,-0.50,0.11
0,0,-2,-63,-386,3894,0.01,-0.04,-0.02,-0.63,-3.86,38.94,-5.64,0.93,-1.80,3.41,-0.64,0.11
0,-1,-2,-70,-398,3899,0.01,-0.05,-0.03,-0.70,-3.98,38.99,-5.66,0.94,-1.80,3.42,-0.50,0.11
1,-1,-1,-70,-394,3906,0.02,-0.05,-0.03,-0.70,-3.94,39.06,-5.67,0.95,-1.80,3.29,-0.51,0.10
0,-1,-1,-64,-392,3913,0.02,-0.05,-0.04,-0.64,-3.92,39.13,-5.69,0.94,-1.80,3.45,-0.51,0.10
0,-1,-1,-68,-388,3905,0.01,-0.05,-0.04,-0.68,-3.88,39.05,-5.69,0.96,-1.80,3.44,-0.52,0.10
0,-1,0,-65,-377,3889,0.01,-0.05,-0.04,-0.65,-3.77,38.89,-5.67,0.96,-1.80,3.42,-0.52,0.10
1,-1,-1,-58,-376,3893,0.02,-0.05,-0.04,-0.58,-3.76,38.93,-5.65,0.95,-1.80,3.27,-0.52,0.10
0,0,-1,-59,-375,3913,0.02,-0.05,-0.04,-0.59,-3.75,39.13,-5.64,0.94,-1.80,3.41,-0.65,0.10
0,-1,-1,-62,-379,3901,0.01,-0.05,-0.04,-0.62,-3.79,39.01,-5.62,0.93,-1.80,3.40,-0.50,0.10
1,-1,0,-61,-384,3904,0.02,-0.05,-0.04,-0.61,-3.84,39.04,-5.62,0.91,-1.80,3.25,-0.49,0.10
0,0,-1,-62,-378,3908,0.02,-0.04,-0.04,-0.62,-3.78,39.08,-5.60,0.91,-1.80,3.39,-0.63,0.10
1,0,0,-69,-388,3908,0.02,-0.04,-0.04,-0.69,-3.88,39.08,-5.61,0.93,-1.80,3.25,-0.63,0.10
0,0,-1,-71,-393,3908,0.02,-0.04,-0.04,-0.71,-3.93,39.08,-5.62,0.94,-1.80,3.41,-0.63,0.10
0,0,0,-68,-388,3903,0.02,-0.03,-0.04,-0.68,-3.88,39.03,-5.64,0.95,-1.80,3.42,-0.63,0.10
-1,0,-1,-63,-384,3907,0.01,-0.03,-0.04,-0.63,-3.84,39.07,-5.63,0.94,-1.80,3.55,-0.62,0.10
0,0,-1,-73,-380,3898,0.01,-0.03,-0.04,-0.73,-3.80,38.98,-5.62,0.95,-1.80,3.39,-0.62,0.10
0,0,-1,-67,-382,3890,0.01,-0.02,-0.04,-0.67,-3.82,38.90,-5.61,0.97,-1.80,3.38,-0.63,0.10
0,0,-1,-63,-380,3905,0.01,-0.02,-0.04,-0.63,-3.80,39.05,-5.60,0.96,-1.80,3.37,-0.62,0.10
0,0,-1,-59,-387,3911,0.01,-0.02,-0.05,-0.59,-3.87,39.11,-5.61,0.94,-1.80,3.38,-0.60,0.10
-1,0,-1,-73,-384,3896,-0.00,-0.02,-0.05,-0.73,-3.84,38.96,-5.61,0.96,-1.80,3.52,-0.61,0.10
0,0,-1,-77,-388,3896,-0.00,-0.02,-0.05,-0.77,-3.88,38.96,-5.62,0.98,-1.80,3.37,-0.62,0.10
-1,0,-2,-73,-384,3901,-0.01,-0.01,-0.06,-0.73,-3.84,39.01,-5.62,0.99,-1.80,3.51,-0.62,0.11
0,0,-1,-73,-379,3896,-0.01,-0.01,-0.06,-0.73,-3.79,38.96,-5.61,1.01,-1.80,3.35,-0.63,0.11
0,0,-1,-68,-377,3902,-0.01,-0.01,-0.06,-0.68,-3.77,39.02,-5.59,1.01,-1.80,3.34,-0.62,0.11
0,-1,-1,-62,-371,3905,-0.00,-0.02,-0.06,-0.62,-3.71,39.05,-5.57,1.00,-1.80,3.34,-0.48,0.11
0,0,0,-69,-366,3889,-0.00,-0.01,-0.05,-0.69,-3.66,38.89,-5.56,1.00,-1.80,3.33,-0.63,0.10
0,1,1,-67,-372,3896,-0.00,-0.01,-0.04,-0.67,-3.72,38.96,-5.54,0.99,-1.80,3.32,-0.76,0.09
0,0,0,-68,-380,3893,-0.00,-0.01,-0.04,-0.68,-3.80,38.93,-5.56,1.00,-1.80,3.33,-0.61,0.10
0,-1,0,-71,-383,3892,-0.00,-0.01,-0.03,-0.71,-3.83,38.92,-5.57,1.01,-1.80,3.34,-0.47,0.10
1,0,1,-68,-395,3903,0.00,-0.01,-0.02,-0.68,-3.95,39.03,-5.59,1.00,-1.80,3.21,-0.62,0.09
0,0,0,-62,-396,3899,0.00,-0.01,-0.02,-0.62,-3.96,38.99,-5.61,1.00,-1.80,3.37,-0.62,0.09
1,0,0,-63,-393,3885,0.01,-0.01,-0.02,-0.63,-3.93,38.85,-5.62,0.99,-1.80,3.24,-0.61,0.09
1,0,0,-68,-390,3891,0.01,-0.01,-0.02,-0.68,-3.90,38.91,-5.64,0.99,-1.80,3.26,-0.61,0.09
1,0,-1,-68,-381,3903,0.02,-0.01,-0.02,-0.68,-3.81,39.03,-5.62,0.99,-1.80,3.26,-0.61,0.10
0,0,-1,-68,-381,3898,0.02,-0.01,-0.03,-0.68,-3.81,38.98,-5.60,0.99,-1.80,3.39,-0.61,0.10
1,0,-1,-68,-384,3901,0.02,-0.01,-0.03,-0.68,-3.84,39.01,-5.62,0.99,-1.80,3.26,-0.61,0.10
0,0,0,-71,-380,3896,0.02,-0.01,-0.03,-0.71,-3.80,38.96,-5.61,1.01,-1.80,3.40,-0.61,0.09
0,0,0,-71,-376,3900,0.02,-0.00,-0.02,-0.71,-3.76,39.00,-5.59,1.01,-1.80,3.39,-0.62,0.09
0,-1,0,-66,-379,3901,0.02,-0.01,-0.02,-0.66,-3.79,39.01,-5.58,1.00,-1.80,3.38,-0.47,0.09
0,0,1,-60,-391,3893,0.01,-0.01,-0.01,-0.60,-3.91,38.93,-5.59,0.99,-1.80,3.38,-0.61,0.09
0,0,1,-62,-385,3883,0.01,-0.01,-0.01,-0.62,-3.85,38.83,-5.61,0.97,-1.80,3.39,-0.60,0.08
-1,0,1,-62,-380,3889,0.01,-0.01,0.00,-0.62,-3.80,38.89,-5.60,0.96,-1.80,3.52,-0.59,0.08
0,0,1,-72,-378,3892,0.00,-0.01,0.01,-0.72,-3.78,38.92,-5.59,0.97,-1.80,3.36,-0.60,0.08
0,0,1,-72,-386,3905,0.00,-0.01,0.01,-0.72,-3.86,39.05,-5.60,0.99,-1.80,3.37,-0.60,0.08
0,0,1,-73,-389,3907,0.00,-0.01,0.02,-0.73,-3.89,39.07,-5.61,1.00,-1.80,3.38,-0.61,0.08
0,-1,0,-70,-400,3892,0.00,-0.01,0.02,-0.70,-4.00,38.92,-5.63,1.00,-1.80,3.39,-0.47,0.09
1,0,0,-63,-390,3897,0.01,-0.01,0.01,-0.63,-3.90,38.97,-5.65,0.99,-1.80,3.25,-0.61,0.09
0,-1,0,-58,-387,3897,0.01,-0.02,0.01,-0.58,-3.87,38.97,-5.65,0.97,-1.80,3.40,-0.46,0.09
0,-1,0,-63,-387,3896,0.01,-0.02,0.01,-0.63,-3.87,38.96,-5.66,0.95,-1.80,3.41,-0.46,0.09
0,0,0,-72,-385,3903,0.01,-0.02,0.01,-0.72,-3.85,39.03,-5.65,0.97,-1.80,3.40,-0.62,0.09
0,0,0,-71,-388,3899,0.01,-0.02,0.01,-0.71,-3.88,38.99,-5.66,0.99,-1.80,3.41,-0.62,0.09
1,0,0,-61,-390,3897,0.01,-0.01,0.01,-0.61,-3.90,38.97,-5.67,0.97,-1.79,3.27,-0.61,0.09
0,0,0,-69,-388,3894,0.01,-0.01,0.01,-0.69,-3.88,38.94,-5.68,0.99,-1.79,3.43,-0.62,0.09
0,0,-1,-70,-390,3890,0.01,-0.01,0.00,-0.70,-3.90,38.90,-5.69,1.00,-1.79,3.43,-0.62,0.10
1,0,0,-72,-394,3894,0.01,-0.01,0.00,-0.72,-3.94,38.94,-5.71,1.01,-1.79,3.30,-0.63,0.09
0,0,-1,-69,-391,3900,0.01,-0.01,-0.01,-0.69,-3.91,39.00,-5.73,1.01,-1.79,3.46,-0.62,0.10
0,-1,-1,-70,-378,3898,0.01,-0.01,-0.01,-0.70,-3.78,38.98,-5.71,1.01,-1.79,3.45,-0.48,0.10
0,-1,0,-70,-378,3895,0.01,-0.02,-0.01,-0.70,-3.78,38.95,-5.69,1.01,-1.79,3.43,-0.49,0.09
0,-1,0,-69,-379,3902,0.01,-0.02,-0.01,-0.69,-3.79,39.02,-5.67,1.01,-1.79,3.42,-0.50,0.09
0,-1,1,-67,-388,3903,0.01,-0.03,-0.00,-0.67,-3.88,39.03,-5.67,0.99,-1.79,3.42,-0.49,0.08
1,0,1,-66,-385,3907,0.01,-0.02,0.00,-0.66,-3.85,39.07,-5.66,0.98,-1.80,3.27,-0.64,0.08
1,0,0,-65,-387,3896,0.02,-0.02,0.00,-0.65,-3.87,38.96,-5.67,0.97,-1.80,3.28,-0.62,0.09
0,0,0,-61,-389,3908,0.02,-0.02,0.00,-0.61,-3.89,39.08,-5.67,0.95,-1.79,3.43,-0.61,0.09
0,-1,0,-59,-383,3902,0.02,-0.02,0.00,-0.59,-3.83,39.02,-5.66,0.93,-1.80,3.42,-0.45,0.09
0,0,1,-60,-383,3896,0.01,-0.02,0.01,-0.60,-3.83,38.96,-5.65,0.92,-1.80,3.41,-0.59,0.08
0,0,0,-65,-383,3909,0.01,-0.02,0.01,-0.65,-3.83,39.09,-5.63,0.93,-1.80,3.40,-0.59,0.09
0,-1,0,-65,-388,3916,0.01,-0.02,0.01,-0.65,-3.88,39.16,-5.65,0.94,-1.80,3.41,-0.45,0.09
1,-1,0,-67,-379,3911,0.02,-0.03,0.01,-0.67,-3.79,39.11,-5.63,0.94,-1.80,3.26,-0.47,0.09
1,-1,0,-69,-373,3902,0.02,-0.03,0.01,-0.69,-3.73,39.02,-5.61,0.95,-1.80,3.25,-0.48,0.09
0,0,1,-69,-375,3903,0.02,-0.03,0.01,-0.69,-3.75,39.03,-5.60,0.96,-1.80,3.39,-0.63,0.08
0,0,0,-65,-378,3900,0.02,-0.02,0.01,-0.65,-3.78,39.00,-5.58,0.96,-1.80,3.38,-0.62,0.09
0,-1,0,-74,-389,3892,0.01,-0.03,0.01,-0.74,-3.89,38.92,-5.59,0.97,-1.80,3.38,-0.48,0.09
-1,0,0,-79,-387,3889,0.01,-0.03,0.01,-0.79,-3.87,38.89,-5.60,0.98,-1.80,3.53,-0.64,0.09
0,0,1,-63,-389,3885,0.01,-0.02,0.01,-0.63,-3.89,38.85,-5.61,0.98,-1.80,3.38,-0.63,0.08
-1,0,0,-56,-389,3912,-0.00,-0.02,0.01,-0.56,-3.89,39.12,-5.62,0.96,-1.80,3.53,-0.61,0.09
0,0,0,-63,-381,3897,-0.00,-0.02,0.01,-0.63,-3.81,38.97,-5.61,0.95,-1.80,3.36,-0.60,0.09
0,0,0,-62,-391,3891,-0.00,-0.02,0.01,-0.62,-3.91,38.91,-5.63,0.94,-1.80,3.38,-0.60,0.09
0,-1,0,-67,-393,3884,-0.00,-0.02,0.01,-0.67,-3.93,38.84,-5.64,0.95,-1.80,3.39,-0.46,0.09
1,0,0,-65,-381,3895,0.01,-0.02,0.01,-0.65,-3.81,38.95,-5.63,0.95,-1.80,3.23,-0.60,0.09
1,-1,1,-70,-380,3892,0.01,-0.02,0.01,-0.70,-3.80,38.92,-5.62,0.96,-1.80,3.24,-0.47,0.08
1,-1,1,-64,-383,3885,0.02,-0.03,0.02,-0.64,-3.83,38.85,-5.63,0.95,-1.80,3.25,-0.47,0.08
3,-1,1,-68,-392,3895,0.03,-0.03,0.02,-0.68,-3.92,38.95,-5.64,0.95,-1.80,2.99,-0.48,0.08
2,-1,0,-69,-392,3895,0.04,-0.03,0.02,-0.69,-3.92,38.95,-5.66,0.96,-1.80,3.17,-0.49,0.09
2,-1,0,-60,-383,3903,0.05,-0.04,0.02,-0.60,-3.83,39.03,-5.65,0.95,-1.80,3.18,-0.48,0.09
2,-2,0,-57,-382,3908,0.06,-0.04,0.02,-0.57,-3.82,39.08,-5.64,0.93,-1.80,3.19,-0.34,0.09
1,-1,1,-77,-386,3901,0.06,-0.05,0.02,-0.77,-3.86,39.01,-5.64,0.95,-1.80,3.34,-0.50,0.08
1,-1,0,-61,-376,3910,0.06,-0.05,0.02,-0.61,-3.76,39.10,-5.62,0.94,-1.80,3.33,-0.50,0.09
1,0,0,-66,-382,3901,0.06,-0.04,0.02,-0.66,-3.82,39.01,-5.61,0.95,-1.80,3.32,-0.65,0.09
1,-1,0,-65,-389,3900,0.06,-0.04,0.02,-0.65,-3.89,39.00,-5.63,0.95,-1.80,3.33,-0.50,0.09
1,0,0,-66,-388,3910,0.06,-0.04,0.01,-0.66,-3.88,39.10,-5.64,0.96,-1.80,3.34,-0.65,0.09
0,-1,1,-39,-375,3899,0.05,-0.04,0.02,-0.39,-3.75,38.99,-5.64,0.94,-1.80,3.48,-0.49,0.08
-2,-17,11,46,-355,3965,0.04,-0.14,0.08,0.46,-3.55,39.65,-5.63,0.92,-1.80,3.75,1.77,0.00
1,-18,8,1,-453,3728,0.04,-0.24,0.12,0.01,-4.53,37.28,-5.65,0.91,-1.80,3.31,1.75,0.02
-6,-24,103,-55,-395,3885,-0.00,-0.36,0.74,-0.55,-3.95,38.85,-5.66,0.90,-1.80,4.31,2.44,-0.73
-1,-21,79,-136,-334,3899,-0.01,-0.45,1.15,-1.36,-3.34,38.99,-5.65,0.91,-1.81,3.53,1.80,-0.63
-1,-8,14,-104,-384,3916,-0.01,-0.46,1.12,-1.04,-3.84,39.16,-5.65,0.93,-1.81,3.52,-0.20,-0.19
1,-3,10,-44,-388,3890,-0.01,-0.43,1.07,-0.44,-3.88,38.90,-5.65,0.91,-1.81,3.23,-0.90,-0.15
2,0,3,-72,-409,3899,0.01,-0.39,0.98,-0.72,-4.09,38.99,-5.67,0.92,-1.82,3.11,-1.28,-0.09
-1,2,1,-107,-403,3908,-0.00,-0.33,0.89,-1.07,-4.03,39.08,-5.67,0.93,-1.82,3.56,-1.50,-0.06
1,10,1,-126,-401,3971,0.01,-0.24,0.80,-1.26,-4.01,39.71,-5.68,0.95,-1.83,3.26,-2.55,-0.05
0,9,1,-134,-409,3945,0.01,-0.16,0.73,-1.34,-4.09,39.45,-5.68,0.97,-1.83,3.42,-2.26,-0.04
0,13,7,-32,-394,3883,0.00,-0.07,0.70,-0.32,-3.94,38.83,-5.68,0.95,-1.83,3.42,-2.68,-0.07
-2,7,4,-26,-381,3868,-0.01,-0.02,0.65,-0.26,-3.81,38.68,-5.68,0.93,-1.83,3.70,-1.66,-0.04
1,2,1,-35,-393,3887,-0.00,-0.00,0.60,-0.35,-3.93,38.87,-5.69,0.91,-1.84,3.26,-0.86,-0.01
2,2,-2,-49,-376,3889,0.01,0.01,0.52,-0.49,-3.76,38.89,-5.67,0.90,-1.84,3.12,-0.83,0.02
1,-1,1,-60,-364,3907,0.02,0.00,0.48,-0.60,-3.64,39.07,-5.66,0.90,-1.84,3.27,-0.38,0.01
1,0,0,-57,-373,3902,0.02,0.00,0.43,-0.57,-3.73,39.02,-5.64,0.89,-1.84,3.27,-0.53,0.02
0,0,-1,-62,-380,3901,0.02,0.00,0.38,-0.62,-3.80,39.01,-5.62,0.90,-1.84,3.41,-0.53,0.04
-1,0,1,-69,-374,3900,0.01,0.00,0.35,-0.69,-3.74,39.00,-5.61,0.91,-1.85,3.54,-0.54,0.03
1,0,1,-64,-369,3909,0.02,0.00,0.32,-0.64,-3.69,39.09,-5.59,0.91,-1.85,3.23,-0.54,0.03
0,0,2,-71,-376,3903,0.01,0.00,0.30,-0.71,-3.76,39.03,-5.58,0.93,-1.85,3.37,-0.55,0.03
1,-1,2,-57,-396,3894,0.02,-0.00,0.28,-0.57,-3.96,38.94,-5.59,0.92,-1.85,3.24,-0.41,0.03
0,-1,2,-62,-389,3904,0.02,-0.01,0.27,-0.62,-3.89,39.04,-5.61,0.92,-1.85,3.40,-0.42,0.04
1,0,1,-59,-378,3909,0.02,-0.01,0.25,-0.59,-3.78,39.09,-5.60,0.91,-1.85,3.25,-0.56,0.05
1,-1,1,-60,-386,3897,0.03,-0.01,0.23,-0.60,-3.86,38.97,-5.61,0.90,-1.85,3.26,-0.41,0.05
1,-1,0,-56,-391,3897,0.03,-0.02,0.20,-0.56,-3.91,38.97,-5.63,0.89,-1.85,3.28,-0.42,0.06
1,-1,-1,-59,-388,3910,0.03,-0.02,0.18,-0.59,-3.88,39.10,-5.64,0.88,-1.85,3.29,-0.42,0.07
1,-1,-1,-62,-380,3921,0.04,-0.03,0.15,-0.62,-3.80,39.21,-5.62,0.88,-1.85,3.29,-0.43,0.07
1,0,-1,-62,-385,3910,0.04,-0.02,0.13,-0.62,-3.85,39.10,-5.62,0.90,-1.85,3.29,-0.59,0.08
1,-1,0,-61,-381,3895,0.04,-0.03,0.12,-0.61,-3.81,38.95,-5.61,0.90,-1.86,3.29,-0.44,0.07
1,-1,1,-64,-381,3901,0.04,-0.03,0.11,-0.64,-3.81,39.01,-5.59,0.91,-1.86,3.28,-0.45,0.07
1,0,-1,-69,-381,3908,0.04,-0.03,0.10,-0.69,-3.81,39.08,-5.59,0.93,-1.86,3.28,-0.61,0.08
0,-1,1,-63,-386,3897,0.04,-0.03,0.09,-0.63,-3.86,38.97,-5.61,0.93,-1.86,3.44,-0.46,0.07
0,-1,0,-70,-386,3889,0.04,-0.03,0.08,-0.70,-3.86,38.89,-5.62,0.94,-1.86,3.44,-0.48,0.08
0,-1,1,-71,-388,3893,0.03,-0.04,0.08,-0.71,-3.88,38.93,-5.63,0.96,-1.86,3.44,-0.49,0.07
0,-1,1,-67,-382,3895,0.03,-0.04,0.08,-0.67,-3.82,38.95,-5.61,0.97,-1.86,3.42,-0.50,0.07
1,-1,0,-63,-384,3897,0.03,-0.04,0.07,-0.63,-3.84,38.97,-5.62,0.95,-1.86,3.28,-0.50,0.08
0,0,0,-63,-380,3897,0.03,-0.04,0.06,-0.63,-3.80,38.97,-5.60,0.94,-1.86,3.42,-0.64,0.08
0,1,0,-59,-380,3905,0.03,-0.03,0.06,-0.59,-3.80,39.05,-5.59,0.93,-1.86,3.41,-0.76,0.08
1,0,0,-56,-378,3897,0.03,-0.02,0.05,-0.56,-3.78,38.97,-5.59,0.91,-1.86,3.25,-0.59,0.08
1,-1,1,-62,-385,3894,0.03,-0.03,0.05,-0.62,-3.85,38.94,-5.60,0.91,-1.86,3.27,-0.45,0.08
1,1,1,-65,-387,3895,0.04,-0.02,0.05,-0.65,-3.87,38.95,-5.62,0.92,-1.86,3.29,-0.74,0.08
0,0,0,-67,-381,3892,0.03,-0.02,0.05,-0.67,-3.81,38.92,-5.61,0.93,-1.86,3.43,-0.59,0.09
1,-2,1,-64,-386,3901,0.03,-0.03,0.05,-0.64,-3.86,39.01,-5.63,0.93,-1.86,3.29,-0.31,0.08
1,-1,0,-67,-389,3905,0.04,-0.03,0.04,-0.67,-3.89,39.05,-5.64,0.95,-1.86,3.31,-0.47,0.09
4,-6,10,-64,-395,3888,0.06,-0.06,0.10,-0.64,-3.95,38.88,-5.66,0.94,-1.86,2.90,0.23,0.01
4,-4,5,-31,-377,3870,0.08,-0.08,0.12,-0.31,-3.77,38.70,-5.66,0.93,-1.86,2.93,-0.10,0.04
1,1,-1,-75,-394,3918,0.08,-0.07,0.10,-0.75,-3.94,39.18,-5.67,0.94,-1.86,3.39,-0.85,0.08
0,-1,-2,-80,-387,3907,0.07,-0.07,0.08,-0.80,-3.87,39.07,-5.67,0.96,-1.86,3.53,-0.55,0.09
-2,2,-4,-86,-392,3909,0.05,-0.05,0.05,-0.86,-3.92,39.09,-5.67,0.98,-1.86,3.80,-0.98,0.11
-2,2,-3,-87,-401,3932,0.03,-0.03,0.03,-0.87,-4.01,39.32,-5.68,0.99,-1.86,3.77,-0.96,0.11
0,-1,-2,-23,-360,3872,0.03,-0.03,0.01,-0.23,-3.60,38.72,-5.67,0.98,-1.86,3.45,-0.50,0.10
-1,-2,1,-53,-371,3894,0.02,-0.04,0.02,-0.53,-3.71,38.94,-5.65,0.97,-1.86,3.58,-0.36,0.08
5,5,2,-69,-406,3895,0.05,-0.01,0.03,-0.69,-4.06,38.95,-5.67,0.97,-1.86,2.73,-1.36,0.08
2,8,-4,-47,-424,3865,0.06,0.04,-0.00,-0.47,-4.24,38.65,-5.69,0.96,-1.86,3.21,-1.72,0.12
8,128,60,-43,-558,3742,0.10,0.82,0.37,-0.43,-5.58,37.42,-5.71,0.96,-1.86,2.39,-18.55,-0.37
20,137,11,42,-762,3811,0.21,1.57,0.40,0.42,-7.62,38.11,-5.72,0.96,-1.86,0.78,-18.49,-0.05
4,46,-75,28,-689,3834,0.21,1.70,-0.10,0.28,-6.89,38.34,-5.74,0.97,-1.86,3.24,-4.38,0.62
7,25,-117,-57,-599,4022,0.24,1.68,-0.80,-0.57,-5.99,40.22,-5.76,0.97,-1.86,2.83,-1.22,1.02
10,11,-230,-112,-254,3908,0.27,1.58,-2.13,-1.12,-2.54,39.08,-5.74,0.98,-1.85,2.44,0.72,2.00
14,10,-253,-128,-176,3983,0.33,1.48,-3.46,-1.28,-1.76,39.83,-5.72,0.99,-1.83,1.92,0.69,2.37
7,9,-215,-94,-170,3938,0.34,1.39,-4.42,-0.94,-1.70,39.38,-5.70,1.00,-1.82,3.00,0.66,2.27
-2,3,-184,-67,-165,3955,0.29,1.27,-5.10,-0.67,-1.65,39.55,-5.68,1.00,-1.80,4.27,1.34,2.17
1,2,-98,-124,-192,3864,0.27,1.15,-5.19,-1.24,-1.92,38.64,-5.66,1.01,-1.77,3.76,1.27,1.60
0,-1,-81,-131,-280,3931,0.24,1.03,-5.17,-1.31,-2.80,39.31,-5.65,1.02,-1.75,3.85,1.49,1.48
3,-1,-105,52,-467,3931,0.24,0.92,-5.29,0.52,-4.67,39.31,-5.66,1.00,-1.73,3.39,1.30,1.67
-2,-11,-149,65,-511,3865,0.20,0.76,-5.67,0.65,-5.11,38.65,-5.67,0.99,-1.71,4.09,2.53,2.02
4,-12,-257,19,-476,3867,0.21,0.61,-6.67,0.19,-4.76,38.67,-5.68,0.98,-1.68,3.19,2.40,2.92
6,-14,-297,-53,-398,3904,0.22,0.47,-7.82,-0.53,-3.98,39.04,-5.69,0.96,-1.65,2.92,2.44,3.38
9,-9,-395,-290,-279,3886,0.25,0.36,-9.44,-2.90,-2.79,38.86,-5.68,0.98,-1.61,2.52,1.48,4.31
8,-6,-377,-283,-206,3879,0.28,0.29,-10.80,-2.83,-2.06,38.79,-5.67,0.99,-1.57,2.71,0.88,4.40
8,0,-223,-137,-186,3919,0.30,0.26,-11.08,-1.37,-1.86,39.19,-5.65,0.99,-1.53,2.74,-0.10,3.40
10,1,-164,-132,-195,3876,0.33,0.24,-10.97,-1.32,-1.95,38.76,-5.64,0.99,-1.48,2.48,-0.29,2.98
5,-2,-83,-86,-289,3890,0.33,0.21,-10.38,-0.86,-2.89,38.90,-5.62,0.99,-1.44,3.23,0.10,2.34
5,-4,-93,-100,-272,3929,0.33,0.16,-9.91,-1.00,-2.72,39.29,-5.60,1.00,-1.40,3.21,0.32,2.32
2,0,-140,-77,-373,3927,0.31,0.14,-9.77,-0.77,-3.73,39.27,-5.58,1.00,-1.36,3.62,-0.33,2.62
-2,-8,-135,-25,-451,3920,0.26,0.08,-9.62,-0.25,-4.51,39.20,-5.60,0.99,-1.33,4.16,0.78,2.56
-9,-18,-117,-9,-400,3909,0.18,-0.04,-9.37,-0.09,-4.00,39.09,-5.60,0.97,-1.29,5.08,2.10,2.39
-9,-15,-130,-27,-384,3931,0.11,-0.12,-9.23,-0.27,-3.84,39.31,-5.60,0.95,-1.25,4.94,1.49,2.46
-10,-15,-239,-152,-537,3875,0.04,-0.20,-9.76,-1.52,-5.37,38.75,-5.62,0.95,-1.21,4.97,1.33,3.28
-4,-14,-287,-171,-578,3873,0.01,-0.27,-10.54,-1.71,-5.78,38.73,-5.64,0.95,-1.17,4.01,1.05,3.73
0,-12,-463,-209,-590,3872,0.01,-0.31,-12.31,-2.09,-5.90,38.72,-5.65,0.96,-1.12,3.41,0.66,5.21
6,-4,-509,-227,-581,3869,0.04,-0.31,-14.18,-2.27,-5.81,38.69,-5.67,0.96,-1.06,2.57,-0.55,5.83
8,-14,-577,4,-393,3947,0.09,-0.36,-16.28,0.04,-3.93,39.47,-5.67,0.94,-1.00,2.35,0.89,6.63
8,-15,-566,80,-394,3962,0.13,-0.42,-18.11,0.80,-3.94,39.62,-5.67,0.91,-0.93,2.42,0.95,6.85
1,-24,-462,165,-288,3945,0.12,-0.52,-19.11,1.65,-2.88,39.45,-5.66,0.88,-0.85,3.47,2.14,6.31
0,-25,-405,214,-326,3946,0.11,-0.62,-19.67,2.14,-3.26,39.46,-5.66,0.85,-0.77,3.60,2.12,6.01
-4,-18,-347,-47,-278,3889,0.07,-0.67,-19.82,-0.47,-2.78,38.89,-5.64,0.84,-0.70,4.13,0.97,5.64
-5,-12,-330,-120,-219,3863,0.04,-0.68,-19.85,-1.20,-2.19,38.63,-5.63,0.84,-0.62,4.21,0.05,5.52
7,-2,-277,-263,-212,3873,0.07,-0.62,-19.56,-2.63,-2.12,38.73,-5.61,0.84,-0.54,2.44,-1.38,5.11
8,1,-285,-286,-237,3903,0.12,-0.55,-19.34,-2.86,-2.37,39.03,-5.61,0.85,-0.46,2.36,-1.71,5.12
5,4,-325,-251,-295,3893,0.14,-0.47,-19.39,-2.51,-2.95,38.93,-5.60,0.86,-0.39,2.85,-2.02,5.40
9,-1,-350,-255,-293,3889,0.18,-0.43,-19.59,-2.55,-2.93,38.89,-5.59,0.86,-0.31,2.32,-1.18,5.60
16,-4,-475,-175,-375,3916,0.26,-0.41,-20.52,-1.75,-3.75,39.16,-5.59,0.87,-0.23,1.40,-0.69,6.59
12,-10,-519,-196,-411,3885,0.30,-0.43,-21.64,-1.96,-4.11,38.85,-5.59,0.88,-0.14,2.10,0.18,7.07
11,-11,-597,-153,-452,3954,0.34,-0.46,-23.12,-1.53,-4.52,39.54,-5.60,0.88,-0.05,2.33,0.28,7.84
14,-15,-598,-143,-415,3930,0.39,-0.50,-24.45,-1.43,-4.15,39.30,-5.61,0.89,0.05,1.97,0.80,8.06
2,-17,-553,-84,-496,3938,0.37,-0.56,-25.38,-0.84,-4.96,39.38,-5.63,0.88,0.15,3.76,1.01,7.90
7,-7,-538,-78,-470,3891,0.37,-0.54,-26.12,-0.78,-4.70,38.91,-5.65,0.87,0.25,3.02,-0.48,7.92
0,-8,-483,-23,-443,3896,0.33,-0.54,-26.46,-0.23,-4.43,38.96,-5.66,0.85,0.36,4.03,-0.31,7.59
6,-15,-473,-16,-423,3913,0.34,-0.58,-26.70,-0.16,-4.23,39.13,-5.67,0.82,0.47,3.13,0.70,7.56
3,-3,-466,-81,-380,3913,0.32,-0.54,-26.87,-0.81,-3.80,39.13,-5.67,0.83,0.57,3.55,-1.05,7.53
-14,-1,-469,-90,-364,3836,0.20,-0.49,-27.04,-0.90,-3.64,38.36,-5.66,0.83,0.68,5.92,-1.27,7.58
0,3,-487,-158,-452,3830,0.18,-0.42,-27.31,-1.58,-4.52,38.30,-5.67,0.83,0.79,3.75,-1.76,7.74
15,5,-485,-170,-475,3912,0.26,-0.35,-27.54,-1.70,-4.75,39.12,-5.68,0.84,0.90,1.61,-1.92,7.76
3,-12,-496,-64,-344,3943,0.25,-0.39,-27.81,-0.64,-3.44,39.43,-5.67,0.83,1.01,3.42,0.60,7.87
6,-12,-517,-32,-224,3920,0.26,-0.42,-28.18,-0.32,-2.24,39.20,-5.65,0.81,1.12,2.97,0.55,8.07
14,-9,-551,-86,-257,3871,0.32,-0.43,-28.73,-0.86,-2.57,38.71,-5.63,0.80,1.23,1.85,0.07,8.38
0,-13,-577,-119,-229,3906,0.29,-0.47,-29.37,-1.19,-2.29,39.06,-5.62,0.79,1.35,3.92,0.62,8.66
10,-19,-636,-32,-273,3876,0.32,-0.54,-30.31,-0.32,-2.73,38.76,-5.60,0.78,1.47,2.44,1.41,9.21
6,-23,-654,-27,-318,3935,0.33,-0.63,-31.27,-0.27,-3.18,39.35,-5.58,0.76,1.59,3.05,1.87,9.48
-7,-13,-688,10,-393,3939,0.25,-0.64,-32.34,0.10,-3.93,39.39,-5.58,0.72,1.72,4.89,0.33,9.88
1,-20,-696,-30,-404,3895,0.23,-0.70,-33.35,-0.30,-4.04,38.95,-5.60,0.69,1.86,3.64,1.31,10.09
9,-18,-749,62,-320,3893,0.26,-0.74,-34.59,0.62,-3.20,38.93,-5.59,0.66,1.99,2.48,0.95,10.65
10,-19,-788,75,-376,3905,0.30,-0.78,-35.94,0.75,-3.76,39.05,-5.59,0.63,2.14,2.39,1.04,11.12
8,-32,-990,102,-414,3892,0.32,-0.90,-38.38,1.02,-4.14,38.92,-5.59,0.59,2.29,2.74,2.82,12.89
0,-40,-1096,96,-555,3896,0.28,-1.05,-41.23,0.96,-5.55,38.96,-5.61,0.56,2.45,3.91,3.77,14.06
10,-128,-1251,-38,-637,3630,0.32,-1.73,-44.74,-0.38,-6.37,36.30,-5.63,0.53,2.63,2.45,15.93,15.68
-5,-115,-1259,-70,-645,3729,0.26,-2.26,-47.94,-0.70,-6.45,37.29,-5.65,0.51,2.82,4.63,12.96,16.25
22,-59,-1183,-76,-760,3854,0.36,-2.39,-50.36,-0.76,-7.60,38.54,-5.67,0.48,3.02,0.73,4.18,16.12
20,-53,-1155,-100,-738,3887,0.45,-2.48,-52.37,-1.00,-7.38,38.87,-5.68,0.45,3.23,1.21,3.12,16.25
28,-24,-1109,-235,-476,3856,0.58,-2.37,-53.90,-2.35,-4.76,38.56,-5.69,0.44,3.44,0.23,-1.10,16.18
18,-22,-1108,-228,-427,3810,0.63,-2.27,-55.27,-2.28,-4.27,38.10,-5.69,0.43,3.66,1.86,-1.20,16.38
20,-14,-1072,-138,-103,3941,0.69,-2.13,-56.28,-1.38,-1.03,39.41,-5.68,0.40,3.88,1.66,-2.14,16.30
18,-15,-1042,-110,-45,3909,0.73,-2.01,-57.01,-1.10,-0.45,39.09,-5.66,0.38,4.11,2.03,-1.74,16.20
14,-5,-863,-89,-22,3901,0.74,-1.84,-56.57,-0.89,-0.22,39.01,-5.64,0.35,4.33,2.65,-2.93,14.90
9,-7,-767,-67,-171,3883,0.72,-1.70,-55.59,-0.67,-1.71,38.83,-5.62,0.33,4.55,3.36,-2.34,14.08
21,-3,-691,-17,-180,3899,0.78,-1.55,-54.25,-0.17,-1.80,38.99,-5.60,0.30,4.77,1.63,-2.65,13.34
20,-1,-700,-16,-226,3848,0.82,-1.40,-53.10,-0.16,-2.26,38.48,-5.58,0.27,4.98,1.85,-2.66,13.20
16,0,-888,-79,-240,3953,0.84,-1.26,-53.20,-0.79,-2.40,39.53,-5.56,0.25,5.19,2.48,-2.53,14.48
20,5,-940,-144,-205,3968,0.88,-1.10,-53.62,-1.44,-2.05,39.68,-5.54,0.24,5.40,1.93,-2.99,14.89
24,-10,-948,36,-122,3902,0.93,-1.05,-54.04,0.36,-1.22,39.02,-5.52,0.21,5.62,1.42,-0.59,15.00
24,-4,-890,15,-147,3816,0.99,-0.97,-54.06,0.15,-1.47,38.16,-5.50,0.18,5.83,1.51,-1.34,14.60
17,-11,-624,53,-437,3930,0.99,-0.94,-52.46,0.53,-4.37,39.30,-5.51,0.14,6.04,2.59,-0.19,12.53
16,-13,-560,18,-488,3949,0.99,-0.93,-50.63,0.18,-4.88,39.49,-5.52,0.12,6.24,2.75,0.16,11.78
-2,-5,-397,-72,-499,3885,0.88,-0.86,-47.99,-0.72,-4.99,38.85,-5.53,0.10,6.43,5.29,-0.94,10.23
8,-1,-346,-98,-457,3924,0.84,-0.78,-45.30,-0.98,-4.57,39.24,-5.54,0.10,6.61,3.70,-1.39,9.44
5,-2,-308,-147,-333,3901,0.79,-0.72,-42.65,-1.47,-3.33,39.01,-5.53,0.09,6.78,4.05,-1.11,8.74
3,1,-317,-176,-287,3896,0.73,-0.64,-40.32,-1.76,-2.87,38.96,-5.52,0.09,6.94,4.23,-1.42,8.41
5,1,-443,-247,-178,3922,0.68,-0.57,-38.99,-2.47,-1.78,39.22,-5.51,0.09,7.10,3.84,-1.29,9.04
15,1,-478,-210,-200,3857,0.71,-0.51,-38.01,-2.10,-2.00,38.57,-5.49,0.09,7.25,2.35,-1.16,9.11
10,7,-639,-214,-199,3847,0.70,-0.41,-38.10,-2.14,-1.99,38.47,-5.48,0.08,7.40,3.08,-1.90,10.21
16,18,-680,-208,-159,3878,0.73,-0.26,-38.44,-2.08,-1.59,38.78,-5.46,0.08,7.55,2.21,-3.29,10.53
17,24,-799,-19,-377,3914,0.76,-0.09,-39.47,-0.19,-3.77,39.14,-5.46,0.08,7.71,2.12,-3.88,11.50
6,21,-822,42,-361,3913,0.72,0.05,-40.54,0.42,-3.61,39.13,-5.46,0.05,7.87,3.72,-3.14,11.82
21,-13,-909,179,-496,3850,0.77,-0.04,-42.03,1.79,-4.96,38.50,-5.46,0.02,8.04,1.54,1.90,12.65
13,-2,-920,170,-488,3921,0.78,-0.05,-43.44,1.70,-4.88,39.21,-5.47,-0.01,8.21,2.77,0.23,12.94
10,5,-894,127,-520,3908,0.76,-0.01,-44.55,1.27,-5.20,39.08,-5.48,-0.04,8.39,3.20,-0.76,12.94
10,6,-881,30,-535,3911,0.74,0.03,-45.47,0.30,-5.35,39.11,-5.50,-0.06,8.57,3.18,-0.83,12.99
24,18,-794,-133,-321,3923,0.82,0.13,-45.76,-1.33,-3.21,39.23,-5.49,-0.06,8.75,1.18,-2.45,12.44
23,12,-793,-155,-366,3797,0.87,0.19,-46.02,-1.55,-3.66,37.97,-5.48,-0.06,8.94,1.44,-1.43,12.47
12,5,-888,-306,-345,3839,0.86,0.21,-46.84,-3.06,-3.45,38.39,-5.48,-0.06,9.12,3.09,-0.34,13.24
12,3,-917,-371,-309,3891,0.85,0.20,-47.75,-3.71,-3.09,38.91,-5.47,-0.06,9.31,3.06,-0.04,13.58
19,-12,-1073,-233,-200,3884,0.88,0.11,-49.52,-2.33,-2.00,38.84,-5.46,-0.06,9.51,2.04,2.07,14.91
16,-13,-1111,-206,-104,3878,0.89,0.02,-51.34,-2.06,-1.04,38.78,-5.44,-0.07,9.72,2.51,2.06,15.46
25,-20,-1162,93,-302,3911,0.95,-0.10,-53.30,0.93,-3.02,39.11,-5.42,-0.10,9.93,1.24,2.91,16.11
18,-20,-1114,187,-255,3905,0.97,-0.22,-54.76,1.87,-2.55,39.05,-5.41,-0.14,10.15,2.33,2.73,16.02
9,-23,-849,223,-223,3830,0.93,-0.33,-54.47,2.23,-2.23,38.30,-5.39,-0.18,10.36,3.62,2.98,14.16
7,-25,-779,209,-237,3987,0.88,-0.45,-53.77,2.09,-2.37,39.87,-5.38,-0.22,10.58,3.82,3.08,13.56
15,-16,-575,73,-367,4006,0.88,-0.51,-51.90,0.73,-3.67,40.06,-5.37,-0.25,10.78,2.60,1.63,11.86
2,-18,-522,-12,-300,3889,0.80,-0.57,-49.90,-0.12,-3.00,38.89,-5.35,-0.27,10.98,4.43,1.84,11.17
-11,-27,-439,-53,-353,3892,0.66,-0.67,-47.58,-0.53,-3.53,38.92,-5.35,-0.27,11.17,6.13,3.00,10.22
0,-28,-445,-168,-308,3977,0.59,-0.78,-45.54,-1.68,-3.08,39.77,-5.34,-0.27,11.35,4.32,2.96,9.91
9,-23,-467,-67,-340,3884,0.59,-0.84,-43.84,-0.67,-3.40,38.84,-5.33,-0.28,11.53,2.93,2.08,9.77
-2,-16,-461,-8,-374,3859,0.52,-0.85,-42.26,-0.08,-3.74,38.59,-5.33,-0.28,11.69,4.48,0.99,9.47
3,-4,-458,-144,-353,3849,0.48,-0.79,-40.83,-1.44,-3.53,38.49,-5.33,-0.28,11.86,3.65,-0.72,9.20
6,1,-468,-135,-342,3880,0.47,-0.71,-39.60,-1.35,-3.42,38.80,-5.33,-0.28,12.01,3.17,-1.32,9.06
13,4,-517,-136,-335,3891,0.50,-0.61,-38.80,-1.36,-3.35,38.91,-5.32,-0.28,12.17,2.16,-1.60,9.25
18,2,-530,-99,-320,3924,0.56,-0.54,-38.15,-0.99,-3.20,39.24,-5.31,-0.28,12.32,1.51,-1.16,9.23
4,-10,-551,8,-292,3861,0.53,-0.55,-37.70,0.08,-2.92,38.61,-5.29,-0.29,12.47,3.57,0.66,9.29
20,-20,-555,87,-210,3999,0.60,-0.61,-37.31,0.87,-2.10,39.99,-5.27,-0.31,12.62,1.25,2.08,9.25
1,-12,-532,-85,-235,3847,0.55,-0.62,-36.83,-0.85,-2.35,38.47,-5.25,-0.32,12.77,4.03,0.84,9.00
0,-24,-530,-106,-293,3945,0.49,-0.71,-36.38,-1.06,-2.93,39.45,-5.24,-0.32,12.91,4.07,2.51,8.91
6,-21,-491,-91,-353,3867,0.48,-0.77,-35.73,-0.91,-3.53,38.67,-5.24,-0.31,13.05,3.13,1.94,8.53
-4,-20,-482,-85,-406,3913,0.41,-0.81,-35.10,-0.85,-4.06,39.13,-5.24,-0.31,13.19,4.53,1.70,8.36
-4,-23,-487,-43,-467,3914,0.34,-0.87,-34.56,-0.43,-4.67,39.14,-5.26,-0.32,13.33,4.41,2.05,8.30
10,-17,-480,0,-414,3819,0.37,-0.89,-34.03,0.00,-4.14,38.19,-5.27,-0.33,13.46,2.34,1.11,8.16
6,-19,-459,-100,-386,3836,0.37,-0.91,-33.43,-1.00,-3.86,38.36,-5.27,-0.33,13.60,2.95,1.36,7.91
-6,-7,-459,-57,-383,3881,0.29,-0.87,-32.89,-0.57,-3.83,38.81,-5.28,-0.33,13.73,4.64,-0.38,7.81
11,-9,-503,-54,-277,3937,0.33,-0.83,-32.67,-0.54,-2.77,39.37,-5.26,-0.33,13.86,2.11,-0.01,8.07
9,-13,-523,-115,-316,3887,0.35,-0.83,-32.59,-1.15,-3.16,38.87,-5.25,-0.33,13.99,2.45,0.61,8.19
15,4,-564,-230,-314,3931,0.41,-0.72,-32.77,-2.30,-3.14,39.31,-5.25,-0.32,14.12,1.64,-1.78,8.49
8,9,-584,-277,-331,3884,0.42,-0.60,-33.06,-2.77,-3.31,38.84,-5.24,-0.32,14.25,2.72,-2.31,8.66
16,9,-658,-225,-352,3926,0.47,-0.48,-33.76,-2.25,-3.52,39.26,-5.24,-0.32,14.38,1.60,-2.09,9.27
3,10,-683,-217,-298,3848,0.44,-0.37,-34.55,-2.17,-2.98,38.48,-5.23,-0.31,14.52,3.53,-2.04,9.57
14,-10,-753,10,-432,3857,0.49,-0.40,-35.69,0.10,-4.32,38.57,-5.25,-0.32,14.66,1.93,0.97,10.22
18,-10,-775,30,-468,3989,0.55,-0.42,-36.85,0.30,-4.68,39.89,-5.26,-0.34,14.81,1.45,0.94,10.55
13,-11,-851,-60,-627,3942,0.57,-0.44,-38.36,-0.60,-6.27,39.42,-5.28,-0.35,14.96,2.27,1.05,11.31
12,-8,-899,-40,-537,3908,0.59,-0.45,-40.00,-0.40,-5.37,39.08,-5.29,-0.36,15.12,2.46,0.59,11.89
15,-2,-1035,-230,-460,3927,0.62,-0.41,-42.32,-2.30,-4.60,39.27,-5.30,-0.36,15.29,2.06,-0.26,13.19
16,-7,-1082,-167,-427,3944,0.66,-0.42,-44.69,-1.67,-4.27,39.44,-5.30,-0.36,15.47,1.98,0.50,13.88
11,-5,-1156,-75,-443,3813,0.66,-0.40,-47.27,-0.75,-4.43,38.13,-5.31,-0.37,15.66,2.75,0.22,14.80
23,-11,-1182,-145,-412,3866,0.73,-0.43,-49.75,-1.45,-4.12,38.66,-5.31,-0.37,15.85,1.06,1.08,15.37
18,-4,-1226,-132,-296,3873,0.77,-0.41,-52.26,-1.32,-2.96,38.73,-5.30,-0.37,16.06,1.89,0.05,16.07
15,0,-1239,-192,-242,3913,0.78,-0.37,-54.59,-1.92,-2.42,39.13,-5.28,-0.38,16.28,2.37,-0.48,16.53
13,-18,-1222,-66,-317,3965,0.78,-0.44,-56.58,-0.66,-3.17,39.65,-5.27,-0.39,16.50,2.66,2.14,16.73
14,-27,-1185,-34,-283,3890,0.79,-0.56,-58.15,-0.34,-2.83,38.90,-5.25,-0.40,16.74,2.51,3.29,16.73
12,-17,-1050,127,-403,3898,0.79,-0.61,-58.74,1.27,-4.03,38.98,-5.25,-0.44,16.97,2.81,1.70,15.90
10,-9,-1003,96,-281,3846,0.77,-0.61,-58.99,0.96,-2.81,38.46,-5.23,-0.48,17.20,3.07,0.51,15.61
17,-20,-871,80,-392,3932,0.79,-0.67,-58.40,0.80,-3.92,39.32,-5.24,-0.51,17.44,2.06,2.10,14.60
-6,-25,-841,97,-282,3861,0.68,-0.75,-57.69,0.97,-2.82,38.61,-5.22,-0.55,17.67,5.33,2.72,14.27
3,-14,-743,38,-431,3896,0.63,-0.76,-56.45,0.38,-4.31,38.96,-5.23,-0.57,17.89,3.87,1.03,13.39
-3,-13,-681,35,-437,3865,0.55,-0.77,-54.96,0.35,-4.37,38.65,-5.25,-0.60,18.11,4.64,0.89,12.72
12,-11,-554,-75,-473,3914,0.57,-0.76,-52.85,-0.75,-4.73,39.14,-5.26,-0.61,18.32,2.40,0.61,11.50
5,-7,-529,-74,-494,3913,0.54,-0.72,-50.79,-0.74,-4.94,39.13,-5.27,-0.62,18.52,3.42,0.07,10.98
-1,-8,-448,-110,-372,3908,0.48,-0.70,-48.44,-1.10,-3.72,39.08,-5.26,-0.62,18.71,4.22,0.26,10.04
-1,-14,-446,-50,-395,3934,0.43,-0.72,-46.32,-0.50,-3.95,39.34,-5.27,-0.62,18.90,4.12,1.15,9.67
6,-6,-495,-123,-300,3918,0.42,-0.68,-44.71,-1.23,-3.00,39.18,-5.26,-0.62,19.08,3.03,-0.00,9.73
12,-6,-516,-134,-307,3917,0.45,-0.65,-43.38,-1.34,-3.07,39.17,-5.25,-0.62,19.25,2.17,0.06,9.65
11,0,-555,-21,-225,3875,0.47,-0.58,-42.43,-0.21,-2.25,38.75,-5.23,-0.63,19.42,2.35,-0.73,9.74
8,-8,-567,-87,-309,3933,0.47,-0.57,-41.65,-0.87,-3.09,39.33,-5.22,-0.63,19.58,2.81,0.51,9.69
21,9,-549,-34,-416,3885,0.56,-0.46,-40.83,-0.34,-4.16,38.85,-5.22,-0.64,19.75,0.98,-1.87,9.43
22,16,-517,-72,-414,3906,0.63,-0.32,-39.90,-0.72,-4.14,39.06,-5.23,-0.63,19.90,0.98,-2.66,9.05
42,35,-472,-89,-541,3958,0.83,-0.07,-38.79,-0.89,-5.41,39.58,-5.24,-0.64,20.06,-1.70,-5.09,8.55
50,42,-459,-72,-547,3954,1.05,0.19,-37.71,-0.72,-5.47,39.54,-5.25,-0.64,20.21,-2.49,-5.66,8.28
45,33,-359,-29,-419,4024,1.22,0.37,-36.13,-0.29,-4.19,40.24,-5.25,-0.64,20.35,-1.40,-3.94,7.34
45,39,-277,-12,-344,3857,1.37,0.57,-34.21,-0.12,-3.44,38.57,-5.24,-0.63,20.49,-1.12,-4.48,6.46
26,24,-117,76,-358,3994,1.39,0.66,-31.50,0.76,-3.58,39.94,-5.23,-0.66,20.61,1.81,-2.01,4.92
30,29,-87,65,-284,3893,1.44,0.77,-28.88,0.65,-2.84,38.93,-5.20,-0.67,20.73,1.27,-2.56,4.29
16,13,-47,-147,-284,3957,1.39,0.78,-26.28,-1.47,-2.84,39.57,-5.19,-0.66,20.84,3.31,-0.12,3.58
17,20,-59,-131,-250,3929,1.36,0.82,-24.01,-1.31,-2.50,39.29,-5.17,-0.65,20.93,3.08,-1.11,3.29
10,-5,-163,-187,-139,3892,1.28,0.71,-22.60,-1.87,-1.39,38.92,-5.16,-0.64,21.02,3.99,2.49,3.76
4,-11,-204,-251,-191,3896,1.18,0.57,-21.59,-2.51,-1.91,38.96,-5.14,-0.63,21.11,4.70,3.13,3.87
-2,-13,-305,-77,-209,3865,1.05,0.43,-21.29,-0.77,-2.09,38.65,-5.12,-0.62,21.19,5.36,3.18,4.50
-9,-23,-314,25,-171,3873,0.89,0.25,-21.08,0.25,-1.71,38.73,-5.10,-0.63,21.28,6.11,4.36,4.52
-4,-12,-375,-32,-333,3919,0.77,0.15,-21.26,-0.32,-3.33,39.19,-5.09,-0.62,21.36,5.13,2.49,4.96
-19,-21,-399,38,-369,3839,0.58,0.01,-21.56,0.38,-3.69,38.39,-5.11,-0.62,21.45,7.06,3.59,5.17
-30,-40,-411,59,-321,3913,0.34,-0.24,-21.92,0.59,-3.21,39.13,-5.09,-0.64,21.54,8.27,6.04,5.30
-5,-30,-396,85,-320,3903,0.28,-0.40,-22.14,0.85,-3.20,39.03,-5.08,-0.66,21.62,4.33,4.22,5.23
-19,-27,-263,-42,-381,3824,0.13,-0.52,-21.53,-0.42,-3.81,38.24,-5.08,-0.66,21.71,6.20,3.53,4.23
-17,-24,-232,-70,-486,3937,0.02,-0.62,-20.79,-0.70,-4.86,39.37,-5.10,-0.66,21.79,5.68,2.89,3.89
-14,-13,-186,-68,-302,3924,-0.07,-0.63,-19.85,-0.68,-3.02,39.24,-5.09,-0.65,21.87,5.05,1.17,3.42
-17,-18,-207,-58,-247,3888,-0.17,-0.68,-19.13,-0.58,-2.47,38.88,-5.07,-0.65,21.95,5.32,1.84,3.44
-4,-5,-302,-116,-236,3893,-0.18,-0.64,-19.05,-1.16,-2.36,38.93,-5.06,-0.64,22.02,3.32,-0.07,4.07
-1,-7,-324,-86,-275,3871,-0.16,-0.62,-19.13,-0.86,-2.75,38.71,-5.06,-0.63,22.10,2.87,0.27,4.23
-9,-35,-402,50,-225,3877,-0.20,-0.77,-19.67,0.50,-2.25,38.77,-5.04,-0.64,22.18,4.01,4.26,4.84
-25,-45,-432,-52,-204,3874,-0.34,-0.97,-20.33,-0.52,-2.04,38.74,-5.02,-0.64,22.26,6.19,5.41,5.15
-9,-27,-502,-34,-329,4011,-0.36,-1.04,-21.36,-0.34,-3.29,40.11,-5.02,-0.64,22.34,3.71,2.54,5.79
13,-7,-521,47,-346,3959,-0.24,-0.98,-22.40,0.47,-3.46,39.59,-5.01,-0.67,22.43,0.57,-0.38,6.08
13,1,-602,62,-184,3827,-0.14,-0.87,-23.84,0.62,-1.84,38.27,-4.99,-0.68,22.53,0.75,-1.40,6.86
0,-16,-605,-40,-185,3919,-0.12,-0.88,-25.14,-0.40,-1.85,39.19,-4.97,-0.68,22.63,2.75,1.18,7.09
7,-5,-644,-119,-387,3870,-0.07,-0.83,-26.56,-1.19,-3.87,38.70,-4.98,-0.68,22.73,1.79,-0.39,7.58
8,-18,-649,-43,-320,3878,-0.01,-0.85,-27.86,-0.43,-3.20,38.78,-4.97,-0.67,22.84,1.74,1.53,7.82
3,-5,-623,60,-380,3858,0.01,-0.80,-28.87,0.60,-3.80,38.58,-4.99,-0.69,22.96,2.55,-0.33,7.81
13,-13,-599,38,-463,3953,0.08,-0.80,-29.64,0.38,-4.63,39.53,-5.01,-0.70,23.07,1.18,0.89,7.76
5,-12,-481,19,-438,3879,0.11,-0.79,-29.61,0.19,-4.38,38.79,-5.02,-0.71,23.19,2.45,0.76,6.95
1,-16,-464,-14,-393,3891,0.10,-0.81,-29.48,-0.14,-3.93,38.91,-5.03,-0.71,23.31,3.06,1.33,6.81
2,-14,-512,-77,-223,3967,0.10,-0.81,-29.66,-0.77,-2.23,39.67,-5.02,-0.71,23.43,2.90,1.02,7.16
-8,-12,-543,-176,-172,3951,0.05,-0.81,-30.00,-1.76,-1.72,39.51,-5.00,-0.71,23.55,4.31,0.73,7.42
6,-18,-662,-151,-56,3874,0.08,-0.83,-31.04,-1.51,-0.56,38.74,-4.99,-0.71,23.67,2.22,1.59,8.39
3,-10,-707,-207,-52,3867,0.09,-0.81,-32.25,-2.07,-0.52,38.67,-4.97,-0.72,23.80,2.69,0.42,8.89
37,19,-862,-320,-195,3865,0.30,-0.62,-34.28,-3.20,-1.95,38.65,-4.96,-0.71,23.94,-2.09,-3.63,10.26
39,25,-903,-356,-282,3843,0.51,-0.40,-36.36,-3.56,-2.82,38.43,-4.95,-0.71,24.08,-2.00,-4.15,10.88
33,12,-1009,65,-459,3861,0.66,-0.29,-38.88,0.65,-4.59,38.61,-4.97,-0.73,24.23,-0.80,-1.94,12.00
32,10,-1017,89,-545,3901,0.79,-0.20,-41.20,0.89,-5.45,39.01,-4.98,-0.75,24.40,-0.39,-1.45,12.42
17,-11,-1003,231,-392,3909,0.82,-0.25,-43.20,2.31,-3.92,39.09,-4.98,-0.78,24.57,1.94,1.68,12.65
8,-5,-979,137,-306,3846,0.78,-0.25,-44.85,1.37,-3.06,38.46,-4.97,-0.81,24.75,3.24,0.77,12.75
15,0,-959,-30,-335,3844,0.80,-0.23,-46.21,-0.30,-3.35,38.44,-4.96,-0.81,24.93,2.20,0.06,12.83
-3,-28,-954,-47,-229,3919,0.70,-0.37,-47.41,-0.47,-2.29,39.19,-4.94,-0.82,25.12,4.75,4.05,12.98
-6,-31,-949,-121,-344,3880,0.59,-0.53,-48.46,-1.21,-3.44,38.80,-4.94,-0.82,25.32,5.00,4.22,13.11
11,-14,-928,-62,-272,3965,0.60,-0.56,-49.27,-0.62,-2.72,39.65,-4.93,-0.82,25.51,2.41,1.57,13.09
11,6,-797,-93,-367,3821,0.61,-0.47,-49.21,-0.93,-3.67,38.21,-4.92,-0.82,25.71,2.43,-1.30,12.18
25,-10,-790,-38,-435,3925,0.70,-0.48,-49.11,-0.38,-4.35,39.25,-4.93,-0.83,25.90,0.47,1.11,12.11
0,-23,-782,-7,-389,3794,0.63,-0.57,-48.97,-0.07,-3.89,37.94,-4.94,-0.83,26.10,4.15,2.92,12.02
-1,-30,-757,14,-348,4342,0.56,-0.70,-48.69,0.14,-3.48,43.42,-4.93,-0.84,26.29,4.17,3.75,11.80
10,4,-756,-41,-296,3807,0.56,-0.60,-48.43,-0.41,-2.96,38.07,-4.92,-0.84,26.48,2.49,-1.25,11.74
7,-4,-720,76,-237,3825,0.55,-0.57,-47.98,0.76,-2.37,38.25,-4.89,-0.86,26.68,2.91,0.05,11.41
14,-11,-607,61,-354,3953,0.58,-0.58,-46.88,0.61,-3.54,39.53,-4.91,-0.88,26.86,1.91,1.11,10.45
16,-7,-590,-26,-456,3942,0.62,-0.56,-45.79,-0.26,-4.56,39.42,-4.91,-0.89,27.04,1.68,0.53,10.15
9,-4,-530,-49,-285,3954,0.61,-0.53,-44.45,-0.49,-2.85,39.54,-4.90,-0.89,27.22,2.73,0.14,9.52
11,3,-521,-96,-277,3897,0.62,-0.46,-43.18,-0.96,-2.77,38.97,-4.89,-0.89,27.39,2.43,-0.80,9.24
11,-13,-539,-131,-281,3941,0.62,-0.49,-42.15,-1.31,-2.81,39.41,-4.88,-0.89,27.56,2.43,1.58,9.18
15,-3,-543,-75,-289,3894,0.65,-0.46,-41.25,-0.75,-2.89,38.94,-4.87,-0.89,27.73,1.87,0.11,9.05
14,3,-535,-39,-253,3859,0.67,-0.40,-40.39,-0.39,-2.53,38.59,-4.85,-0.89,27.89,2.05,-0.68,8.85
12,-10,-522,-31,-306,3919,0.68,-0.42,-39.53,-0.31,-3.06,39.19,-4.84,-0.88,28.04,2.36,1.26,8.61
-1,-14,-458,-10,-196,3914,0.61,-0.46,-38.37,-0.10,-1.96,39.14,-4.82,-0.89,28.20,4.19,1.79,7.98
1,-13,-439,-47,-436,3937,0.55,-0.50,-37.21,-0.47,-4.36,39.37,-4.83,-0.89,28.35,3.79,1.58,7.66
4,-11,-422,-22,-375,3918,0.52,-0.51,-36.07,-0.22,-3.75,39.18,-4.83,-0.89,28.49,3.28,1.24,7.35
-4,-7,-401,41,-414,3902,0.44,-0.50,-34.91,0.41,-4.14,39.02,-4.85,-0.90,28.63,4.36,0.65,7.01
3,-13,-300,48,-457,3895,0.42,-0.53,-33.25,0.48,-4.57,38.95,-4.86,-0.91,28.76,3.25,1.52,6.04
-1,-17,-270,-16,-509,3900,0.37,-0.58,-31.57,-0.16,-5.09,39.00,-4.88,-0.92,28.89,3.78,2.04,5.56
-7,-12,-200,-80,-351,3918,0.29,-0.60,-29.63,-0.80,-3.51,39.18,-4.87,-0.91,29.00,4.54,1.24,4.76
-6,-10,-198,-96,-320,3914,0.22,-0.60,-27.88,-0.96,-3.20,39.14,-4.87,-0.90,29.11,4.26,0.93,4.45
-14,-13,-232,-132,-148,3916,0.12,-0.62,-26.50,-1.32,-1.48,39.16,-4.86,-0.90,29.22,5.27,1.35,4.46
-8,-11,-251,-70,-115,3878,0.06,-0.62,-25.38,-0.70,-1.15,38.78,-4.84,-0.90,29.32,4.23,1.04,4.40
8,6,-315,-102,-218,3898,0.10,-0.53,-24.77,-1.02,-2.18,38.98,-4.83,-0.90,29.42,1.86,-1.37,4.72
19,19,-342,-68,-234,3902,0.21,-0.36,-24.38,-0.68,-2.34,39.02,-4.81,-0.89,29.52,0.38,-3.04,4.84
39,33,-353,-14,-318,3939,0.42,-0.12,-24.09,-0.14,-3.18,39.39,-4.81,-0.88,29.61,-2.26,-4.73,4.86
34,35,-358,-17,-264,3855,0.59,0.11,-23.87,-0.17,-2.64,38.55,-4.79,-0.88,29.71,-1.20,-4.61,4.85
49,38,-371,-250,-389,3828,0.83,0.33,-23.74,-2.50,-3.89,38.28,-4.79,-0.87,29.80,-3.03,-4.66,4.92
41,34,-409,-338,-440,3794,1.00,0.50,-23.86,-3.38,-4.40,37.94,-4.79,-0.86,29.90,-1.49,-3.72,5.19
60,44,-500,-123,-322,3997,1.26,0.72,-24.53,-1.23,-3.22,39.97,-4.78,-0.84,30.00,-3.89,-4.84,5.91
69,59,-511,-79,-321,3862,1.56,1.01,-25.19,-0.79,-3.21,38.62,-4.77,-0.83,30.10,-4.71,-6.59,6.09
35,36,-491,-154,-366,3853,1.61,1.13,-25.67,-1.54,-3.66,38.53,-4.77,-0.81,30.20,0.58,-2.87,6.02
34,27,-472,-68,-412,3985,1.66,1.18,-25.98,-0.68,-4.12,39.85,-4.77,-0.80,30.30,0.82,-1.40,5.94
16,7,-452,-45,-278,3873,1.59,1.10,-26.14,-0.45,-2.78,38.73,-4.76,-0.79,30.41,3.43,1.50,5.83
11,6,-429,10,-329,3911,1.50,1.03,-26.14,0.10,-3.29,39.11,-4.75,-0.78,30.51,4.01,1.50,5.67
-15,-4,-402,99,-342,3931,1.26,0.90,-25.98,0.99,-3.42,39.31,-4.75,-0.80,30.62,7.52,2.80,5.45
6,-19,-436,161,-449,3936,1.17,0.70,-26.04,1.61,-4.49,39.36,-4.76,-0.82,30.72,4.15,4.71,5.69
-3,-7,-572,125,-256,3937,1.03,0.58,-26.93,1.25,-2.56,39.37,-4.74,-0.84,30.83,5.26,2.68,6.75
-6,-3,-619,139,-205,3909,0.89,0.51,-28.01,1.39,-2.05,39.09,-4.72,-0.85,30.94,5.44,1.93,7.24
10,-16,-693,30,-195,3965,0.87,0.36,-29.44,0.30,-1.95,39.65,-4.70,-0.86,31.06,2.93,3.63,7.97
22,-13,-662,84,-312,3895,0.91,0.24,-30.53,0.84,-3.12,38.95,-4.68,-0.88,31.18,1.19,2.97,7.93
4,-11,-593,65,-380,3880,0.85,0.15,-31.10,0.65,-3.80,38.80,-4.70,-0.90,31.30,3.81,2.50,7.55
11,-9,-568,38,-383,3909,0.83,0.08,-31.45,0.38,-3.83,39.09,-4.71,-0.90,31.43,2.72,2.07,7.43
8,-12,-474,14,-401,3895,0.79,0.00,-31.20,0.14,-4.01,38.95,-4.72,-0.90,31.55,3.12,2.37,6.75
7,-15,-437,-124,-459,3791,0.76,-0.09,-30.74,-1.24,-4.59,37.91,-4.73,-0.90,31.67,3.20,2.65,6.42
7,-4,-297,-96,-430,3866,0.72,-0.11,-29.48,-0.96,-4.30,38.66,-4.73,-0.89,31.79,3.14,0.94,5.25
1,5,-245,-89,-438,3924,0.66,-0.07,-28.03,-0.89,-4.38,39.24,-4.74,-0.89,31.90,3.94,-0.35,4.66
-1,2,-181,-95,-313,3915,0.59,-0.05,-26.33,-0.95,-3.13,39.15,-4.73,-0.88,32.01,4.10,0.13,3.94
-2,-11,-186,-62,-335,3878,0.52,-0.11,-24.83,-0.62,-3.35,38.78,-4.73,-0.87,32.11,4.12,1.99,3.72
10,-11,-289,32,-245,3919,0.53,-0.17,-24.11,0.32,-2.45,39.19,-4.71,-0.87,32.20,2.30,1.89,4.30
-6,-3,-330,66,-253,3904,0.44,-0.17,-23.71,0.66,-2.53,39.04,-4.69,-0.88,32.30,4.55,0.67,4.51
8,-1,-454,32,-202,3868,0.44,-0.16,-24.11,0.32,-2.02,38.68,-4.67,-0.88,32.40,2.42,0.39,5.41
3,-8,-476,22,-218,3903,0.42,-0.19,-24.60,0.22,-2.18,39.03,-4.65,-0.89,32.49,3.12,1.39,5.63
5,-3,-486,-89,-256,3894,0.40,-0.19,-25.11,-0.89,-2.56,38.94,-4.64,-0.88,32.59,2.79,0.63,5.78
-1,-5,-442,-90,-328,3884,0.36,-0.20,-25.29,-0.90,-3.28,38.84,-4.64,-0.87,32.69,3.61,0.90,5.51
4,-11,-318,-98,-290,3935,0.35,-0.25,-24.70,-0.98,-2.90,39.35,-4.63,-0.86,32.79,2.82,1.72,4.56
0,-1,-300,-147,-313,3908,0.31,-0.23,-24.06,-1.47,-3.13,39.08,-4.63,-0.85,32.89,3.37,0.23,4.33
2,-2,-284,-222,-232,3906,0.29,-0.22,-23.39,-2.22,-2.32,39.06,-4.62,-0.84,32.98,3.02,0.40,4.11
-1,1,-305,-162,-205,3898,0.26,-0.19,-22.91,-1.62,-2.05,38.98,-4.61,-0.83,33.07,3.41,-0.01,4.17
4,-2,-384,-107,-256,3907,0.26,-0.18,-22.96,-1.07,-2.56,39.07,-4.60,-0.82,33.17,2.64,0.45,4.71
5,1,-404,-79,-340,3877,0.26,-0.16,-23.13,-0.79,-3.40,38.77,-4.60,-0.81,33.26,2.49,0.03,4.87
5,-7,-458,-35,-392,3888,0.27,-0.19,-23.61,-0.35,-3.92,38.88,-4.61,-0.81,33.35,2.51,1.20,5.31
7,5,-456,-35,-393,3876,0.28,-0.14,-24.03,-0.35,-3.93,38.76,-4.62,-0.80,33.45,2.24,-0.54,5.36
4,4,-465,11,-360,3929,0.28,-0.10,-24.46,0.11,-3.60,39.29,-4.63,-0.80,33.54,2.70,-0.32,5.48
15,6,-464,-21,-333,3865,0.34,-0.05,-24.85,-0.21,-3.33,38.65,-4.63,-0.79,33.64,1.14,-0.54,5.54
4,-2,-460,-44,-278,3950,0.33,-0.06,-25.17,-0.44,-2.78,39.50,-4.62,-0.78,33.74,2.79,0.66,5.56
3,-1,-457,37,-219,3898,0.32,-0.06,-25.44,0.37,-2.19,38.98,-4.60,-0.79,33.85,2.90,0.51,5.57
12,0,-455,35,-317,3879,0.36,-0.05,-25.67,0.35,-3.17,38.79,-4.60,-0.78,33.95,1.61,0.36,5.59
8,-6,-454,100,-255,3891,0.37,-0.08,-25.87,1.00,-2.55,38.91,-4.59,-0.80,34.05,2.24,1.23,5.62
4,-9,-503,15,-284,3912,0.36,-0.13,-26.36,0.15,-2.84,39.12,-4.57,-0.79,34.16,2.81,1.60,6.02
2,-2,-531,-18,-305,3912,0.33,-0.13,-26.96,-0.18,-3.05,39.12,-4.57,-0.78,34.26,3.07,0.53,6.30
8,-3,-575,3,-291,3946,0.35,-0.14,-27.77,0.03,-2.91,39.46,-4.56,-0.77,34.37,2.18,0.67,6.73
6,1,-573,-21,-278,3870,0.35,-0.12,-28.49,-0.21,-2.78,38.70,-4.55,-0.77,34.49,2.48,0.09,6.83
1,-12,-542,-6,-223,3862,0.32,-0.18,-28.95,-0.06,-2.23,38.62,-4.53,-0.77,34.60,3.18,1.95,6.69
5,-11,-521,32,-283,3934,0.32,-0.23,-29.23,0.32,-2.83,39.34,-4.51,-0.77,34.72,2.55,1.71,6.59
-5,-4,-429,-18,-268,3847,0.26,-0.23,-28.92,-0.18,-2.68,38.47,-4.50,-0.76,34.84,3.95,0.63,5.91
2,-12,-414,3,-318,4003,0.24,-0.28,-28.56,0.03,-3.18,40.03,-4.50,-0.75,34.95,2.86,1.75,5.74
4,-5,-393,-52,-188,3976,0.24,-0.28,-28.10,-0.52,-1.88,39.76,-4.48,-0.75,35.06,2.54,0.68,5.52
19,6,-378,2,-175,3875,0.34,-0.22,-27.59,0.02,-1.75,38.75,-4.46,-0.75,35.17,0.42,-0.87,5.33
-2,-1,-219,6,-408,3915,0.29,-0.20,-26.17,0.06,-4.08,39.15,-4.48,-0.75,35.28,3.54,0.22,4.01
-3,-4,-177,-30,-382,3910,0.24,-0.21,-24.63,-0.30,-3.82,39.10,-4.49,-0.75,35.37,3.61,0.67,3.47
1,5,-92,-85,-363,3918,0.22,-0.15,-22.73,-0.85,-3.63,39.18,-4.49,-0.74,35.46,2.97,-0.61,2.58
2,6,-82,-75,-353,3908,0.21,-0.10,-20.96,-0.75,-3.53,39.08,-4.50,-0.73,35.55,2.80,-0.67,2.21
-4,2,-49,-34,-359,3886,0.17,-0.08,-19.16,-0.34,-3.59,38.86,-4.51,-0.72,35.62,3.63,-0.02,1.69
-5,-3,-43,-34,-341,3882,0.12,-0.09,-17.51,-0.34,-3.41,38.82,-4.51,-0.71,35.69,3.70,0.71,1.38
1,-4,-37,-9,-369,3909,0.12,-0.11,-15.98,-0.09,-3.69,39.09,-4.52,-0.70,35.76,2.78,0.83,1.08
2,-2,-37,-15,-379,3900,0.12,-0.11,-14.61,-0.15,-3.79,39.00,-4.54,-0.70,35.82,2.64,0.52,0.85
2,2,-51,-14,-422,3896,0.12,-0.08,-13.46,-0.14,-4.22,38.96,-4.55,-0.69,35.87,2.65,-0.05,0.76
6,7,-56,-10,-417,3891,0.14,-0.03,-12.46,-0.10,-4.17,38.91,-4.57,-0.69,35.92,2.09,-0.72,0.62
1,-5,-54,76,-268,3920,0.13,-0.06,-11.54,0.76,-2.68,39.20,-4.55,-0.70,35.96,2.83,1.07,0.46
-3,-7,-58,65,-301,3876,0.10,-0.10,-10.74,0.65,-3.01,38.76,-4.54,-0.72,36.01,3.38,1.32,0.35
2,-5,-47,-75,-193,3905,0.10,-0.12,-9.95,-0.75,-1.93,39.05,-4.53,-0.71,36.05,2.61,0.97,0.15
-2,-12,-53,-205,-194,3901,0.08,-0.18,-9.28,-2.05,-1.94,39.01,-4.52,-0.70,36.08,3.17,1.91,0.08
-3,-5,-51,-107,-192,3884,0.05,-0.19,-8.66,-1.07,-1.92,38.84,-4.51,-0.69,36.12,3.27,0.81,-0.04
-1,-4,-35,-93,-190,3867,0.04,-0.20,-8.01,-0.93,-1.90,38.67,-4.50,-0.68,36.15,2.93,0.64,-0.26
1,-1,-25,-39,-292,3903,0.05,-0.18,-7.36,-0.39,-2.92,39.03,-4.49,-0.66,36.18,2.63,0.20,-0.43
2,-2,-25,-36,-302,3901,0.05,-0.18,-6.78,-0.36,-3.02,39.01,-4.49,-0.65,36.21,2.49,0.36,-0.53
3,1,-39,-50,-309,3894,0.07,-0.15,-6.34,-0.50,-3.09,38.94,-4.49,-0.63,36.23,2.36,-0.07,-0.51
4,2,-43,-25,-300,3890,0.08,-0.13,-5.97,-0.25,-3.00,38.90,-4.49,-0.61,36.26,2.24,-0.18,-0.54
0,-3,-33,-15,-293,3901,0.08,-0.13,-5.57,-0.15,-2.93,39.01,-4.48,-0.60,36.28,2.83,0.57,-0.68
2,-6,-29,-36,-297,3889,0.08,-0.16,-5.19,-0.36,-2.97,38.89,-4.48,-0.58,36.30,2.54,0.97,-0.77
0,-8,-45,-72,-315,3911,0.07,-0.19,-4.95,-0.72,-3.15,39.11,-4.48,-0.57,36.32,2.83,1.20,-0.70
0,-7,-48,-67,-304,3908,0.06,-0.21,-4.74,-0.67,-3.04,39.08,-4.48,-0.55,36.34,2.81,1.00,-0.71
-2,1,-64,-33,-216,3885,0.05,-0.18,-4.66,-0.33,-2.16,38.85,-4.47,-0.54,36.36,3.07,-0.18,-0.62
2,5,-79,-87,-226,3867,0.05,-0.14,-4.68,-0.87,-2.26,38.67,-4.46,-0.53,36.37,2.47,-0.70,-0.52
5,6,-141,-99,-255,3850,0.08,-0.09,-5.07,-0.99,-2.55,38.50,-4.45,-0.51,36.40,2.06,-0.77,-0.03
-6,-1,-153,-80,-295,3911,0.03,-0.08,-5.50,-0.80,-2.95,39.11,-4.45,-0.50,36.42,3.65,0.29,0.12
5,-7,-182,-52,-269,3925,0.06,-0.12,-6.06,-0.52,-2.69,39.25,-4.44,-0.48,36.44,2.02,1.13,0.40
1,-4,-187,-32,-275,3839,0.06,-0.13,-6.59,-0.32,-2.75,38.39,-4.43,-0.47,36.47,2.62,0.64,0.52
7,0,-131,90,-347,3898,0.10,-0.12,-6.73,0.90,-3.47,38.98,-4.45,-0.48,36.49,1.78,0.07,0.17
2,1,-116,62,-353,3890,0.10,-0.10,-6.77,0.62,-3.53,38.90,-4.46,-0.50,36.52,2.56,-0.04,0.07
2,-1,-68,37,-336,3904,0.10,-0.10,-6.50,0.37,-3.36,39.04,-4.48,-0.50,36.55,2.58,0.27,-0.30
0,-2,-59,24,-324,3902,0.09,-0.10,-6.21,0.24,-3.24,39.02,-4.49,-0.49,36.57,2.87,0.41,-0.41
4,2,-48,-29,-303,3890,0.11,-0.08,-5.88,-0.29,-3.03,38.90,-4.49,-0.48,36.59,2.29,-0.16,-0.54
4,3,-61,-78,-291,3900,0.12,-0.05,-5.67,-0.78,-2.91,39.00,-4.49,-0.46,36.62,2.31,-0.28,-0.49
5,7,-75,-1,-315,3892,0.14,-0.00,-5.56,-0.01,-3.15,38.92,-4.49,-0.44,36.64,2.20,-0.81,-0.41
3,5,-64,22,-313,3900,0.14,0.03,-5.39,0.22,-3.13,39.00,-4.50,-0.43,36.66,2.52,-0.45,-0.52
-3,-1,-16,15,-330,3912,0.11,0.02,-4.95,0.15,-3.30,39.12,-4.52,-0.42,36.68,3.38,0.44,-0.91
-3,-2,-10,-12,-326,3907,0.08,0.01,-4.52,-0.12,-3.26,39.07,-4.52,-0.41,36.70,3.33,0.56,-1.03
-2,-4,0,-51,-322,3891,0.06,-0.02,-4.07,-0.51,-3.22,38.91,-4.53,-0.39,36.71,3.14,0.81,-1.17
-2,-5,-2,-44,-325,3921,0.04,-0.05,-3.67,-0.44,-3.25,39.21,-4.53,-0.37,36.73,3.11,0.90,-1.22
-4,-7,-6,-21,-313,3893,0.01,-0.09,-3.34,-0.21,-3.13,38.93,-4.53,-0.36,36.74,3.36,1.12,-1.25
-3,-8,-4,-20,-306,3891,-0.01,-0.13,-3.03,-0.20,-3.06,38.91,-4.53,-0.34,36.75,3.17,1.19,-1.31
-2,-3,11,-34,-286,3886,-0.02,-0.13,-2.66,-0.34,-2.86,38.86,-4.53,-0.33,36.77,2.99,0.40,-1.48
-2,-2,8,-9,-278,3887,-0.03,-0.13,-2.35,-0.09,-2.78,38.87,-4.51,-0.31,36.77,2.96,0.24,-1.51
3,3,-7,-31,-273,3902,-0.01,-0.10,-2.15,-0.31,-2.73,39.02,-4.50,-0.30,36.78,2.23,-0.47,-1.44
3,4,-12,-35,-261,3886,0.01,-0.07,-2.01,-0.35,-2.61,38.86,-4.49,-0.29,36.79,2.26,-0.56,-1.43
-1,-4,-8,-27,-287,3895,0.01,-0.08,-1.86,-0.27,-2.87,38.95,-4.48,-0.27,36.80,2.85,0.61,-1.48
1,-2,-8,-37,-277,3892,0.01,-0.09,-1.72,-0.37,-2.77,38.92,-4.48,-0.25,36.81,2.55,0.29,-1.50
5,4,-17,-39,-309,3880,0.04,-0.05,-1.65,-0.39,-3.09,38.80,-4.48,-0.24,36.81,2.00,-0.57,-1.45
3,3,-20,-21,-304,3914,0.05,-0.03,-1.61,-0.21,-3.04,39.14,-4.48,-0.22,36.82,2.33,-0.38,-1.44
1,0,-34,-70,-299,3900,0.06,-0.03,-1.66,-0.70,-2.99,39.00,-4.47,-0.20,36.83,2.64,0.07,-1.34
0,-3,-40,-57,-303,3906,0.05,-0.04,-1.74,-0.57,-3.03,39.06,-4.47,-0.18,36.83,2.78,0.49,-1.29
-1,0,-31,20,-312,3890,0.04,-0.04,-1.75,0.20,-3.12,38.90,-4.49,-0.20,36.84,2.92,0.05,-1.34
0,0,-12,27,-294,3900,0.03,-0.03,-1.65,0.27,-2.94,39.00,-4.47,-0.21,36.85,2.75,0.06,-1.49
-2,1,6,-9,-306,3911,0.02,-0.03,-1.45,-0.09,-3.06,39.11,-4.47,-0.19,36.85,3.03,-0.08,-1.65
-3,1,9,-11,-320,3921,-0.00,-0.02,-1.25,-0.11,-3.20,39.21,-4.48,-0.18,36.86,3.14,-0.08,-1.70
-2,-2,6,-35,-309,3890,-0.01,-0.03,-1.09,-0.35,-3.09,38.90,-4.48,-0.16,36.86,2.97,0.35,-1.71
0,-2,6,-33,-324,3908,-0.01,-0.04,-0.94,-0.33,-3.24,39.08,-4.49,-0.14,36.86,2.67,0.32,-1.73
2,0,19,-12,-325,3903,0.00,-0.03,-0.73,-0.12,-3.25,39.03,-4.50,-0.13,36.87,2.40,0.02,-1.85
1,1,25,14,-330,3890,0.01,-0.02,-0.51,0.14,-3.30,38.90,-4.52,-0.13,36.87,2.57,-0.12,-1.93
-3,3,57,3,-334,3900,-0.01,-0.00,-0.11,0.03,-3.34,39.00,-4.54,-0.13,36.87,3.16,-0.38,-2.21
-3,4,65,15,-345,3896,-0.03,0.02,0.30,0.15,-3.45,38.96,-4.56,-0.13,36.87,3.14,-0.49,-2.33
-7,-10,172,42,-405,3983,-0.07,-0.04,1.32,0.42,-4.05,39.83,-4.57,-0.14,36.86,3.68,1.53,-3.23
-13,3,214,11,-449,3752,-0.14,-0.02,2.49,0.11,-4.49,37.52,-4.59,-0.14,36.85,4.47,-0.41,-3.70
11,2,345,37,-374,3992,-0.06,-0.00,4.35,0.37,-3.74,39.92,-4.61,-0.15,36.84,0.97,-0.23,-4.89
7,18,369,74,-391,3763,-0.01,0.11,6.16,0.74,-3.91,37.63,-4.62,-0.15,36.81,1.69,-2.45,-5.35
5,5,429,22,-310,3959,0.02,0.13,8.16,0.22,-3.10,39.59,-4.61,-0.16,36.78,2.04,-0.43,-6.08
-7,5,422,-108,-266,3943,-0.02,0.14,9.92,-1.08,-2.66,39.43,-4.60,-0.14,36.74,3.78,-0.40,-6.32
-12,20,344,-3,-203,3845,-0.10,0.25,11.03,-0.03,-2.03,38.45,-4.59,-0.14,36.70,4.40,-2.49,-5.97
-9,1,335,-19,-215,3950,-0.14,0.23,11.97,-0.19,-2.15,39.50,-4.57,-0.13,36.65,3.85,0.36,-6.06
-3,4,376,-47,-566,3882,-0.14,0.23,13.07,-0.47,-5.66,38.82,-4.59,-0.12,36.60,2.94,-0.10,-6.52
3,6,441,-14,-518,4003,-0.11,0.25,14.45,-0.14,-5.18,40.03,-4.61,-0.11,36.54,2.09,-0.38,-7.18
1,2,551,-123,-280,3841,-0.09,0.23,16.37,-1.23,-2.80,38.41,-4.60,-0.09,36.47,2.43,0.19,-8.24
-4,6,500,-172,-121,3880,-0.11,0.25,17.78,-1.72,-1.21,38.80,-4.59,-0.07,36.40,3.16,-0.41,-8.12
-10,1,344,-97,-44,3849,-0.16,0.23,18.10,-0.97,-0.44,38.49,-4.57,-0.05,36.33,3.97,0.31,-7.11
-1,-15,315,-115,8,3899,-0.15,0.11,18.21,-1.15,0.08,38.99,-4.56,-0.04,36.26,2.60,2.53,-6.93
-4,-18,324,-83,-153,3963,-0.16,-0.01,18.37,-0.83,-1.53,39.63,-4.54,-0.03,36.18,3.03,2.75,-7.02
-10,-19,340,20,-162,3928,-0.20,-0.12,18.60,0.20,-1.62,39.28,-4.53,-0.02,36.11,3.85,2.68,-7.16
-14,-12,471,93,-366,3872,-0.27,-0.18,19.62,0.93,-3.66,38.72,-4.54,-0.03,36.03,4.35,1.50,-8.21
-21,-9,524,109,-517,3942,-0.37,-0.22,20.85,1.09,-5.17,39.42,-4.55,-0.04,35.95,5.23,0.98,-8.77
-16,-1,767,162,-559,3845,-0.43,-0.20,23.44,1.62,-5.59,38.45,-4.57,-0.04,35.86,4.37,-0.21,-10.83
-10,-7,851,158,-538,3898,-0.45,-0.23,26.29,1.58,-5.38,38.98,-4.59,-0.04,35.75,3.43,0.66,-11.86
-6,-4,999,91,-391,3973,-0.44,-0.23,29.76,0.91,-3.91,39.73,-4.60,-0.05,35.63,2.84,0.21,-13.43
-19,1,979,-27,-313,3839,-0.51,-0.20,32.75,-0.27,-3.13,38.39,-4.61,-0.02,35.50,4.69,-0.52,-13.78
-13,-1,744,-206,-141,3835,-0.54,-0.19,34.02,-2.06,-1.41,38.35,-4.60,0.00,35.37,3.72,-0.20,-12.39
-8,-6,668,-198,-110,3945,-0.54,-0.20,34.69,-1.98,-1.10,39.45,-4.59,0.03,35.23,2.96,0.51,-11.97
-5,-4,406,-168,-272,3900,-0.51,-0.21,33.70,-1.68,-2.72,39.00,-4.58,0.05,35.09,2.54,0.18,-10.03
-13,-3,356,-113,-267,3896,-0.54,-0.20,32.50,-1.13,-2.67,38.96,-4.58,0.08,34.96,3.71,0.02,-9.49
-6,-4,311,-8,-326,3824,-0.52,-0.21,31.15,-0.08,-3.26,38.24,-4.60,0.09,34.84,2.68,0.16,-8.95
-4,2,358,-9,-374,3876,-0.49,-0.18,30.21,-0.09,-3.74,38.76,-4.62,0.10,34.72,2.44,-0.70,-9.11
-9,1,570,67,-460,3903,-0.50,-0.15,30.67,0.67,-4.60,39.03,-4.64,0.10,34.60,3.21,-0.50,-10.62
-7,6,638,39,-437,3960,-0.49,-0.10,31.50,0.39,-4.37,39.60,-4.66,0.11,34.47,2.93,-1.17,-11.21
-17,3,869,21,-488,3881,-0.55,-0.07,33.65,0.21,-4.88,38.81,-4.68,0.11,34.34,4.36,-0.66,-13.12
-36,-13,902,-76,-365,3911,-0.71,-0.14,35.78,-0.76,-3.65,39.11,-4.69,0.14,34.19,6.95,1.63,-13.69
-58,-42,784,-251,-109,3852,-0.99,-0.39,36.99,-2.51,-1.09,38.52,-4.68,0.17,34.05,9.77,5.58,-13.08
-68,-57,717,-247,-101,3887,-1.31,-0.69,37.66,-2.47,-1.01,38.87,-4.67,0.19,33.90,10.69,7.26,-12.73
-65,-51,462,-200,-120,3908,-1.58,-0.94,36.71,-2.00,-1.20,39.08,-4.66,0.21,33.75,9.73,5.88,-10.84
-54,-37,414,-163,-216,3904,-1.75,-1.07,35.57,-1.63,-2.16,39.04,-4.66,0.23,33.61,7.72,3.48,-10.32
-16,-4,359,-39,-274,3884,-1.67,-0.99,34.20,-0.39,-2.74,38.84,-4.65,0.25,33.47,2.07,-1.41,-9.71
-9,3,371,-68,-334,3895,-1.56,-0.87,33.04,-0.68,-3.34,38.95,-4.66,0.27,33.34,1.22,-2.27,-9.60
-32,2,428,173,-469,3942,-1.60,-0.77,32.35,1.73,-4.69,39.42,-4.68,0.26,33.21,4.66,-1.92,-9.86
-21,1,425,216,-506,3917,-1.57,-0.69,31.71,2.16,-5.06,39.17,-4.70,0.26,33.08,3.05,-1.61,-9.73
-29,2,494,220,-464,3836,-1.59,-0.61,31.55,2.20,-4.64,38.36,-4.71,0.25,32.96,4.25,-1.60,-10.17
-45,-7,540,229,-480,3884,-1.70,-0.59,31.69,2.29,-4.80,38.84,-4.73,0.24,32.83,6.48,-0.19,-10.50
-56,-15,606,1,-326,3890,-1.87,-0.62,32.22,0.01,-3.26,38.90,-4.74,0.23,32.70,7.83,0.97,-11.02
-10,-19,629,9,-342,3824,-1.75,-0.67,32.83,0.09,-3.42,38.24,-4.76,0.23,32.57,1.07,1.48,-11.27
-40,4,648,-48,-312,4013,-1.82,-0.58,33.50,-0.48,-3.12,40.13,-4.75,0.25,32.44,5.51,-1.87,-11.50
27,-3,616,-153,-378,3925,-1.47,-0.54,33.91,-1.53,-3.78,39.25,-4.77,0.28,32.30,-4.04,-0.74,-11.35
7,19,522,-160,-356,3899,-1.28,-0.37,33.70,-1.60,-3.56,38.99,-4.77,0.31,32.17,-0.63,-3.79,-10.67
13,32,497,-156,-279,3925,-1.07,-0.14,33.36,-1.56,-2.79,39.25,-4.77,0.33,32.03,-1.15,-5.35,-10.44
28,30,440,-105,-259,3919,-0.79,0.06,32.71,-1.05,-2.59,39.19,-4.76,0.36,31.90,-2.92,-4.68,-9.94
32,27,428,-231,-298,3864,-0.52,0.22,32.05,-2.31,-2.98,38.64,-4.76,0.39,31.78,-3.01,-3.94,-9.74
26,17,448,-254,-238,4020,-0.31,0.30,31.58,-2.54,-2.38,40.20,-4.76,0.42,31.65,-1.70,-2.28,-9.79
10,22,494,-147,-211,3906,-0.22,0.40,31.43,-1.47,-2.11,39.06,-4.74,0.44,31.52,0.91,-2.86,-10.08
-40,-13,653,51,-401,3963,-0.44,0.28,32.27,0.51,-4.01,39.63,-4.76,0.44,31.40,8.12,2.25,-11.29
-28,9,654,-4,-349,4115,-0.57,0.31,33.04,-0.04,-3.49,41.15,-4.76,0.44,31.26,6.05,-1.05,-11.41
-10,5,699,74,-165,3818,-0.57,0.31,34.00,0.74,-1.65,38.18,-4.75,0.44,31.13,3.29,-0.44,-11.87
-35,-17,730,10,-161,3877,-0.73,0.17,35.05,0.10,-1.61,38.77,-4.73,0.45,30.99,6.80,2.66,-12.24
-46,-30,815,66,-333,3917,-0.94,-0.03,36.52,0.66,-3.33,39.17,-4.74,0.44,30.84,8.08,4.26,-13.05
-34,-16,826,125,-348,3922,-1.05,-0.12,37.90,1.25,-3.48,39.22,-4.74,0.43,30.69,6.04,1.95,-13.34
-24,-6,837,110,-315,3830,-1.09,-0.15,39.22,1.10,-3.15,38.30,-4.74,0.43,30.54,4.44,0.38,-13.63
-21,-8,868,187,-430,3899,-1.11,-0.18,40.59,1.87,-4.30,38.99,-4.76,0.42,30.37,3.95,0.63,-14.05
-11,4,917,146,-396,3901,-1.07,-0.14,42.13,1.46,-3.96,39.01,-4.77,0.42,30.21,2.52,-1.12,-14.63
-22,6,924,86,-420,3910,-1.09,-0.09,43.55,0.86,-4.20,39.10,-4.78,0.42,30.03,4.15,-1.33,-14.90
-18,-4,960,-8,-480,3887,-1.09,-0.10,45.05,-0.08,-4.80,38.87,-4.80,0.43,29.85,3.55,0.16,-15.38
-33,-10,950,40,-507,3864,-1.19,-0.15,46.34,0.40,-5.07,38.64,-4.82,0.44,29.67,5.68,0.97,-15.52
-16,16,893,-105,-396,3815,-1.16,-0.04,47.15,-1.05,-3.96,38.15,-4.84,0.47,29.48,3.14,-2.80,-15.25
-28,2,910,-147,-296,3930,-1.22,-0.02,47.99,-1.47,-2.96,39.30,-4.84,0.50,29.29,4.86,-0.65,-15.50
-23,11,943,-138,-289,3863,-1.24,0.05,48.94,-1.38,-2.89,38.63,-4.83,0.54,29.09,4.06,-1.91,-15.87
-18,11,965,-137,-286,3891,-1.22,0.11,49.94,-1.37,-2.86,38.91,-4.83,0.57,28.89,3.32,-1.82,-16.17
-22,1,945,-146,-376,3863,-1.24,0.10,50.71,-1.46,-3.76,38.63,-4.84,0.61,28.69,3.92,-0.32,-16.15
-7,7,929,-113,-430,3891,-1.15,0.14,51.30,-1.13,-4.30,38.91,-4.86,0.63,28.49,1.79,-1.19,-16.13
-6,18,925,-127,-518,3912,-1.08,0.23,51.81,-1.27,-5.18,39.12,-4.87,0.66,28.28,1.80,-2.70,-16.18
-17,17,964,-24,-622,3872,-1.07,0.31,52.51,-0.24,-6.22,38.72,-4.89,0.68,28.07,3.50,-2.41,-16.54
-19,25,1077,-15,-685,3906,-1.08,0.43,53.83,-0.15,-6.85,39.06,-4.91,0.70,27.86,3.80,-3.41,-17.52
-10,38,1115,-155,-891,3985,-1.03,0.62,55.25,-1.55,-8.91,39.85,-4.93,0.72,27.64,2.53,-5.05,-17.99
-32,22,1234,-16,-563,3944,-1.13,0.69,57.25,-0.16,-5.63,39.44,-4.95,0.74,27.41,5.72,-2.48,-19.12
-19,39,1245,-34,-543,3913,-1.13,0.86,59.12,-0.34,-5.43,39.13,-4.97,0.76,27.18,3.74,-4.77,-19.49
-21,21,1211,-130,-317,3967,-1.14,0.90,60.60,-1.30,-3.17,39.67,-4.97,0.80,26.94,4.02,-1.97,-19.49
-22,21,1170,-77,-160,3937,-1.16,0.94,61.67,-0.77,-1.60,39.37,-4.95,0.83,26.69,4.12,-1.92,-19.37
-14,13,936,-198,72,3886,-1.13,0.93,61.22,-1.98,0.72,38.86,-4.93,0.86,26.45,2.95,-0.74,-17.70
-15,14,859,-122,207,3861,-1.11,0.92,60.33,-1.22,2.07,38.61,-4.92,0.89,26.20,3.13,-0.93,-17.02
-11,5,512,-8,195,3891,-1.07,0.86,57.42,-0.08,1.95,38.91,-4.90,0.91,25.98,2.60,0.32,-14.18
-4,4,324,-37,216,3900,-0.98,0.80,53.66,-0.37,2.16,39.00,-4.88,0.93,25.76,1.67,0.34,-12.28
16,17,86,145,-78,3886,-0.79,0.82,48.82,1.45,-0.78,38.86,-4.87,0.94,25.57,-1.01,-1.60,-9.86
20,13,40,74,-193,3913,-0.59,0.82,44.18,0.74,-1.93,39.13,-4.85,0.94,25.39,-1.25,-1.00,-8.78
12,12,17,-26,-334,3910,-0.46,0.81,39.87,-0.26,-3.34,39.10,-4.85,0.94,25.23,0.22,-0.86,-7.91
10,14,15,-32,-310,3926,-0.35,0.81,35.97,-0.32,-3.10,39.26,-4.84,0.94,25.09,0.72,-1.16,-7.25
2,9,60,0,-511,3932,-0.30,0.79,32.74,0.00,-5.11,39.32,-4.86,0.95,24.96,2.04,-0.45,-7.02
0,13,98,3,-539,3946,-0.27,0.79,30.06,0.03,-5.39,39.46,-4.88,0.96,24.84,2.41,-1.07,-6.83
-3,7,204,61,-403,3966,-0.26,0.75,28.30,0.61,-4.03,39.66,-4.88,0.96,24.73,2.89,-0.22,-7.26
-2,8,213,11,-318,3869,-0.25,0.73,26.77,0.11,-3.18,38.69,-4.88,0.95,24.62,2.76,-0.42,-7.06
-3,4,246,24,-263,3907,-0.24,0.68,25.59,0.24,-2.63,39.07,-4.87,0.95,24.52,2.92,0.11,-7.09
-8,-3,254,36,-292,3871,-0.27,0.59,24.58,0.36,-2.92,38.71,-4.86,0.94,24.42,3.63,1.01,-6.97
-2,-4,236,-106,-271,3948,-0.25,0.51,23.57,-1.06,-2.71,39.48,-4.84,0.96,24.33,2.73,1.00,-6.68
-6,-6,232,-91,-253,3866,-0.26,0.42,22.62,-0.91,-2.53,38.66,-4.83,0.98,24.24,3.31,1.13,-6.49
-1,0,250,-141,-218,3942,-0.24,0.38,21.89,-1.41,-2.18,39.42,-4.81,0.99,24.15,2.58,0.12,-6.49
5,-7,234,-138,-174,3934,-0.19,0.30,21.13,-1.38,-1.74,39.34,-4.79,1.01,24.07,1.76,1.03,-6.25
-1,-8,310,-16,-167,3878,-0.18,0.22,20.90,-0.16,-1.67,38.78,-4.78,1.01,23.98,2.68,1.03,-6.73
4,-1,367,-33,-201,3884,-0.13,0.19,21.05,-0.33,-2.01,38.84,-4.76,1.01,23.90,1.99,-0.09,-7.13
-7,-1,529,-16,-234,3900,-0.16,0.17,22.17,-0.16,-2.34,39.00,-4.74,1.01,23.81,3.60,-0.14,-8.41
-9,9,591,-74,-285,3901,-0.20,0.20,23.56,-0.74,-2.85,39.01,-4.72,1.02,23.71,3.82,-1.60,-9.05
-5,6,830,-19,-248,3864,-0.21,0.22,26.27,-0.19,-2.48,38.64,-4.70,1.02,23.61,3.18,-1.11,-11.11
-9,24,901,-10,-371,3994,-0.25,0.34,29.14,-0.10,-3.71,39.94,-4.71,1.02,23.49,3.74,-3.62,-12.06
-14,-6,871,-61,-434,3871,-0.31,0.27,31.54,-0.61,-4.34,38.71,-4.73,1.03,23.37,4.39,0.82,-12.24
-9,1,845,-75,-414,3865,-0.33,0.25,33.54,-0.75,-4.14,38.65,-4.75,1.04,23.24,3.60,-0.30,-12.39
-16,-7,776,77,-279,3839,-0.40,0.18,34.92,0.77,-2.79,38.39,-4.74,1.04,23.10,4.54,0.80,-12.14
-12,16,767,89,-271,3911,-0.43,0.26,36.10,0.89,-2.71,39.11,-4.74,1.03,22.95,3.86,-2.56,-12.26
-9,18,683,-58,-321,3984,-0.44,0.35,36.66,-0.58,-3.21,39.84,-4.73,1.03,22.81,3.37,-2.71,-11.78
-10,3,676,-43,-344,3801,-0.46,0.33,37.12,-0.43,-3.44,38.01,-4.74,1.03,22.66,3.50,-0.45,-11.80
-18,0,598,-70,-451,3850,-0.52,0.30,37.05,-0.70,-4.51,38.50,-4.76,1.05,22.51,4.61,-0.06,-11.25
-6,17,564,-169,-616,4005,-0.51,0.37,36.79,-1.69,-6.16,40.05,-4.77,1.06,22.36,2.82,-2.53,-10.97
-19,5,482,-39,-390,3897,-0.57,0.36,36.05,-0.39,-3.90,38.97,-4.79,1.07,22.22,4.69,-0.71,-10.29
-16,9,463,-83,-447,3901,-0.61,0.38,35.27,-0.83,-4.47,39.01,-4.81,1.08,22.08,4.16,-1.30,-10.02
4,10,480,-89,-475,3922,-0.53,0.41,34.67,-0.89,-4.75,39.22,-4.82,1.10,21.94,1.29,-1.42,-10.03
-18,12,477,-135,-570,3941,-0.58,0.44,34.11,-1.35,-5.70,39.41,-4.84,1.12,21.81,4.54,-1.67,-9.91
-7,20,525,20,-317,3891,-0.57,0.52,33.90,0.20,-3.17,38.91,-4.84,1.11,21.67,2.90,-2.74,-10.20
-14,19,529,-13,-424,3909,-0.60,0.58,33.74,-0.13,-4.24,39.09,-4.85,1.12,21.54,3.92,-2.47,-10.19
-10,30,594,-2,-284,3855,-0.60,0.71,33.99,-0.02,-2.84,38.55,-4.84,1.11,21.40,3.30,-3.91,-10.67
-8,36,613,-72,-268,3890,-0.59,0.85,34.33,-0.72,-2.68,38.90,-4.83,1.13,21.27,3.00,-4.55,-10.84
-3,22,645,-139,-319,3908,-0.55,0.90,34.83,-1.39,-3.19,39.08,-4.82,1.16,21.13,2.32,-2.34,-11.14
-2,18,616,-132,-324,3887,-0.50,0.92,35.11,-1.32,-3.24,38.87,-4.82,1.20,20.99,2.24,-1.71,-10.98
0,18,455,-136,-318,3948,-0.45,0.94,34.37,-1.36,-3.18,39.48,-4.81,1.23,20.85,2.03,-1.70,-9.76
0,2,375,-87,-271,3907,-0.41,0.86,33.22,-0.87,-2.71,39.07,-4.79,1.24,20.72,2.10,0.57,-9.02
0,3,241,22,-340,3963,-0.37,0.79,31.37,0.22,-3.40,39.63,-4.79,1.24,20.59,2.18,0.30,-7.80
1,-2,193,42,-348,3937,-0.32,0.70,29.41,0.42,-3.48,39.37,-4.80,1.23,20.48,2.11,0.89,-7.15
1,1,104,89,-452,3858,-0.29,0.64,27.10,0.89,-4.52,38.58,-4.81,1.23,20.37,2.19,0.31,-6.17
-2,12,96,39,-473,3895,-0.27,0.65,24.98,0.39,-4.73,38.95,-4.82,1.23,20.27,2.69,-1.35,-5.76
0,7,121,53,-328,3929,-0.24,0.62,23.22,0.53,-3.28,39.29,-4.82,1.22,20.18,2.43,-0.62,-5.63
1,9,144,66,-332,3875,-0.21,0.62,21.78,0.66,-3.32,38.75,-4.82,1.21,20.09,2.34,-0.93,-5.55
2,9,215,-68,-384,3895,-0.18,0.61,20.91,-0.68,-3.84,38.95,-4.83,1.22,20.01,2.26,-0.95,-5.88
1,5,230,-56,-390,3934,-0.15,0.58,20.22,-0.56,-3.90,39.34,-4.85,1.22,19.93,2.46,-0.40,-5.87
-3,17,284,-111,-303,3838,-0.16,0.62,19.93,-1.11,-3.03,38.38,-4.84,1.24,19.85,3.06,-2.15,-6.18
-1,10,283,-86,-299,3932,-0.15,0.62,19.66,-0.86,-2.99,39.32,-4.82,1.25,19.77,2.76,-1.10,-6.13
-2,9,251,0,-309,3887,-0.15,0.62,19.23,0.00,-3.09,38.87,-4.81,1.24,19.69,2.92,-0.95,-5.84
0,7,237,-82,-342,3954,-0.13,0.60,18.75,-0.82,-3.42,39.54,-4.83,1.24,19.62,2.65,-0.68,-5.66
-3,5,196,-23,-332,3954,-0.14,0.57,18.07,-0.23,-3.32,39.54,-4.83,1.23,19.55,3.10,-0.43,-5.27
-8,1,191,-11,-274,3889,-0.17,0.52,17.43,-0.11,-2.74,38.89,-4.81,1.23,19.48,3.78,0.09,-5.13
-2,5,178,-50,-331,3871,-0.17,0.50,16.77,-0.50,-3.31,38.71,-4.82,1.22,19.41,2.88,-0.55,-4.93
-6,10,186,-23,-338,3913,-0.19,0.51,16.23,-0.23,-3.38,39.13,-4.82,1.21,19.35,3.45,-1.29,-4.89
-3,6,254,-77,-316,3893,-0.19,0.49,16.16,-0.77,-3.16,38.93,-4.80,1.21,19.28,2.99,-0.70,-5.33
0,12,267,-53,-367,3894,-0.17,0.52,16.17,-0.53,-3.67,38.94,-4.81,1.20,19.22,2.57,-1.57,-5.42
-4,3,317,-16,-411,3873,-0.18,0.48,16.49,-0.16,-4.11,38.73,-4.83,1.20,19.15,3.18,-0.26,-5.81
-9,7,303,-83,-364,3940,-0.21,0.48,16.69,-0.83,-3.64,39.40,-4.85,1.21,19.09,3.88,-0.89,-5.74
-9,-3,208,-19,-402,3880,-0.25,0.41,16.29,-0.19,-4.02,38.80,-4.86,1.20,19.02,3.82,0.52,-5.03
-6,-8,200,-55,-465,3826,-0.26,0.32,15.88,-0.55,-4.65,38.26,-4.88,1.21,18.96,3.35,1.11,-4.91
-7,-6,221,-188,-486,3917,-0.27,0.25,15.64,-1.88,-4.86,39.17,-4.89,1.22,18.90,3.48,0.66,-5.01
-7,-8,235,-104,-489,3869,-0.29,0.18,15.51,-1.04,-4.89,38.69,-4.91,1.23,18.84,3.46,0.82,-5.08
-5,-3,258,-74,-374,3897,-0.29,0.14,15.53,-0.74,-3.74,38.97,-4.93,1.23,18.78,3.17,-0.01,-5.23
-7,5,261,-48,-352,3890,-0.31,0.16,15.57,-0.48,-3.52,38.90,-4.94,1.22,18.71,3.45,-1.19,-5.26
-4,15,296,-71,-270,3921,-0.30,0.23,15.82,-0.71,-2.70,39.21,-4.92,1.22,18.65,2.99,-2.58,-5.53
-3,13,303,-36,-203,3881,-0.29,0.29,16.08,-0.36,-2.03,38.81,-4.90,1.22,18.59,2.85,-2.17,-5.62
-4,38,279,-38,-126,3895,-0.28,0.49,16.18,-0.38,-1.26,38.95,-4.88,1.23,18.52,3.00,-5.60,-5.47
-1,35,285,-67,-110,3851,-0.26,0.66,16.30,-0.67,-1.10,38.51,-4.86,1.24,18.46,2.58,-4.83,-5.53
6,29,292,-100,-171,3914,-0.20,0.77,16.45,-1.00,-1.71,39.14,-4.84,1.25,18.39,1.62,-3.71,-5.59
3,14,296,6,-273,3919,-0.16,0.78,16.61,0.06,-2.73,39.19,-4.83,1.24,18.32,2.14,-1.41,-5.64
-2,8,284,-38,-437,3898,-0.16,0.75,16.68,-0.38,-4.37,38.98,-4.85,1.24,18.26,2.92,-0.55,-5.57
-4,4,276,-21,-533,3914,-0.17,0.70,16.70,-0.21,-5.33,39.14,-4.87,1.24,18.19,3.22,-0.03,-5.52
-8,2,317,26,-573,3834,-0.20,0.64,16.96,0.26,-5.73,38.34,-4.88,1.24,18.13,3.78,0.16,-5.83
-6,-3,337,-23,-571,3937,-0.21,0.56,17.32,-0.23,-5.71,39.37,-4.90,1.25,18.06,3.45,0.77,-6.03
-8,8,431,57,-325,3899,-0.24,0.55,18.22,0.57,-3.25,38.99,-4.90,1.24,17.98,3.70,-0.92,-6.81
-12,10,458,71,-333,3839,-0.29,0.56,19.19,0.71,-3.33,38.39,-4.90,1.23,17.91,4.22,-1.21,-7.14
0,16,517,-92,-216,3906,-0.26,0.60,20.42,-0.92,-2.16,39.06,-4.88,1.24,17.83,2.43,-2.05,-7.74
-2,19,500,-66,-258,3897,-0.25,0.65,21.43,-0.66,-2.58,38.97,-4.86,1.24,17.74,2.75,-2.40,-7.79
-1,7,390,-98,-272,3941,-0.23,0.63,21.67,-0.98,-2.72,39.41,-4.84,1.26,17.65,2.62,-0.62,-7.08
4,-1,340,-45,-288,3859,-0.18,0.56,21.58,-0.45,-2.88,38.59,-4.83,1.25,17.57,1.94,0.47,-6.72
3,-13,189,-47,-329,3923,-0.15,0.43,20.57,-0.47,-3.29,39.23,-4.82,1.24,17.49,2.16,2.05,-5.53
4,-19,177,-34,-313,3885,-0.11,0.27,19.59,-0.34,-3.13,38.85,-4.82,1.23,17.41,2.08,2.67,-5.28
-9,-26,220,37,-468,3874,-0.15,0.08,18.98,0.37,-4.68,38.74,-4.83,1.23,17.33,3.99,3.38,-5.47
-4,-20,252,33,-426,3980,-0.16,-0.05,18.62,0.33,-4.26,39.80,-4.84,1.22,17.26,3.21,2.23,-5.62
-12,-15,346,-2,-426,3891,-0.22,-0.13,18.86,-0.02,-4.26,38.91,-4.85,1.21,17.18,4.33,1.31,-6.30
-15,-17,377,21,-391,3944,-0.29,-0.22,19.28,0.21,-3.91,39.44,-4.86,1.20,17.11,4.66,1.45,-6.57
-15,-2,456,-29,-223,3873,-0.35,-0.21,20.13,-0.29,-2.23,38.73,-4.85,1.20,17.03,4.53,-0.82,-7.24
-4,11,500,-73,-85,3903,-0.34,-0.13,21.17,-0.73,-0.85,39.03,-4.83,1.21,16.94,2.86,-2.64,-7.71
-12,8,440,-140,-80,3841,-0.38,-0.06,21.74,-1.40,-0.80,38.41,-4.81,1.22,16.85,4.00,-2.07,-7.39
-7,20,414,-211,-119,3891,-0.38,0.06,22.09,-2.11,-1.19,38.91,-4.79,1.24,16.77,3.22,-3.67,-7.26
-2,20,320,-116,-225,3876,-0.36,0.18,21.83,-1.16,-2.25,38.76,-4.78,1.25,16.68,2.49,-3.46,-6.58
1,18,297,-106,-205,3882,-0.32,0.27,21.46,-1.06,-2.05,38.82,-4.76,1.26,16.59,2.10,-2.99,-6.36
0,5,251,-78,-318,3949,-0.28,0.27,20.84,-0.78,-3.18,39.49,-4.74,1.26,16.51,2.31,-1.00,-5.94
-4,7,234,-91,-362,3934,-0.28,0.29,20.19,-0.91,-3.62,39.34,-4.76,1.27,16.43,2.94,-1.28,-5.72
-7,1,180,-118,-372,3902,-0.29,0.27,19.27,-1.18,-3.72,39.02,-4.77,1.28,16.35,3.37,-0.42,-5.20
-11,-2,163,-110,-404,3904,-0.33,0.23,18.33,-1.10,-4.04,39.04,-4.79,1.30,16.28,3.92,-0.04,-4.92
-5,-4,117,-114,-455,3859,-0.33,0.18,17.21,-1.14,-4.55,38.59,-4.81,1.31,16.21,3.02,0.17,-4.42
-3,-3,124,-88,-448,3864,-0.31,0.14,16.25,-0.88,-4.48,38.64,-4.83,1.31,16.15,2.76,-0.06,-4.31
4,-6,205,4,-468,3879,-0.26,0.09,15.88,0.04,-4.68,38.79,-4.84,1.31,16.09,1.80,0.31,-4.80
3,-1,242,31,-529,3893,-0.21,0.08,15.76,0.31,-5.29,38.93,-4.86,1.30,16.02,2.05,-0.48,-5.02
-5,14,373,20,-663,3957,-0.22,0.16,16.46,0.20,-6.63,39.57,-4.87,1.30,15.96,3.26,-2.62,-6.02
-3,15,408,10,-648,3914,-0.22,0.23,17.31,0.10,-6.48,39.14,-4.89,1.31,15.89,2.98,-2.63,-6.40
2,24,553,2,-510,3869,-0.19,0.35,18.95,0.02,-5.10,38.69,-4.91,1.31,15.81,2.29,-3.77,-7.64
-6,9,586,35,-476,3887,-0.20,0.37,20.63,0.35,-4.76,38.87,-4.92,1.30,15.73,3.48,-1.44,-8.14
-6,13,655,-62,-392,3903,-0.22,0.42,22.56,-0.62,-3.92,39.03,-4.93,1.30,15.64,3.46,-1.98,-8.92
5,15,652,-82,-328,3871,-0.17,0.47,24.28,-0.82,-3.28,38.71,-4.92,1.30,15.55,1.87,-2.19,-9.18
-7,10,604,-16,-354,3941,-0.19,0.48,25.54,-0.16,-3.54,39.41,-4.92,1.29,15.44,3.65,-1.39,-9.05
-4,12,586,-93,-314,3935,-0.20,0.51,26.56,-0.93,-3.14,39.35,-4.90,1.31,15.34,3.18,-1.66,-9.09
-4,7,559,-125,-346,3911,-0.20,0.50,27.31,-1.25,-3.46,39.11,-4.91,1.34,15.23,3.17,-0.93,-9.03
-9,7,555,-94,-347,3903,-0.24,0.49,27.97,-0.94,-3.47,39.03,-4.92,1.35,15.12,3.88,-0.95,-9.10
-14,-9,559,-95,-345,3925,-0.30,0.39,28.58,-0.95,-3.45,39.25,-4.94,1.37,15.01,4.53,1.28,-9.22
1,13,557,-105,-379,3867,-0.26,0.43,29.12,-1.05,-3.79,38.67,-4.95,1.38,14.89,2.32,-2.00,-9.29
-2,5,566,-51,-520,3906,-0.25,0.42,29.66,-0.51,-5.20,39.06,-4.97,1.39,14.77,2.82,-0.81,-9.44
-9,5,574,-59,-396,3901,-0.28,0.40,30.20,-0.59,-3.96,39.01,-4.98,1.39,14.65,3.83,-0.83,-9.57
-14,-1,601,-14,-459,3954,-0.34,0.36,30.84,-0.14,-4.59,39.54,-5.00,1.40,14.53,4.50,-0.01,-9.85
-8,16,613,-19,-384,3919,-0.35,0.42,31.50,-0.19,-3.84,39.19,-5.00,1.39,14.40,3.56,-2.48,-10.04
-14,23,678,-95,-301,3903,-0.40,0.52,32.48,-0.95,-3.01,39.03,-4.98,1.41,14.28,4.36,-3.37,-10.63
-9,32,718,-81,-246,3838,-0.42,0.66,33.61,-0.81,-2.46,38.38,-4.96,1.42,14.14,3.56,-4.48,-11.08
6,29,727,-60,-259,3895,-0.34,0.77,34.69,-0.60,-2.59,38.95,-4.95,1.42,14.00,1.41,-3.82,-11.31
12,26,712,-97,-255,3856,-0.23,0.85,35.56,-0.97,-2.55,38.56,-4.92,1.44,13.86,0.69,-3.21,-11.35
-3,10,609,10,-385,3914,-0.23,0.83,35.72,0.10,-3.85,39.14,-4.93,1.44,13.72,2.99,-0.82,-10.67
-9,7,570,-4,-325,3985,-0.26,0.79,35.63,-0.04,-3.25,39.85,-4.92,1.44,13.58,3.84,-0.44,-10.38
-19,-9,474,-19,-379,3963,-0.35,0.66,34.95,-0.19,-3.79,39.63,-4.93,1.43,13.44,5.19,1.75,-9.61
-11,-14,467,-95,-386,3923,-0.38,0.50,34.31,-0.95,-3.86,39.23,-4.95,1.45,13.30,3.92,2.22,-9.45
-5,5,488,-96,-289,3919,-0.37,0.48,33.85,-0.96,-2.89,39.19,-4.93,1.46,13.17,3.01,-0.72,-9.51
-13,-5,512,-54,-268,3886,-0.42,0.41,33.59,-0.54,-2.68,38.86,-4.91,1.46,13.03,4.14,0.65,-9.63
-11,13,578,-115,-280,3858,-0.44,0.44,33.76,-1.15,-2.80,38.58,-4.89,1.48,12.90,3.78,-2.03,-10.10
-5,15,606,-148,-270,3873,-0.43,0.49,34.08,-1.48,-2.70,38.73,-4.87,1.51,12.76,2.88,-2.26,-10.33
-4,13,637,-221,-275,3934,-0.41,0.52,34.56,-2.21,-2.75,39.34,-4.86,1.54,12.62,2.75,-1.92,-10.61
-10,9,642,-248,-238,3909,-0.43,0.52,35.02,-2.48,-2.38,39.09,-4.85,1.57,12.48,3.62,-1.32,-10.71
-10,11,664,-214,-171,3920,-0.45,0.54,35.57,-2.14,-1.71,39.20,-4.83,1.59,12.34,3.58,-1.61,-10.95
-3,13,674,-138,-183,3909,-0.42,0.56,36.12,-1.38,-1.83,39.09,-4.81,1.61,12.20,2.55,-1.88,-11.10
-6,13,650,-128,-237,3885,-0.42,0.59,36.47,-1.28,-2.37,38.85,-4.79,1.63,12.05,3.00,-1.85,-10.99
-3,5,632,-105,-233,3903,-0.39,0.56,36.68,-1.05,-2.33,39.03,-4.77,1.64,11.91,2.58,-0.69,-10.89
-34,6,589,41,-376,3872,-0.56,0.54,36.61,0.41,-3.76,38.72,-4.78,1.64,11.76,6.99,-0.87,-10.58
-10,11,587,-39,-355,3999,-0.57,0.55,36.53,-0.39,-3.55,39.99,-4.78,1.63,11.61,3.32,-1.61,-10.55
-14,-5,545,34,-428,3873,-0.59,0.47,36.20,0.34,-4.28,38.73,-4.79,1.63,11.47,3.88,0.67,-10.20
-11,-3,552,70,-517,3867,-0.60,0.40,35.95,0.70,-5.17,38.67,-4.80,1.63,11.33,3.42,0.24,-10.20
-1,-4,572,53,-391,3884,-0.55,0.34,35.84,0.53,-3.91,38.84,-4.80,1.63,11.18,2.00,0.27,-10.31
-9,-1,579,57,-420,3922,-0.55,0.30,35.79,0.57,-4.20,39.22,-4.81,1.63,11.04,3.22,-0.26,-10.34
1,14,693,8,-338,3895,-0.49,0.35,36.44,0.08,-3.38,38.95,-4.81,1.62,10.90,1.81,-2.44,-11.21
-5,13,744,-30,-291,3891,-0.47,0.40,37.33,-0.30,-2.91,38.91,-4.80,1.62,10.75,2.75,-2.20,-11.70
-11,20,913,-50,-407,3944,-0.49,0.48,39.17,-0.50,-4.07,39.44,-4.81,1.62,10.59,3.64,-3.12,-13.14
-4,23,951,-101,-408,3894,-0.46,0.57,41.05,-1.01,-4.08,38.94,-4.83,1.64,10.43,2.63,-3.41,-13.70
-10,13,984,-153,-510,3886,-0.48,0.59,42.95,-1.53,-5.10,38.86,-4.84,1.66,10.26,3.52,-1.85,-14.22
-14,9,971,-173,-491,3872,-0.52,0.59,44.58,-1.73,-4.91,38.72,-4.86,1.68,10.08,4.07,-1.26,-14.39
-16,-15,939,-3,-512,3916,-0.56,0.44,45.85,-0.03,-5.12,39.16,-4.87,1.69,9.90,4.30,2.11,-14.37
-18,-22,919,67,-495,3959,-0.62,0.26,46.87,0.67,-4.95,39.59,-4.88,1.69,9.71,4.50,2.83,-14.40
-8,0,914,40,-448,3852,-0.60,0.23,47.76,0.40,-4.48,38.52,-4.89,1.69,9.52,3.01,-0.57,-14.50
-12,4,933,47,-430,3910,-0.62,0.24,48.67,0.47,-4.30,39.10,-4.89,1.70,9.33,3.60,-1.18,-14.77
-22,5,962,158,-533,3896,-0.69,0.24,49.67,1.58,-5.33,38.96,-4.90,1.70,9.13,4.99,-1.32,-15.12
-5,12,976,148,-482,3879,-0.65,0.29,50.66,1.48,-4.82,38.79,-4.90,1.70,8.93,2.47,-2.30,-15.36
-2,7,1021,115,-613,3910,-0.60,0.31,51.82,1.15,-6.13,39.10,-4.91,1.71,8.72,2.12,-1.51,-15.85
-11,16,1029,81,-644,3887,-0.60,0.37,52.92,0.81,-6.44,38.87,-4.93,1.72,8.51,3.49,-2.77,-16.07
-9,27,1112,8,-526,3916,-0.60,0.50,54.41,0.08,-5.26,39.16,-4.94,1.73,8.30,3.20,-4.21,-16.87
0,31,1128,-23,-515,3931,-0.54,0.64,55.85,-0.23,-5.15,39.31,-4.95,1.74,8.08,1.95,-4.56,-17.20
-12,25,1157,-100,-446,3863,-0.56,0.73,57.32,-1.00,-4.46,38.63,-4.96,1.76,7.85,3.75,-3.49,-17.63
-4,23,1162,-152,-330,3925,-0.53,0.79,58.68,-1.52,-3.30,39.25,-4.95,1.80,7.61,2.58,-3.08,-17.87
-14,14,1093,-135,-294,3893,-0.56,0.80,59.48,-1.35,-2.94,38.93,-4.93,1.83,7.38,4.03,-1.72,-17.52
-19,16,1059,-90,-259,3906,-0.62,0.82,59.99,-0.90,-2.59,39.06,-4.91,1.85,7.14,4.67,-2.00,-17.37
-10,21,967,-135,-191,3894,-0.62,0.86,59.89,-1.35,-1.91,38.94,-4.88,1.87,6.90,3.28,-2.69,-16.71
-21,16,952,-163,-191,3848,-0.68,0.88,59.71,-1.63,-1.91,38.48,-4.86,1.90,6.66,4.82,-1.92,-16.57
0,6,972,-139,-201,3924,-0.62,0.82,59.67,-1.39,-2.01,39.24,-4.84,1.93,6.42,1.73,-0.51,-16.69
-1,13,962,-61,-135,3937,-0.56,0.82,59.57,-0.61,-1.35,39.37,-4.81,1.94,6.18,1.98,-1.59,-16.59
-12,18,948,-50,-393,3912,-0.58,0.85,59.39,-0.50,-3.93,39.12,-4.82,1.95,5.95,3.63,-2.31,-16.46
-4,12,938,-66,-305,3930,-0.54,0.84,59.18,-0.66,-3.05,39.30,-4.81,1.96,5.71,2.46,-1.42,-16.34
-6,15,935,-57,-397,3913,-0.53,0.85,58.96,-0.57,-3.97,39.13,-4.81,1.97,5.48,2.80,-1.87,-16.27
-23,8,926,-99,-554,3950,-0.61,0.81,58.71,-0.99,-5.54,39.50,-4.82,1.99,5.24,5.24,-0.88,-16.16
-17,6,811,-158,-452,3882,-0.66,0.77,57.79,-1.58,-4.52,38.82,-4.84,2.01,5.01,4.25,-0.67,-15.22
-17,4,789,-141,-459,3900,-0.69,0.71,56.82,-1.41,-4.59,39.00,-4.85,2.03,4.79,4.19,-0.48,-14.90
-7,10,814,-97,-391,3902,-0.67,0.70,56.11,-0.97,-3.91,39.02,-4.86,2.05,4.57,2.72,-1.42,-14.94
-12,16,836,-103,-417,3854,-0.67,0.73,55.60,-1.03,-4.17,38.54,-4.87,2.06,4.34,3.48,-2.29,-14.99
-7,23,863,-35,-385,3963,-0.65,0.80,55.30,-0.35,-3.85,39.63,-4.87,2.07,4.12,2.76,-3.24,-15.12
-6,16,875,-57,-314,3901,-0.62,0.82,55.11,-0.57,-3.14,39.01,-4.86,2.07,3.91,2.66,-2.14,-15.16
-12,21,989,41,-340,3950,-0.63,0.86,55.63,0.41,-3.40,39.50,-4.86,2.07,3.68,3.55,-2.81,-16.00
-20,20,1024,4,-344,3879,-0.69,0.90,56.31,0.04,-3.44,38.79,-4.86,2.08,3.46,4.65,-2.60,-16.34
-13,18,1109,-73,-305,3927,-0.70,0.92,57.45,-0.73,-3.05,39.27,-4.84,2.08,3.23,3.56,-2.26,-17.09
-8,12,1111,-129,-287,3873,-0.68,0.90,58.48,-1.29,-2.87,38.73,-4.82,2.10,3.00,2.82,-1.39,-17.26
-4,26,1022,-204,-277,3947,-0.64,0.97,58.87,-2.04,-2.77,39.47,-4.80,2.14,2.76,2.29,-3.42,-16.71
-2,25,976,-172,-255,3799,-0.58,1.02,58.93,-1.72,-2.55,37.99,-4.78,2.17,2.53,2.06,-3.18,-16.40
1,26,796,-220,-280,3912,-0.52,1.08,57.89,-2.20,-2.80,39.12,-4.76,2.21,2.30,1.72,-3.25,-15.00
-2,28,748,-243,-323,3863,-0.48,1.14,56.67,-2.43,-3.23,38.63,-4.75,2.25,2.07,2.25,-3.46,-14.46
6,31,648,-143,-295,3957,-0.40,1.22,54.95,-1.43,-2.95,39.57,-4.73,2.27,1.85,1.17,-3.78,-13.49
1,30,637,-101,-306,3864,-0.35,1.28,53.34,-1.01,-3.06,38.64,-4.72,2.27,1.64,2.02,-3.52,-13.14
-8,23,638,-36,-305,3940,-0.36,1.29,51.90,-0.36,-3.05,39.40,-4.71,2.28,1.43,3.36,-2.43,-12.90
0,23,652,-71,-311,3953,-0.33,1.30,50.69,-0.71,-3.11,39.53,-4.70,2.28,1.23,2.20,-2.41,-12.79
-6,12,745,-38,-312,3878,-0.33,1.25,50.16,-0.38,-3.12,38.78,-4.69,2.28,1.03,3.10,-0.84,-13.32
-18,3,797,7,-409,3857,-0.41,1.14,50.01,0.07,-4.09,38.57,-4.69,2.29,0.83,4.79,0.33,-13.64
-22,10,808,-53,-471,3892,-0.50,1.09,49.94,-0.53,-4.71,38.92,-4.70,2.30,0.63,5.23,-0.85,-13.69
-12,19,796,-108,-504,3912,-0.52,1.09,49.80,-1.08,-5.04,39.12,-4.72,2.32,0.43,3.67,-2.22,-13.58
-11,9,699,-155,-645,3883,-0.54,1.04,49.08,-1.55,-6.45,38.83,-4.73,2.34,0.24,3.49,-0.81,-12.79
-2,20,626,-154,-640,3883,-0.50,1.06,47.99,-1.54,-6.40,38.83,-4.74,2.36,0.05,2.21,-2.46,-12.11
1,23,428,-99,-515,3920,-0.44,1.09,45.81,-0.99,-5.15,39.20,-4.75,2.37,-0.13,1.86,-2.86,-10.40
-6,25,410,-15,-473,3897,-0.43,1.14,43.73,-0.15,-4.73,38.97,-4.76,2.38,-0.31,2.95,-3.09,-9.93
-8,15,478,55,-499,3941,-0.44,1.11,42.27,0.55,-4.99,39.41,-4.77,2.38,-0.47,3.25,-1.61,-10.14
-10,-2,520,64,-473,3913,-0.46,0.99,41.21,0.64,-4.73,39.13,-4.77,2.38,-0.64,3.52,0.75,-10.25
-6,2,781,133,-83,3999,-0.45,0.90,41.86,1.33,-0.83,39.99,-4.75,2.38,-0.80,2.92,-0.03,-12.11
-15,7,810,64,-172,3921,-0.49,0.86,42.61,0.64,-1.72,39.21,-4.74,2.39,-0.97,4.19,-0.88,-12.42
-31,-14,723,-355,-324,3924,-0.63,0.68,42.76,-3.55,-3.24,39.24,-4.73,2.42,-1.15,6.37,1.98,-11.85
-20,-21,684,-423,-412,3839,-0.69,0.49,42.66,-4.23,-4.12,38.39,-4.74,2.46,-1.31,4.58,2.65,-11.56
-9,20,445,-534,-283,3876,-0.68,0.56,41.11,-5.34,-2.83,38.76,-4.73,2.49,-1.48,2.93,-3.48,-9.68
-6,29,359,-554,-326,3839,-0.65,0.68,39.19,-5.54,-3.26,38.39,-4.73,2.52,-1.63,2.53,-4.65,-8.77
18,51,187,-475,-69,3864,-0.47,0.92,36.41,-4.75,-0.69,38.64,-4.71,2.55,-1.78,-0.81,-7.56,-7.15
14,47,200,-422,-118,3839,-0.34,1.12,33.99,-4.22,-1.18,38.39,-4.69,2.58,-1.92,0.04,-6.60,-6.83
20,36,269,-240,-142,3913,-0.18,1.23,32.23,-2.40,-1.42,39.13,-4.67,2.61,-2.05,-0.60,-4.73,-7.00
26,41,274,-123,-161,3930,-0.01,1.35,30.68,-1.23,-1.61,39.30,-4.65,2.61,-2.17,-1.19,-5.26,-6.78
70,78,285,-91,-223,3954,0.42,1.69,29.35,-0.91,-2.23,39.54,-4.63,2.62,-2.29,-7.10,-10.26,-6.63
57,56,271,-46,-341,3926,0.73,1.87,28.07,-0.46,-3.41,39.26,-4.62,2.62,-2.40,-4.54,-6.57,-6.32
-33,-25,190,81,-306,3955,0.45,1.53,26.42,0.81,-3.06,39.55,-4.62,2.61,-2.50,8.66,5.14,-5.49
-36,-35,192,63,-358,3875,0.19,1.16,24.95,0.63,-3.58,38.75,-4.61,2.61,-2.60,8.61,5.97,-5.26
-34,-31,238,58,-472,3922,-0.04,0.86,23.91,0.58,-4.72,39.22,-4.62,2.60,-2.70,7.88,4.79,-5.40
-18,-16,238,-32,-522,3858,-0.14,0.67,22.97,-0.32,-5.22,38.58,-4.63,2.60,-2.79,5.25,2.15,-5.24
-4,0,205,-44,-541,3907,-0.15,0.61,21.92,-0.44,-5.41,39.07,-4.64,2.60,-2.87,3.10,-0.42,-4.84
-1,0,188,-21,-544,3890,-0.15,0.54,20.88,-0.21,-5.44,38.90,-4.65,2.60,-2.95,2.67,-0.53,-4.55
4,6,125,-36,-445,3876,-0.11,0.53,19.55,-0.36,-4.45,38.76,-4.66,2.60,-3.03,1.99,-1.47,-3.90
-2,2,117,-52,-417,3901,-0.11,0.49,18.31,-0.52,-4.17,39.01,-4.67,2.59,-3.10,2.90,-0.94,-3.64
0,-5,98,-4,-353,3930,-0.10,0.41,17.08,-0.04,-3.53,39.30,-4.67,2.58,-3.17,2.62,-0.01,-3.30
-2,-2,119,-16,-335,3922,-0.10,0.35,16.09,-0.16,-3.35,39.22,-4.67,2.57,-3.24,2.92,-0.56,-3.28
-9,-5,191,-27,-352,3911,-0.14,0.29,15.65,-0.27,-3.52,39.11,-4.67,2.56,-3.30,3.90,-0.22,-3.69
2,1,202,-42,-388,3890,-0.12,0.27,15.32,-0.42,-3.88,38.90,-4.68,2.55,-3.36,2.28,-1.18,-3.71
11,8,230,-59,-419,3903,-0.04,0.29,15.19,-0.59,-4.19,39.03,-4.69,2.54,-3.42,1.06,-2.20,-3.88
1,7,246,-44,-410,3898,-0.03,0.30,15.17,-0.44,-4.10,38.98,-4.70,2.53,-3.48,2.61,-2.01,-3.98
-1,11,277,-8,-533,3892,-0.03,0.34,15.34,-0.08,-5.33,38.92,-4.71,2.52,-3.54,2.92,-2.55,-4.21
8,13,283,-48,-459,3894,0.02,0.38,15.53,-0.48,-4.59,38.94,-4.72,2.52,-3.60,1.65,-2.77,-4.28
13,19,288,-80,-564,3887,0.10,0.46,15.74,-0.80,-5.64,38.87,-4.73,2.52,-3.66,1.04,-3.53,-4.35
1,7,277,-55,-556,3911,0.09,0.46,15.85,-0.55,-5.56,39.11,-4.75,2.52,-3.73,2.87,-1.71,-4.29
-9,-4,259,-74,-319,3909,0.03,0.39,15.85,-0.74,-3.19,39.09,-4.74,2.51,-3.79,4.27,-0.16,-4.16
-7,7,303,-122,-239,3925,-0.02,0.39,16.11,-1.22,-2.39,39.25,-4.73,2.50,-3.85,3.87,-1.83,-4.50
3,14,424,-24,-357,3897,0.00,0.44,17.09,-0.24,-3.57,38.97,-4.73,2.49,-3.92,2.39,-2.80,-5.48
4,17,453,-41,-376,3928,0.03,0.50,18.14,-0.41,-3.76,39.28,-4.73,2.48,-3.99,2.28,-3.14,-5.84
-13,-7,466,-37,-479,3857,-0.05,0.41,19.17,-0.37,-4.79,38.57,-4.74,2.48,-4.07,4.72,0.35,-6.10
6,6,454,-30,-369,3988,-0.01,0.40,20.02,-0.30,-3.69,39.88,-4.74,2.47,-4.15,1.91,-1.64,-6.15
-6,16,437,-109,-521,3856,-0.05,0.46,20.69,-1.09,-5.21,38.56,-4.76,2.47,-4.23,3.68,-3.06,-6.14
14,20,433,-129,-485,3911,0.04,0.54,21.26,-1.29,-4.85,39.11,-4.77,2.48,-4.31,0.81,-3.52,-6.20
35,51,543,-176,-368,3872,0.25,0.79,22.45,-1.76,-3.68,38.72,-4.78,2.49,-4.40,-1.99,-7.77,-7.14
41,53,575,-115,-326,3959,0.48,1.04,23.71,-1.15,-3.26,39.59,-4.78,2.49,-4.50,-2.48,-7.61,-7.56
41,66,619,-150,-354,3887,0.68,1.34,25.11,-1.50,-3.54,38.87,-4.78,2.49,-4.60,-2.10,-9.03,-8.08
47,64,617,-109,-390,3867,0.90,1.59,26.37,-1.09,-3.90,38.67,-4.79,2.49,-4.70,-2.59,-8.24,-8.27
39,47,612,-108,-476,3872,1.05,1.72,27.46,-1.08,-4.76,38.72,-4.80,2.50,-4.81,-1.09,-5.41,-8.41
31,48,589,-153,-481,3875,1.13,1.84,28.31,-1.53,-4.81,38.75,-4.81,2.52,-4.92,0.30,-5.34,-8.39
36,37,535,-97,-412,4024,1.24,1.88,28.74,-0.97,-4.12,40.24,-4.81,2.52,-5.03,-0.26,-3.59,-8.08
38,42,520,-138,-428,3844,1.35,1.95,29.04,-1.38,-4.28,38.44,-4.82,2.53,-5.15,-0.36,-4.23,-8.03
24,41,488,-216,-330,3923,1.36,2.01,29.11,-2.16,-3.30,39.23,-4.80,2.57,-5.26,1.79,-4.00,-7.82
35,49,486,-183,-342,3920,1.43,2.10,29.17,-1.83,-3.42,39.20,-4.81,2.60,-5.38,0.27,-5.05,-7.81
12,21,437,-4,-264,3884,1.36,2.02,28.91,-0.04,-2.64,38.84,-4.79,2.60,-5.49,3.63,-0.93,-7.43
-19,-3,432,-35,-305,3863,1.11,1.80,28.66,-0.35,-3.05,38.63,-4.78,2.59,-5.61,7.87,2.31,-7.34
-9,-11,421,-144,-294,3965,0.95,1.55,28.36,-1.44,-2.94,39.65,-4.76,2.60,-5.72,6.02,3.06,-7.22
-2,7,409,-65,-276,3837,0.84,1.44,28.02,-0.65,-2.76,38.37,-4.74,2.60,-5.83,4.74,0.10,-7.07
7,16,345,-99,-325,3889,0.80,1.39,27.32,-0.99,-3.25,38.89,-4.74,2.59,-5.94,3.29,-1.35,-6.52
7,12,326,-102,-382,3889,0.76,1.33,26.58,-1.02,-3.82,38.89,-4.74,2.59,-6.05,3.22,-0.87,-6.26
10,13,285,-112,-317,3894,0.75,1.27,25.66,-1.12,-3.17,38.94,-4.73,2.59,-6.15,2.73,-1.12,-5.83
5,4,286,-81,-236,3950,0.70,1.17,24.84,-0.81,-2.36,39.50,-4.71,2.59,-6.25,3.39,0.06,-5.70
12,25,348,38,-291,3989,0.70,1.21,24.48,0.38,-2.91,39.89,-4.70,2.58,-6.34,2.33,-3.08,-6.05
3,32,345,-136,-448,4032,0.65,1.28,24.13,-1.36,-4.48,40.32,-4.71,2.59,-6.44,3.60,-4.01,-5.97
-1,-1,252,-141,-427,3900,0.58,1.15,23.26,-1.41,-4.27,39.00,-4.72,2.59,-6.53,4.09,0.77,-5.19
-1,2,223,-133,-405,3938,0.52,1.04,22.29,-1.33,-4.05,39.38,-4.73,2.60,-6.62,3.97,0.12,-4.83
4,10,214,-160,-408,3878,0.49,1.00,21.37,-1.60,-4.08,38.78,-4.74,2.60,-6.70,3.16,-1.19,-4.62
-2,4,228,-74,-452,3898,0.43,0.93,20.62,-0.74,-4.52,38.98,-4.75,2.60,-6.78,3.97,-0.42,-4.59
-5,1,232,-29,-540,3883,0.36,0.84,19.98,-0.29,-5.40,38.83,-4.76,2.60,-6.86,4.29,-0.12,-4.50
0,6,234,-64,-507,3901,0.32,0.79,19.41,-0.64,-5.07,39.01,-4.77,2.60,-6.94,3.47,-0.98,-4.42
-8,8,301,-22,-398,3885,0.24,0.76,19.30,-0.22,-3.98,38.85,-4.78,2.59,-7.02,4.54,-1.33,-4.85
-7,0,316,-31,-421,3985,0.17,0.69,19.30,-0.31,-4.21,39.85,-4.78,2.59,-7.09,4.26,-0.26,-4.95
-5,1,291,-114,-404,3911,0.12,0.62,19.14,-1.14,-4.04,39.11,-4.79,2.59,-7.17,3.87,-0.52,-4.75
-15,3,279,-92,-427,3865,0.02,0.58,18.93,-0.92,-4.27,38.65,-4.80,2.58,-7.24,5.21,-0.91,-4.63
-4,14,321,-56,-399,3880,-0.01,0.61,19.00,-0.56,-3.99,38.80,-4.81,2.58,-7.32,3.48,-2.53,-4.92
21,17,344,-159,-421,3969,0.12,0.65,19.19,-1.59,-4.21,39.69,-4.82,2.58,-7.39,-0.08,-2.91,-5.11
1,12,418,-12,-391,3923,0.12,0.66,19.83,-0.12,-3.91,39.23,-4.82,2.57,-7.47,2.96,-2.13,-5.71
3,18,442,-48,-507,3882,0.12,0.70,20.54,-0.48,-5.07,38.82,-4.84,2.57,-7.55,2.68,-2.96,-5.98
7,10,420,-98,-444,3874,0.15,0.69,21.05,-0.98,-4.44,38.74,-4.85,2.57,-7.64,2.13,-1.76,-5.91
-6,4,421,-141,-408,3838,0.10,0.65,21.51,-1.41,-4.08,38.38,-4.86,2.57,-7.72,4.02,-0.93,-5.99
2,11,438,-119,-343,3935,0.10,0.65,22.03,-1.19,-3.43,39.35,-4.86,2.57,-7.81,2.81,-1.99,-6.19
5,1,434,-154,-340,3931,0.12,0.59,22.48,-1.54,-3.40,39.31,-4.86,2.56,-7.90,2.39,-0.57,-6.23
-1,2,395,-83,-307,3861,0.11,0.54,22.64,-0.83,-3.07,38.61,-4.85,2.55,-7.99,3.26,-0.80,-5.99
5,14,385,-189,-344,3947,0.13,0.58,22.72,-1.89,-3.44,39.47,-4.86,2.58,-8.08,2.39,-2.59,-5.93
4,-5,339,-91,-368,3924,0.14,0.49,22.52,-0.91,-3.68,39.24,-4.86,2.57,-8.17,2.56,0.14,-5.58
-1,1,311,-101,-332,3871,0.12,0.44,22.16,-1.01,-3.32,38.71,-4.85,2.56,-8.26,3.29,-0.85,-5.33
-2,-2,257,-165,-318,3932,0.09,0.39,21.51,-1.65,-3.18,39.32,-4.83,2.56,-8.34,3.38,-0.49,-4.85
-2,3,237,-104,-365,3918,0.07,0.37,20.81,-1.04,-3.65,39.18,-4.84,2.55,-8.42,3.34,-1.29,-4.60
1,10,234,-100,-411,3939,0.07,0.39,20.16,-1.00,-4.11,39.39,-4.85,2.54,-8.50,2.89,-2.31,-4.46
5,20,237,-120,-483,3914,0.09,0.47,19.59,-1.20,-4.83,39.14,-4.86,2.55,-8.58,2.33,-3.68,-4.39
-2,4,304,-149,-396,3794,0.07,0.45,19.48,-1.49,-3.96,37.94,-4.88,2.55,-8.66,3.37,-1.29,-4.82
-1,-2,320,-97,-365,3922,0.06,0.39,19.49,-0.97,-3.65,39.22,-4.88,2.54,-8.74,3.19,-0.47,-4.93
-2,0,335,-78,-387,3895,0.04,0.35,19.58,-0.78,-3.87,38.95,-4.88,2.53,-8.81,3.31,-0.85,-5.04
-4,-7,324,-83,-363,3941,0.01,0.28,19.60,-0.83,-3.63,39.41,-4.88,2.52,-8.89,3.56,0.08,-4.96
-12,-5,306,-116,-396,3897,-0.06,0.22,19.51,-1.16,-3.96,38.97,-4.90,2.52,-8.97,4.65,-0.34,-4.82
-2,3,311,-89,-319,3969,-0.07,0.21,19.45,-0.89,-3.19,39.69,-4.89,2.51,-9.05,3.11,-1.56,-4.84
5,18,348,-136,-364,3895,-0.03,0.30,19.63,-1.36,-3.64,38.95,-4.90,2.50,-9.12,2.12,-3.67,-5.12
-11,3,334,-232,-356,3825,-0.09,0.29,19.70,-2.32,-3.56,38.25,-4.90,2.53,-9.20,4.44,-1.42,-5.03
-1,0,353,-184,-321,3863,-0.09,0.26,19.89,-1.84,-3.21,38.63,-4.89,2.55,-9.28,2.91,-1.03,-5.19
-13,-2,362,-162,-288,3890,-0.16,0.22,20.11,-1.62,-2.88,38.90,-4.87,2.55,-9.36,4.60,-0.80,-5.28
9,1,426,-60,-174,3973,-0.09,0.21,20.69,-0.60,-1.74,39.73,-4.85,2.55,-9.45,1.36,-1.29,-5.81
-6,-7,434,-55,-159,3898,-0.12,0.14,21.27,-0.55,-1.59,38.98,-4.83,2.55,-9.53,3.59,-0.19,-5.95
1,16,449,-175,-202,3955,-0.10,0.23,21.88,-1.75,-2.02,39.55,-4.81,2.56,-9.62,2.54,-3.54,-6.15
6,14,446,-147,-200,3948,-0.05,0.29,22.42,-1.47,-2.00,39.48,-4.79,2.56,-9.71,1.86,-3.12,-6.21
0,20,416,-150,-356,3879,-0.05,0.38,22.71,-1.50,-3.56,38.79,-4.80,2.56,-9.80,2.79,-3.86,-6.05
-1,21,413,-147,-385,3943,-0.05,0.47,22.96,-1.47,-3.85,39.43,-4.81,2.56,-9.89,2.94,-3.84,-6.07
20,45,422,-128,-555,3913,0.08,0.70,23.24,-1.28,-5.55,39.13,-4.82,2.57,-9.98,-0.01,-7.08,-6.17
-11,28,456,-54,-551,3841,0.00,0.80,23.70,-0.54,-5.51,38.41,-4.83,2.57,-10.07,4.58,-4.29,-6.47
-7,12,364,-43,-493,3796,-0.04,0.79,23.55,-0.43,-4.93,37.96,-4.84,2.57,-10.17,3.90,-1.87,-5.82
0,20,349,-88,-521,3962,-0.04,0.84,23.32,-0.88,-5.21,39.62,-4.86,2.57,-10.26,2.85,-3.01,-5.67
1,6,353,53,-468,3925,-0.03,0.79,23.14,0.53,-4.68,39.25,-4.86,2.57,-10.35,2.71,-0.96,-5.67
-1,13,359,12,-459,3869,-0.03,0.79,23.02,0.12,-4.59,38.69,-4.87,2.56,-10.44,3.02,-2.02,-5.68
4,14,367,-83,-430,3751,-0.00,0.80,22.95,-0.83,-4.30,37.51,-4.88,2.56,-10.53,2.31,-2.16,-5.72
-7,1,383,-22,-293,3859,-0.05,0.72,23.00,-0.22,-2.93,38.59,-4.87,2.55,-10.63,3.90,-0.32,-5.83
-5,6,483,-29,-424,3861,-0.07,0.69,23.64,-0.29,-4.24,38.61,-4.88,2.55,-10.72,3.55,-1.14,-6.61
-1,-5,522,-6,-491,3917,-0.07,0.59,24.46,-0.06,-4.91,39.17,-4.89,2.55,-10.82,2.95,0.35,-7.01
-6,7,558,-172,-594,3846,-0.10,0.57,25.42,-1.72,-5.94,38.46,-4.90,2.56,-10.92,3.67,-1.52,-7.40
-11,2,568,-185,-534,3846,-0.16,0.53,26.34,-1.85,-5.34,38.46,-4.91,2.57,-11.02,4.33,-0.85,-7.62
-1,2,612,-38,-449,4045,-0.15,0.49,27.44,-0.38,-4.49,40.45,-4.92,2.57,-11.13,2.83,-0.92,-8.09
8,3,617,-1,-518,3835,-0.08,0.46,28.46,-0.01,-5.18,38.35,-4.93,2.57,-11.24,1.58,-1.13,-8.28
-1,5,692,-67,-451,3843,-0.08,0.44,29.84,-0.67,-4.51,38.43,-4.94,2.57,-11.36,2.96,-1.47,-9.01
-4,2,714,-10,-475,3909,-0.10,0.41,31.21,-0.10,-4.75,39.09,-4.94,2.56,-11.48,3.39,-1.07,-9.38
-8,-6,694,-59,-357,3906,-0.14,0.33,32.32,-0.59,-3.57,39.06,-4.94,2.56,-11.61,3.93,0.01,-9.42
-8,-3,678,-103,-416,3870,-0.17,0.28,33.22,-1.03,-4.16,38.70,-4.95,2.56,-11.74,3.86,-0.55,-9.45
-5,5,666,-98,-429,3851,-0.19,0.28,33.96,-0.98,-4.29,38.51,-4.96,2.56,-11.88,3.39,-1.76,-9.49
-8,9,678,-127,-431,3912,-0.22,0.31,34.70,-1.27,-4.31,39.12,-4.97,2.56,-12.02,3.79,-2.33,-9.68
-4,4,693,-36,-386,3949,-0.22,0.30,35.46,-0.36,-3.86,39.49,-4.97,2.56,-12.16,3.18,-1.57,-9.90
8,4,700,-154,-396,3810,-0.15,0.30,36.18,-1.54,-3.96,38.10,-4.98,2.57,-12.30,1.49,-1.59,-10.06
-19,-23,591,-60,-286,3880,-0.25,0.13,36.17,-0.60,-2.86,38.80,-4.97,2.57,-12.45,5.41,2.21,-9.31
-11,-21,555,-123,-323,3868,-0.29,-0.01,35.94,-1.23,-3.23,38.68,-4.96,2.56,-12.59,4.10,1.64,-9.02
-12,-26,548,-109,-411,3871,-0.34,-0.17,35.69,-1.09,-4.11,38.71,-4.97,2.56,-12.73,4.18,2.10,-8.93
-13,-27,563,-113,-377,3898,-0.38,-0.32,35.55,-1.13,-3.77,38.98,-4.97,2.56,-12.87,4.24,1.98,-9.00
-11,-20,573,-19,-399,3928,-0.41,-0.41,35.49,-0.19,-3.99,39.28,-4.97,2.55,-13.01,3.89,0.75,-9.05
-8,-8,581,-17,-355,3922,-0.42,-0.42,35.49,-0.17,-3.55,39.22,-4.97,2.54,-13.16,3.41,-1.09,-9.10
-4,15,633,41,-310,3916,-0.40,-0.28,35.80,0.41,-3.10,39.16,-4.96,2.54,-13.30,2.83,-4.35,-9.49
11,22,660,41,-358,3858,-0.29,-0.12,36.25,0.41,-3.58,38.58,-4.96,2.53,-13.44,0.74,-5.10,-9.74
-17,-22,687,-285,-332,3744,-0.37,-0.24,36.81,-2.85,-3.32,37.44,-4.96,2.56,-13.59,4.87,1.36,-10.01
7,17,626,-36,-333,4055,-0.29,-0.12,36.95,-0.36,-3.33,40.55,-4.95,2.55,-13.74,1.36,-4.34,-9.61
-10,17,719,-310,-560,3731,-0.32,0.00,37.64,-3.10,-5.60,37.31,-4.96,2.58,-13.89,3.89,-4.14,-10.35
-4,17,671,-216,-618,3830,-0.31,0.10,37.97,-2.16,-6.18,38.30,-4.97,2.59,-14.04,3.00,-3.95,-10.07
-4,21,588,-32,-422,3896,-0.31,0.22,37.76,-0.32,-4.22,38.96,-4.98,2.59,-14.19,3.02,-4.34,-9.46
4,11,575,-6,-426,3961,-0.25,0.27,37.49,-0.06,-4.26,39.61,-4.98,2.59,-14.34,1.90,-2.73,-9.32
-4,7,519,-196,-275,3869,-0.25,0.28,36.91,-1.96,-2.75,38.69,-4.95,2.61,-14.48,3.11,-2.10,-8.84
-4,12,508,-175,-303,3889,-0.25,0.33,36.32,-1.75,-3.03,38.89,-4.93,2.62,-14.63,3.10,-2.78,-8.66
6,23,499,-26,-401,3953,-0.19,0.44,35.73,-0.26,-4.01,39.53,-4.93,2.62,-14.77,1.69,-4.25,-8.50
6,28,509,19,-385,3964,-0.13,0.56,35.26,0.19,-3.85,39.64,-4.93,2.61,-14.91,1.79,-4.77,-8.48
-1,9,568,56,-512,3879,-0.13,0.56,35.20,0.56,-5.12,38.79,-4.93,2.61,-15.05,2.88,-1.88,-8.87
-7,19,640,157,-433,3940,-0.16,0.62,35.58,1.57,-4.33,39.40,-4.93,2.61,-15.19,3.73,-3.29,-9.41
-8,15,818,-22,-369,3858,-0.19,0.65,37.01,-0.22,-3.69,38.58,-4.93,2.61,-15.34,3.82,-2.62,-10.84
-7,12,820,-167,-358,3895,-0.21,0.66,38.32,-1.67,-3.58,38.95,-4.94,2.61,-15.49,3.63,-2.15,-11.06
-4,10,783,-257,-455,3892,-0.22,0.65,39.26,-2.57,-4.55,38.92,-4.95,2.64,-15.65,3.17,-1.87,-10.96
-4,28,768,-219,-460,3908,-0.22,0.76,40.02,-2.19,-4.60,39.08,-4.96,2.66,-15.81,3.17,-4.43,-10.97
14,45,810,-228,-432,3952,-0.11,0.96,40.96,-2.28,-4.32,39.52,-4.97,2.69,-15.97,0.64,-6.66,-11.40
11,29,827,-142,-463,3804,-0.03,1.04,41.91,-1.42,-4.63,38.04,-4.98,2.70,-16.14,1.25,-4.08,-11.67
-11,-9,588,-323,-232,3952,-0.10,0.88,41.30,-3.23,-2.32,39.52,-4.96,2.73,-16.30,4.47,1.40,-9.94
-23,-5,525,-371,-167,3855,-0.23,0.76,40.38,-3.71,-1.67,38.55,-4.94,2.77,-16.46,6.04,0.55,-9.35
-2,13,432,-249,-229,3990,-0.22,0.76,38.97,-2.49,-2.29,39.90,-4.92,2.79,-16.62,2.85,-2.21,-8.48
-5,29,409,-142,-193,3942,-0.23,0.87,37.57,-1.42,-1.93,39.42,-4.90,2.80,-16.77,3.27,-4.46,-8.09
0,21,389,-176,-390,3781,-0.20,0.91,36.19,-1.76,-3.90,37.81,-4.91,2.81,-16.91,2.56,-3.17,-7.72
22,26,374,-143,-460,3852,-0.05,0.97,34.85,-1.43,-4.60,38.52,-4.92,2.82,-17.05,-0.50,-3.81,-7.39
-10,8,370,36,-594,3837,-0.10,0.93,33.62,0.36,-5.94,38.37,-4.93,2.83,-17.18,4.28,-1.16,-7.16
2,9,409,18,-682,3836,-0.08,0.89,32.75,0.18,-6.82,38.36,-4.94,2.83,-17.31,2.50,-1.39,-7.27
-1,4,490,-129,-610,3869,-0.08,0.82,32.47,-1.29,-6.10,38.69,-4.95,2.84,-17.44,2.97,-0.75,-7.77
-1,9,476,-112,-502,3917,-0.08,0.80,32.12,-1.12,-5.02,39.17,-4.96,2.85,-17.57,2.98,-1.57,-7.61
13,8,428,-107,-358,3965,0.01,0.77,31.52,-1.07,-3.58,39.65,-4.95,2.84,-17.69,1.01,-1.48,-7.18
7,3,396,-144,-350,3916,0.05,0.71,30.79,-1.44,-3.50,39.16,-4.95,2.84,-17.82,2.00,-0.82,-6.84
0,1,358,-152,-357,3857,0.05,0.64,29.89,-1.52,-3.57,38.57,-4.95,2.84,-17.93,3.06,-0.64,-6.43
6,-2,359,-38,-254,3974,0.08,0.57,29.09,-0.38,-2.54,39.74,-4.94,2.83,-18.05,2.20,-0.32,-6.30
8,5,431,-100,-313,3950,0.12,0.54,28.81,-1.00,-3.13,39.50,-4.93,2.83,-18.17,1.96,-1.44,-6.73
11,10,464,-87,-301,3899,0.17,0.55,28.76,-0.87,-3.01,38.99,-4.92,2.82,-18.28,1.60,-2.18,-6.94
2,10,510,-82,-562,3978,0.17,0.55,29.00,-0.82,-5.62,39.78,-4.93,2.83,-18.40,2.97,-2.17,-7.29
1,11,508,-143,-477,3879,0.16,0.57,29.20,-1.43,-4.77,38.79,-4.94,2.83,-18.51,3.11,-2.31,-7.30
7,8,487,-157,-422,4023,0.18,0.56,29.25,-1.57,-4.22,40.23,-4.95,2.83,-18.63,2.25,-1.86,-7.16
9,21,453,-221,-505,3913,0.22,0.63,29.09,-2.21,-5.05,39.13,-4.96,2.85,-18.74,2.02,-3.72,-6.90
0,42,583,-91,-697,3887,0.20,0.82,29.73,-0.91,-6.97,38.87,-4.97,2.86,-18.86,3.36,-6.56,-7.88
8,6,610,111,-405,4127,0.23,0.78,30.48,1.11,-4.05,41.27,-4.96,2.85,-18.98,2.19,-1.16,-8.18
-10,4,551,-371,-505,3763,0.14,0.72,30.79,-3.71,-5.05,37.63,-4.97,2.88,-19.10,4.78,-0.97,-7.83
-5,2,508,-231,-331,3912,0.10,0.66,30.81,-2.31,-3.31,39.12,-4.96,2.91,-19.23,3.93,-0.79,-7.53
-6,-18,338,-95,-296,3888,0.05,0.49,29.79,-0.95,-2.96,38.88,-4.95,2.91,-19.34,3.98,1.92,-6.21
0,-11,318,-133,-351,3848,0.05,0.37,28.75,-1.33,-3.51,38.48,-4.94,2.90,-19.46,3.06,0.64,-5.89
-2,-14,353,30,-394,3892,0.03,0.25,28.03,0.30,-3.94,38.92,-4.94,2.89,-19.57,3.33,0.87,-6.01
-7,-15,375,19,-297,3993,-0.02,0.13,27.52,0.19,-2.97,39.93,-4.93,2.89,-19.68,4.00,0.81,-6.07
10,22,439,-273,-588,3802,0.05,0.25,27.44,-2.73,-5.88,38.02,-4.95,2.90,-19.79,1.53,-4.62,-6.48
7,16,453,-271,-670,3755,0.09,0.33,27.46,-2.71,-6.70,37.55,-4.96,2.92,-19.90,2.07,-3.57,-6.58
-1,-8,433,-69,-440,3918,0.07,0.24,27.36,-0.69,-4.40,39.18,-4.96,2.91,-20.01,3.26,-0.06,-6.42
-1,4,415,-154,-541,3872,0.06,0.24,27.15,-1.54,-5.41,38.72,-4.98,2.92,-20.11,3.25,-1.90,-6.26
-2,-4,435,-38,-452,3864,0.04,0.20,27.09,-0.38,-4.52,38.64,-4.98,2.91,-20.22,3.37,-0.77,-6.38
-10,6,447,-106,-482,3833,-0.03,0.21,27.11,-1.06,-4.82,38.33,-4.99,2.91,-20.33,4.47,-2.26,-6.46
-6,-11,434,-81,-432,3861,-0.06,0.12,27.04,-0.81,-4.32,38.61,-5.00,2.91,-20.43,3.80,0.17,-6.35
-33,-19,415,-68,-281,3930,-0.25,-0.00,26.87,-0.68,-2.81,39.30,-4.98,2.90,-20.54,7.54,1.15,-6.19
-12,-9,327,-312,-64,3810,-0.30,-0.06,26.18,-3.12,-0.64,38.10,-4.96,2.92,-20.65,4.24,-0.49,-5.47
-10,6,303,-256,-37,3873,-0.33,-0.02,25.41,-2.56,-0.37,38.73,-4.94,2.93,-20.75,3.86,-2.70,-5.18
4,19,245,-231,-279,3821,-0.28,0.10,24.36,-2.31,-2.79,38.21,-4.92,2.95,-20.85,1.82,-4.48,-4.61
14,27,240,-192,-378,3825,-0.16,0.26,23.39,-1.92,-3.78,38.25,-4.94,2.96,-20.94,0.52,-5.41,-4.41
7,9,295,16,-494,3951,-0.10,0.29,22.85,0.16,-4.94,39.51,-4.94,2.95,-21.03,1.70,-2.60,-4.69
11,15,293,-57,-598,3849,-0.03,0.35,22.35,-0.57,-5.98,38.49,-4.95,2.95,-21.12,1.25,-3.40,-4.59
5,1,357,92,-485,4076,0.01,0.32,22.30,0.92,-4.85,40.76,-4.96,2.94,-21.21,2.23,-1.31,-5.01
-3,7,385,-157,-683,3769,-0.01,0.33,22.41,-1.57,-6.83,37.69,-4.97,2.95,-21.30,3.42,-2.21,-5.22
-22,-26,450,-78,-458,3771,-0.15,0.14,22.92,-0.78,-4.58,37.71,-4.98,2.95,-21.39,6.07,2.46,-5.74
-16,-6,454,-122,-333,3935,-0.23,0.09,23.40,-1.22,-3.33,39.35,-4.97,2.94,-21.48,4.99,-0.68,-5.84
-5,-16,356,-288,-111,3898,-0.24,-0.02,23.23,-2.88,-1.11,38.98,-4.95,2.95,-21.57,3.29,0.63,-5.14
-2,-9,328,-269,-118,3880,-0.22,-0.07,22.91,-2.69,-1.18,38.80,-4.93,2.96,-21.67,2.84,-0.54,-4.89
-4,24,294,-174,-425,3727,-0.23,0.08,22.41,-1.74,-4.25,37.27,-4.95,2.97,-21.75,3.15,-5.29,-4.58
17,0,305,-198,-524,3784,-0.10,0.07,22.03,-1.98,-5.24,37.84,-4.96,2.98,-21.84,0.19,-1.65,-4.59
-4,-1,337,39,-536,3928,-0.11,0.06,21.88,0.39,-5.36,39.28,-4.97,2.97,-21.93,3.37,-1.52,-4.77
-5,-6,345,-35,-468,3987,-0.13,0.02,21.80,-0.35,-4.68,39.87,-4.97,2.96,-22.01,3.49,-0.83,-4.81
-8,10,355,-169,-475,3802,-0.17,0.08,21.78,-1.69,-4.75,38.02,-4.99,2.97,-22.10,3.89,-3.16,-4.87
8,15,374,-20,-482,3911,-0.10,0.16,21.89,-0.20,-4.82,39.11,-5.00,2.96,-22.19,1.58,-3.76,-5.01
-20,16,397,-143,-373,3885,-0.21,0.24,22.12,-1.43,-3.73,38.85,-5.00,2.95,-22.28,5.64,-3.75,-5.20
14,15,388,-181,-400,4080,-0.11,0.31,22.27,-1.81,-4.00,40.80,-5.01,2.95,-22.36,0.67,-3.47,-5.16
-1,9,386,-170,-413,3785,-0.10,0.33,22.40,-1.70,-4.13,37.85,-5.03,2.96,-22.45,2.97,-2.51,-5.17
-2,6,396,-65,-388,4012,-0.11,0.34,22.58,-0.65,-3.88,40.12,-5.03,2.95,-22.54,3.12,-2.05,-5.26
4,8,349,-136,-396,3993,-0.07,0.35,22.45,-1.36,-3.96,39.93,-5.03,2.94,-22.63,2.28,-2.32,-4.91
5,16,327,-106,-466,3727,-0.03,0.41,22.20,-1.06,-4.66,37.27,-5.04,2.94,-22.72,2.20,-3.42,-4.72
0,18,290,-92,-400,3928,-0.03,0.48,21.75,-0.92,-4.00,39.28,-5.05,2.93,-22.80,2.97,-3.59,-4.39
11,17,273,-100,-352,3890,0.04,0.54,21.24,-1.00,-3.52,38.90,-5.04,2.93,-22.89,1.42,-3.33,-4.19
-2,12,229,-149,-37,3943,0.02,0.56,20.51,-1.49,-0.37,39.43,-5.02,2.93,-22.97,3.36,-2.53,-3.77
14,38,202,-161,-369,3814,0.11,0.73,19.69,-1.61,-3.69,38.14,-5.03,2.93,-23.05,1.09,-6.16,-3.44
8,43,326,-48,-471,3888,0.15,0.92,19.71,-0.48,-4.71,38.88,-5.04,2.92,-23.13,2.08,-6.57,-4.28
0,10,336,-57,-390,4056,0.13,0.89,19.79,-0.57,-3.90,40.56,-5.04,2.92,-23.20,3.27,-1.59,-4.36
1,19,356,15,-530,3891,0.12,0.92,19.98,0.15,-5.30,38.91,-5.04,2.91,-23.28,3.11,-2.91,-4.52
9,30,375,-21,-532,3877,0.17,1.01,20.27,-0.21,-5.32,38.77,-5.05,2.91,-23.36,1.97,-4.41,-4.70
-4,13,365,-57,-553,3799,0.13,0.99,20.47,-0.57,-5.53,37.99,-5.06,2.91,-23.44,3.88,-1.86,-4.66
1,14,365,-31,-632,3840,0.12,0.97,20.65,-0.31,-6.32,38.40,-5.07,2.92,-23.53,3.12,-2.04,-4.68
-6,4,333,-55,-106,4000,0.07,0.90,20.62,-0.55,-1.06,40.00,-5.05,2.92,-23.61,4.08,-0.65,-4.46
1,25,343,-212,-67,3984,0.07,0.96,20.65,-2.12,-0.67,39.84,-5.03,2.93,-23.69,3.00,-3.75,-4.52
7,24,293,-127,-142,4005,0.11,1.01,20.37,-1.27,-1.42,40.05,-5.01,2.93,-23.77,2.14,-3.50,-4.14
1,13,261,-96,-222,3942,0.10,0.99,19.93,-0.96,-2.22,39.42,-4.99,2.93,-23.85,3.03,-1.86,-3.84
-1,18,330,26,-709,3807,0.08,1.00,19.95,0.26,-7.09,38.07,-5.00,2.93,-23.93,3.31,-2.61,-4.31
-5,-4,386,126,-727,3876,0.05,0.88,20.31,1.26,-7.27,38.76,-5.01,2.93,-24.01,3.86,0.51,-4.74
-13,-5,458,38,-669,3918,-0.04,0.76,21.07,0.38,-6.69,39.18,-5.02,2.93,-24.09,4.92,0.44,-5.35
0,-4,456,-29,-554,3895,-0.03,0.66,21.74,-0.29,-5.54,38.95,-5.03,2.93,-24.18,2.95,0.10,-5.45
11,48,459,-235,-125,3837,0.04,0.89,22.37,-2.35,-1.25,38.37,-5.01,2.95,-24.27,1.40,-7.41,-5.56
-1,51,448,-210,-190,3940,0.03,1.11,22.86,-2.10,-1.90,39.40,-4.99,2.96,-24.36,3.19,-7.45,-5.57
17,31,402,-73,-494,3864,0.13,1.19,23.03,-0.73,-4.94,38.64,-5.00,2.96,-24.45,0.65,-4.26,-5.28
0,6,387,50,-476,3940,0.11,1.10,23.09,0.50,-4.76,39.40,-5.00,2.96,-24.54,3.22,-0.60,-5.18
-5,4,357,75,-297,3945,0.07,1.02,22.96,0.75,-2.97,39.45,-4.99,2.95,-24.63,3.89,-0.45,-4.95
-4,7,403,-27,-315,3908,0.04,0.96,23.12,-0.27,-3.15,39.08,-4.98,2.94,-24.73,3.68,-1.02,-5.28
-2,2,474,-145,-379,3878,0.02,0.88,23.70,-1.45,-3.79,38.78,-4.99,2.94,-24.82,3.35,-0.41,-5.86
2,-2,464,-126,-472,3816,0.03,0.78,24.16,-1.26,-4.72,38.16,-5.00,2.94,-24.92,2.76,0.01,-5.86
-11,-32,455,-201,-360,3934,-0.04,0.50,24.52,-2.01,-3.60,39.34,-5.01,2.95,-25.01,4.62,4.06,-5.85
-8,-23,438,-198,-377,3867,-0.08,0.31,24.74,-1.98,-3.77,38.67,-5.03,2.96,-25.11,4.08,2.32,-5.77
-9,-14,402,-211,-259,3845,-0.13,0.20,24.72,-2.11,-2.59,38.45,-5.00,2.97,-25.21,4.13,0.72,-5.52
-8,0,395,-282,-244,3876,-0.16,0.18,24.66,-2.82,-2.44,38.76,-4.99,2.99,-25.31,3.90,-1.46,-5.45
7,9,409,-232,-240,3858,-0.10,0.21,24.68,-2.32,-2.40,38.58,-4.96,3.01,-25.41,1.71,-2.77,-5.55
3,4,410,-137,-334,3915,-0.08,0.22,24.72,-1.37,-3.34,39.15,-4.96,3.00,-25.51,2.37,-2.00,-5.55
-1,5,485,-70,-583,3837,-0.07,0.23,25.20,-0.70,-5.83,38.37,-4.97,3.00,-25.61,2.99,-2.14,-6.14
5,8,568,-2,-604,3949,-0.04,0.25,26.15,-0.02,-6.04,39.49,-4.98,3.00,-25.71,2.15,-2.54,-6.85
-5,1,637,-115,-577,3883,-0.06,0.23,27.42,-1.15,-5.77,38.83,-4.99,3.00,-25.82,3.64,-1.51,-7.52
-11,-4,622,-198,-587,3860,-0.12,0.18,28.47,-1.98,-5.87,38.60,-5.00,3.01,-25.93,4.44,-0.85,-7.59
-3,-2,479,-385,-95,3950,-0.13,0.15,28.55,-3.85,-0.95,39.50,-4.98,3.04,-26.05,3.20,-1.22,-6.62
1,1,448,-333,-154,3940,-0.11,0.14,28.42,-3.33,-1.54,39.40,-4.96,3.06,-26.16,2.61,-1.71,-6.39
3,23,390,-249,-196,3909,-0.08,0.27,27.96,-2.49,-1.96,39.09,-4.94,3.07,-26.27,2.35,-4.84,-5.91
17,22,380,-168,-301,3849,0.03,0.38,27.48,-1.68,-3.01,38.49,-4.92,3.07,-26.38,0.42,-4.48,-5.76
8,16,390,20,-562,3785,0.08,0.44,27.11,0.20,-5.62,37.85,-4.93,3.07,-26.49,1.88,-3.45,-5.76
-2,6,424,7,-565,3924,0.06,0.43,26.99,0.07,-5.65,39.24,-4.93,3.07,-26.60,3.37,-1.94,-5.97
-1,-11,466,-68,-583,3866,0.04,0.32,27.13,-0.68,-5.83,38.66,-4.94,3.07,-26.70,3.20,0.44,-6.27
-2,2,497,-155,-498,3915,0.03,0.30,27.45,-1.55,-4.98,39.15,-4.96,3.07,-26.81,3.33,-1.58,-6.53
8,20,464,-232,-299,3870,0.07,0.39,27.54,-2.32,-2.99,38.70,-4.93,3.09,-26.92,1.88,-4.16,-6.31
3,15,444,-208,-281,3923,0.08,0.44,27.49,-2.08,-2.81,39.23,-4.91,3.10,-27.03,2.65,-3.31,-6.16
-3,-5,371,-255,-368,3754,0.06,0.37,27.00,-2.55,-3.68,37.54,-4.92,3.13,-27.14,3.52,-0.41,-5.58
-2,-5,346,-119,-385,3819,0.04,0.30,26.42,-1.19,-3.85,38.19,-4.92,3.12,-27.25,3.33,-0.54,-5.31
-3,6,384,9,-442,3893,0.02,0.31,26.12,0.09,-4.42,38.93,-4.92,3.11,-27.35,3.44,-2.20,-5.52
-5,-38,396,-13,-251,4099,-0.01,0.05,25.92,-0.13,-2.51,40.99,-4.91,3.11,-27.45,3.68,4.02,-5.56
9,20,487,-60,-538,3815,0.04,0.16,26.30,-0.60,-5.38,38.15,-4.92,3.11,-27.56,1.66,-4.60,-6.23
9,31,518,-18,-500,3949,0.09,0.34,26.83,-0.18,-5.00,39.49,-4.92,3.10,-27.66,1.76,-5.95,-6.52
4,28,466,-205,-442,3920,0.11,0.47,26.99,-2.05,-4.42,39.20,-4.93,3.11,-27.77,2.55,-5.24,-6.19
3,22,420,-142,-445,3901,0.12,0.56,26.85,-1.42,-4.45,39.01,-4.94,3.11,-27.88,2.73,-4.16,-5.85
3,-1,341,-39,-339,3820,0.12,0.50,26.25,-0.39,-3.39,38.20,-4.94,3.11,-27.98,2.74,-0.77,-5.21
-9,5,341,-28,-460,3812,0.05,0.48,25.70,-0.28,-4.60,38.12,-4.94,3.10,-28.08,4.44,-1.72,-5.12
4,-6,416,105,-453,3872,0.07,0.39,25.67,1.05,-4.53,38.72,-4.94,3.10,-28.18,2.50,-0.20,-5.62
0,-18,460,51,-572,3943,0.07,0.25,25.91,0.51,-5.72,39.43,-4.95,3.09,-28.29,3.10,1.35,-5.95
8,1,500,55,-646,3952,0.11,0.23,26.37,0.55,-6.46,39.52,-4.96,3.09,-28.39,1.96,-1.58,-6.29
-9,-15,493,3,-572,3894,0.04,0.11,26.74,0.03,-5.72,38.94,-4.97,3.09,-28.50,4.43,0.65,-6.30
10,35,445,-237,-414,3910,0.10,0.31,26.78,-2.37,-4.14,39.10,-4.98,3.10,-28.60,1.65,-6.60,-5.97
13,41,431,-272,-394,3962,0.17,0.53,26.73,-2.72,-3.94,39.62,-4.98,3.13,-28.71,1.33,-7.12,-5.87
-10,19,286,-264,-409,3863,0.09,0.60,25.80,-2.64,-4.09,38.63,-4.99,3.15,-28.81,4.69,-3.66,-4.73
-3,-3,249,-119,-452,3838,0.06,0.52,24.74,-1.19,-4.52,38.38,-5.00,3.15,-28.91,3.58,-0.45,-4.30
-10,-7,294,184,-433,3902,-0.00,0.42,24.06,1.84,-4.33,39.02,-5.00,3.14,-29.00,4.52,-0.02,-4.49
-7,6,340,96,-615,3809,-0.05,0.42,23.73,0.96,-6.15,38.09,-5.01,3.14,-29.10,3.98,-2.01,-4.74
-33,-46,341,88,-322,3981,-0.24,0.10,23.44,0.88,-3.22,39.81,-5.00,3.13,-29.19,7.57,5.32,-4.69
-46,-50,329,5,-351,3898,-0.50,-0.22,23.10,0.05,-3.51,38.98,-5.00,3.12,-29.28,9.07,5.34,-4.55
-52,-43,274,-27,-466,3857,-0.77,-0.46,22.46,-0.27,-4.66,38.57,-5.01,3.11,-29.37,9.48,3.82,-4.07
-46,-58,265,8,-303,3949,-0.97,-0.77,21.83,0.08,-3.03,39.49,-5.00,3.09,-29.46,8.18,5.53,-3.90
-30,-32,178,-240,-300,3869,-1.06,-0.89,20.73,-2.40,-3.00,38.69,-4.99,3.11,-29.54,5.57,1.34,-3.13
-21,-22,155,-163,-322,3846,-1.08,-0.93,19.61,-1.63,-3.22,38.46,-4.98,3.10,-29.62,4.15,-0.27,-2.78
-30,-8,161,7,-448,3823,-1.15,-0.89,18.63,0.07,-4.48,38.23,-4.99,3.08,-29.70,5.38,-2.31,-2.66
-7,-22,135,24,-352,3865,-1.08,-0.93,17.59,0.24,-3.52,38.65,-4.99,3.07,-29.77,2.02,-0.25,-2.31
-36,-36,209,317,-511,3952,-1.19,-1.06,17.10,3.17,-5.11,39.52,-5.00,3.05,-29.84,6.23,1.65,-2.73
-14,-26,253,532,-496,4033,-1.16,-1.11,16.94,5.32,-4.96,40.33,-5.00,3.03,-29.90,2.94,0.04,-3.00
-29,-9,465,322,-577,3865,-1.22,-1.06,18.08,3.22,-5.77,38.65,-5.01,3.02,-29.98,5.12,-2.44,-4.62
-32,-20,497,146,-593,3850,-1.29,-1.07,19.30,1.46,-5.93,38.50,-5.02,3.01,-30.05,5.45,-0.78,-5.03
-55,-52,409,-441,-137,3927,-1.50,-1.28,19.87,-4.41,-1.37,39.27,-5.01,3.02,-30.13,8.56,3.69,-4.52
-37,-34,358,-549,-83,3940,-1.58,-1.36,20.06,-5.49,-0.83,39.40,-5.01,3.04,-30.21,5.66,0.78,-4.20
-4,-3,155,-538,-196,3881,-1.44,-1.24,19.00,-5.38,-1.96,38.81,-5.00,3.06,-30.29,0.88,-3.73,-2.65
3,-4,102,-421,-286,3802,-1.28,-1.14,17.73,-4.21,-2.86,38.02,-5.00,3.08,-30.36,0.12,-3.40,-2.08
-1,-11,29,-141,-363,3954,-1.16,-1.10,16.13,-1.41,-3.63,39.54,-5.00,3.06,-30.43,0.96,-2.23,-1.32
0,2,65,-28,-435,3946,-1.04,-0.97,14.91,-0.28,-4.35,39.46,-5.01,3.05,-30.49,1.03,-3.98,-1.36
-10,-7,120,50,-465,3910,-1.00,-0.92,14.15,0.50,-4.65,39.10,-5.02,3.03,-30.54,2.65,-2.49,-1.61
-17,-8,125,-53,-460,3881,-1.00,-0.88,13.50,-0.53,-4.60,38.81,-5.03,3.02,-30.60,3.71,-2.25,-1.53
-10,-5,82,-504,-250,3838,-0.96,-0.82,12.65,-5.04,-2.50,38.38,-5.03,3.04,-30.65,2.72,-2.61,-1.10
-5,-4,54,-497,-305,3874,-0.90,-0.76,11.72,-4.97,-3.05,38.74,-5.03,3.05,-30.69,2.08,-2.67,-0.75
6,11,12,-221,-400,3893,-0.77,-0.62,10.62,-2.21,-4.00,38.93,-5.05,3.06,-30.74,0.65,-4.68,-0.28
11,15,10,-158,-433,3886,-0.63,-0.47,9.62,-1.58,-4.33,38.86,-5.06,3.05,-30.77,0.17,-5.00,-0.11
-6,8,2,-68,-471,3924,-0.60,-0.37,8.67,-0.68,-4.71,39.24,-5.08,3.04,-30.81,2.82,-3.74,0.11
2,2,0,-92,-481,3970,-0.53,-0.32,7.80,-0.92,-4.81,39.70,-5.09,3.03,-30.84,1.75,-2.73,0.26
-2,1,-5,-89,-452,3898,-0.49,-0.28,6.99,-0.89,-4.52,38.98,-5.10,3.02,-30.87,2.44,-2.50,0.43
-2,13,11,-118,-405,3937,-0.45,-0.17,6.36,-1.18,-4.05,39.37,-5.11,3.00,-30.89,2.52,-4.12,0.43
3,14,-5,-122,-410,3857,-0.39,-0.07,5.69,-1.22,-4.10,38.57,-5.12,2.99,-30.91,1.88,-4.07,0.65
9,16,-4,-117,-411,3837,-0.29,0.03,5.10,-1.17,-4.11,38.37,-5.13,2.98,-30.93,1.15,-4.16,0.74
16,19,-14,-63,-477,3835,-0.17,0.15,4.50,-0.63,-4.77,38.35,-5.15,2.97,-30.95,0.33,-4.40,0.90
16,15,-13,-38,-472,3870,-0.05,0.22,3.97,-0.38,-4.72,38.70,-5.16,2.95,-30.97,0.55,-3.64,0.99
11,8,7,-15,-526,3891,0.02,0.25,3.62,-0.15,-5.26,38.91,-5.17,2.94,-30.98,1.46,-2.51,0.91
12,6,13,-20,-564,3894,0.09,0.26,3.34,-0.20,-5.64,38.94,-5.18,2.93,-30.99,1.45,-2.18,0.91
4,-13,16,-21,-481,4005,0.11,0.16,3.10,-0.21,-4.81,40.05,-5.19,2.92,-31.00,2.71,0.53,0.93
3,-9,15,10,-399,3998,0.11,0.08,2.88,0.10,-3.99,39.98,-5.19,2.90,-31.01,2.87,-0.21,0.98
2,3,-15,-122,-479,3879,0.11,0.09,2.50,-1.22,-4.79,38.79,-5.21,2.89,-31.02,3.04,-2.01,1.24
7,2,-24,-99,-431,3903,0.15,0.10,2.11,-0.99,-4.31,39.03,-5.22,2.88,-31.03,2.34,-1.85,1.37
5,10,-31,-97,-467,3874,0.16,0.15,1.71,-0.97,-4.67,38.74,-5.23,2.87,-31.04,2.68,-2.97,1.48
4,8,-26,-42,-437,3934,0.17,0.18,1.38,-0.42,-4.37,39.34,-5.24,2.85,-31.04,2.85,-2.59,1.50
1,7,15,-12,-519,3866,0.16,0.21,1.33,-0.12,-5.19,38.66,-5.25,2.84,-31.05,3.30,-2.38,1.23
0,3,29,6,-551,3849,0.14,0.20,1.37,0.06,-5.51,38.49,-5.26,2.83,-31.05,3.43,-1.77,1.13
3,-5,60,-73,-464,3864,0.15,0.15,1.60,-0.73,-4.64,38.64,-5.27,2.82,-31.06,2.98,-0.64,0.88
-1,-8,50,-124,-461,3862,0.13,0.09,1.75,-1.24,-4.61,38.62,-5.29,2.81,-31.06,3.56,-0.30,0.93
18,22,7,-273,-308,3859,0.22,0.21,1.62,-2.73,-3.08,38.59,-5.28,2.83,-31.07,0.84,-4.64,1.24
7,19,-12,-276,-416,3839,0.24,0.31,1.38,-2.76,-4.16,38.39,-5.29,2.84,-31.08,2.57,-4.02,1.41
6,4,-50,-3,-390,3926,0.26,0.30,0.94,-0.03,-3.90,39.26,-5.29,2.83,-31.08,2.74,-1.73,1.74
8,9,-39,46,-405,3947,0.28,0.33,0.61,0.46,-4.05,39.47,-5.29,2.81,-31.08,2.48,-2.44,1.72
1,1,-6,56,-518,3898,0.26,0.30,0.51,0.56,-5.18,38.98,-5.30,2.80,-31.08,3.51,-1.26,1.51
1,1,6,87,-481,3893,0.24,0.28,0.49,0.87,-4.81,38.93,-5.30,2.78,-31.08,3.48,-1.30,1.43
7,15,23,-118,-431,3898,0.26,0.34,0.59,-1.18,-4.31,38.98,-5.32,2.77,-31.09,2.61,-3.30,1.30
11,17,22,-80,-425,3896,0.30,0.41,0.66,-0.80,-4.25,38.96,-5.32,2.75,-31.09,2.08,-3.47,1.30
-5,-4,-9,-66,-438,3881,0.24,0.34,0.54,-0.66,-4.38,38.81,-5.33,2.74,-31.09,4.41,-0.38,1.53
-11,-13,-27,-78,-439,3870,0.15,0.23,0.32,-0.78,-4.39,38.70,-5.34,2.73,-31.09,5.16,0.78,1.68
-19,-25,-44,-191,-277,3941,0.02,0.06,0.02,-1.91,-2.77,39.41,-5.32,2.73,-31.09,6.12,2.28,1.85
-12,-17,-42,-206,-214,3948,-0.06,-0.05,-0.24,-2.06,-2.14,39.48,-5.31,2.73,-31.09,4.90,0.85,1.88
-1,-6,-24,-33,-329,3874,-0.06,-0.09,-0.36,-0.33,-3.29,38.74,-5.30,2.71,-31.09,3.22,-0.87,1.78
2,-7,-8,-32,-363,3896,-0.04,-0.12,-0.37,-0.32,-3.63,38.96,-5.30,2.69,-31.09,2.80,-0.77,1.67
-5,-13,0,-60,-454,3893,-0.07,-0.19,-0.34,-0.60,-4.54,38.93,-5.31,2.68,-31.09,3.82,0.02,1.61
-7,-9,2,-49,-474,3888,-0.10,-0.22,-0.29,-0.49,-4.74,38.88,-5.33,2.66,-31.09,4.07,-0.65,1.59
-5,-10,4,-90,-414,3914,-0.12,-0.26,-0.24,-0.90,-4.14,39.14,-5.34,2.64,-31.08,3.73,-0.56,1.57
-5,-10,0,-134,-393,3905,-0.14,-0.30,-0.21,-1.34,-3.93,39.05,-5.35,2.63,-31.08,3.70,-0.61,1.59
-7,-14,-8,-96,-428,3882,-0.17,-0.35,-0.24,-0.96,-4.28,38.82,-5.36,2.61,-31.08,3.96,-0.10,1.65
-8,-13,-8,-73,-414,3901,-0.20,-0.40,-0.27,-0.73,-4.14,39.01,-5.37,2.59,-31.08,4.06,-0.32,1.65
-3,-4,-8,-48,-431,3887,-0.20,-0.38,-0.29,-0.48,-4.31,38.87,-5.37,2.57,-31.08,3.30,-1.66,1.66
-8,-7,-12,-45,-435,3870,-0.23,-0.39,-0.33,-0.45,-4.35,38.70,-5.38,2.56,-31.08,4.02,-1.20,1.69
-11,-13,-18,-89,-412,3908,-0.27,-0.43,-0.41,-0.89,-4.12,39.08,-5.39,2.54,-31.08,4.40,-0.35,1.74
-7,-22,-36,-86,-387,3902,-0.29,-0.52,-0.59,-0.86,-3.87,39.02,-5.40,2.52,-31.07,3.76,0.86,1.89
-10,-16,-104,-297,-366,3878,-0.32,-0.56,-1.16,-2.97,-3.66,38.78,-5.40,2.53,-31.07,4.16,-0.15,2.45
-19,-25,-139,-338,-339,3899,-0.40,-0.66,-1.89,-3.38,-3.39,38.99,-5.40,2.55,-31.06,5.37,1.03,2.81
-8,-11,-282,-216,-403,3917,-0.41,-0.66,-3.43,-2.16,-4.03,39.17,-5.41,2.56,-31.05,3.69,-1.11,4.03
-2,-2,-294,-90,-455,3850,-0.38,-0.61,-4.88,-0.90,-4.55,38.50,-5.43,2.54,-31.03,2.84,-2.37,4.34
8,9,-210,196,-579,3881,-0.30,-0.49,-5.67,1.96,-5.79,38.81,-5.44,2.52,-31.00,1.48,-3.82,3.90
10,10,-178,162,-542,3926,-0.21,-0.38,-6.19,1.62,-5.42,39.26,-5.45,2.50,-30.98,1.36,-3.75,3.77
-1,-1,-104,81,-548,3916,-0.19,-0.35,-6.20,0.81,-5.48,39.16,-5.46,2.48,-30.95,3.07,-2.00,3.27
2,-4,-85,75,-524,3892,-0.16,-0.34,-6.10,0.75,-5.24,38.92,-5.47,2.46,-30.93,2.68,-1.51,3.12
-1,-4,-80,-4,-520,3889,-0.15,-0.33,-5.98,-0.04,-5.20,38.89,-5.49,2.45,-30.91,3.16,-1.48,3.07
5,-1,-106,-17,-443,3955,-0.10,-0.30,-6.03,-0.17,-4.43,39.55,-5.50,2.43,-30.88,2.34,-1.88,3.25
14,19,-109,-133,-435,3893,-0.01,-0.16,-6.09,-1.33,-4.35,38.93,-5.51,2.41,-30.86,1.16,-4.64,3.28
16,24,-105,-167,-386,3902,0.09,0.01,-6.12,-1.67,-3.86,39.02,-5.53,2.42,-30.83,1.05,-5.10,3.26
23,16,-138,-52,-415,3926,0.22,0.10,-6.35,-0.52,-4.15,39.26,-5.54,2.40,-30.81,0.23,-3.68,3.52
10,10,-159,-22,-437,3860,0.26,0.15,-6.69,-0.22,-4.37,38.60,-5.54,2.38,-30.78,2.29,-2.66,3.71
0,-11,-214,-73,-384,3897,0.23,0.07,-7.32,-0.73,-3.84,38.97,-5.55,2.36,-30.75,3.77,0.40,4.19
-7,-13,-216,-30,-401,3914,0.17,-0.02,-7.91,-0.30,-4.01,39.14,-5.55,2.33,-30.72,4.72,0.55,4.30
-7,-9,-179,-28,-511,3907,0.11,-0.07,-8.21,-0.28,-5.11,39.07,-5.56,2.32,-30.69,4.61,-0.15,4.09
-6,-10,-140,-21,-484,3895,0.06,-0.12,-8.24,-0.21,-4.84,38.95,-5.58,2.30,-30.65,4.38,-0.09,3.83
-3,-1,-130,-91,-386,3846,0.04,-0.12,-8.21,-0.91,-3.86,38.46,-5.58,2.28,-30.62,3.87,-1.44,3.76
0,3,-119,-153,-329,3891,0.03,-0.09,-8.12,-1.53,-3.29,38.91,-5.56,2.27,-30.59,3.40,-1.99,3.67
12,16,-100,-103,-347,3874,0.10,0.02,-7.91,-1.03,-3.47,38.74,-5.55,2.26,-30.56,1.70,-3.76,3.50
9,11,-107,-58,-340,3908,0.15,0.08,-7.78,-0.58,-3.40,39.08,-5.55,2.24,-30.53,2.24,-2.86,3.53
-1,7,-189,-177,-404,3885,0.13,0.12,-8.15,-1.77,-4.04,38.85,-5.56,2.25,-30.49,3.73,-2.19,4.14
11,6,-173,-125,-451,3935,0.18,0.14,-8.39,-1.25,-4.51,39.35,-5.58,2.24,-30.46,2.01,-1.98,4.07
-6,-12,-141,15,-486,3895,0.13,0.06,-8.41,0.15,-4.86,38.95,-5.59,2.22,-30.42,4.51,0.61,3.86
-9,-16,-161,-24,-479,3913,0.06,-0.05,-8.55,-0.24,-4.79,39.13,-5.60,2.20,-30.39,4.84,1.03,4.01
-11,-19,-136,-31,-543,3932,-0.01,-0.16,-8.53,-0.31,-5.43,39.32,-5.62,2.18,-30.36,5.02,1.29,3.84
-12,-21,-118,-38,-497,3892,-0.09,-0.27,-8.39,-0.38,-4.97,38.92,-5.63,2.17,-30.32,5.05,1.39,3.69
-18,-31,-135,-8,-429,3877,-0.19,-0.43,-8.38,-0.08,-4.29,38.77,-5.64,2.14,-30.29,5.77,2.62,3.80
-22,-30,-130,-88,-400,3879,-0.30,-0.57,-8.33,-0.88,-4.00,38.79,-5.65,2.12,-30.26,6.17,2.22,3.76
-21,-30,-139,-106,-367,3880,-0.40,-0.70,-8.35,-1.06,-3.67,38.80,-5.64,2.10,-30.22,5.83,1.99,3.82
-17,-25,-131,-123,-387,3878,-0.46,-0.78,-8.31,-1.23,-3.87,38.78,-5.65,2.07,-30.19,5.10,1.09,3.76
7,-1,-127,-150,-217,3913,-0.38,-0.71,-8.26,-1.50,-2.17,39.13,-5.63,2.07,-30.16,1.60,-2.43,3.72
6,6,-144,-172,-159,3952,-0.30,-0.60,-8.31,-1.72,-1.59,39.52,-5.62,2.06,-30.13,1.89,-3.29,3.84
29,41,-174,-294,-274,3888,-0.09,-0.29,-8.54,-2.94,-2.74,38.88,-5.61,2.08,-30.09,-1.23,-8.05,4.08
29,44,-189,-404,-253,3821,0.09,0.01,-8.84,-4.04,-2.53,38.21,-5.60,2.09,-30.06,-0.89,-7.95,4.23
34,25,-230,-213,-409,3846,0.29,0.16,-9.36,-2.13,-4.09,38.46,-5.61,2.10,-30.02,-1.27,-4.77,4.59
24,21,-249,-222,-383,3829,0.41,0.27,-9.94,-2.22,-3.83,38.29,-5.61,2.12,-29.98,0.48,-3.96,4.82
9,-4,-248,-81,-445,3908,0.42,0.22,-10.46,-0.81,-4.45,39.08,-5.62,2.10,-29.94,2.80,-0.24,4.89
14,-1,-237,11,-452,3931,0.47,0.19,-10.86,0.11,-4.52,39.31,-5.63,2.08,-29.89,2.12,-0.73,4.88
18,11,-204,-1,-564,3922,0.53,0.24,-11.02,-0.01,-5.64,39.22,-5.64,2.07,-29.85,1.64,-2.46,4.68
11,10,-187,-49,-525,3914,0.54,0.28,-11.06,-0.49,-5.25,39.14,-5.66,2.05,-29.80,2.75,-2.23,4.57
11,3,-172,-45,-604,3901,0.56,0.27,-11.00,-0.45,-6.04,39.01,-5.67,2.04,-29.76,2.78,-1.18,4.46
8,-1,-165,-35,-566,3881,0.55,0.23,-10.91,-0.35,-5.66,38.81,-5.69,2.03,-29.72,3.23,-0.62,4.39
14,13,-118,28,-575,3901,0.58,0.29,-10.54,0.28,-5.75,39.01,-5.70,2.01,-29.67,2.38,-2.64,4.01
18,15,-111,11,-544,3916,0.63,0.35,-10.16,0.11,-5.44,39.16,-5.71,2.00,-29.63,1.88,-2.82,3.90
16,29,-67,-38,-557,3904,0.67,0.49,-9.55,-0.38,-5.57,39.04,-5.73,1.99,-29.59,2.26,-4.68,3.50
19,24,-62,-69,-560,3889,0.71,0.59,-8.98,-0.69,-5.60,38.89,-5.74,1.98,-29.56,1.90,-3.73,3.37
-4,-19,-102,29,-536,3847,0.62,0.42,-8.70,0.29,-5.36,38.47,-5.76,1.96,-29.52,5.24,2.51,3.59
-11,-25,-106,80,-476,3888,0.49,0.22,-8.48,0.80,-4.76,38.88,-5.76,1.94,-29.49,6.06,3.07,3.58
-1,-11,-87,-46,-361,3931,0.43,0.13,-8.16,-0.46,-3.61,39.31,-5.75,1.92,-29.46,4.43,0.77,3.40
2,-11,-87,-92,-352,3926,0.40,0.05,-7.87,-0.92,-3.52,39.26,-5.74,1.91,-29.42,3.90,0.63,3.35
13,-2,-84,-24,-440,3906,0.44,0.03,-7.60,-0.24,-4.40,39.06,-5.75,1.89,-29.39,2.30,-0.76,3.28
12,-10,-90,-58,-385,3947,0.47,-0.03,-7.39,-0.58,-3.85,39.47,-5.74,1.87,-29.36,2.51,0.35,3.29
3,3,-88,-91,-339,3944,0.44,-0.01,-7.19,-0.91,-3.39,39.44,-5.73,1.86,-29.34,3.82,-1.59,3.24
7,7,-71,-107,-385,3870,0.44,0.04,-6.90,-1.07,-3.85,38.70,-5.72,1.83,-29.31,3.20,-2.10,3.08
3,4,-45,-35,-433,3858,0.42,0.06,-6.49,-0.35,-4.33,38.58,-5.73,1.82,-29.28,3.77,-1.59,2.83
6,5,-36,-4,-435,3848,0.41,0.08,-6.06,-0.04,-4.35,38.48,-5.74,1.80,-29.26,3.30,-1.69,2.70
6,-4,-31,-54,-380,3894,0.41,0.05,-5.64,-0.54,-3.80,38.94,-5.73,1.78,-29.24,3.29,-0.36,2.60
4,-8,-36,-169,-383,3893,0.39,-0.01,-5.30,-1.69,-3.83,38.93,-5.73,1.79,-29.22,3.57,0.13,2.57
3,-8,-45,-34,-431,3935,0.37,-0.05,-5.04,-0.34,-4.31,39.35,-5.73,1.77,-29.20,3.68,0.05,2.59
-15,-8,-62,-7,-413,3965,0.24,-0.10,-4.91,-0.07,-4.13,39.65,-5.74,1.75,-29.18,6.19,-0.02,2.68
-11,-23,-75,22,-433,3991,0.15,-0.23,-4.88,0.22,-4.33,39.91,-5.74,1.73,-29.16,5.41,2.04,2.77
-10,-24,-69,-45,-480,3935,0.07,-0.35,-4.81,-0.45,-4.80,39.35,-5.75,1.72,-29.14,5.12,1.97,2.71
-5,-3,-51,-150,-480,3891,0.04,-0.33,-4.64,-1.50,-4.80,38.91,-5.77,1.72,-29.12,4.29,-1.21,2.56
-2,4,-61,-135,-504,3911,0.02,-0.28,-4.55,-1.35,-5.04,39.11,-5.79,1.72,-29.10,3.82,-2.17,2.61
11,24,-115,-129,-406,3943,0.09,-0.10,-4.80,-1.29,-4.06,39.43,-5.80,1.73,-29.08,1.96,-4.89,3.02
6,27,-121,-138,-438,3901,0.11,0.07,-5.06,-1.38,-4.38,39.01,-5.82,1.74,-29.06,2.79,-5.02,3.10
11,20,-148,-92,-445,3864,0.17,0.19,-5.45,-0.92,-4.45,38.64,-5.83,1.73,-29.04,2.14,-3.73,3.35
8,7,-161,-102,-402,3890,0.20,0.21,-5.89,-1.02,-4.02,38.90,-5.84,1.71,-29.01,2.66,-1.69,3.51
12,12,-222,-44,-294,3948,0.25,0.26,-6.65,-0.44,-2.94,39.48,-5.82,1.70,-28.99,2.14,-2.35,4.04
12,14,-251,-96,-303,3903,0.30,0.32,-7.52,-0.96,-3.03,39.03,-5.80,1.69,-28.96,2.22,-2.54,4.38
9,-1,-212,30,-423,3891,0.33,0.28,-8.06,0.30,-4.23,38.91,-5.81,1.67,-28.93,2.73,-0.31,4.20
5,5,-203,48,-396,3904,0.32,0.29,-8.49,0.48,-3.96,39.04,-5.81,1.65,-28.89,3.34,-1.21,4.21
11,3,-194,-52,-481,3845,0.36,0.28,-8.83,-0.52,-4.81,38.45,-5.82,1.64,-28.86,2.50,-0.92,4.20
3,-6,-178,-50,-528,3875,0.34,0.21,-9.03,-0.50,-5.28,38.75,-5.84,1.63,-28.82,3.69,0.34,4.13
12,4,-165,-39,-449,3883,0.38,0.21,-9.13,-0.39,-4.49,38.83,-5.85,1.61,-28.78,2.40,-1.17,4.05
2,3,-157,-49,-406,3912,0.35,0.21,-9.18,-0.49,-4.06,39.12,-5.85,1.59,-28.75,3.88,-1.01,4.01
3,4,-142,-87,-370,3910,0.34,0.21,-9.13,-0.87,-3.70,39.10,-5.83,1.58,-28.71,3.68,-1.15,3.89
8,1,-145,-85,-449,3865,0.35,0.20,-9.10,-0.85,-4.49,38.65,-5.85,1.57,-28.67,2.96,-0.71,3.91
-2,-14,-132,-200,-396,3908,0.31,0.09,-8.99,-2.00,-3.96,39.08,-5.85,1.58,-28.64,4.39,1.36,3.80
5,-2,-122,-160,-318,3944,0.31,0.07,-8.84,-1.60,-3.18,39.44,-5.83,1.59,-28.60,3.32,-0.51,3.71
3,8,-116,-144,-380,3899,0.29,0.11,-8.66,-1.44,-3.80,38.99,-5.83,1.60,-28.57,3.59,-1.96,3.63
1,4,-124,-118,-390,3896,0.27,0.13,-8.55,-1.18,-3.90,38.96,-5.81,1.61,-28.53,3.85,-1.34,3.67
5,4,-91,-185,-391,3899,0.27,0.14,-8.25,-1.85,-3.91,38.99,-5.81,1.63,-28.50,3.24,-1.32,3.39
6,8,-75,-167,-394,3896,0.28,0.17,-7.88,-1.67,-3.94,38.96,-5.81,1.64,-28.47,3.11,-1.88,3.22
9,-4,-126,-101,-412,3975,0.31,0.13,-7.86,-1.01,-4.12,39.75,-5.82,1.62,-28.44,2.70,-0.11,3.56
14,-3,-133,-132,-401,3842,0.36,0.10,-7.89,-1.32,-4.01,38.42,-5.83,1.64,-28.41,2.05,-0.33,3.61
1,-5,-126,-122,-358,3890,0.33,0.06,-7.87,-1.22,-3.58,38.90,-5.81,1.64,-28.38,3.96,-0.11,3.56
-2,-5,-161,-175,-327,3905,0.29,0.02,-8.06,-1.75,-3.27,39.05,-5.79,1.65,-28.34,4.33,-0.18,3.83
0,-10,-208,-165,-255,3930,0.26,-0.04,-8.53,-1.65,-2.55,39.30,-5.78,1.65,-28.31,3.96,0.46,4.22
7,5,-231,-206,-251,3857,0.28,-0.01,-9.08,-2.06,-2.51,38.57,-5.76,1.66,-28.27,2.91,-1.77,4.47
8,0,-266,-195,-382,3867,0.30,-0.00,-9.80,-1.95,-3.82,38.67,-5.76,1.67,-28.24,2.80,-1.01,4.82
13,3,-270,-210,-389,3894,0.35,0.01,-10.46,-2.10,-3.89,38.94,-5.76,1.69,-28.19,2.13,-1.44,4.95
10,-4,-288,-95,-424,3914,0.37,-0.01,-11.18,-0.95,-4.24,39.14,-5.77,1.67,-28.15,2.65,-0.42,5.19
6,0,-269,-97,-355,3954,0.37,-0.01,-11.70,-0.97,-3.55,39.54,-5.76,1.66,-28.10,3.24,-1.02,5.15
5,-2,-260,-42,-496,3869,0.37,-0.02,-12.11,-0.42,-4.96,38.69,-5.77,1.64,-28.05,3.39,-0.72,5.15
0,-8,-262,-85,-526,3912,0.33,-0.07,-12.50,-0.85,-5.26,39.12,-5.79,1.63,-28.00,4.10,0.11,5.22
9,-9,-261,-26,-506,3861,0.35,-0.12,-12.84,-0.26,-5.06,38.61,-5.80,1.62,-27.95,2.77,0.18,5.27
-3,-10,-277,-63,-469,3899,0.30,-0.17,-13.25,-0.63,-4.69,38.99,-5.82,1.60,-27.90,4.51,0.25,5.44
5,9,-314,-142,-351,3909,0.30,-0.09,-13.84,-1.42,-3.51,39.09,-5.80,1.61,-27.85,3.29,-2.52,5.79
3,10,-306,-146,-299,3864,0.29,-0.02,-14.32,-1.46,-2.99,38.64,-5.79,1.61,-27.79,3.56,-2.53,5.81
0,4,-331,-112,-461,3885,0.26,0.00,-14.91,-1.12,-4.61,38.85,-5.81,1.60,-27.73,3.97,-1.57,6.07
8,2,-332,-112,-426,3878,0.28,0.01,-15.44,-1.12,-4.26,38.78,-5.83,1.60,-27.67,2.81,-1.24,6.16
-1,-13,-342,-29,-416,3928,0.25,-0.07,-15.99,-0.29,-4.16,39.28,-5.83,1.57,-27.60,4.12,0.91,6.32
6,-11,-359,-44,-427,3878,0.26,-0.13,-16.58,-0.44,-4.27,38.78,-5.84,1.55,-27.54,3.08,0.51,6.53
3,-23,-360,-49,-346,3871,0.25,-0.25,-17.11,-0.49,-3.46,38.71,-5.83,1.53,-27.47,3.51,2.11,6.62
-1,-22,-371,-54,-316,3989,0.22,-0.36,-17.67,-0.54,-3.16,39.89,-5.81,1.51,-27.40,4.06,1.76,6.78
-6,-23,-430,-150,-312,3887,0.16,-0.47,-18.52,-1.50,-3.12,38.87,-5.80,1.51,-27.33,4.70,1.72,7.32
-1,-16,-437,-94,-346,3885,0.14,-0.52,-19.34,-0.94,-3.46,38.85,-5.78,1.50,-27.25,3.89,0.56,7.49
12,8,-458,-114,-262,3941,0.20,-0.42,-20.20,-1.14,-2.62,39.41,-5.76,1.49,-27.17,2.00,-2.90,7.77
16,11,-463,-107,-424,3810,0.28,-0.31,-21.00,-1.07,-4.24,38.10,-5.78,1.48,-27.09,1.55,-3.15,7.93
-6,-13,-521,-66,-208,4060,0.21,-0.36,-22.08,-0.66,-2.08,40.60,-5.77,1.47,-27.00,4.78,0.43,8.50
6,10,-514,-74,-255,3959,0.23,-0.26,-23.01,-0.74,-2.55,39.59,-5.75,1.45,-26.91,2.97,-2.89,8.60
4,25,-431,-43,-350,3848,0.23,-0.08,-23.33,-0.43,-3.50,38.48,-5.74,1.43,-26.82,3.27,-4.82,8.09
11,24,-421,-103,-404,3862,0.27,0.07,-23.57,-1.03,-4.04,38.62,-5.76,1.43,-26.72,2.30,-4.38,8.05
11,28,-395,-151,-249,3805,0.31,0.24,-23.62,-1.51,-2.49,38.05,-5.74,1.43,-26.63,2.36,-4.68,7.88
17,20,-389,-186,-328,3935,0.39,0.33,-23.63,-1.86,-3.28,39.35,-5.73,1.43,-26.53,1.58,-3.27,7.84
5,-2,-365,18,-463,3846,0.38,0.29,-23.50,0.18,-4.63,38.46,-5.75,1.41,-26.44,3.40,0.01,7.65
23,-5,-346,125,-592,3801,0.48,0.23,-23.26,1.25,-5.92,38.01,-5.76,1.39,-26.35,0.86,0.37,7.47
0,-29,-306,116,-655,3931,0.43,0.03,-22.80,1.16,-6.55,39.31,-5.77,1.37,-26.26,4.28,3.66,7.12
0,-35,-299,37,-593,3888,0.39,-0.19,-22.34,0.37,-5.93,38.88,-5.79,1.35,-26.17,4.21,4.18,7.00
11,-1,-319,66,-319,3987,0.42,-0.17,-22.05,0.66,-3.19,39.87,-5.78,1.32,-26.08,2.58,-0.97,7.08
1,-8,-328,-14,-426,3979,0.38,-0.21,-21.85,-0.14,-4.26,39.79,-5.79,1.29,-25.99,4.04,0.05,7.10
-2,-15,-380,-312,-322,3963,0.33,-0.28,-21.98,-3.12,-3.22,39.63,-5.78,1.30,-25.90,4.40,0.98,7.47
12,-8,-403,-260,-209,3865,0.37,-0.30,-22.24,-2.60,-2.09,38.65,-5.77,1.30,-25.82,2.33,-0.13,7.67
-2,-7,-535,-305,-139,3868,0.32,-0.31,-23.28,-3.05,-1.39,38.68,-5.75,1.30,-25.72,4.37,-0.30,8.73
-6,-15,-578,-276,-256,3961,0.25,-0.37,-24.48,-2.76,-2.56,39.61,-5.74,1.31,-25.63,4.84,0.80,9.21
11,3,-638,-308,-310,3827,0.29,-0.32,-25.92,-3.08,-3.10,38.27,-5.74,1.31,-25.52,2.32,-1.84,9.85
14,4,-654,-282,-424,3849,0.35,-0.26,-27.32,-2.82,-4.24,38.49,-5.74,1.32,-25.42,1.98,-1.89,10.18
-4,-1,-696,-86,-317,3934,0.29,-0.24,-28.83,-0.86,-3.17,39.34,-5.73,1.31,-25.30,4.60,-1.08,10.71
5,3,-702,-76,-381,3965,0.29,-0.20,-30.23,-0.76,-3.81,39.65,-5.72,1.28,-25.18,3.22,-1.60,10.97
13,-12,-725,-99,-588,3904,0.34,-0.25,-31.63,-0.99,-5.88,39.04,-5.74,1.27,-25.05,2.11,0.59,11.35
-4,-16,-736,-66,-503,3887,0.28,-0.32,-32.96,-0.66,-5.03,38.87,-5.75,1.25,-24.92,4.60,1.08,11.64
-5,-14,-752,-26,-499,3870,0.23,-0.38,-34.25,-0.26,-4.99,38.70,-5.77,1.23,-24.79,4.65,0.69,11.95
5,-18,-757,-22,-466,3928,0.23,-0.45,-35.44,-0.22,-4.66,39.28,-5.79,1.20,-24.65,3.15,1.18,12.17
