gyroADC_X,gyroADC_Y,gyroADC_Z,accADC_X,accADC_Y,accADC_Z,GyroX,GyroY,GyroZ,AccX,AccY,AccZ,roll_IMU,pitch_IMU,yaw_IMU,roll_PID,pitch_PID,yaw_PID
0,0,0,-50,-366,3926,0.00,0.00,0.00,-0.50,-3.66,39.26,-0.02,0.00,0.00,0.00,0.00,0.00
0,0,0,-63,-367,3933,0.00,0.00,0.00,-0.63,-3.67,39.33,-0.04,0.01,0.00,0.00,0.00,0.00
0,0,0,-57,-366,3933,0.00,0.00,0.00,-0.57,-3.66,39.33,-0.05,0.01,0.00,0.00,0.00,0.00
0,0,0,-56,-365,3931,0.00,0.00,0.00,-0.56,-3.65,39.31,-0.07,0.01,0.00,0.00,0.00,0.00
0,0,0,-63,-367,3935,0.00,0.00,0.00,-0.63,-3.67,39.35,-0.09,0.01,0.00,0.00,0.00,0.00
0,0,0,-61,-366,3940,0.00,0.00,0.00,-0.61,-3.66,39.40,-0.11,0.02,0.00,0.00,0.00,0.00
0,0,0,-58,-367,3925,0.00,0.00,0.00,-0.58,-3.67,39.25,-0.13,0.02,0.00,0.00,0.00,0.00
0,0,0,-58,-367,3926,0.00,0.00,0.00,-0.58,-3.67,39.26,-0.14,0.02,0.00,0.00,0.00,0.00
0,0,0,-59,-367,3932,0.00,0.00,0.00,-0.59,-3.67,39.32,-0.16,0.03,0.00,0.00,0.00,0.00
0,0,0,-66,-368,3933,0.00,0.00,0.00,-0.66,-3.68,39.33,-0.18,0.03,0.00,0.00,0.00,0.00
0,0,0,-63,-376,3951,0.00,0.00,0.00,-0.63,-3.76,39.51,-0.20,0.03,0.00,0.00,0.00,0.00
0,0,0,-61,-364,3953,0.00,0.00,0.00,-0.61,-3.64,39.53,-0.22,0.04,0.00,0.00,0.00,0.00
0,0,0,-50,-362,3929,0.00,0.00,0.00,-0.50,-3.62,39.29,-0.24,0.04,0.00,0.00,0.00,0.00
0,0,0,-51,-359,3932,0.00,0.00,0.00,-0.51,-3.59,39.32,-0.25,0.04,0.00,0.00,0.00,0.00
0,0,0,-61,-361,3943,0.00,0.00,0.00,-0.61,-3.61,39.43,-0.27,0.04,0.00,0.00,0.00,0.00
0,0,0,-62,-358,3932,0.00,0.00,0.00,-0.62,-3.58,39.32,-0.29,0.05,0.00,0.00,0.00,0.00
0,0,0,-62,-367,3935,0.00,0.00,0.00,-0.62,-3.67,39.35,-0.31,0.05,0.00,0.00,0.00,0.00
0,0,0,-58,-367,3937,0.00,0.00,0.00,-0.58,-3.67,39.37,-0.33,0.05,0.00,0.00,0.00,0.00
0,0,0,-54,-370,3930,0.00,0.00,0.00,-0.54,-3.70,39.30,-0.34,0.06,0.00,0.00,0.00,0.00
0,0,0,-57,-369,3934,0.00,0.00,0.00,-0.57,-3.69,39.34,-0.36,0.06,0.00,0.00,0.00,0.00
0,0,0,-61,-365,3931,0.00,0.00,0.00,-0.61,-3.65,39.31,-0.38,0.06,0.00,0.00,0.00,0.00
0,0,0,-62,-362,3934,0.00,0.00,0.00,-0.62,-3.62,39.34,-0.40,0.06,0.00,0.00,0.00,0.00
0,0,0,-65,-370,3931,0.00,0.00,0.00,-0.65,-3.70,39.31,-0.42,0.07,0.00,0.00,0.00,0.00
0,0,0,-62,-374,3930,0.00,0.00,0.00,-0.62,-3.74,39.30,-0.43,0.07,0.00,0.00,0.00,0.00
0,0,0,-50,-367,3934,0.00,0.00,0.00,-0.50,-3.67,39.34,-0.45,0.07,0.00,0.00,0.00,0.00
0,0,0,-57,-367,3905,0.00,0.00,0.00,-0.57,-3.67,39.05,-0.47,0.08,0.00,0.00,0.00,0.00
0,0,0,-57,-369,3930,0.00,0.00,0.00,-0.57,-3.69,39.30,-0.49,0.08,0.00,0.00,0.00,0.00
0,0,0,-48,-369,3934,0.00,0.00,0.00,-0.48,-3.69,39.34,-0.51,0.08,0.00,0.00,0.00,0.00
0,0,0,-66,-361,3940,0.00,0.00,0.00,-0.66,-3.61,39.40,-0.52,0.08,0.00,0.00,0.00,0.00
0,0,0,-68,-359,3939,0.00,0.00,0.00,-0.68,-3.59,39.39,-0.54,0.09,0.00,0.00,0.00,0.00
0,0,0,-52,-359,3927,0.00,0.00,0.00,-0.52,-3.59,39.27,-0.56,0.09,0.00,0.00,0.00,0.00
0,0,0,-49,-359,3923,0.00,0.00,0.00,-0.49,-3.59,39.23,-0.58,0.09,0.00,0.00,0.00,0.00
0,0,0,-58,-364,3933,0.00,0.00,0.00,-0.58,-3.64,39.33,-0.60,0.10,0.00,0.00,0.00,0.00
0,0,0,-56,-362,3929,0.00,0.00,0.00,-0.56,-3.62,39.29,-0.62,0.10,0.00,0.00,0.00,0.00
0,0,0,-55,-364,3934,0.00,0.00,0.00,-0.55,-3.64,39.34,-0.63,0.10,0.00,0.00,0.00,0.00
0,0,0,-56,-363,3936,0.00,0.00,0.00,-0.56,-3.63,39.36,-0.65,0.10,0.00,0.00,0.00,0.00
0,0,0,-56,-361,3935,0.00,0.00,0.00,-0.56,-3.61,39.35,-0.67,0.11,0.00,0.00,0.00,0.00
0,0,0,-60,-363,3934,0.00,0.00,0.00,-0.60,-3.63,39.34,-0.69,0.11,0.00,0.00,0.00,0.00
0,0,0,-51,-362,3934,0.00,0.00,0.00,-0.51,-3.62,39.34,-0.71,0.11,0.00,0.00,0.00,0.00
0,0,0,-48,-364,3937,0.00,0.00,0.00,-0.48,-3.64,39.37,-0.72,0.11,0.00,0.00,0.00,0.00
0,0,0,-57,-364,3937,0.00,0.00,0.00,-0.57,-3.64,39.37,-0.74,0.12,0.00,0.00,0.00,0.00
0,0,0,-58,-365,3939,0.00,0.00,0.00,-0.58,-3.65,39.39,-0.76,0.12,0.00,0.00,0.00,0.00
0,0,0,-60,-368,3940,0.00,0.00,0.00,-0.60,-3.68,39.40,-0.78,0.12,0.00,0.00,0.00,0.00
0,0,0,-55,-370,3936,0.00,0.00,0.00,-0.55,-3.70,39.36,-0.80,0.13,0.00,0.00,0.00,0.00
0,0,0,-51,-365,3929,0.00,0.00,0.00,-0.51,-3.65,39.29,-0.81,0.13,0.00,0.00,0.00,0.00
0,0,0,-52,-369,3938,0.00,0.00,0.00,-0.52,-3.69,39.38,-0.83,0.13,0.00,0.00,0.00,0.00
0,0,0,-53,-371,3930,0.00,0.00,0.00,-0.53,-3.71,39.30,-0.85,0.13,0.00,0.00,0.00,0.00
0,0,0,-57,-373,3933,0.00,0.00,0.00,-0.57,-3.73,39.33,-0.87,0.14,0.00,0.00,0.00,0.00
0,0,0,-51,-364,3932,0.00,0.00,0.00,-0.51,-3.64,39.32,-0.89,0.14,0.00,0.00,0.00,0.00
0,0,0,-51,-362,3944,0.00,0.00,0.00,-0.51,-3.62,39.44,-0.91,0.14,0.00,0.00,0.00,0.00
0,0,0,-58,-365,3937,0.00,0.00,0.00,-0.58,-3.65,39.37,-0.92,0.14,0.00,0.00,0.00,0.00
0,0,0,-60,-364,3937,0.00,0.00,0.00,-0.60,-3.64,39.37,-0.94,0.15,0.00,0.00,0.00,0.00
0,0,0,-50,-372,3935,0.00,0.00,0.00,-0.50,-3.72,39.35,-0.96,0.15,0.00,0.00,0.00,0.00
0,0,0,-51,-370,3934,0.00,0.00,0.00,-0.51,-3.70,39.34,-0.98,0.15,0.00,0.00,0.00,0.00
0,0,0,-50,-372,3930,0.00,0.00,0.00,-0.50,-3.72,39.30,-1.00,0.15,0.00,0.00,0.00,0.00
0,0,0,-54,-370,3933,0.00,0.00,0.00,-0.54,-3.70,39.33,-1.01,0.16,0.00,0.00,0.00,0.00
0,0,0,-58,-362,3927,0.00,0.00,0.00,-0.58,-3.62,39.27,-1.03,0.16,0.00,0.00,0.00,0.00
0,0,0,-55,-365,3936,0.00,0.00,0.00,-0.55,-3.65,39.36,-1.05,0.16,0.00,0.00,0.00,0.00
0,0,0,-48,-369,3924,0.00,0.00,0.00,-0.48,-3.69,39.24,-1.07,0.16,0.00,0.00,0.00,0.00
0,0,0,-52,-369,3933,0.00,0.00,0.00,-0.52,-3.69,39.33,-1.09,0.17,0.00,0.00,0.00,0.00
0,0,0,-54,-372,3941,0.00,0.00,0.00,-0.54,-3.72,39.41,-1.11,0.17,0.00,0.00,0.00,0.00
0,0,0,-54,-367,3940,0.00,0.00,0.00,-0.54,-3.67,39.40,-1.12,0.17,0.00,0.00,0.00,0.00
0,0,0,-58,-375,3938,0.00,0.00,0.00,-0.58,-3.75,39.38,-1.14,0.17,0.00,0.00,0.00,0.00
0,0,0,-58,-370,3947,0.00,0.00,0.00,-0.58,-3.70,39.47,-1.16,0.18,0.00,0.00,0.00,0.00
0,0,0,-69,-363,3943,0.00,0.00,0.00,-0.69,-3.63,39.43,-1.18,0.18,0.00,0.00,0.00,0.00
0,0,0,-64,-364,3928,0.00,0.00,0.00,-0.64,-3.64,39.28,-1.20,0.18,0.00,0.00,0.00,0.00
0,0,0,-62,-373,3940,0.00,0.00,0.00,-0.62,-3.73,39.40,-1.21,0.19,0.00,0.00,0.00,0.00
0,0,0,-61,-373,3950,0.00,0.00,0.00,-0.61,-3.73,39.50,-1.23,0.19,0.00,0.00,0.00,0.00
0,0,0,-62,-367,3940,0.00,0.00,0.00,-0.62,-3.67,39.40,-1.25,0.19,0.00,0.00,0.00,0.00
0,0,0,-58,-366,3944,0.00,0.00,0.00,-0.58,-3.66,39.44,-1.27,0.20,0.00,0.00,0.00,0.00
0,0,0,-58,-371,3944,0.00,0.00,0.00,-0.58,-3.71,39.44,-1.29,0.20,0.00,0.00,0.00,0.00
0,0,0,-52,-366,3937,0.00,0.00,0.00,-0.52,-3.66,39.37,-1.30,0.20,0.00,0.00,0.00,0.00
0,0,0,-57,-371,3934,0.00,0.00,0.00,-0.57,-3.71,39.34,-1.32,0.20,0.00,0.00,0.00,0.00
0,0,0,-61,-372,3936,0.00,0.00,0.00,-0.61,-3.72,39.36,-1.34,0.21,0.00,0.00,0.00,0.00
0,0,0,-63,-365,3938,0.00,0.00,0.00,-0.63,-3.65,39.38,-1.36,0.21,0.00,0.00,0.00,0.00
0,0,0,-58,-362,3935,0.00,0.00,0.00,-0.58,-3.62,39.35,-1.38,0.21,0.00,0.00,0.00,0.00
0,0,0,-64,-366,3931,0.00,0.00,0.00,-0.64,-3.66,39.31,-1.39,0.22,0.00,0.00,0.00,0.00
0,0,0,-66,-368,3941,0.00,0.00,0.00,-0.66,-3.68,39.41,-1.41,0.22,0.00,0.00,0.00,0.00
0,0,0,-54,-368,3939,0.00,0.00,0.00,-0.54,-3.68,39.39,-1.43,0.22,0.00,0.00,0.00,0.00
0,0,0,-50,-371,3936,0.00,0.00,0.00,-0.50,-3.71,39.36,-1.45,0.23,0.00,0.00,0.00,0.00
0,0,0,-57,-371,3931,0.00,0.00,0.00,-0.57,-3.71,39.31,-1.47,0.23,0.00,0.00,0.00,0.00
0,0,0,-59,-365,3940,0.00,0.00,0.00,-0.59,-3.65,39.40,-1.49,0.23,0.00,0.00,0.00,0.00
0,0,0,-56,-367,3941,0.00,0.00,0.00,-0.56,-3.67,39.41,-1.50,0.23,0.00,0.00,0.00,0.00
0,0,0,-55,-363,3931,0.00,0.00,0.00,-0.55,-3.63,39.31,-1.52,0.24,0.00,0.00,0.00,0.00
0,0,0,-51,-364,3933,0.00,0.00,0.00,-0.51,-3.64,39.33,-1.54,0.24,0.00,0.00,0.00,0.00
0,0,0,-53,-363,3942,0.00,0.00,0.00,-0.53,-3.63,39.42,-1.56,0.24,0.00,0.00,0.00,0.00
0,0,0,-59,-361,3932,0.00,0.00,0.00,-0.59,-3.61,39.32,-1.58,0.24,0.00,0.00,0.00,0.00
0,0,0,-58,-366,3930,0.00,0.00,0.00,-0.58,-3.66,39.30,-1.59,0.25,0.00,0.00,0.00,0.00
0,0,0,-60,-364,3930,0.00,0.00,0.00,-0.60,-3.64,39.30,-1.61,0.25,0.00,0.00,0.00,0.00
0,0,0,-59,-369,3944,0.00,0.00,0.00,-0.59,-3.69,39.44,-1.63,0.25,0.00,0.00,0.00,0.00
0,0,0,-54,-365,3954,0.00,0.00,0.00,-0.54,-3.65,39.54,-1.65,0.26,0.00,0.00,0.00,0.00
0,0,0,-58,-359,3938,0.00,0.00,0.00,-0.58,-3.59,39.38,-1.67,0.26,0.00,0.00,0.00,0.00
0,0,0,-56,-369,3934,0.00,0.00,0.00,-0.56,-3.69,39.34,-1.68,0.26,0.00,0.00,0.00,0.00
0,0,0,-55,-366,3925,0.00,0.00,0.00,-0.55,-3.66,39.25,-1.70,0.26,0.00,0.00,0.00,0.00
0,0,0,-54,-372,3930,0.00,0.00,0.00,-0.54,-3.72,39.30,-1.72,0.27,0.00,0.00,0.00,0.00
0,0,0,-60,-372,3935,0.00,0.00,0.00,-0.60,-3.72,39.35,-1.74,0.27,0.00,0.00,0.00,0.00
0,0,0,-54,-365,3946,0.00,0.00,0.00,-0.54,-3.65,39.46,-1.76,0.27,0.00,0.00,0.00,0.00
0,0,0,-57,-367,3950,0.00,0.00,0.00,-0.57,-3.67,39.50,-1.78,0.28,0.00,0.00,0.00,0.00
0,0,0,-57,-361,3933,0.00,0.00,0.00,-0.57,-3.61,39.33,-1.79,0.28,0.00,0.00,0.00,0.00
0,0,0,-57,-362,3944,0.00,0.00,0.00,-0.57,-3.62,39.44,-1.81,0.28,0.00,0.00,0.00,0.00
0,0,0,-55,-373,3936,0.00,0.00,0.00,-0.55,-3.73,39.36,-1.83,0.28,0.00,0.00,0.00,0.00
0,0,0,-65,-373,3931,0.00,0.00,0.00,-0.65,-3.73,39.31,-1.85,0.29,0.00,0.00,0.00,0.00
0,0,0,-59,-361,3930,0.00,0.00,0.00,-0.59,-3.61,39.30,-1.87,0.29,0.00,0.00,0.00,0.00
0,0,0,-57,-366,3932,0.00,0.00,0.00,-0.57,-3.66,39.32,-1.88,0.29,0.00,0.00,0.00,0.00
0,0,0,-53,-367,3928,0.00,0.00,0.00,-0.53,-3.67,39.28,-1.90,0.30,0.00,0.00,0.00,0.00
0,0,0,-56,-364,3932,0.00,0.00,0.00,-0.56,-3.64,39.32,-1.92,0.30,0.01,0.00,0.00,0.00
0,0,0,-53,-365,3926,0.00,0.00,0.00,-0.53,-3.65,39.26,-1.94,0.30,0.01,0.00,0.00,0.00
0,0,0,-56,-365,3937,0.00,0.00,0.00,-0.56,-3.65,39.37,-1.96,0.30,0.01,0.00,0.00,0.00
0,0,0,-49,-359,3945,0.00,0.00,0.00,-0.49,-3.59,39.45,-1.97,0.31,0.01,0.00,0.00,0.00
0,0,0,-46,-359,3934,0.00,0.00,0.00,-0.46,-3.59,39.34,-1.99,0.31,0.01,0.00,0.00,0.00
0,0,0,-57,-368,3935,0.00,0.00,0.00,-0.57,-3.68,39.35,-2.01,0.31,0.01,0.00,0.00,0.00
0,0,0,-64,-363,3950,0.00,0.00,0.00,-0.64,-3.63,39.50,-2.03,0.31,0.01,0.00,0.00,0.00
0,0,0,-54,-362,3937,0.00,0.00,0.00,-0.54,-3.62,39.37,-2.05,0.32,0.01,0.00,0.00,0.00
0,0,0,-58,-362,3941,0.00,0.00,0.00,-0.58,-3.62,39.41,-2.06,0.32,0.01,0.00,0.00,0.00
0,0,0,-59,-365,3945,0.00,0.00,0.00,-0.59,-3.65,39.45,-2.08,0.32,0.01,0.00,0.00,0.00
0,0,0,-64,-356,3938,0.00,0.00,0.00,-0.64,-3.56,39.38,-2.10,0.33,0.01,0.00,0.00,0.00
0,0,0,-58,-360,3934,0.00,0.00,0.00,-0.58,-3.60,39.34,-2.12,0.33,0.01,0.00,0.00,0.00
0,0,0,-47,-364,3947,0.00,0.00,0.00,-0.47,-3.64,39.47,-2.14,0.33,0.01,0.00,0.00,0.00
0,0,0,-59,-365,3958,0.00,0.00,0.00,-0.59,-3.65,39.58,-2.16,0.33,0.01,0.00,0.00,0.00
0,0,0,-69,-364,3942,0.00,0.00,0.00,-0.69,-3.64,39.42,-2.17,0.34,0.01,0.00,0.00,0.00
0,0,0,-55,-367,3932,0.00,0.00,0.00,-0.55,-3.67,39.32,-2.19,0.34,0.01,0.00,0.00,0.00
0,0,0,-51,-369,3937,0.00,0.00,0.00,-0.51,-3.69,39.37,-2.21,0.34,0.01,0.00,0.00,0.00
0,0,0,-56,-365,3939,0.00,0.00,0.00,-0.56,-3.65,39.39,-2.23,0.35,0.01,0.00,0.00,0.00
0,0,0,-59,-371,3955,0.00,0.00,0.00,-0.59,-3.71,39.55,-2.25,0.35,0.01,0.00,0.00,0.00
0,0,0,-54,-358,3934,0.00,0.00,0.00,-0.54,-3.58,39.34,-2.26,0.35,0.01,0.00,0.00,0.00
0,0,0,-56,-363,3926,0.00,0.00,0.00,-0.56,-3.63,39.26,-2.28,0.35,0.01,0.00,0.00,0.00
0,0,0,-61,-361,3942,0.00,0.00,0.00,-0.61,-3.61,39.42,-2.30,0.36,0.01,0.00,0.00,0.00
0,0,0,-61,-361,3944,0.00,0.00,0.00,-0.61,-3.61,39.44,-2.32,0.36,0.01,0.00,0.00,0.00
0,0,0,-68,-357,3943,0.00,0.00,0.00,-0.68,-3.57,39.43,-2.34,0.36,0.01,0.00,0.00,0.00
0,0,0,-65,-363,3932,0.00,0.00,0.00,-0.65,-3.63,39.32,-2.35,0.37,0.01,0.00,0.00,0.00
0,0,0,-54,-368,3943,0.00,0.00,0.00,-0.54,-3.68,39.43,-2.37,0.37,0.01,0.00,0.00,0.00
0,0,0,-55,-366,3950,0.00,0.00,0.00,-0.55,-3.66,39.50,-2.39,0.37,0.01,0.00,0.00,0.00
0,0,0,-51,-363,3949,0.00,0.00,0.00,-0.51,-3.63,39.49,-2.41,0.38,0.01,0.00,0.00,0.00
0,0,0,-56,-369,3939,0.00,0.00,0.00,-0.56,-3.69,39.39,-2.43,0.38,0.01,0.00,0.00,0.00
0,0,0,-53,-365,3927,0.00,0.00,0.00,-0.53,-3.65,39.27,-2.44,0.38,0.01,0.00,0.00,0.00
0,0,0,-53,-371,3933,0.00,0.00,0.00,-0.53,-3.71,39.33,-2.46,0.38,0.01,0.00,0.00,0.00
0,0,0,-60,-368,3933,0.00,0.00,0.00,-0.60,-3.68,39.33,-2.48,0.39,0.01,0.00,0.00,0.00
0,0,0,-59,-357,3933,0.00,0.00,0.00,-0.59,-3.57,39.33,-2.50,0.39,0.01,0.00,0.00,0.00
0,0,0,-57,-359,3936,0.00,0.00,0.00,-0.57,-3.59,39.36,-2.52,0.39,0.01,0.00,0.00,0.00
0,0,0,-53,-360,3931,0.00,0.00,0.00,-0.53,-3.60,39.31,-2.54,0.39,0.01,0.00,0.00,0.00
0,0,0,-57,-360,3942,0.00,0.00,0.00,-0.57,-3.60,39.42,-2.55,0.40,0.01,0.00,0.00,0.00
0,0,0,-57,-361,3938,0.00,0.00,0.00,-0.57,-3.61,39.38,-2.57,0.40,0.01,0.00,0.00,0.00
0,0,0,-55,-373,3926,0.00,0.00,0.00,-0.55,-3.73,39.26,-2.59,0.40,0.01,0.00,0.00,0.00
0,0,0,-49,-374,3937,0.00,0.00,0.00,-0.49,-3.74,39.37,-2.61,0.41,0.01,0.00,0.00,0.00
0,0,0,-53,-368,3940,0.00,0.00,0.00,-0.53,-3.68,39.40,-2.63,0.41,0.01,0.00,0.00,0.00
0,0,0,-62,-369,3936,0.00,0.00,0.00,-0.62,-3.69,39.36,-2.64,0.41,0.01,0.00,0.00,0.00
0,0,0,-67,-367,3938,0.00,0.00,0.00,-0.67,-3.67,39.38,-2.66,0.41,0.01,0.00,0.00,0.00
0,0,0,-60,-373,3944,0.00,0.00,0.00,-0.60,-3.73,39.44,-2.68,0.42,0.01,0.00,0.00,0.00
0,0,0,-61,-365,3947,0.00,0.00,0.00,-0.61,-3.65,39.47,-2.70,0.42,0.01,0.00,0.00,0.00
0,0,0,-64,-362,3932,0.00,0.00,0.00,-0.64,-3.62,39.32,-2.72,0.42,0.01,0.00,0.00,0.00
0,0,0,-55,-363,3937,0.00,0.00,0.00,-0.55,-3.63,39.37,-2.73,0.43,0.01,0.00,0.00,0.00
0,0,0,-52,-375,3935,0.00,0.00,0.00,-0.52,-3.75,39.35,-2.75,0.43,0.01,0.00,0.00,0.00
0,0,0,-56,-368,3937,0.00,0.00,0.00,-0.56,-3.68,39.37,-2.77,0.43,0.01,0.00,0.00,0.00
0,0,0,-52,-363,3944,0.00,0.00,0.00,-0.52,-3.63,39.44,-2.79,0.43,0.01,0.00,0.00,0.00
0,0,0,-56,-366,3937,0.00,0.00,0.00,-0.56,-3.66,39.37,-2.81,0.44,0.01,0.00,0.00,0.00
0,0,0,-62,-362,3927,0.00,0.00,0.00,-0.62,-3.62,39.27,-2.82,0.44,0.01,0.00,0.00,0.00
0,0,0,-47,-366,3941,0.00,0.00,0.00,-0.47,-3.66,39.41,-2.84,0.44,0.01,0.00,0.00,0.00
0,0,0,-49,-363,3935,0.00,0.00,0.00,-0.49,-3.63,39.35,-2.86,0.44,0.01,0.00,0.00,0.00
0,0,0,-56,-369,3947,0.00,0.00,0.00,-0.56,-3.69,39.47,-2.88,0.45,0.01,0.00,0.00,0.00
0,0,0,-63,-372,3937,0.00,0.00,0.00,-0.63,-3.72,39.37,-2.90,0.45,0.01,0.00,0.00,0.00
0,0,0,-61,-362,3936,0.00,0.00,0.00,-0.61,-3.62,39.36,-2.91,0.45,0.01,0.00,0.00,0.00
0,0,0,-54,-364,3930,0.00,0.00,0.00,-0.54,-3.64,39.30,-2.93,0.46,0.01,0.00,0.00,0.00
0,0,0,-46,-363,3931,0.00,0.00,0.00,-0.46,-3.63,39.31,-2.95,0.46,0.01,0.00,0.00,0.00
0,0,0,-50,-365,3931,0.00,0.00,0.00,-0.50,-3.65,39.31,-2.97,0.46,0.01,0.00,0.00,0.00
0,0,0,-64,-367,3927,0.00,0.00,0.00,-0.64,-3.67,39.27,-2.99,0.46,0.01,0.00,0.00,0.00
0,0,0,-65,-363,3934,0.00,0.00,0.00,-0.65,-3.63,39.34,-3.01,0.47,0.01,0.00,0.00,0.00
0,0,0,-56,-365,3932,0.00,0.00,0.00,-0.56,-3.65,39.32,-3.02,0.47,0.01,0.00,0.00,0.00
0,0,0,-63,-362,3917,0.00,0.00,0.00,-0.63,-3.62,39.17,-3.04,0.47,0.01,0.00,0.00,0.00
0,0,0,-54,-366,3930,0.00,0.00,0.00,-0.54,-3.66,39.30,-3.06,0.48,0.01,0.00,0.00,0.00
0,0,0,-48,-364,3931,0.00,0.00,0.00,-0.48,-3.64,39.31,-3.08,0.48,0.01,0.00,0.00,0.00
0,0,0,-58,-365,3936,0.00,0.00,0.00,-0.58,-3.65,39.36,-3.10,0.48,0.01,0.00,0.00,0.00
0,0,0,-53,-365,3937,0.00,0.00,0.00,-0.53,-3.65,39.37,-3.11,0.48,0.01,0.00,0.00,0.00
0,0,0,-58,-368,3925,0.00,0.00,0.00,-0.58,-3.68,39.25,-3.13,0.49,0.01,0.00,0.00,0.00
0,0,0,-58,-366,3925,0.00,0.00,0.00,-0.58,-3.66,39.25,-3.15,0.49,0.01,0.00,0.00,0.00
0,0,0,-53,-369,3933,0.00,0.00,0.00,-0.53,-3.69,39.33,-3.17,0.49,0.01,0.00,0.00,0.00
0,0,0,-53,-365,3935,0.00,0.00,0.00,-0.53,-3.65,39.35,-3.19,0.49,0.01,0.00,0.00,0.00
0,0,0,-58,-376,3936,0.00,0.00,0.00,-0.58,-3.76,39.36,-3.20,0.50,0.01,0.00,0.00,0.00
0,0,0,-62,-372,3925,0.00,0.00,0.00,-0.62,-3.72,39.25,-3.22,0.50,0.01,0.00,0.00,0.00
0,0,0,-54,-366,3931,0.00,0.00,0.00,-0.54,-3.66,39.31,-3.24,0.50,0.01,0.00,0.00,0.00
0,0,0,-54,-367,3933,0.00,0.00,0.00,-0.54,-3.67,39.33,-3.26,0.50,0.01,0.00,0.00,0.00
0,0,0,-63,-368,3933,0.00,0.00,0.00,-0.63,-3.68,39.33,-3.28,0.51,0.01,0.00,0.00,0.00
0,0,0,-56,-370,3933,0.00,0.00,0.00,-0.56,-3.70,39.33,-3.29,0.51,0.01,0.00,0.00,0.00
0,0,0,-63,-370,3935,0.00,0.00,0.00,-0.63,-3.70,39.35,-3.31,0.51,0.01,0.00,0.00,0.00
0,0,0,-67,-370,3947,0.00,0.00,0.00,-0.67,-3.70,39.47,-3.33,0.52,0.02,0.00,0.00,0.00
0,0,0,-60,-362,3944,0.00,0.00,0.00,-0.60,-3.62,39.44,-3.35,0.52,0.02,0.00,0.00,0.00
0,0,0,-58,-361,3927,0.00,0.00,0.00,-0.58,-3.61,39.27,-3.37,0.52,0.02,0.00,0.00,0.00
0,0,0,-56,-368,3928,0.00,0.00,0.00,-0.56,-3.68,39.28,-3.38,0.53,0.02,0.00,0.00,0.00
0,0,0,-58,-371,3929,0.00,0.00,0.00,-0.58,-3.71,39.29,-3.40,0.53,0.02,0.00,0.00,0.00
0,0,0,-53,-369,3935,0.00,0.00,0.00,-0.53,-3.69,39.35,-3.42,0.53,0.02,0.00,0.00,0.00
0,0,0,-54,-365,3932,0.00,0.00,0.00,-0.54,-3.65,39.32,-3.44,0.53,0.02,0.00,0.00,0.00
0,0,0,-55,-358,3921,0.00,0.00,0.00,-0.55,-3.58,39.21,-3.46,0.54,0.02,0.00,0.00,0.00
0,0,0,-59,-363,3925,0.00,0.00,0.00,-0.59,-3.63,39.25,-3.48,0.54,0.02,0.00,0.00,0.00
0,0,0,-61,-367,3932,0.00,0.00,0.00,-0.61,-3.67,39.32,-3.49,0.54,0.02,0.00,0.00,0.00
0,0,0,-62,-366,3925,0.00,0.00,0.00,-0.62,-3.66,39.25,-3.51,0.55,0.02,0.00,0.00,0.00
0,0,0,-60,-363,3938,0.00,0.00,0.00,-0.60,-3.63,39.38,-3.53,0.55,0.02,0.00,0.00,0.00
0,0,0,-56,-364,3929,0.00,0.00,0.00,-0.56,-3.64,39.29,-3.55,0.55,0.02,0.00,0.00,0.00
0,0,0,-50,-364,3931,0.00,0.00,0.00,-0.50,-3.64,39.31,-3.57,0.55,0.02,0.00,0.00,0.00
0,0,0,-50,-363,3930,0.00,0.00,0.00,-0.50,-3.63,39.30,-3.58,0.56,0.02,0.00,0.00,0.00
0,0,0,-56,-363,3925,0.00,0.00,0.00,-0.56,-3.63,39.25,-3.60,0.56,0.02,0.00,0.00,0.00
0,0,0,-55,-369,3931,0.00,0.00,0.00,-0.55,-3.69,39.31,-3.62,0.56,0.02,0.00,0.00,0.00
0,0,0,-56,-367,3920,0.00,0.00,0.00,-0.56,-3.67,39.20,-3.64,0.56,0.02,0.00,0.00,0.00
0,0,0,-51,-368,3934,0.00,0.00,0.00,-0.51,-3.68,39.34,-3.66,0.57,0.02,0.00,0.00,0.00
0,0,0,-51,-366,3943,0.00,0.00,0.00,-0.51,-3.66,39.43,-3.67,0.57,0.02,0.00,0.00,0.00
0,0,0,-57,-359,3945,0.00,0.00,0.00,-0.57,-3.59,39.45,-3.69,0.57,0.02,0.00,0.00,0.00
0,0,0,-61,-367,3945,0.00,0.00,0.00,-0.61,-3.67,39.45,-3.71,0.57,0.02,0.00,0.00,0.00
0,0,0,-60,-365,3932,0.00,0.00,0.00,-0.60,-3.65,39.32,-3.73,0.58,0.02,0.00,0.00,0.00
0,0,0,-57,-366,3934,0.00,0.00,0.00,-0.57,-3.66,39.34,-3.75,0.58,0.02,0.00,0.00,0.00
0,0,0,-55,-361,3927,0.00,0.00,0.00,-0.55,-3.61,39.27,-3.76,0.58,0.02,0.00,0.00,0.00
0,0,0,-55,-362,3930,0.00,0.00,0.00,-0.55,-3.62,39.30,-3.78,0.59,0.02,0.00,0.00,0.00
0,0,0,-56,-360,3935,0.00,0.00,0.00,-0.56,-3.60,39.35,-3.80,0.59,0.02,0.00,0.00,0.00
0,0,0,-58,-366,3928,0.00,0.00,0.00,-0.58,-3.66,39.28,-3.82,0.59,0.02,0.00,0.00,0.00
0,0,0,-51,-367,3941,0.00,0.00,0.00,-0.51,-3.67,39.41,-3.84,0.59,0.02,0.00,0.00,0.00
0,0,0,-55,-363,3944,0.00,0.00,0.00,-0.55,-3.63,39.44,-3.86,0.60,0.02,0.00,0.00,0.00
0,0,0,-52,-361,3933,0.00,0.00,0.00,-0.52,-3.61,39.33,-3.87,0.60,0.02,0.00,0.00,0.00
0,0,0,-58,-366,3928,0.00,0.00,0.00,-0.58,-3.66,39.28,-3.89,0.60,0.02,0.00,0.00,0.00
0,0,0,-50,-366,3930,0.00,0.00,0.00,-0.50,-3.66,39.30,-3.91,0.60,0.02,0.00,0.00,0.00
0,0,0,-64,-366,3936,0.00,0.00,0.00,-0.64,-3.66,39.36,-3.93,0.61,0.02,0.00,0.00,0.00
0,0,0,-64,-370,3937,0.00,0.00,0.00,-0.64,-3.70,39.37,-3.95,0.61,0.02,0.00,0.00,0.00
0,0,0,-54,-372,3936,0.00,0.00,0.00,-0.54,-3.72,39.36,-3.96,0.61,0.02,0.00,0.00,0.00
0,0,0,-55,-367,3928,0.00,0.00,0.00,-0.55,-3.67,39.28,-3.98,0.62,0.02,0.00,0.00,0.00
0,0,0,-58,-363,3945,0.00,0.00,0.00,-0.58,-3.63,39.45,-4.00,0.62,0.02,0.00,0.00,0.00
0,0,0,-57,-362,3944,0.00,0.00,0.00,-0.57,-3.62,39.44,-4.02,0.62,0.02,0.00,0.00,0.00
0,0,0,-56,-361,3940,0.00,0.00,0.00,-0.56,-3.61,39.40,-4.04,0.62,0.02,0.00,0.00,0.00
0,0,0,-56,-366,3930,0.00,0.00,0.00,-0.56,-3.66,39.30,-4.05,0.63,0.02,0.00,0.00,0.00
0,0,0,-55,-371,3931,0.00,0.00,0.00,-0.55,-3.71,39.31,-4.07,0.63,0.02,0.00,0.00,0.00
0,0,0,-58,-367,3932,0.00,0.00,0.00,-0.58,-3.67,39.32,-4.09,0.63,0.02,0.00,0.00,0.00
0,0,0,-59,-370,3928,0.00,0.00,0.00,-0.59,-3.70,39.28,-4.11,0.64,0.02,0.00,0.00,0.00
0,0,0,-59,-365,3930,0.00,0.00,0.00,-0.59,-3.65,39.30,-4.13,0.64,0.02,0.00,0.00,0.00
0,0,0,-54,-365,3916,0.00,0.00,0.00,-0.54,-3.65,39.16,-4.14,0.64,0.02,0.00,0.00,0.00
0,0,0,-48,-366,3926,0.00,0.00,0.00,-0.48,-3.66,39.26,-4.16,0.64,0.02,0.00,0.00,0.00
0,0,0,-53,-365,3941,0.00,0.00,0.00,-0.53,-3.65,39.41,-4.18,0.64,0.02,0.00,0.00,0.00
0,0,0,-56,-365,3944,0.00,0.00,0.00,-0.56,-3.65,39.44,-4.20,0.65,0.02,0.00,0.00,0.00
0,0,0,-57,-368,3946,0.00,0.00,0.00,-0.57,-3.68,39.46,-4.22,0.65,0.02,0.00,0.00,0.00
0,0,0,-58,-366,3935,0.00,0.00,0.00,-0.58,-3.66,39.35,-4.24,0.65,0.02,0.00,0.00,0.00
0,0,0,-49,-356,3934,0.00,0.00,0.00,-0.49,-3.56,39.34,-4.25,0.65,0.02,0.00,0.00,0.00
0,0,0,-47,-357,3937,0.00,0.00,0.00,-0.47,-3.57,39.37,-4.27,0.65,0.02,0.00,0.00,0.00
0,0,0,-51,-367,3942,0.00,0.00,0.00,-0.51,-3.67,39.42,-4.29,0.66,0.02,0.00,0.00,0.00
0,0,0,-52,-367,3941,0.00,0.00,0.00,-0.52,-3.67,39.41,-4.31,0.66,0.03,0.00,0.00,0.00
0,0,0,-50,-364,3929,0.00,0.00,0.00,-0.50,-3.64,39.29,-4.33,0.66,0.03,0.00,0.00,0.00
0,0,0,-53,-367,3932,0.00,0.00,0.00,-0.53,-3.67,39.32,-4.34,0.66,0.03,0.00,0.00,0.00
0,0,0,-54,-367,3928,0.00,0.00,0.00,-0.54,-3.67,39.28,-4.36,0.66,0.03,0.00,0.00,0.00
0,0,0,-50,-360,3926,0.00,0.00,0.00,-0.50,-3.60,39.26,-4.38,0.66,0.03,0.00,0.00,0.00
0,0,0,-59,-366,3939,0.00,0.00,0.00,-0.59,-3.66,39.39,-4.40,0.67,0.03,0.00,0.00,0.00
0,0,0,-60,-366,3936,0.00,0.00,0.00,-0.60,-3.66,39.36,-4.42,0.67,0.03,0.00,0.00,0.00
0,0,0,-55,-366,3927,0.00,0.00,0.00,-0.55,-3.66,39.27,-4.43,0.67,0.03,0.00,0.00,0.00
0,0,0,-52,-362,3929,0.00,0.00,0.00,-0.52,-3.62,39.29,-4.45,0.68,0.03,0.00,0.00,0.00
0,0,0,-54,-369,3924,0.00,0.00,0.00,-0.54,-3.69,39.24,-4.47,0.68,0.03,0.00,0.00,0.00
0,0,0,-57,-361,3937,0.00,0.00,0.00,-0.57,-3.61,39.37,-4.49,0.68,0.03,0.00,0.00,0.00
0,0,0,-57,-372,3928,0.00,0.00,0.00,-0.57,-3.72,39.28,-4.51,0.68,0.03,0.00,0.00,0.00
0,0,0,-63,-368,3936,0.00,0.00,0.00,-0.63,-3.68,39.36,-4.52,0.69,0.03,0.00,0.00,0.00
0,0,0,-51,-367,3931,0.00,0.00,0.00,-0.51,-3.67,39.31,-4.54,0.69,0.03,0.00,0.00,0.00
0,0,0,-57,-362,3932,0.00,0.00,0.00,-0.57,-3.62,39.32,-4.56,0.69,0.03,0.00,0.00,0.00
0,0,0,-51,-364,3926,0.00,0.00,0.00,-0.51,-3.64,39.26,-4.58,0.70,0.03,0.00,0.00,0.00
0,0,0,-50,-363,3935,0.00,0.00,0.00,-0.50,-3.63,39.35,-4.60,0.70,0.03,0.00,0.00,0.00
0,0,0,-54,-362,3937,0.00,0.00,0.00,-0.54,-3.62,39.37,-4.62,0.70,0.03,0.00,0.00,0.00
10,-28,-22,-59,-366,3935,0.06,-0.17,-0.13,-0.59,-3.66,39.35,-4.63,0.70,0.03,-0.16,0.46,0.70
0,0,0,-57,-363,3932,0.05,-0.15,-0.12,-0.57,-3.63,39.32,-4.65,0.70,0.03,0.00,-0.01,-0.04
0,0,0,-59,-362,3935,0.05,-0.14,-0.11,-0.59,-3.62,39.35,-4.67,0.71,0.03,0.00,-0.01,-0.04
0,0,-1,-54,-370,3932,0.04,-0.12,-0.10,-0.54,-3.70,39.32,-4.69,0.71,0.03,0.00,-0.01,-0.00
0,1,-1,-52,-369,3930,0.04,-0.11,-0.10,-0.52,-3.69,39.30,-4.70,0.71,0.03,0.00,-0.03,-0.00
0,0,0,-56,-371,3929,0.04,-0.10,-0.09,-0.56,-3.71,39.29,-4.72,0.71,0.03,0.00,-0.01,-0.03
0,0,0,-52,-361,3935,0.03,-0.09,-0.08,-0.52,-3.61,39.35,-4.74,0.71,0.03,0.00,-0.01,-0.03
1,0,0,-48,-362,3936,0.04,-0.08,-0.07,-0.48,-3.62,39.36,-4.76,0.71,0.03,-0.01,-0.01,-0.03
0,-1,0,-51,-360,3934,0.03,-0.08,-0.07,-0.51,-3.60,39.34,-4.78,0.71,0.03,0.00,0.01,-0.02
0,0,-1,-48,-372,3932,0.03,-0.07,-0.06,-0.48,-3.72,39.32,-4.79,0.71,0.03,0.00,-0.01,0.01
0,0,-1,-46,-363,3939,0.03,-0.06,-0.06,-0.46,-3.63,39.39,-4.81,0.71,0.03,0.00,-0.00,0.01
0,-1,0,-60,-364,3932,0.02,-0.06,-0.06,-0.60,-3.64,39.32,-4.83,0.72,0.04,0.00,0.01,-0.02
-1,-1,0,-58,-371,3928,0.01,-0.06,-0.05,-0.58,-3.71,39.28,-4.85,0.72,0.04,0.02,0.01,-0.02
0,0,-1,-54,-354,3938,0.01,-0.06,-0.05,-0.54,-3.54,39.38,-4.87,0.72,0.04,0.00,-0.00,0.01
0,0,0,-53,-354,3941,0.01,-0.05,-0.05,-0.53,-3.54,39.41,-4.88,0.73,0.04,0.00,-0.00,-0.02
1,0,0,-54,-366,3939,0.02,-0.04,-0.04,-0.54,-3.66,39.39,-4.90,0.73,0.04,-0.02,-0.00,-0.02
1,0,0,-56,-362,3943,0.02,-0.04,-0.04,-0.56,-3.62,39.43,-4.92,0.73,0.04,-0.02,-0.00,-0.01
1,0,0,-64,-365,3930,0.03,-0.04,-0.03,-0.64,-3.65,39.30,-4.94,0.74,0.04,-0.01,-0.00,-0.01
0,-1,0,-56,-366,3925,0.02,-0.04,-0.03,-0.56,-3.66,39.25,-4.95,0.74,0.04,0.00,0.01,-0.01
0,-1,0,-58,-369,3929,0.02,-0.04,-0.03,-0.58,-3.69,39.29,-4.97,0.75,0.04,0.00,0.01,-0.01
-1,0,0,-60,-366,3940,0.01,-0.04,-0.03,-0.60,-3.66,39.40,-4.99,0.75,0.04,0.02,-0.00,-0.01
0,-1,0,-60,-370,3934,0.01,-0.04,-0.02,-0.60,-3.70,39.34,-5.01,0.76,0.04,0.00,0.01,-0.01
0,0,0,-56,-368,3927,0.01,-0.04,-0.02,-0.56,-3.68,39.27,-5.02,0.76,0.04,0.00,-0.00,-0.01
0,0,-1,-56,-370,3939,0.01,-0.03,-0.02,-0.56,-3.70,39.39,-5.04,0.76,0.04,0.00,-0.00,0.02
0,0,-1,-62,-371,3936,0.01,-0.03,-0.03,-0.62,-3.71,39.36,-5.06,0.77,0.04,0.00,-0.00,0.02
0,0,0,-53,-366,3938,0.01,-0.03,-0.03,-0.53,-3.66,39.38,-5.08,0.77,0.04,0.00,-0.00,-0.01
1,0,1,-55,-359,3933,0.01,-0.02,-0.02,-0.55,-3.59,39.33,-5.09,0.77,0.04,-0.02,-0.00,-0.04
1,0,0,-65,-365,3924,0.02,-0.02,-0.02,-0.65,-3.65,39.24,-5.11,0.79,0.04,-0.02,-0.00,-0.01
-1,0,0,-63,-366,3925,0.01,-0.02,-0.01,-0.63,-3.66,39.25,-5.12,0.79,0.04,0.02,-0.00,-0.00
0,-1,0,-58,-370,3939,0.01,-0.02,-0.01,-0.58,-3.70,39.39,-5.14,0.80,0.04,0.00,0.02,-0.00
0,0,0,-61,-368,3934,0.01,-0.02,-0.01,-0.61,-3.68,39.34,-5.16,0.80,0.04,0.00,-0.00,-0.00
0,0,-1,-61,-361,3944,0.01,-0.02,-0.02,-0.61,-3.61,39.44,-5.17,0.82,0.04,0.00,-0.00,0.03
0,0,-1,-64,-361,3933,0.01,-0.02,-0.02,-0.64,-3.61,39.33,-5.18,0.83,0.04,0.00,-0.00,0.03
0,-1,0,-60,-368,3941,0.01,-0.02,-0.02,-0.60,-3.68,39.41,-5.20,0.84,0.04,0.00,0.02,-0.01
0,0,0,-55,-365,3951,0.01,-0.02,-0.02,-0.55,-3.65,39.51,-5.22,0.83,0.04,0.00,-0.00,-0.01
0,0,0,-53,-368,3937,0.00,-0.02,-0.01,-0.53,-3.68,39.37,-5.23,0.82,0.04,0.00,-0.00,-0.01
1,-1,-1,-57,-363,3933,0.01,-0.02,-0.02,-0.57,-3.63,39.33,-5.25,0.82,0.04,-0.02,0.02,0.03
0,0,0,-48,-367,3934,0.01,-0.02,-0.02,-0.48,-3.67,39.34,-5.26,0.81,0.04,0.00,-0.00,-0.01
0,0,1,-52,-365,3925,0.01,-0.02,-0.01,-0.52,-3.65,39.25,-5.27,0.79,0.04,0.00,-0.00,-0.04
0,-1,-1,-53,-374,3939,0.01,-0.02,-0.01,-0.53,-3.74,39.39,-5.29,0.79,0.04,0.00,0.02,0.03
0,0,-1,-53,-373,3931,0.01,-0.02,-0.02,-0.53,-3.73,39.31,-5.31,0.79,0.04,0.00,-0.00,0.03
0,0,-1,-60,-358,3933,0.01,-0.02,-0.02,-0.60,-3.58,39.33,-5.29,0.80,0.04,0.00,-0.00,0.03
0,0,0,-54,-359,3928,0.01,-0.02,-0.02,-0.54,-3.59,39.28,-5.28,0.80,0.04,0.00,-0.00,-0.01
-1,1,-1,-59,-371,3944,-0.00,-0.01,-0.03,-0.59,-3.71,39.44,-5.29,0.80,0.04,0.02,-0.02,0.02
0,1,0,-62,-375,3944,-0.00,-0.00,-0.02,-0.62,-3.75,39.44,-5.31,0.81,0.04,-0.00,-0.02,-0.01
1,0,0,-55,-366,3932,0.01,-0.00,-0.02,-0.55,-3.66,39.32,-5.32,0.80,0.04,-0.02,-0.00,-0.01
0,-1,0,-53,-374,3933,0.00,-0.01,-0.02,-0.53,-3.74,39.33,-5.33,0.79,0.05,0.00,0.02,-0.01
0,0,0,-58,-371,3932,0.00,-0.01,-0.02,-0.58,-3.71,39.32,-5.35,0.81,0.05,0.00,-0.00,-0.01
0,0,0,-54,-369,3923,0.00,-0.01,-0.01,-0.54,-3.69,39.23,-5.36,0.79,0.05,0.00,-0.00,-0.01
0,0,0,-58,-373,3934,0.00,-0.01,-0.01,-0.58,-3.73,39.34,-5.38,0.81,0.05,0.00,-0.00,-0.00
0,-1,0,-62,-369,3928,0.00,-0.01,-0.01,-0.62,-3.69,39.28,-5.37,0.82,0.05,0.00,0.02,-0.00
0,0,0,-66,-364,3926,0.00,-0.01,-0.01,-0.66,-3.64,39.26,-5.37,0.84,0.05,0.00,-0.00,-0.00
0,-1,0,-66,-361,3936,0.00,-0.01,-0.01,-0.66,-3.61,39.36,-5.35,0.85,0.05,0.00,0.02,-0.00
0,0,0,-60,-368,3926,0.00,-0.01,-0.01,-0.60,-3.68,39.26,-5.35,0.87,0.05,0.00,-0.00,-0.00
0,0,-1,-61,-369,3943,0.00,-0.01,-0.01,-0.61,-3.69,39.43,-5.34,0.89,0.05,0.00,-0.00,0.03
1,0,0,-51,-360,3943,0.01,-0.01,-0.01,-0.51,-3.60,39.43,-5.33,0.87,0.05,-0.02,-0.00,-0.00
0,-1,0,-57,-359,3935,0.01,-0.02,-0.01,-0.57,-3.59,39.35,-5.31,0.87,0.05,0.00,0.02,-0.00
0,0,-1,-54,-361,3942,0.01,-0.01,-0.02,-0.54,-3.61,39.42,-5.30,0.85,0.05,0.00,-0.00,0.03
0,0,-1,-55,-367,3934,0.01,-0.01,-0.02,-0.55,-3.67,39.34,-5.31,0.84,0.05,0.00,-0.00,0.03
0,0,0,-55,-366,3925,0.01,-0.01,-0.02,-0.55,-3.66,39.25,-5.32,0.82,0.05,0.00,-0.00,-0.01
1,0,0,-55,-368,3933,0.01,-0.01,-0.02,-0.55,-3.68,39.33,-5.33,0.81,0.05,-0.02,-0.00,-0.01
0,0,0,-56,-367,3943,0.01,-0.01,-0.02,-0.56,-3.67,39.43,-5.31,0.81,0.05,0.00,-0.00,-0.01
0,0,-1,-58,-364,3943,0.01,-0.01,-0.02,-0.58,-3.64,39.43,-5.30,0.82,0.05,0.00,-0.00,0.03
1,0,0,-59,-359,3926,0.01,-0.01,-0.02,-0.59,-3.59,39.26,-5.28,0.83,0.05,-0.02,-0.00,-0.01
0,0,0,-60,-361,3938,0.01,-0.01,-0.02,-0.60,-3.61,39.38,-5.27,0.84,0.05,0.00,-0.00,-0.01
0,-1,0,-59,-358,3939,0.01,-0.01,-0.01,-0.59,-3.58,39.39,-5.25,0.84,0.04,0.00,0.02,-0.01
1,0,0,-56,-355,3930,0.02,-0.01,-0.01,-0.56,-3.55,39.30,-5.23,0.84,0.04,-0.02,-0.00,-0.00
0,-1,0,-59,-367,3943,0.01,-0.02,-0.01,-0.59,-3.67,39.43,-5.25,0.84,0.05,0.00,0.02,-0.00
0,-1,0,-58,-368,3945,0.01,-0.02,-0.01,-0.58,-3.68,39.45,-5.27,0.84,0.05,0.00,0.02,-0.00
0,-1,0,-56,-365,3934,0.01,-0.02,-0.01,-0.56,-3.65,39.34,-5.28,0.83,0.05,0.00,0.02,-0.00
0,-1,0,-60,-366,3937,0.01,-0.03,-0.01,-0.60,-3.66,39.37,-5.29,0.84,0.05,0.00,0.01,-0.00
0,0,-1,-58,-367,3931,0.01,-0.03,-0.01,-0.58,-3.67,39.31,-5.31,0.84,0.05,0.00,-0.00,0.03
0,0,0,-56,-373,3931,0.01,-0.02,-0.01,-0.56,-3.73,39.31,-5.33,0.84,0.05,0.00,-0.00,-0.00
0,-1,0,-61,-369,3947,0.01,-0.03,-0.01,-0.61,-3.69,39.47,-5.33,0.86,0.05,0.00,0.01,-0.00
1,-1,-1,-63,-364,3940,0.01,-0.03,-0.02,-0.63,-3.64,39.40,-5.32,0.87,0.05,-0.02,0.01,0.03
0,0,-1,-58,-359,3937,0.01,-0.03,-0.02,-0.58,-3.59,39.37,-5.30,0.86,0.05,0.00,-0.00,0.03
0,-1,-1,-56,-363,3942,0.01,-0.03,-0.02,-0.56,-3.63,39.42,-5.29,0.85,0.05,0.00,0.01,0.02
0,0,-1,-56,-360,3942,0.01,-0.03,-0.03,-0.56,-3.60,39.42,-5.28,0.84,0.05,0.00,-0.00,0.02
1,0,-1,-54,-363,3948,0.01,-0.02,-0.03,-0.54,-3.63,39.48,-5.27,0.82,0.05,-0.02,-0.00,0.02
0,0,0,-52,-365,3937,0.01,-0.02,-0.03,-0.52,-3.65,39.37,-5.28,0.81,0.05,0.00,-0.00,-0.01
0,0,0,-53,-362,3942,0.01,-0.02,-0.03,-0.53,-3.62,39.42,-5.26,0.79,0.05,0.00,-0.00,-0.01
0,0,0,-50,-365,3934,0.01,-0.02,-0.02,-0.50,-3.65,39.34,-5.27,0.78,0.05,0.00,-0.00,-0.01
-1,0,0,-48,-369,3935,0.00,-0.02,-0.02,-0.48,-3.69,39.35,-5.29,0.76,0.05,0.02,-0.00,-0.01
-1,0,0,-56,-367,3944,-0.00,-0.01,-0.02,-0.56,-3.67,39.44,-5.30,0.78,0.05,0.02,-0.00,-0.01
0,0,0,-54,-372,3935,-0.00,-0.01,-0.02,-0.54,-3.72,39.35,-5.31,0.78,0.05,-0.00,-0.00,-0.01
0,0,0,-51,-366,3937,-0.00,-0.01,-0.02,-0.51,-3.66,39.37,-5.31,0.76,0.05,-0.00,-0.00,-0.01
1,1,0,-61,-359,3939,0.00,-0.00,-0.01,-0.61,-3.59,39.39,-5.30,0.77,0.05,-0.02,-0.02,-0.00
0,0,-1,-55,-359,3931,0.00,-0.00,-0.02,-0.55,-3.59,39.31,-5.28,0.78,0.05,0.00,-0.00,0.03
-1,-1,-1,-54,-368,3934,-0.00,-0.01,-0.02,-0.54,-3.68,39.34,-5.30,0.78,0.05,0.02,0.02,0.03
0,0,-1,-59,-375,3938,-0.00,-0.01,-0.03,-0.59,-3.75,39.38,-5.32,0.79,0.05,-0.00,-0.00,0.02
0,0,-1,-59,-373,3940,-0.00,-0.01,-0.03,-0.59,-3.73,39.40,-5.33,0.80,0.05,-0.00,-0.00,0.02
0,0,0,-59,-361,3937,-0.00,-0.01,-0.03,-0.59,-3.61,39.37,-5.32,0.81,0.05,-0.00,-0.00,-0.01
0,0,-1,-55,-369,3929,-0.00,-0.01,-0.03,-0.55,-3.69,39.29,-5.33,0.81,0.05,-0.00,-0.00,0.02
0,0,0,-48,-362,3931,-0.00,-0.01,-0.03,-0.48,-3.62,39.31,-5.32,0.79,0.05,-0.00,-0.00,-0.01
1,0,0,-48,-365,3941,0.00,-0.01,-0.02,-0.48,-3.65,39.41,-5.32,0.77,0.05,-0.02,-0.00,-0.01
0,0,0,-61,-372,3932,0.00,-0.00,-0.02,-0.61,-3.72,39.32,-5.33,0.79,0.05,0.00,-0.00,-0.01
1,0,0,-62,-370,3937,0.01,-0.00,-0.02,-0.62,-3.70,39.37,-5.34,0.80,0.05,-0.02,-0.00,-0.01
1,-1,-1,-65,-368,3942,0.01,-0.01,-0.02,-0.65,-3.68,39.42,-5.34,0.82,0.05,-0.02,0.02,0.03
0,0,-1,-67,-370,3928,0.01,-0.01,-0.03,-0.67,-3.70,39.28,-5.34,0.84,0.05,0.00,-0.00,0.02
0,0,-1,-56,-367,3932,0.01,-0.01,-0.03,-0.56,-3.67,39.32,-5.34,0.82,0.05,0.00,-0.00,0.02
0,0,0,-57,-366,3931,0.01,-0.01,-0.03,-0.57,-3.66,39.31,-5.32,0.83,0.05,0.00,-0.00,-0.01
0,0,-1,-54,-364,3929,0.01,-0.01,-0.03,-0.54,-3.64,39.29,-5.31,0.81,0.05,0.00,-0.00,0.02
0,0,0,-52,-363,3923,0.01,-0.01,-0.03,-0.52,-3.63,39.23,-5.30,0.79,0.05,0.00,-0.00,-0.01
1,0,0,-56,-372,3939,0.01,-0.01,-0.03,-0.56,-3.72,39.39,-5.32,0.80,0.05,-0.02,-0.00,-0.01
2,-1,0,-60,-372,3938,0.02,-0.01,-0.02,-0.60,-3.72,39.38,-5.33,0.81,0.05,-0.03,0.02,-0.01
1,0,0,-63,-364,3937,0.03,-0.01,-0.02,-0.63,-3.64,39.37,-5.32,0.83,0.05,-0.01,-0.00,-0.01
0,0,-1,-63,-367,3927,0.03,-0.01,-0.02,-0.63,-3.67,39.27,-5.33,0.84,0.05,0.00,-0.00,0.02
-1,0,0,-59,-365,3945,0.02,-0.01,-0.02,-0.59,-3.65,39.45,-5.31,0.85,0.05,0.02,-0.00,-0.01
-1,0,1,-53,-363,3937,0.01,-0.01,-0.01,-0.53,-3.63,39.37,-5.30,0.83,0.05,0.02,-0.00,-0.04
0,0,0,-56,-362,3930,0.01,-0.01,-0.01,-0.56,-3.62,39.30,-5.28,0.82,0.05,0.00,-0.00,-0.00
0,-1,0,-56,-367,3937,0.01,-0.01,-0.01,-0.56,-3.67,39.37,-5.30,0.82,0.05,0.00,0.02,-0.00
0,1,-1,-56,-362,3929,0.01,-0.00,-0.02,-0.56,-3.62,39.29,-5.28,0.82,0.05,0.00,-0.02,0.03
-1,1,0,-58,-356,3932,-0.00,0.00,-0.01,-0.58,-3.56,39.32,-5.27,0.82,0.05,0.02,-0.02,-0.01
0,0,0,-63,-361,3918,-0.00,0.00,-0.01,-0.63,-3.61,39.18,-5.27,0.84,0.05,-0.00,0.00,-0.00
0,-1,0,-61,-367,3937,-0.00,-0.00,-0.01,-0.61,-3.67,39.37,-5.28,0.85,0.05,-0.00,0.02,-0.00
0,0,0,-60,-374,3934,-0.00,-0.00,-0.01,-0.60,-3.74,39.34,-5.30,0.85,0.05,-0.00,-0.00,-0.00
0,1,-1,-56,-378,3932,-0.00,0.00,-0.02,-0.56,-3.78,39.32,-5.32,0.85,0.05,-0.00,-0.02,0.03
0,0,-1,-54,-360,3930,-0.00,0.00,-0.02,-0.54,-3.60,39.30,-5.30,0.84,0.05,-0.00,0.00,0.03
1,0,-1,-58,-365,3925,0.01,0.00,-0.02,-0.58,-3.65,39.25,-5.32,0.85,0.05,-0.02,0.00,0.03
1,-1,-1,-54,-372,3926,0.01,-0.00,-0.03,-0.54,-3.72,39.26,-5.33,0.84,0.05,-0.02,0.02,0.02
0,-1,-1,-53,-371,3936,0.01,-0.01,-0.03,-0.53,-3.71,39.36,-5.34,0.82,0.05,0.00,0.02,0.02
0,-1,0,-52,-372,3944,0.01,-0.02,-0.03,-0.52,-3.72,39.44,-5.35,0.81,0.05,0.00,0.02,-0.01
0,-1,0,-58,-373,3935,0.01,-0.02,-0.03,-0.58,-3.73,39.35,-5.37,0.81,0.05,0.00,0.02,-0.01
0,0,-1,-59,-364,3921,0.01,-0.02,-0.03,-0.59,-3.64,39.21,-5.35,0.82,0.05,0.00,-0.00,0.02
1,0,-1,-55,-365,3925,0.01,-0.02,-0.03,-0.55,-3.65,39.25,-5.34,0.82,0.05,-0.02,-0.00,0.02
0,-1,-2,-52,-361,3944,0.01,-0.02,-0.04,-0.52,-3.61,39.44,-5.32,0.81,0.05,0.00,0.02,0.05
0,0,0,-56,-365,3934,0.01,-0.02,-0.04,-0.56,-3.65,39.34,-5.31,0.81,0.05,0.00,-0.00,-0.01
0,0,0,-62,-363,3930,0.01,-0.02,-0.03,-0.62,-3.63,39.30,-5.30,0.83,0.05,0.00,-0.00,-0.01
1,-1,0,-66,-366,3932,0.01,-0.02,-0.03,-0.66,-3.66,39.32,-5.30,0.85,0.05,-0.02,0.02,-0.01
0,0,-1,-55,-363,3925,0.01,-0.02,-0.03,-0.55,-3.63,39.25,-5.30,0.83,0.05,0.00,-0.00,0.02
0,0,-1,-57,-364,3922,0.01,-0.02,-0.04,-0.57,-3.64,39.22,-5.31,0.83,0.05,0.00,-0.00,0.02
0,0,-1,-53,-378,3926,0.01,-0.02,-0.04,-0.53,-3.78,39.26,-5.33,0.82,0.05,0.00,-0.00,0.02
0,0,0,-53,-377,3930,0.01,-0.01,-0.03,-0.53,-3.77,39.30,-5.35,0.82,0.05,0.00,-0.00,-0.01
0,0,0,-59,-371,3931,0.01,-0.01,-0.03,-0.59,-3.71,39.31,-5.36,0.83,0.05,0.00,-0.00,-0.01
0,0,0,-60,-369,3932,0.01,-0.01,-0.03,-0.60,-3.69,39.32,-5.36,0.85,0.05,0.00,-0.00,-0.01
0,-1,-1,-56,-369,3952,0.01,-0.02,-0.03,-0.56,-3.69,39.52,-5.35,0.83,0.05,0.00,0.02,0.02
0,0,0,-53,-365,3958,0.01,-0.01,-0.03,-0.53,-3.65,39.58,-5.34,0.82,0.05,0.00,-0.00,-0.01
1,0,0,-55,-363,3942,0.01,-0.01,-0.03,-0.55,-3.63,39.42,-5.32,0.81,0.05,-0.02,-0.00,-0.01
0,0,0,-56,-368,3948,0.01,-0.01,-0.02,-0.56,-3.68,39.48,-5.33,0.80,0.05,0.00,-0.00,-0.01
0,0,0,-57,-362,3930,0.01,-0.01,-0.02,-0.57,-3.62,39.30,-5.32,0.81,0.05,0.00,-0.00,-0.01
-1,0,-1,-50,-364,3944,0.00,-0.01,-0.02,-0.50,-3.64,39.44,-5.31,0.79,0.05,0.02,-0.00,0.02
0,0,-1,-41,-370,3939,0.00,-0.01,-0.03,-0.41,-3.70,39.39,-5.31,0.77,0.05,0.00,-0.00,0.02
0,0,-1,-49,-367,3939,0.00,-0.01,-0.03,-0.49,-3.67,39.39,-5.32,0.76,0.05,0.00,-0.00,0.02
1,0,0,-65,-371,3927,0.01,-0.01,-0.03,-0.65,-3.71,39.27,-5.32,0.77,0.05,-0.02,-0.00,-0.01
1,-1,0,-59,-368,3932,0.01,-0.01,-0.03,-0.59,-3.68,39.32,-5.33,0.79,0.05,-0.02,0.02,-0.01
1,-1,0,-60,-371,3935,0.02,-0.02,-0.02,-0.60,-3.71,39.35,-5.34,0.80,0.05,-0.02,0.02,-0.01
1,0,-1,-62,-366,3929,0.02,-0.02,-0.03,-0.62,-3.66,39.29,-5.34,0.82,0.05,-0.02,-0.00,0.02
0,0,0,-51,-362,3929,0.02,-0.01,-0.02,-0.51,-3.62,39.29,-5.32,0.81,0.05,0.00,-0.00,-0.01
1,0,0,-57,-360,3927,0.02,-0.01,-0.02,-0.57,-3.60,39.27,-5.31,0.81,0.05,-0.02,-0.00,-0.01
0,0,0,-62,-368,3924,0.02,-0.01,-0.02,-0.62,-3.68,39.24,-5.31,0.83,0.05,0.00,-0.00,-0.01
0,0,1,-59,-366,3929,0.02,-0.01,-0.01,-0.59,-3.66,39.29,-5.32,0.85,0.05,0.00,-0.00,-0.04
1,0,0,-61,-369,3933,0.02,-0.01,-0.01,-0.61,-3.69,39.33,-5.33,0.86,0.05,-0.02,-0.00,-0.00
1,0,0,-63,-373,3931,0.03,-0.01,-0.01,-0.63,-3.73,39.31,-5.35,0.87,0.05,-0.01,-0.00,-0.00
0,-1,-1,-61,-379,3939,0.02,-0.01,-0.01,-0.61,-3.79,39.39,-5.37,0.87,0.05,0.00,0.02,0.03
-1,-1,-1,-63,-376,3941,0.02,-0.02,-0.02,-0.63,-3.76,39.41,-5.38,0.88,0.05,0.02,0.02,0.03
0,0,-1,-62,-366,3934,0.01,-0.02,-0.02,-0.62,-3.66,39.34,-5.36,0.88,0.05,0.00,-0.00,0.03
0,0,0,-59,-371,3950,0.01,-0.01,-0.02,-0.59,-3.71,39.50,-5.37,0.87,0.05,0.00,-0.00,-0.01
0,-1,0,-57,-366,3937,0.01,-0.02,-0.02,-0.57,-3.66,39.37,-5.35,0.85,0.05,0.00,0.02,-0.01
0,0,-1,-60,-366,3939,0.01,-0.02,-0.02,-0.60,-3.66,39.39,-5.33,0.86,0.05,0.00,-0.00,0.03
0,0,0,-64,-369,3935,0.01,-0.02,-0.02,-0.64,-3.69,39.35,-5.34,0.88,0.05,0.00,-0.00,-0.01
0,-1,0,-59,-369,3931,0.01,-0.02,-0.02,-0.59,-3.69,39.31,-5.35,0.87,0.05,0.00,0.02,-0.01
0,0,0,-48,-369,3930,0.01,-0.02,-0.02,-0.48,-3.69,39.30,-5.35,0.85,0.05,0.00,-0.00,-0.01
0,0,0,-52,-370,3924,0.01,-0.02,-0.02,-0.52,-3.70,39.24,-5.36,0.83,0.05,0.00,-0.00,-0.01
0,0,-1,-51,-361,3938,0.01,-0.01,-0.02,-0.51,-3.61,39.38,-5.35,0.82,0.05,0.00,-0.00,0.03
0,0,0,-50,-357,3932,0.01,-0.01,-0.02,-0.50,-3.57,39.32,-5.33,0.81,0.05,0.00,-0.00,-0.01
0,0,0,-49,-362,3938,0.01,-0.01,-0.02,-0.49,-3.62,39.38,-5.32,0.79,0.05,0.00,-0.00,-0.01
0,0,-1,-53,-363,3928,0.00,-0.01,-0.02,-0.53,-3.63,39.28,-5.30,0.78,0.05,0.00,-0.00,0.03
0,0,0,-55,-365,3944,0.00,-0.01,-0.02,-0.55,-3.65,39.44,-5.29,0.80,0.05,0.00,-0.00,-0.01
0,0,0,-56,-362,3937,0.00,-0.01,-0.02,-0.56,-3.62,39.37,-5.27,0.80,0.05,0.00,-0.00,-0.01
0,0,-1,-61,-367,3941,0.00,-0.01,-0.02,-0.61,-3.67,39.41,-5.28,0.82,0.05,0.00,-0.00,0.03
1,0,-1,-56,-365,3939,0.01,-0.01,-0.03,-0.56,-3.65,39.39,-5.30,0.81,0.05,-0.02,-0.00,0.02
1,-1,0,-55,-363,3932,0.01,-0.01,-0.02,-0.55,-3.63,39.32,-5.28,0.80,0.05,-0.02,0.02,-0.01
1,-1,0,-55,-361,3926,0.02,-0.02,-0.02,-0.55,-3.61,39.26,-5.26,0.80,0.05,-0.02,0.02,-0.01
0,0,-1,-60,-358,3920,0.02,-0.02,-0.02,-0.60,-3.58,39.20,-5.25,0.82,0.05,0.00,-0.00,0.02
0,0,-1,-61,-365,3925,0.02,-0.01,-0.03,-0.61,-3.65,39.25,-5.26,0.83,0.05,0.00,-0.00,0.02
0,0,-1,-51,-368,3926,0.01,-0.01,-0.03,-0.51,-3.68,39.26,-5.28,0.82,0.05,0.00,-0.00,0.02
0,0,0,-58,-364,3932,0.01,-0.01,-0.03,-0.58,-3.64,39.32,-5.29,0.83,0.05,0.00,-0.00,-0.01
0,-1,0,-47,-368,3931,0.01,-0.02,-0.03,-0.47,-3.68,39.31,-5.29,0.82,0.06,0.00,0.02,-0.01
0,0,0,-56,-363,3926,0.01,-0.01,-0.02,-0.56,-3.63,39.26,-5.27,0.81,0.06,0.00,-0.00,-0.01
0,0,0,-46,-359,3925,0.01,-0.01,-0.02,-0.46,-3.59,39.25,-5.27,0.79,0.06,0.00,-0.00,-0.01
0,0,0,-54,-359,3925,0.01,-0.01,-0.02,-0.54,-3.59,39.25,-5.25,0.79,0.05,0.00,-0.00,-0.01
0,0,0,-55,-365,3925,0.01,-0.01,-0.02,-0.55,-3.65,39.25,-5.27,0.79,0.06,0.00,-0.00,-0.01
1,1,0,-52,-366,3938,0.01,-0.00,-0.01,-0.52,-3.66,39.38,-5.28,0.78,0.06,-0.02,-0.02,-0.01
1,0,1,-53,-364,3934,0.02,-0.00,-0.01,-0.53,-3.64,39.34,-5.29,0.76,0.06,-0.02,-0.00,-0.04
1,0,0,-61,-362,3932,0.02,-0.00,-0.01,-0.61,-3.62,39.32,-5.28,0.78,0.06,-0.02,-0.00,-0.00
1,0,0,-60,-367,3938,0.03,-0.00,-0.01,-0.60,-3.67,39.38,-5.29,0.80,0.06,-0.01,-0.00,-0.00
0,-1,0,-59,-369,3929,0.02,-0.01,-0.01,-0.59,-3.69,39.29,-5.31,0.81,0.06,0.00,0.02,-0.00
0,0,0,-54,-372,3934,0.02,-0.01,-0.00,-0.54,-3.72,39.34,-5.32,0.80,0.06,0.00,-0.00,-0.00
0,0,0,-55,-369,3928,0.02,-0.01,-0.00,-0.55,-3.69,39.28,-5.34,0.80,0.06,0.00,-0.00,-0.00
0,0,0,-61,-373,3937,0.02,-0.01,-0.00,-0.61,-3.73,39.37,-5.35,0.82,0.06,0.00,-0.00,-0.00
1,0,0,-57,-368,3940,0.02,-0.01,-0.00,-0.57,-3.68,39.40,-5.34,0.82,0.06,-0.02,-0.00,-0.00
0,0,0,-62,-362,3936,0.02,-0.00,-0.00,-0.62,-3.62,39.36,-5.32,0.84,0.06,0.00,-0.00,-0.00
1,0,0,-63,-366,3950,0.02,-0.00,-0.00,-0.63,-3.66,39.50,-5.32,0.85,0.06,-0.02,-0.00,-0.00
1,0,0,-61,-359,3930,0.03,-0.00,-0.00,-0.61,-3.59,39.30,-5.30,0.86,0.06,-0.01,-0.00,-0.00
0,0,-1,-59,-366,3934,0.02,-0.00,-0.01,-0.59,-3.66,39.34,-5.32,0.86,0.06,0.00,-0.00,0.03
0,0,0,-61,-364,3938,0.02,-0.00,-0.01,-0.61,-3.64,39.38,-5.30,0.87,0.06,0.00,-0.00,-0.00
0,1,0,-61,-371,3941,0.02,0.00,-0.01,-0.61,-3.71,39.41,-5.32,0.87,0.06,0.00,-0.02,-0.00
0,1,0,-57,-368,3940,0.02,0.01,-0.01,-0.57,-3.68,39.40,-5.33,0.85,0.06,0.00,-0.02,-0.00
1,0,0,-65,-364,3931,0.02,0.01,-0.01,-0.65,-3.64,39.31,-5.32,0.87,0.06,-0.02,0.00,-0.00
0,0,0,-65,-365,3937,0.02,0.01,-0.00,-0.65,-3.65,39.37,-5.31,0.89,0.06,0.00,0.00,-0.00
1,0,1,-54,-365,3928,0.02,0.01,0.00,-0.54,-3.65,39.28,-5.31,0.87,0.06,-0.02,0.00,-0.03
2,0,0,-52,-373,3935,0.03,0.01,0.00,-0.52,-3.73,39.35,-5.32,0.86,0.06,-0.03,0.00,0.00
2,0,0,-63,-372,3937,0.04,0.01,0.00,-0.63,-3.72,39.37,-5.34,0.87,0.06,-0.03,0.00,0.00
1,0,0,-57,-366,3939,0.04,0.00,0.00,-0.57,-3.66,39.39,-5.33,0.85,0.06,-0.01,0.00,0.00
1,0,-1,-57,-359,3929,0.05,0.00,-0.01,-0.57,-3.59,39.29,-5.31,0.85,0.06,-0.01,0.00,0.03
0,0,0,-64,-362,3925,0.04,0.00,-0.00,-0.64,-3.62,39.25,-5.30,0.86,0.06,0.00,0.00,-0.00
1,0,-1,-47,-361,3935,0.04,0.00,-0.01,-0.47,-3.61,39.35,-5.30,0.85,0.06,-0.01,0.00,0.03
0,0,-2,-52,-359,3917,0.04,0.00,-0.02,-0.52,-3.59,39.17,-5.29,0.83,0.06,0.00,0.00,0.06
0,1,-2,-56,-357,3929,0.04,0.01,-0.03,-0.56,-3.57,39.29,-5.27,0.83,0.06,0.00,-0.02,0.06
-1,0,-1,-58,-363,3933,0.03,0.01,-0.03,-0.58,-3.63,39.33,-5.27,0.85,0.06,0.02,0.00,0.02
0,0,0,-56,-359,3929,0.02,0.01,-0.03,-0.56,-3.59,39.29,-5.26,0.84,0.06,0.00,0.00,-0.01
0,0,0,-63,-369,3945,0.02,0.01,-0.03,-0.63,-3.69,39.45,-5.27,0.85,0.06,0.00,0.00,-0.01
1,0,0,-59,-370,3950,0.02,0.01,-0.03,-0.59,-3.70,39.50,-5.29,0.85,0.06,-0.02,0.00,-0.01
0,0,0,-54,-361,3940,0.02,0.01,-0.02,-0.54,-3.61,39.40,-5.28,0.83,0.06,0.00,0.00,-0.01
0,0,0,-64,-365,3915,0.02,0.00,-0.02,-0.64,-3.65,39.15,-5.29,0.85,0.06,0.00,0.00,-0.01
0,0,-1,-60,-363,3924,0.02,0.00,-0.02,-0.60,-3.63,39.24,-5.29,0.87,0.06,0.00,0.00,0.02
0,-1,-1,-64,-358,3930,0.02,-0.00,-0.03,-0.64,-3.58,39.30,-5.27,0.88,0.06,0.00,0.02,0.02
0,0,-1,-59,-366,3924,0.01,-0.00,-0.03,-0.59,-3.66,39.24,-5.29,0.87,0.06,0.00,-0.00,0.02
0,0,-1,-52,-370,3943,0.01,-0.00,-0.03,-0.52,-3.70,39.43,-5.30,0.86,0.06,0.00,-0.00,0.02
1,0,-1,-51,-364,3939,0.02,-0.00,-0.04,-0.51,-3.64,39.39,-5.29,0.84,0.06,-0.02,-0.00,0.02
1,0,0,-60,-370,3927,0.02,-0.00,-0.03,-0.60,-3.70,39.27,-5.31,0.85,0.06,-0.02,-0.00,-0.01
1,0,-1,-55,-366,3938,0.03,-0.00,-0.04,-0.55,-3.66,39.38,-5.31,0.83,0.06,-0.01,-0.00,0.02
1,0,0,-58,-367,3931,0.03,-0.00,-0.03,-0.58,-3.67,39.31,-5.33,0.84,0.06,-0.01,-0.00,-0.01
1,0,-1,-52,-366,3937,0.03,-0.00,-0.04,-0.52,-3.66,39.37,-5.32,0.82,0.06,-0.01,-0.00,0.02
0,0,0,-51,-366,3939,0.03,-0.00,-0.03,-0.51,-3.66,39.39,-5.32,0.80,0.06,0.00,-0.00,-0.01
0,0,0,-52,-367,3927,0.03,-0.00,-0.03,-0.52,-3.67,39.27,-5.33,0.78,0.06,0.00,-0.00,-0.01
1,0,-1,-61,-357,3931,0.03,-0.00,-0.03,-0.61,-3.57,39.31,-5.31,0.80,0.06,-0.01,-0.00,0.02
0,0,0,-53,-363,3927,0.03,-0.00,-0.03,-0.53,-3.63,39.27,-5.30,0.78,0.06,0.00,-0.00,-0.01
0,0,-1,-59,-363,3929,0.02,-0.00,-0.03,-0.59,-3.63,39.29,-5.29,0.80,0.06,0.00,-0.00,0.02
0,0,-1,-62,-360,3945,0.02,-0.00,-0.03,-0.62,-3.60,39.45,-5.28,0.82,0.06,0.00,-0.00,0.02
0,0,-1,-63,-364,3936,0.02,-0.00,-0.04,-0.63,-3.64,39.36,-5.28,0.83,0.06,0.00,-0.00,0.02
0,0,0,-59,-361,3926,0.02,-0.00,-0.03,-0.59,-3.61,39.26,-5.27,0.85,0.06,0.00,-0.00,-0.01
1,0,0,-67,-364,3930,0.02,-0.00,-0.03,-0.67,-3.64,39.30,-5.27,0.86,0.06,-0.02,-0.00,-0.01
0,0,-1,-59,-364,3933,0.02,-0.00,-0.03,-0.59,-3.64,39.33,-5.29,0.86,0.06,0.00,-0.00,0.02
1,0,0,-59,-366,3933,0.02,-0.00,-0.03,-0.59,-3.66,39.33,-5.31,0.86,0.06,-0.02,-0.00,-0.01
1,0,0,-56,-365,3932,0.03,-0.00,-0.03,-0.56,-3.65,39.32,-5.30,0.84,0.06,-0.01,-0.00,-0.01
0,0,0,-53,-367,3930,0.02,-0.00,-0.02,-0.53,-3.67,39.30,-5.31,0.82,0.06,0.00,-0.00,-0.01
1,0,0,-57,-365,3930,0.03,-0.00,-0.02,-0.57,-3.65,39.30,-5.30,0.83,0.06,-0.01,-0.00,-0.01
1,0,0,-59,-365,3930,0.03,-0.00,-0.02,-0.59,-3.65,39.30,-5.30,0.85,0.06,-0.01,-0.00,-0.01
0,0,1,-60,-363,3946,0.03,-0.00,-0.01,-0.60,-3.63,39.46,-5.29,0.86,0.06,0.00,-0.00,-0.04
0,-1,0,-56,-365,3926,0.03,-0.01,-0.01,-0.56,-3.65,39.26,-5.30,0.84,0.06,0.00,0.02,-0.00
0,0,1,-60,-359,3929,0.02,-0.01,-0.00,-0.60,-3.59,39.29,-5.28,0.85,0.06,0.00,-0.00,-0.04
0,0,0,-61,-369,3935,0.02,-0.01,-0.00,-0.61,-3.69,39.35,-5.30,0.86,0.06,0.00,-0.00,-0.00
-1,0,0,-55,-370,3924,0.01,-0.00,-0.00,-0.55,-3.70,39.24,-5.31,0.85,0.06,0.02,-0.00,-0.00
0,0,0,-54,-368,3928,0.01,-0.00,-0.00,-0.54,-3.68,39.28,-5.32,0.83,0.06,0.00,-0.00,-0.00
0,1,0,-62,-371,3935,0.01,0.00,-0.00,-0.62,-3.71,39.35,-5.33,0.84,0.06,0.00,-0.02,-0.00
1,0,0,-56,-366,3928,0.02,0.00,-0.00,-0.56,-3.66,39.28,-5.33,0.83,0.06,-0.02,0.00,-0.00
10,-18,-45,-17,-659,3804,0.07,-0.11,-0.28,-0.17,-6.59,38.04,-5.35,0.82,0.06,-0.16,0.30,1.42
12,-16,-85,92,-905,4012,0.14,-0.19,-0.77,0.92,-9.05,40.12,-5.36,0.82,0.07,-0.19,0.26,2.60
7,-19,-258,140,-973,3937,0.17,-0.29,-2.26,1.40,-9.73,39.37,-5.38,0.81,0.07,-0.11,0.30,7.92
19,-7,-288,143,-1010,4049,0.27,-0.30,-3.79,1.43,-10.10,40.49,-5.40,0.80,0.09,-0.30,0.09,8.37
27,24,-424,-114,-889,3951,0.41,-0.13,-6.00,-1.14,-8.89,39.51,-5.41,0.80,0.11,-0.43,-0.42,12.17
-10,-4,-437,-198,-805,3987,0.30,-0.14,-8.07,-1.98,-8.05,39.87,-5.43,0.80,0.15,0.19,0.06,11.86
-13,-53,-237,-298,33,3968,0.19,-0.45,-8.71,-2.98,0.33,39.68,-5.41,0.81,0.18,0.24,0.86,4.85
-12,-54,-164,-261,105,4003,0.10,-0.73,-8.84,-2.61,1.05,40.03,-5.40,0.81,0.21,0.21,0.86,2.33
-4,-28,-81,-160,-337,4009,0.07,-0.83,-8.45,-1.60,-3.37,40.09,-5.39,0.82,0.25,0.07,0.41,-0.34
-3,-19,-93,-88,-559,3869,0.04,-0.86,-8.17,-0.88,-5.59,38.69,-5.41,0.82,0.28,0.05,0.25,0.17
2,1,-84,-148,-660,3913,0.05,-0.77,-7.86,-1.48,-6.60,39.13,-5.43,0.82,0.31,-0.03,-0.08,-0.03
11,5,-54,-125,-576,3989,0.11,-0.66,-7.41,-1.25,-5.76,39.89,-5.44,0.82,0.34,-0.18,-0.14,-0.88
-9,-3,114,-60,-455,3952,0.05,-0.62,-5.97,-0.60,-4.55,39.52,-5.46,0.81,0.37,0.16,0.00,-6.05
-2,14,185,-70,-477,3901,0.03,-0.47,-4.25,-0.70,-4.77,39.01,-5.48,0.81,0.38,0.04,-0.27,-7.82
-3,11,524,-80,-501,3939,0.01,-0.35,-0.62,-0.80,-5.01,39.39,-5.50,0.81,0.38,0.05,-0.21,-17.99
-4,23,559,-230,-616,3880,-0.02,-0.18,2.85,-2.30,-6.16,38.80,-5.51,0.82,0.37,0.07,-0.40,-17.90
-2,25,849,-260,-423,3929,-0.03,-0.01,7.74,-2.60,-4.23,39.29,-5.52,0.84,0.34,0.03,-0.42,-25.94
-20,9,926,-223,-375,3894,-0.15,0.05,12.62,-2.23,-3.75,38.94,-5.52,0.87,0.29,0.33,-0.15,-26.77
-39,-1,1190,-169,-535,3844,-0.37,0.04,18.61,-1.69,-5.35,38.44,-5.53,0.89,0.22,0.63,0.02,-33.52
-31,2,1256,-135,-517,3880,-0.52,0.05,24.41,-1.35,-5.17,38.80,-5.55,0.90,0.12,0.48,-0.03,-33.64
-24,3,1327,-40,-412,3988,-0.62,0.06,30.07,-0.40,-4.12,39.88,-5.56,0.90,0.00,0.36,-0.05,-33.98
-7,2,1341,-120,-411,3994,-0.60,0.07,35.24,-1.20,-4.11,39.94,-5.57,0.93,-0.14,0.07,-0.03,-32.56
-38,28,1351,-170,-401,3933,-0.77,0.23,39.96,-1.70,-4.01,39.33,-5.57,0.97,-0.30,0.58,-0.46,-31.18
-16,27,1343,-152,-372,3983,-0.79,0.37,44.15,-1.52,-3.72,39.83,-5.57,1.00,-0.47,0.21,-0.43,-29.37
-25,11,1265,-139,-409,3914,-0.86,0.40,47.46,-1.39,-4.09,39.14,-5.58,1.04,-0.66,0.36,-0.16,-25.52
-38,14,1232,-118,-422,3931,-1.01,0.45,50.22,-1.18,-4.22,39.31,-5.59,1.08,-0.86,0.57,-0.20,-23.39
-22,29,1113,-125,-315,3898,-1.04,0.58,51.99,-1.25,-3.15,38.98,-5.57,1.11,-1.07,0.29,-0.45,-18.71
-13,26,1075,-87,-313,4016,-1.02,0.68,53.35,-0.87,-3.13,40.16,-5.55,1.14,-1.28,0.14,-0.39,-16.93
3,25,983,-99,-178,3992,-0.90,0.76,54.01,-0.99,-1.78,39.92,-5.54,1.16,-1.50,-0.12,-0.36,-13.57
-21,31,958,-144,-130,3919,-0.94,0.88,54.45,-1.44,-1.30,39.19,-5.52,1.19,-1.71,0.28,-0.46,-12.56
-20,22,927,-159,-203,3974,-0.96,0.92,54.66,-1.59,-2.03,39.74,-5.50,1.22,-1.93,0.26,-0.30,-11.43
-19,16,913,-73,-197,3912,-0.98,0.93,54.77,-0.73,-1.97,39.12,-5.48,1.25,-2.15,0.25,-0.20,-10.92
-23,1,850,-68,-165,3872,-1.03,0.84,54.47,-0.68,-1.65,38.72,-5.46,1.27,-2.37,0.31,0.05,-8.89
-17,29,826,-91,-217,3763,-1.03,0.93,54.07,-0.91,-2.17,37.63,-5.44,1.29,-2.58,0.21,-0.42,-8.23
-3,28,740,-122,-164,3846,-0.94,1.01,53.17,-1.22,-1.64,38.46,-5.42,1.32,-2.79,-0.02,-0.40,-5.64
-12,17,724,-113,-183,4130,-0.92,1.01,52.27,-1.13,-1.83,41.30,-5.40,1.35,-3.00,0.13,-0.21,-5.43
-21,11,661,-74,-337,4003,-0.96,0.98,51.08,-0.74,-3.37,40.03,-5.39,1.36,-3.20,0.28,-0.11,-3.73
-13,14,639,-94,-327,3966,-0.94,0.97,49.87,-0.94,-3.27,39.66,-5.37,1.38,-3.40,0.15,-0.16,-3.43
2,8,623,-48,-329,3911,-0.83,0.92,48.68,-0.48,-3.29,39.11,-5.36,1.39,-3.60,-0.10,-0.06,-3.32
-8,12,636,-31,-359,3879,-0.80,0.90,47.69,-0.31,-3.59,38.79,-5.35,1.40,-3.79,0.07,-0.13,-4.12
-10,16,674,41,-427,3845,-0.78,0.91,47.03,0.41,-4.27,38.45,-5.36,1.40,-3.97,0.11,-0.20,-5.65
-36,9,688,10,-414,4010,-0.92,0.87,46.53,0.10,-4.14,40.10,-5.36,1.40,-4.16,0.54,-0.08,-6.31
-13,1,750,72,-400,3867,-0.91,0.79,46.45,0.72,-4.00,38.67,-5.37,1.41,-4.34,0.15,0.04,-8.44
-9,30,773,75,-462,3857,-0.87,0.90,46.52,0.75,-4.62,38.57,-5.38,1.41,-4.53,0.08,-0.44,-9.19
-32,9,829,69,-562,3902,-0.98,0.86,46.93,0.69,-5.62,39.02,-5.39,1.42,-4.71,0.47,-0.09,-10.94
-22,7,836,37,-609,3860,-1.02,0.82,47.33,0.37,-6.09,38.60,-5.40,1.43,-4.90,0.29,-0.06,-11.03
-12,-2,828,-35,-657,3820,-0.99,0.72,47.65,-0.35,-6.57,38.20,-5.42,1.45,-5.09,0.13,0.09,-10.64
-26,-7,843,-68,-584,3909,-1.05,0.61,48.03,-0.68,-5.84,39.09,-5.44,1.47,-5.28,0.36,0.17,-11.01
-22,-14,1160,-95,-112,4055,-1.08,0.46,50.30,-0.95,-1.12,40.55,-5.42,1.49,-5.48,0.29,0.27,-20.92
-38,-8,1277,-154,-231,3922,-1.20,0.37,53.06,-1.54,-2.31,39.22,-5.40,1.52,-5.69,0.55,0.16,-23.88
-35,7,1426,-44,-363,3995,-1.30,0.37,56.45,-0.44,-3.63,39.95,-5.40,1.52,-5.92,0.49,-0.09,-27.69
-35,15,1453,-39,-343,3905,-1.38,0.43,59.67,-0.39,-3.43,39.05,-5.39,1.53,-6.16,0.49,-0.22,-27.43
-30,28,1491,64,-489,3825,-1.42,0.56,62.80,0.64,-4.89,38.25,-5.40,1.54,-6.41,0.40,-0.43,-27.57
-21,42,1483,49,-535,3917,-1.41,0.76,65.57,0.49,-5.35,39.17,-5.41,1.55,-6.67,0.25,-0.65,-26.29
-22,18,1418,110,-707,3908,-1.40,0.79,67.66,1.10,-7.07,39.08,-5.42,1.57,-6.94,0.26,-0.24,-23.32
-17,24,1396,148,-702,3920,-1.37,0.86,69.41,1.48,-7.02,39.20,-5.44,1.59,-7.21,0.18,-0.34,-21.94
-33,19,1357,30,-839,3927,-1.43,0.89,70.75,0.30,-8.39,39.27,-5.45,1.62,-7.49,0.45,-0.25,-20.13
-36,12,1373,1,-779,3966,-1.51,0.87,72.05,0.01,-7.79,39.66,-5.47,1.64,-7.78,0.49,-0.14,-20.19
-24,18,1527,-100,-688,3926,-1.50,0.89,74.16,-1.00,-6.88,39.26,-5.48,1.67,-8.07,0.29,-0.24,-24.64
-11,36,1622,-124,-608,3988,-1.42,1.02,76.63,-1.24,-6.08,39.88,-5.50,1.71,-8.38,0.08,-0.53,-26.95
-37,22,1732,-145,-552,3964,-1.50,1.06,79.54,-1.45,-5.52,39.64,-5.51,1.74,-8.69,0.51,-0.29,-29.62
-15,26,1740,-115,-415,3896,-1.44,1.11,82.20,-1.15,-4.15,38.96,-5.53,1.78,-9.02,0.14,-0.35,-28.92
-21,24,1683,-97,-352,3957,-1.43,1.14,84.24,-0.97,-3.52,39.57,-5.51,1.80,-9.36,0.24,-0.32,-26.24
-41,25,1643,-124,-401,4008,-1.54,1.18,85.84,-1.24,-4.01,40.08,-5.52,1.84,-9.70,0.58,-0.33,-24.30
-21,30,1503,-173,-204,3931,-1.51,1.25,86.43,-1.73,-2.04,39.31,-5.50,1.88,-10.04,0.24,-0.41,-19.34
-15,31,1461,-178,-228,3958,-1.45,1.31,86.70,-1.78,-2.28,39.58,-5.48,1.92,-10.39,0.14,-0.42,-17.82
-20,20,1312,-159,-201,3955,-1.43,1.30,86.03,-1.59,-2.01,39.55,-5.45,1.97,-10.73,0.23,-0.24,-13.01
-14,26,1268,-201,-215,3854,-1.37,1.33,85.16,-2.01,-2.15,38.54,-5.43,2.01,-11.07,0.13,-0.34,-11.84
-18,34,1152,-175,-110,3902,-1.34,1.41,83.67,-1.75,-1.10,39.02,-5.40,2.05,-11.40,0.20,-0.47,-8.45
-19,12,1108,-153,-44,4015,-1.32,1.34,82.06,-1.53,-0.44,40.15,-5.38,2.09,-11.73,0.22,-0.10,-7.55
-26,22,999,-161,-92,3898,-1.35,1.34,79.95,-1.61,-0.92,38.98,-5.35,2.12,-12.05,0.34,-0.27,-4.63
-18,30,958,-174,9,3925,-1.33,1.39,77.80,-1.74,0.09,39.25,-5.33,2.16,-12.36,0.20,-0.40,-4.03
9,28,793,-105,-17,3836,-1.14,1.42,74.86,-1.05,-0.17,38.36,-5.31,2.19,-12.66,-0.24,-0.36,0.49
-27,20,751,-128,-76,3936,-1.19,1.40,71.95,-1.28,-0.76,39.36,-5.28,2.22,-12.94,0.37,-0.23,0.85
-9,12,591,-101,-129,3958,-1.12,1.33,68.36,-1.01,-1.29,39.58,-5.26,2.25,-13.22,0.07,-0.10,4.96
-4,18,553,-88,-98,3938,-1.04,1.31,64.90,-0.88,-0.98,39.38,-5.23,2.27,-13.47,-0.01,-0.20,4.98
-6,10,445,-97,-179,3954,-0.97,1.24,61.12,-0.97,-1.79,39.54,-5.21,2.29,-13.72,0.03,-0.07,7.26
-6,2,434,-65,-214,3923,-0.91,1.13,57.66,-0.65,-2.14,39.23,-5.19,2.31,-13.95,0.03,0.05,6.37
-19,7,411,-45,-321,3846,-0.93,1.06,54.40,-0.45,-3.21,38.46,-5.18,2.32,-14.17,0.25,-0.04,5.96
-4,15,403,-48,-378,3923,-0.87,1.04,51.42,-0.48,-3.78,39.23,-5.18,2.32,-14.37,0.00,-0.17,5.14
-6,1,435,-89,-512,4009,-0.82,0.95,48.93,-0.89,-5.12,40.09,-5.19,2.33,-14.56,0.04,0.06,3.14
-23,-11,447,-60,-593,3896,-0.87,0.78,46.76,-0.60,-5.93,38.96,-5.20,2.35,-14.75,0.32,0.25,1.95
-17,-9,507,-79,-489,3911,-0.89,0.65,45.18,-0.79,-4.89,39.11,-5.21,2.36,-14.93,0.22,0.20,-0.67
-3,10,532,-139,-528,3906,-0.82,0.65,43.91,-1.39,-5.28,39.06,-5.23,2.37,-15.10,-0.01,-0.12,-1.98
-22,15,636,-123,-602,3975,-0.87,0.67,43.40,-1.23,-6.02,39.75,-5.24,2.39,-15.28,0.30,-0.20,-5.69
-29,3,668,-60,-559,3924,-0.96,0.62,43.13,-0.60,-5.59,39.24,-5.26,2.40,-15.45,0.42,-0.00,-6.87
6,25,726,-72,-460,3943,-0.83,0.71,43.25,-0.72,-4.60,39.43,-5.27,2.40,-15.62,-0.17,-0.37,-8.79
3,14,730,-77,-446,3963,-0.73,0.73,43.38,-0.77,-4.46,39.63,-5.27,2.41,-15.79,-0.11,-0.18,-8.88
-20,14,707,-49,-466,3995,-0.78,0.74,43.35,-0.49,-4.66,39.95,-5.28,2.41,-15.96,0.28,-0.18,-8.11
-23,15,673,-55,-531,3870,-0.84,0.76,43.12,-0.55,-5.31,38.70,-5.29,2.42,-16.13,0.32,-0.20,-7.04
-2,17,591,51,-519,3893,-0.77,0.79,42.41,0.51,-5.19,38.93,-5.30,2.43,-16.30,-0.03,-0.23,-4.52
-10,9,574,53,-537,3965,-0.75,0.76,41.67,0.53,-5.37,39.65,-5.31,2.43,-16.47,0.11,-0.09,-4.22
-15,5,601,-4,-449,3912,-0.77,0.72,41.17,-0.04,-4.49,39.12,-5.31,2.43,-16.63,0.19,-0.03,-5.32
-11,16,614,-56,-481,3846,-0.76,0.74,40.80,-0.56,-4.81,38.46,-5.32,2.44,-16.79,0.13,-0.21,-5.89
-19,-6,633,-23,-299,4036,-0.80,0.63,40.58,-0.23,-2.99,40.36,-5.31,2.44,-16.95,0.26,0.15,-6.62
-13,-3,628,-28,-325,3845,-0.80,0.55,40.35,-0.28,-3.25,38.45,-5.30,2.44,-17.11,0.16,0.09,-6.53
-3,-7,577,26,-113,4032,-0.74,0.45,39.84,0.26,-1.13,40.32,-5.28,2.44,-17.27,-0.01,0.15,-4.99
-18,10,560,-114,-219,3800,-0.77,0.47,39.27,-1.14,-2.19,38.00,-5.26,2.45,-17.43,0.24,-0.13,-4.62
-14,6,480,-161,-142,3773,-0.78,0.46,38.27,-1.61,-1.42,37.73,-5.24,2.47,-17.58,0.18,-0.07,-2.28
16,7,445,-144,-221,4033,-0.61,0.45,37.16,-1.44,-2.21,40.33,-5.22,2.48,-17.73,-0.32,-0.08,-1.50
-21,4,402,-144,-537,3918,-0.67,0.43,35.90,-1.44,-5.37,39.18,-5.23,2.49,-17.88,0.30,-0.03,-0.50
-16,-1,405,-110,-427,3950,-0.70,0.38,34.78,-1.10,-4.27,39.50,-5.24,2.49,-18.01,0.22,0.05,-1.01
-3,5,445,-81,-463,3956,-0.65,0.38,34.01,-0.81,-4.63,39.56,-5.25,2.50,-18.15,0.00,-0.06,-2.65
-18,18,469,-102,-494,3889,-0.70,0.45,33.47,-1.02,-4.94,38.89,-5.27,2.50,-18.28,0.25,-0.27,-3.66
0,19,530,-71,-555,3806,-0.63,0.52,33.36,-0.71,-5.55,38.06,-5.28,2.51,-18.41,-0.05,-0.28,-5.77
-19,22,549,-35,-596,3985,-0.68,0.60,33.37,-0.35,-5.96,39.85,-5.29,2.51,-18.54,0.27,-0.33,-6.41
4,24,610,-42,-565,3862,-0.59,0.69,33.76,-0.42,-5.65,38.62,-5.30,2.52,-18.68,-0.11,-0.35,-8.33
-5,12,621,13,-517,4085,-0.56,0.69,34.17,0.13,-5.17,40.85,-5.31,2.52,-18.81,0.04,-0.15,-8.55
-1,20,618,-75,-528,3972,-0.51,0.75,34.52,-0.75,-5.28,39.72,-5.32,2.53,-18.95,-0.02,-0.28,-8.32
21,17,613,20,-510,3818,-0.33,0.77,34.81,0.20,-5.10,38.18,-5.33,2.53,-19.09,-0.38,-0.23,-8.05
43,-18,613,-90,-493,3729,-0.03,0.59,35.07,-0.90,-4.93,37.29,-5.34,2.53,-19.23,-0.73,0.35,-7.96
35,-20,605,-63,-465,3970,0.18,0.41,35.25,-0.63,-4.65,39.70,-5.34,2.53,-19.37,-0.58,0.37,-7.62
136,-26,582,-164,-705,3785,0.99,0.21,35.28,-1.64,-7.05,37.85,-5.35,2.55,-19.51,-2.23,0.46,-6.83
249,-31,617,-131,-707,3495,2.41,-0.00,35.51,-1.31,-7.07,34.95,-5.35,2.56,-19.65,-4.03,0.53,-7.93
576,-550,626,-237,-334,4598,5.69,-3.36,35.78,-2.37,-3.34,45.98,-5.31,2.57,-19.79,-9.32,9.06,-8.14
717,-716,614,-55,-96,4429,9.49,-7.39,35.95,-0.55,-0.96,44.29,-5.25,2.54,-19.94,-11.41,11.56,-7.67
905,-930,563,45,-163,3384,14.06,-12.32,35.79,0.45,-1.63,33.84,-5.17,2.49,-20.09,-14.24,14.80,-6.00
816,-894,551,121,-28,3698,17.63,-16.54,35.57,1.21,-0.28,36.98,-5.08,2.43,-20.24,-12.46,13.86,-5.67
700,-785,435,336,-85,4161,20.14,-19.68,34.67,3.36,-0.85,41.61,-4.99,2.34,-20.38,-10.29,11.77,-2.07
690,-752,386,437,-202,4112,22.34,-22.30,33.55,4.37,-2.02,41.12,-4.89,2.25,-20.52,-9.95,11.01,-0.82
519,-559,311,410,-265,3929,23.27,-23.48,32.10,4.10,-2.65,39.29,-4.79,2.15,-20.66,-6.98,7.65,1.19
454,-499,315,441,-259,3975,23.71,-24.17,30.81,4.41,-2.59,39.75,-4.68,2.04,-20.79,-5.85,6.58,0.59
231,-290,424,377,-175,3993,22.75,-23.53,30.31,3.77,-1.75,39.93,-4.58,1.94,-20.92,-2.14,3.08,-3.29
167,-239,478,363,-97,4011,21.49,-22.63,30.20,3.63,-0.97,40.11,-4.49,1.84,-21.05,-1.16,2.29,-5.16
-21,-53,624,279,-44,3881,19.21,-20.69,30.98,2.79,-0.44,38.81,-4.40,1.76,-21.18,1.85,-0.71,-9.82
-87,-16,619,314,228,3993,16.76,-18.72,31.66,3.14,2.28,39.93,-4.31,1.68,-21.31,2.78,-1.18,-9.40
-260,205,518,297,196,3911,13.50,-15.60,31.66,2.97,1.96,39.11,-4.24,1.61,-21.44,5.46,-4.69,-5.98
-314,255,478,294,255,3985,10.23,-12.48,31.41,2.94,2.55,39.85,-4.18,1.56,-21.57,6.12,-5.29,-4.72
-491,472,270,171,195,3889,6.22,-8.35,29.91,1.71,1.95,38.89,-4.14,1.53,-21.69,8.80,-8.65,1.78
-553,553,148,227,162,3952,2.22,-4.15,27.82,2.27,1.62,39.52,-4.11,1.51,-21.80,9.54,-9.69,5.16
-585,610,4,108,-260,3945,-1.57,-0.01,25.07,1.08,-2.60,39.45,-4.11,1.50,-21.90,9.79,-10.34,9.03
-579,603,0,87,-272,3905,-4.94,3.67,22.56,0.87,-2.72,39.05,-4.13,1.50,-21.99,9.43,-9.93,8.25
-498,520,-22,73,-392,3913,-7.49,6.47,20.17,0.73,-3.92,39.13,-4.16,1.52,-22.07,7.86,-8.31,8.12
-460,485,-33,34,-403,3892,-9.54,8.79,17.95,0.34,-4.03,38.92,-4.21,1.54,-22.14,7.05,-7.53,7.68
-369,383,-63,37,-394,3873,-10.84,10.24,15.77,0.37,-3.94,38.73,-4.27,1.58,-22.20,5.41,-5.69,7.90
-347,361,-70,37,-370,3881,-11.87,11.42,13.77,0.37,-3.70,38.81,-4.32,1.61,-22.25,4.96,-5.23,7.40
-289,308,-45,37,-434,3921,-12.45,12.16,12.12,0.37,-4.34,39.21,-4.38,1.65,-22.30,3.93,-4.27,5.95
-284,302,-26,53,-474,3928,-12.94,12.78,10.75,0.53,-4.74,39.28,-4.45,1.69,-22.33,3.81,-4.12,4.81
-263,267,7,52,-474,3923,-13.25,13.13,9.71,0.52,-4.74,39.23,-4.51,1.73,-22.37,3.43,-3.50,3.31
-217,222,-5,17,-494,3948,-13.25,13.18,8.71,0.17,-4.94,39.48,-4.58,1.78,-22.40,2.65,-2.74,3.35
-114,120,-4,-17,-560,3916,-12.62,12.59,7.82,-0.17,-5.60,39.16,-4.64,1.82,-22.43,0.95,-1.05,2.99
-82,88,3,-45,-567,3911,-11.86,11.87,7.05,-0.45,-5.67,39.11,-4.71,1.87,-22.45,0.47,-0.57,2.48
-36,40,60,-19,-667,3918,-10.89,10.92,6.71,-0.19,-6.67,39.18,-4.77,1.91,-22.47,-0.24,0.17,0.42
-42,32,84,13,-669,3866,-10.06,10.03,6.55,0.13,-6.69,38.66,-4.82,1.94,-22.49,-0.07,0.24,-0.45
9,-17,159,2,-623,3941,-9.00,8.92,6.87,0.02,-6.23,39.41,-4.88,1.97,-22.52,-0.85,0.98,-2.88
18,-34,185,-18,-602,4000,-7.99,7.82,7.31,-0.18,-6.02,40.00,-4.92,2.00,-22.54,-0.93,1.18,-3.60
31,-63,255,23,-545,3877,-7.00,6.66,8.14,0.23,-5.45,38.77,-4.97,2.02,-22.57,-1.07,1.59,-5.67
43,-58,270,-14,-535,3887,-6.04,5.64,8.97,-0.14,-5.35,38.87,-5.00,2.03,-22.61,-1.20,1.42,-5.87
130,-146,229,-87,-239,3880,-4.64,4.18,9.47,-0.87,-2.39,38.80,-5.00,2.04,-22.64,-2.56,2.80,-4.30
166,-183,253,-49,-271,3977,-3.16,2.65,10.07,-0.49,-2.71,39.77,-5.00,2.04,-22.68,-3.06,3.31,-4.89
205,-240,219,-70,-135,3850,-1.60,0.92,10.39,-0.70,-1.35,38.50,-4.99,2.04,-22.72,-3.60,4.14,-3.62
192,-221,213,-44,-179,3906,-0.27,-0.52,10.65,-0.44,-1.79,39.06,-4.98,2.04,-22.77,-3.27,3.70,-3.32
111,-106,269,-50,-355,3897,0.44,-1.12,11.23,-0.50,-3.55,38.97,-4.98,2.02,-22.81,-1.85,1.71,-5.01
73,-110,279,-4,-235,4111,0.84,-1.68,11.81,-0.04,-2.35,41.11,-4.96,2.00,-22.86,-1.17,1.73,-5.14
147,-147,88,-67,-65,3906,1.65,-2.40,11.16,-0.67,-0.65,39.06,-4.93,1.99,-22.91,-2.36,2.30,1.10
126,-133,63,-51,-135,3849,2.26,-2.98,10.43,-0.51,-1.35,38.49,-4.91,1.98,-22.95,-1.96,2.02,1.68
-38,24,13,-5,-167,3935,1.80,-2.53,9.47,-0.05,-1.67,39.35,-4.88,1.96,-22.99,0.78,-0.60,3.02
-47,36,15,-30,-205,4050,1.33,-2.06,8.61,-0.30,-2.05,40.50,-4.86,1.94,-23.03,0.90,-0.77,2.64
-50,58,15,136,-329,3941,0.89,-1.50,7.84,1.36,-3.29,39.41,-4.86,1.92,-23.06,0.92,-1.10,2.36
-93,94,3,101,-290,3946,0.24,-0.78,7.08,1.01,-2.90,39.46,-4.85,1.90,-23.09,1.59,-1.65,2.49
-160,175,5,167,-395,3912,-0.76,0.37,6.40,1.67,-3.95,39.12,-4.86,1.89,-23.11,2.65,-2.94,2.17
-190,203,9,149,-414,3902,-1.85,1.57,5.82,1.49,-4.14,39.02,-4.87,1.88,-23.13,3.08,-3.32,1.82
-242,258,30,127,-463,4017,-3.14,2.99,5.42,1.27,-4.63,40.17,-4.89,1.87,-23.15,3.86,-4.14,0.96
-230,257,31,114,-480,4039,-4.23,4.26,5.06,1.14,-4.80,40.39,-4.91,1.88,-23.17,3.57,-4.02,0.80
-289,319,54,110,-465,3844,-5.57,5.78,4.89,1.10,-4.65,38.44,-4.94,1.89,-23.19,4.46,-4.96,-0.04
-336,363,57,75,-455,3900,-7.06,7.41,4.75,0.75,-4.55,39.00,-4.98,1.90,-23.21,5.14,-5.57,-0.20
-220,280,95,71,-535,3621,-7.70,8.38,4.85,0.71,-5.35,36.21,-5.02,1.92,-23.22,3.13,-4.09,-1.45
-258,230,89,-120,-515,4101,-8.50,8.94,4.91,-1.20,-5.15,41.01,-5.08,1.96,-23.24,3.71,-3.20,-1.22
-193,88,108,-141,-502,3853,-8.83,8.59,5.08,-1.41,-5.02,38.53,-5.13,2.00,-23.25,2.58,-0.82,-1.80
-130,63,137,-49,-430,3779,-8.74,8.11,5.40,-0.49,-4.30,37.79,-5.18,2.02,-23.27,1.52,-0.44,-2.67
-59,40,173,-91,-366,3713,-8.22,7.55,5.92,-0.91,-3.66,37.13,-5.22,2.04,-23.29,0.36,-0.09,-3.70
-49,32,176,-129,-291,3865,-7.70,6.99,6.40,-1.29,-2.91,38.65,-5.23,2.06,-23.32,0.23,0.00,-3.62
7,1,136,-114,-228,3938,-6.89,6.29,6.59,-1.14,-2.28,39.38,-5.24,2.09,-23.34,-0.65,0.47,-2.20
10,-8,115,-92,-185,3893,-6.14,5.62,6.63,-0.92,-1.85,38.93,-5.25,2.11,-23.37,-0.65,0.57,-1.47
28,-7,61,-95,-315,3916,-5.35,5.01,6.34,-0.95,-3.15,39.16,-5.26,2.12,-23.39,-0.89,0.51,0.25
22,2,52,-82,-325,3949,-4.68,4.52,6.02,-0.82,-3.25,39.49,-5.26,2.12,-23.41,-0.74,0.32,0.44
7,2,42,-95,-393,3972,-4.17,4.08,5.68,-0.95,-3.93,39.72,-5.29,2.12,-23.43,-0.44,0.28,0.65
-4,-1,50,-64,-417,3992,-3.78,3.67,5.42,-0.64,-4.17,39.92,-5.31,2.12,-23.45,-0.23,0.30,0.29
-11,2,72,-135,-381,3902,-3.47,3.31,5.31,-1.35,-3.81,39.02,-5.34,2.13,-23.47,-0.08,0.22,-0.50
-12,4,44,-114,-310,3959,-3.20,3.01,5.05,-1.14,-3.10,39.59,-5.34,2.13,-23.49,-0.05,0.17,0.36
-21,14,-18,-99,-321,3919,-3.00,2.79,4.44,-0.99,-3.21,39.19,-5.34,2.13,-23.51,0.12,-0.02,2.23
-29,7,-29,-98,-325,3948,-2.88,2.55,3.82,-0.98,-3.25,39.48,-5.33,2.13,-23.52,0.27,0.08,2.38
-36,16,-43,-108,-307,3937,-2.81,2.40,3.17,-1.08,-3.07,39.37,-5.33,2.13,-23.54,0.39,-0.08,2.62
-37,12,-54,-71,-296,4036,-2.76,2.23,2.52,-0.71,-2.96,40.36,-5.33,2.13,-23.55,0.41,-0.03,2.75
-38,31,-64,-185,-436,3922,-2.71,2.20,1.88,-1.85,-4.36,39.22,-5.35,2.15,-23.55,0.43,-0.35,2.86
-40,16,-91,-160,-451,3961,-2.69,2.07,1.14,-1.60,-4.51,39.61,-5.38,2.16,-23.55,0.47,-0.11,3.50
3,5,-282,-155,-261,3899,-2.40,1.90,-0.70,-1.55,-2.61,38.99,-5.37,2.17,-23.55,-0.24,0.06,9.30
1,0,-327,-143,-294,3863,-2.15,1.71,-2.62,-1.43,-2.94,38.63,-5.37,2.17,-23.54,-0.18,0.13,10.12
-3,-1,-277,-52,-547,4048,-1.96,1.53,-4.05,-0.52,-5.47,40.48,-5.39,2.17,-23.52,-0.10,0.14,7.91
-6,6,-257,-2,-440,3949,-1.80,1.41,-5.21,-0.02,-4.40,39.49,-5.40,2.15,-23.50,-0.04,0.01,6.80
-32,5,-322,-129,-377,3908,-1.81,1.30,-6.65,-1.29,-3.77,39.08,-5.42,2.14,-23.48,0.40,0.02,8.48
-44,9,-352,-182,-370,3845,-1.90,1.23,-8.14,-1.82,-3.70,38.45,-5.43,2.16,-23.44,0.60,-0.06,8.95
5,-14,-477,-257,-441,3858,-1.68,1.02,-10.23,-2.57,-4.41,38.58,-5.45,2.17,-23.40,-0.22,0.32,12.42
26,-9,-511,-270,-498,3800,-1.35,0.86,-12.33,-2.70,-4.98,38.00,-5.47,2.19,-23.35,-0.55,0.22,12.81
98,-48,-617,-228,-596,3829,-0.62,0.48,-14.86,-2.28,-5.96,38.29,-5.49,2.19,-23.29,-1.71,0.85,15.48
98,-45,-619,-122,-642,3893,0.04,0.16,-17.15,-1.22,-6.42,38.93,-5.51,2.18,-23.22,-1.66,0.78,14.71
66,-33,-580,-48,-725,4102,0.44,-0.06,-18.97,-0.48,-7.25,41.02,-5.53,2.17,-23.15,-1.08,0.55,12.72
35,-27,-549,-7,-664,4084,0.61,-0.22,-20.42,-0.07,-6.64,40.84,-5.55,2.15,-23.06,-0.55,0.44,11.14
-23,8,-436,-132,-655,3920,0.41,-0.15,-21.04,-1.32,-6.55,39.20,-5.57,2.14,-22.98,0.42,-0.15,7.08
-32,-4,-385,-208,-634,3948,0.17,-0.16,-21.28,-2.08,-6.34,39.48,-5.59,2.13,-22.89,0.56,0.06,5.27
7,-17,-318,-184,-510,3852,0.20,-0.24,-21.10,-1.84,-5.10,38.52,-5.61,2.13,-22.81,-0.10,0.27,3.07
29,-11,-317,-211,-418,3891,0.35,-0.29,-20.92,-2.11,-4.18,38.91,-5.62,2.14,-22.73,-0.46,0.16,3.10
17,-18,-309,-127,-323,4058,0.42,-0.37,-20.71,-1.27,-3.23,40.58,-5.60,2.12,-22.64,-0.26,0.28,2.90
18,7,-308,-104,-248,3928,0.49,-0.29,-20.52,-1.04,-2.48,39.28,-5.59,2.11,-22.56,-0.27,-0.14,2.94
-16,15,-306,-156,-248,3962,0.34,-0.17,-20.33,-1.56,-2.48,39.62,-5.57,2.10,-22.48,0.30,-0.27,2.94
-20,9,-309,-162,-277,4046,0.19,-0.10,-20.19,-1.62,-2.77,40.46,-5.55,2.09,-22.40,0.35,-0.16,3.09
17,46,-392,-133,-280,3917,0.27,0.19,-20.56,-1.33,-2.80,39.17,-5.54,2.08,-22.32,-0.27,-0.76,5.77
65,67,-429,-144,-342,3862,0.64,0.58,-21.12,-1.44,-3.42,38.62,-5.52,2.08,-22.24,-1.05,-1.09,6.82
205,133,-573,-123,-323,3904,1.83,1.34,-22.50,-1.23,-3.23,39.04,-5.50,2.07,-22.15,-3.33,-2.15,11.19
218,141,-630,-182,-276,3943,2.97,2.06,-24.10,-1.82,-2.76,39.43,-5.47,2.08,-22.05,-3.46,-2.23,12.54
44,40,-756,-192,-318,3832,2.95,2.10,-26.30,-1.92,-3.18,38.32,-5.45,2.09,-21.95,-0.52,-0.51,16.01
40,12,-797,-227,-304,3937,2.90,1.96,-28.53,-2.27,-3.04,39.37,-5.43,2.10,-21.83,-0.45,-0.05,16.58
17,-51,-912,-296,-331,3947,2.71,1.46,-31.24,-2.96,-3.31,39.47,-5.42,2.11,-21.71,-0.08,0.98,19.49
22,-58,-933,-274,-349,3836,2.57,0.96,-33.81,-2.74,-3.49,38.36,-5.41,2.12,-21.57,-0.17,1.06,19.26
20,-81,-995,-170,-428,3885,2.44,0.37,-36.50,-1.70,-4.28,38.85,-5.43,2.11,-21.43,-0.15,1.40,20.38
20,-80,-1004,-98,-435,4042,2.32,-0.16,-38.97,-0.98,-4.35,40.42,-5.44,2.09,-21.27,-0.16,1.34,19.78
11,-23,-1002,-61,-396,4069,2.15,-0.28,-41.19,-0.61,-3.96,40.69,-5.43,2.05,-21.11,-0.02,0.37,18.90
6,5,-990,-45,-376,4070,1.97,-0.22,-43.11,-0.45,-3.76,40.70,-5.43,2.02,-20.94,0.05,-0.10,17.79
7,74,-979,-135,-334,3990,1.82,0.25,-44.77,-1.35,-3.34,39.90,-5.41,2.00,-20.76,0.02,-1.23,16.81
1,85,-994,-149,-299,3912,1.64,0.74,-46.35,-1.49,-2.99,39.12,-5.39,1.99,-20.57,0.11,-1.38,16.74
-2,69,-1079,-155,-274,4027,1.47,1.09,-48.30,-1.55,-2.74,40.27,-5.38,1.98,-20.38,0.15,-1.08,18.91
6,61,-1120,-217,-228,3811,1.36,1.35,-50.30,-2.17,-2.28,38.11,-5.36,1.97,-20.18,0.00,-0.93,19.57
15,4,-1295,-229,-209,3801,1.31,1.24,-53.17,-2.29,-2.09,38.01,-5.35,1.97,-19.97,-0.15,0.03,24.45
7,5,-1348,-272,-197,3756,1.22,1.15,-56.08,-2.72,-1.97,37.56,-5.34,1.96,-19.75,-0.02,0.00,25.18
15,-52,-1516,-275,-247,3914,1.19,0.72,-59.72,-2.75,-2.47,39.14,-5.33,1.96,-19.51,-0.16,0.94,29.55
25,-74,-1558,-250,-239,4011,1.23,0.19,-63.25,-2.50,-2.39,40.11,-5.32,1.95,-19.26,-0.33,1.27,29.68
5,-60,-1694,-136,-243,4059,1.13,-0.19,-67.26,-1.36,-2.43,40.59,-5.31,1.92,-18.99,0.00,1.00,32.82
8,-24,-1724,-130,-281,4025,1.07,-0.32,-71.05,-1.30,-2.81,40.25,-5.29,1.89,-18.71,-0.05,0.38,32.45
17,38,-1836,-64,-245,4065,1.07,-0.06,-75.14,-0.64,-2.45,40.65,-5.28,1.86,-18.41,-0.21,-0.65,34.75
-1,96,-1881,-129,-176,4064,0.95,0.54,-79.10,-1.29,-1.76,40.64,-5.27,1.83,-18.09,0.09,-1.58,34.83
-7,114,-1984,-291,-105,3895,0.82,1.18,-83.30,-2.91,-1.05,38.95,-5.26,1.81,-17.76,0.18,-1.84,36.79
-14,105,-2022,-262,-100,3890,0.65,1.70,-87.30,-2.62,-1.00,38.90,-5.25,1.80,-17.41,0.29,-1.65,36.61
-6,58,-2182,-269,-126,3845,0.55,1.88,-91.88,-2.69,-1.26,38.45,-5.25,1.78,-17.05,0.14,-0.84,40.36
0,35,-2230,-298,-187,3813,0.49,1.91,-96.30,-2.98,-1.87,38.13,-5.25,1.77,-16.66,0.04,-0.44,40.37
10,-47,-2409,-214,-393,3895,0.50,1.43,-101.36,-2.14,-3.93,38.95,-5.26,1.75,-16.26,-0.13,0.91,44.59
12,-68,-2449,-142,-407,3833,0.53,0.87,-106.16,-1.42,-4.07,38.33,-5.29,1.72,-15.83,-0.16,1.22,44.19
14,-94,-2501,-10,-632,3929,0.56,0.21,-110.80,-0.10,-6.32,39.29,-5.32,1.68,-15.39,-0.19,1.61,44.25
8,-91,-2492,19,-693,3953,0.55,-0.36,-114.92,0.19,-6.93,39.53,-5.35,1.63,-14.93,-0.09,1.51,42.44
23,-62,-2412,114,-936,3961,0.64,-0.71,-118.14,1.14,-9.36,39.61,-5.37,1.57,-14.46,-0.34,1.00,38.55
18,-51,-2343,96,-1004,3981,0.68,-0.95,-120.62,0.96,-10.04,39.81,-5.40,1.52,-13.98,-0.25,0.79,35.31
0,4,-2130,157,-927,4014,0.62,-0.83,-121.55,1.57,-9.27,40.14,-5.43,1.46,-13.50,0.05,-0.13,27.75
0,32,-2060,138,-940,3989,0.55,-0.55,-121.96,1.38,-9.40,39.89,-5.45,1.40,-13.01,0.04,-0.58,25.23
4,22,-1804,127,-889,3835,0.52,-0.36,-120.77,1.27,-8.89,38.35,-5.48,1.35,-12.53,-0.03,-0.40,16.99
-6,24,-1739,79,-920,3884,0.43,-0.18,-119.30,0.79,-9.20,38.84,-5.51,1.30,-12.05,0.14,-0.42,15.32
-3,-30,-1456,-91,-730,3869,0.37,-0.34,-116.25,-0.91,-7.30,38.69,-5.53,1.25,-11.59,0.08,0.48,6.84
18,-46,-1378,-115,-628,3832,0.44,-0.59,-113.03,-1.15,-6.28,38.32,-5.56,1.21,-11.14,-0.27,0.73,5.38
-8,-129,-1126,-173,-630,3909,0.35,-1.32,-108.60,-1.73,-6.30,39.09,-5.59,1.17,-10.71,0.16,2.08,-1.54
0,-87,-1068,-62,-641,4095,0.32,-1.72,-104.25,-0.62,-6.41,40.95,-5.61,1.12,-10.29,0.02,1.34,-1.92
10,-103,-986,-61,-755,3919,0.35,-2.17,-99.84,-0.61,-7.55,39.19,-5.63,1.07,-9.90,-0.14,1.58,-3.08
8,-84,-955,-199,-705,3937,0.36,-2.47,-95.68,-1.99,-7.05,39.37,-5.66,1.03,-9.52,-0.11,1.23,-2.61
14,-141,-1008,-292,-707,3985,0.41,-3.08,-92.27,-2.92,-7.07,39.85,-5.68,0.99,-9.15,-0.21,2.15,0.43
9,-116,-1027,-332,-567,3881,0.42,-3.48,-89.30,-3.32,-5.67,38.81,-5.69,0.96,-8.80,-0.12,1.69,2.16
-6,-114,-1071,-332,-345,3844,0.34,-3.83,-86.91,-3.32,-3.45,38.44,-5.69,0.92,-8.45,0.13,1.63,4.53
-3,-93,-1062,-322,-253,4039,0.29,-4.01,-84.69,-3.22,-2.53,40.39,-5.69,0.89,-8.12,0.07,1.26,5.03
-150,-171,-1031,-296,-296,3942,-0.65,-4.65,-82.51,-2.96,-2.96,39.42,-5.69,0.86,-7.79,2.49,2.54,4.78
-100,-137,-1039,-283,-253,3901,-1.20,-5.02,-80.60,-2.83,-2.53,39.01,-5.69,0.82,-7.47,1.60,1.93,5.75
-14,-21,-1054,-117,-108,3843,-1.16,-4.65,-78.97,-1.17,-1.08,38.43,-5.68,0.77,-7.16,0.15,-0.01,6.85
3,-23,-1056,-9,-51,4056,-1.03,-4.33,-77.51,-0.09,-0.51,40.56,-5.67,0.72,-6.85,-0.13,0.05,7.45
46,21,-1047,123,40,3987,-0.64,-3.76,-76.15,1.23,0.40,39.87,-5.66,0.67,-6.55,-0.83,-0.65,7.64
188,150,-1039,111,59,3918,0.57,-2.47,-74.87,1.11,0.59,39.18,-5.64,0.63,-6.25,-3.14,-2.73,7.84
33,45,-1066,99,-43,3991,0.71,-1.95,-73.89,0.99,-0.43,39.91,-5.63,0.58,-5.96,-0.50,-0.91,9.12
45,54,-1091,123,-3,4043,0.91,-1.43,-73.15,1.23,-0.03,40.43,-5.61,0.54,-5.67,-0.69,-1.03,10.23
15,139,-1229,144,-196,3894,0.91,-0.44,-73.34,1.44,-1.96,38.94,-5.60,0.50,-5.38,-0.18,-2.39,14.84
6,153,-1284,80,-192,3892,0.86,0.54,-73.83,0.80,-1.92,38.92,-5.58,0.46,-5.08,-0.03,-2.55,16.52
2,46,-1430,-135,-349,3915,0.79,0.77,-75.17,-1.35,-3.49,39.15,-5.57,0.45,-4.79,0.03,-0.72,20.98
-13,40,-1449,-59,-446,3821,0.63,0.93,-76.50,-0.59,-4.46,38.21,-5.59,0.43,-4.48,0.27,-0.61,21.14
21,-12,-1470,-113,-558,3842,0.69,0.77,-77.81,-1.13,-5.58,38.42,-5.61,0.41,-4.17,-0.30,0.26,21.37
1,-40,-1461,-73,-488,4034,0.63,0.45,-78.94,-0.73,-4.88,40.34,-5.62,0.39,-3.86,0.03,0.71,20.65
9,-63,-1368,-73,-384,4003,0.62,0.02,-79.39,-0.73,-3.84,40.03,-5.62,0.38,-3.54,-0.10,1.07,17.34
11,-77,-1323,16,-439,3921,0.63,-0.45,-79.53,0.16,-4.39,39.21,-5.63,0.34,-3.22,-0.14,1.27,15.76
10,-77,-1240,-109,-393,3843,0.63,-0.88,-79.14,-1.09,-3.93,38.43,-5.63,0.32,-2.91,-0.12,1.24,13.09
8,-91,-1216,-115,-426,4004,0.61,-1.35,-78.64,-1.15,-4.26,40.04,-5.64,0.30,-2.60,-0.09,1.44,12.46
15,-89,-1187,-90,-552,4005,0.64,-1.75,-78.02,-0.90,-5.52,40.05,-5.65,0.27,-2.29,-0.20,1.37,11.71
16,-70,-1191,-116,-570,3916,0.68,-2.01,-77.48,-1.16,-5.70,39.16,-5.67,0.24,-1.98,-0.22,1.03,12.04
23,-26,-1222,-86,-665,3993,0.75,-1.96,-77.19,-0.86,-6.65,39.93,-5.68,0.21,-1.67,-0.33,0.29,13.20
16,-30,-1229,-91,-650,4129,0.77,-1.95,-76.96,-0.91,-6.50,41.29,-5.70,0.17,-1.37,-0.21,0.36,13.51
2,-33,-1181,-124,-572,3982,0.71,-1.96,-76.47,-1.24,-5.72,39.82,-5.71,0.15,-1.06,0.02,0.41,12.07
17,-26,-1163,-30,-530,3821,0.74,-1.92,-75.92,-0.30,-5.30,38.21,-5.73,0.11,-0.76,-0.23,0.29,11.66
20,-17,-1067,-133,-512,3923,0.79,-1.83,-74.84,-1.33,-5.12,39.23,-5.74,0.09,-0.46,-0.28,0.15,8.80
7,-34,-1053,-219,-394,3931,0.75,-1.86,-73.78,-2.19,-3.94,39.31,-5.74,0.07,-0.17,-0.06,0.43,8.72
9,-21,-1027,-133,-317,3960,0.73,-1.80,-72.66,-1.33,-3.17,39.60,-5.72,0.05,0.12,-0.10,0.22,8.24
3,-22,-1021,-137,-369,3985,0.68,-1.75,-71.62,-1.37,-3.69,39.85,-5.72,0.03,0.40,0.00,0.24,8.42
-4,11,-983,-162,-261,3851,0.58,-1.51,-70.46,-1.62,-2.61,38.51,-5.70,0.01,0.68,0.11,-0.30,7.56
14,25,-970,-98,-217,4003,0.61,-1.21,-69.33,-0.98,-2.17,40.03,-5.69,-0.01,0.96,-0.19,-0.52,7.53
15,56,-945,-178,-171,3939,0.64,-0.74,-68.16,-1.78,-1.71,39.39,-5.67,-0.03,1.23,-0.20,-1.01,7.11
11,36,-944,-144,-99,4056,0.64,-0.45,-67.10,-1.44,-0.99,40.56,-5.65,-0.05,1.50,-0.14,-0.65,7.46
6,38,-983,-187,-164,4043,0.62,-0.17,-66.39,-1.87,-1.64,40.43,-5.63,-0.07,1.76,-0.05,-0.66,9.04
-2,47,-1018,-199,-199,3845,0.54,0.13,-65.96,-1.99,-1.99,38.45,-5.62,-0.08,2.02,0.08,-0.79,10.39
-3,60,-1123,-141,-226,4010,0.47,0.48,-66.21,-1.41,-2.26,40.10,-5.60,-0.09,2.29,0.09,-0.98,13.85
14,62,-1185,-50,-294,4021,0.51,0.81,-66.82,-0.50,-2.94,40.21,-5.58,-0.11,2.55,-0.20,-0.99,15.73
5,122,-1294,248,-505,3953,0.49,1.48,-68.03,2.48,-5.05,39.53,-5.59,-0.14,2.82,-0.05,-1.95,18.98
14,87,-1345,257,-459,3849,0.52,1.86,-69.43,2.57,-4.59,38.49,-5.59,-0.18,3.10,-0.20,-1.33,20.20
-15,143,-1340,92,-412,3837,0.38,2.55,-70.66,0.92,-4.12,38.37,-5.60,-0.21,3.38,0.28,-2.23,19.58
-19,131,-1316,-42,-403,3933,0.23,3.09,-71.63,-0.42,-4.03,39.33,-5.60,-0.21,3.67,0.34,-1.98,18.41
1,92,-1135,-422,-244,3815,0.21,3.34,-71.39,-4.22,-2.44,38.15,-5.59,-0.21,3.96,-0.00,-1.30,12.37
3,61,-1082,-390,-228,3866,0.21,3.38,-70.85,-3.90,-2.28,38.66,-5.58,-0.21,4.24,-0.03,-0.77,10.77
-3,-25,-978,-211,-397,3913,0.17,2.89,-69.73,-2.11,-3.97,39.13,-5.58,-0.20,4.52,0.06,0.65,7.65
1,-40,-971,-184,-416,3937,0.16,2.36,-68.68,-1.84,-4.16,39.37,-5.59,-0.20,4.79,-0.00,0.86,7.80
11,-48,-986,-215,-363,3856,0.21,1.83,-67.83,-2.15,-3.63,38.56,-5.58,-0.20,5.06,-0.17,0.96,8.62
3,-55,-1004,-88,-383,4083,0.21,1.31,-67.17,-0.88,-3.83,40.83,-5.58,-0.21,5.33,-0.03,1.03,9.47
11,-53,-1044,-15,-401,4015,0.25,0.86,-66.82,-0.15,-4.01,40.15,-5.58,-0.21,5.60,-0.17,0.96,10.95
15,-35,-1049,34,-408,3880,0.32,0.56,-66.54,0.34,-4.08,38.80,-5.59,-0.25,5.86,-0.23,0.64,11.23
3,-9,-1031,-42,-446,3927,0.31,0.45,-66.17,-0.42,-4.46,39.27,-5.60,-0.26,6.13,-0.03,0.19,10.75
15,-11,-1018,74,-433,4031,0.37,0.33,-65.76,0.74,-4.33,40.31,-5.61,-0.30,6.39,-0.23,0.21,10.46
-3,3,-948,-6,-406,3907,0.31,0.32,-64.97,-0.06,-4.06,39.07,-5.62,-0.31,6.65,0.08,-0.03,8.38
7,13,-916,-40,-406,3909,0.32,0.37,-64.06,-0.40,-4.06,39.09,-5.62,-0.31,6.90,-0.09,-0.19,7.62
-9,12,-769,-160,-303,3893,0.24,0.40,-62.35,-1.60,-3.03,38.93,-5.61,-0.32,7.15,0.17,-0.17,3.27
-3,9,-733,-210,-289,3855,0.19,0.42,-60.58,-2.10,-2.89,38.55,-5.61,-0.32,7.39,0.07,-0.12,2.69
1,-11,-643,-155,-274,3960,0.18,0.31,-58.45,-1.55,-2.74,39.60,-5.59,-0.33,7.62,-0.00,0.21,0.42
6,-14,-638,-148,-219,3796,0.20,0.19,-56.49,-1.48,-2.19,37.96,-5.58,-0.34,7.85,-0.09,0.25,0.97
-4,-22,-657,-144,-265,3953,0.15,0.04,-54.85,-1.44,-2.65,39.53,-5.57,-0.34,8.07,0.08,0.38,2.21
4,-22,-671,-154,-280,4002,0.16,-0.10,-53.46,-1.54,-2.80,40.02,-5.56,-0.35,8.28,-0.06,0.37,3.20
2,7,-721,-131,-319,4017,0.16,-0.05,-52.51,-1.31,-3.19,40.17,-5.55,-0.35,8.49,-0.02,-0.12,5.24
4,22,-724,-138,-290,3920,0.17,0.09,-51.68,-1.38,-2.90,39.20,-5.54,-0.36,8.69,-0.05,-0.37,5.64
-13,42,-735,-177,-308,3937,0.07,0.34,-50.99,-1.77,-3.08,39.37,-5.53,-0.36,8.90,0.23,-0.69,6.27
-8,42,-745,-106,-308,3933,0.02,0.56,-50.44,-1.06,-3.08,39.33,-5.52,-0.36,9.10,0.14,-0.67,6.81
-12,85,-815,224,-345,4014,-0.06,1.02,-50.37,2.24,-3.45,40.14,-5.51,-0.39,9.30,0.20,-1.36,9.21
-25,121,-836,186,-381,4046,-0.21,1.66,-50.43,1.86,-3.81,40.46,-5.51,-0.42,9.50,0.41,-1.92,9.90
8,189,-858,-91,-240,4040,-0.14,2.65,-50.62,-0.91,-2.40,40.40,-5.50,-0.42,9.70,-0.15,-3.00,10.57
13,207,-859,-249,-210,3931,-0.04,3.64,-50.80,-2.49,-2.10,39.31,-5.48,-0.41,9.91,-0.22,-3.22,10.54
-9,157,-869,-372,-297,3763,-0.09,4.24,-51.02,-3.72,-2.97,37.63,-5.48,-0.39,10.11,0.15,-2.33,10.80
-13,143,-871,-386,-317,3747,-0.16,4.69,-51.23,-3.86,-3.17,37.47,-5.48,-0.38,10.32,0.21,-2.06,10.79
-1,111,-895,-152,-472,3940,-0.15,4.89,-51.57,-1.52,-4.72,39.40,-5.49,-0.36,10.53,0.01,-1.50,11.48
-11,102,-896,-127,-487,4045,-0.21,5.03,-51.88,-1.27,-4.87,40.45,-5.50,-0.35,10.73,0.17,-1.34,11.40
-1,155,-904,-127,-552,4025,-0.19,5.47,-52.20,-1.27,-5.52,40.25,-5.51,-0.33,10.94,0.00,-2.20,11.55
1,179,-903,-174,-459,4025,-0.17,6.02,-52.49,-1.74,-4.59,40.25,-5.51,-0.31,11.16,-0.03,-2.57,11.41
-5,280,-887,-170,-340,4046,-0.18,7.12,-52.65,-1.70,-3.40,40.46,-5.51,-0.28,11.37,0.07,-4.19,10.81
-3,296,-858,-238,-303,4094,-0.18,8.22,-52.62,-2.38,-3.03,40.94,-5.50,-0.25,11.58,0.04,-4.38,9.84
7,380,-764,-374,-151,4032,-0.12,9.71,-52.02,-3.74,-1.51,40.32,-5.49,-0.22,11.79,-0.13,-5.68,6.88
17,395,-758,-327,-145,3921,-0.00,11.15,-51.44,-3.27,-1.45,39.21,-5.48,-0.18,12.00,-0.29,-5.83,6.88
12,387,-793,-126,-96,3860,0.07,12.40,-51.13,-1.26,-0.96,38.60,-5.46,-0.14,12.21,-0.20,-5.59,8.18
-3,367,-812,-35,-156,3923,0.04,13.39,-50.97,-0.35,-1.56,39.23,-5.45,-0.10,12.42,0.05,-5.18,8.88
-17,370,-851,-255,-73,3869,-0.06,14.31,-51.07,-2.55,-0.73,38.69,-5.43,-0.05,12.63,0.28,-5.16,10.17
3,374,-866,-201,-135,3884,-0.04,15.16,-51.24,-2.01,-1.35,38.84,-5.42,-0.00,12.84,-0.05,-5.16,10.62
-23,318,-935,-214,-285,3895,-0.18,15.59,-51.82,-2.14,-2.85,38.95,-5.41,0.06,13.05,0.38,-4.18,12.74
-41,318,-954,-288,-254,3868,-0.41,15.97,-52.46,-2.88,-2.54,38.68,-5.41,0.12,13.26,0.66,-4.15,13.15
-2,310,-928,-245,-500,3892,-0.38,16.26,-52.87,-2.45,-5.00,38.92,-5.42,0.18,13.48,0.00,-3.99,12.12
-68,263,-919,-372,-365,3965,-0.76,16.24,-53.19,-3.72,-3.65,39.65,-5.42,0.24,13.70,1.09,-3.19,11.70
-69,253,-865,-357,-434,3911,-1.10,16.16,-53.15,-3.57,-4.34,39.11,-5.43,0.30,13.91,1.08,-3.03,9.88
-58,239,-845,-248,-460,3838,-1.35,16.00,-52.99,-2.48,-4.60,38.38,-5.44,0.37,14.13,0.88,-2.81,9.27
-49,165,-769,-461,-351,3716,-1.51,15.41,-52.38,-4.61,-3.51,37.16,-5.45,0.43,14.35,0.71,-1.60,6.91
-36,135,-731,-392,-312,3750,-1.58,14.69,-51.60,-3.92,-3.12,37.50,-5.46,0.48,14.56,0.49,-1.14,5.91
-47,20,-612,-393,-356,3752,-1.71,13.34,-50.18,-3.93,-3.56,37.52,-5.47,0.53,14.76,0.66,0.70,2.40
-47,-3,-576,-435,-299,3724,-1.82,11.99,-48.67,-4.35,-2.99,37.24,-5.47,0.58,14.96,0.65,0.98,1.73
-27,-79,-463,-472,-414,3749,-1.81,10.31,-46.63,-4.72,-4.14,37.49,-5.48,0.62,15.15,0.32,2.14,-1.35
-29,-74,-413,-446,-445,3721,-1.80,8.83,-44.49,-4.46,-4.45,37.21,-5.50,0.66,15.33,0.35,1.94,-2.27
-32,-130,-313,-298,-489,3770,-1.82,7.15,-41.95,-2.98,-4.89,37.70,-5.51,0.69,15.50,0.40,2.76,-4.73
-22,-158,-304,-312,-417,4036,-1.77,5.47,-39.61,-3.12,-4.17,40.36,-5.53,0.71,15.66,0.24,3.10,-4.18
-15,-135,-317,-108,-519,4038,-1.68,4.10,-37.58,-1.08,-5.19,40.38,-5.55,0.72,15.81,0.12,2.61,-2.99
-22,-108,-328,-335,-393,3994,-1.65,3.03,-35.82,-3.35,-3.93,39.94,-5.56,0.74,15.96,0.24,2.07,-1.98
-13,-98,-248,-49,-482,3961,-1.56,2.13,-33.75,-0.49,-4.82,39.61,-5.59,0.73,16.09,0.10,1.83,-3.93
-6,-112,-255,-118,-419,3862,-1.44,1.24,-31.93,-1.18,-4.19,38.62,-5.60,0.74,16.22,-0.01,1.99,-3.03
-8,-125,-265,-305,11,3891,-1.35,0.35,-30.36,-3.05,0.11,38.91,-5.59,0.74,16.34,0.03,2.15,-2.12
-13,-135,-271,-189,18,3805,-1.29,-0.51,-28.97,-1.89,0.18,38.05,-5.58,0.73,16.45,0.12,2.25,-1.41
-20,-199,-288,-393,21,3913,-1.29,-1.67,-27.83,-3.93,0.21,39.13,-5.58,0.73,16.56,0.24,3.24,-0.41
-32,-202,-281,-438,-42,3992,-1.35,-2.74,-26.76,-4.38,-0.42,39.92,-5.57,0.72,16.67,0.44,3.21,-0.26
-26,-218,-322,-259,-248,3970,-1.38,-3.79,-26.05,-2.59,-2.48,39.70,-5.57,0.71,16.77,0.33,3.40,1.39
-19,-223,-280,-346,-414,3805,-1.35,-4.77,-25.15,-3.46,-4.14,38.05,-5.58,0.70,16.87,0.22,3.41,0.29
-35,-279,-214,-411,-427,3791,-1.43,-6.00,-23.94,-4.11,-4.27,37.91,-5.59,0.69,16.96,0.48,4.26,-1.50
-22,-306,-209,-399,-333,3821,-1.42,-7.27,-22.82,-3.99,-3.33,38.21,-5.59,0.67,17.05,0.26,4.62,-1.26
-40,-355,-219,-402,-408,3792,-1.52,-8.70,-21.88,-4.02,-4.08,37.92,-5.60,0.64,17.14,0.56,5.34,-0.58
-34,-372,-221,-383,-446,3877,-1.58,-10.10,-21.04,-3.83,-4.46,38.77,-5.61,0.61,17.22,0.45,5.52,-0.20
-30,-404,-204,-217,-441,3944,-1.60,-11.56,-20.18,-2.17,-4.41,39.44,-5.62,0.57,17.29,0.38,5.95,-0.46
-29,-399,-191,-207,-445,3913,-1.62,-12.84,-19.33,-2.07,-4.45,39.13,-5.64,0.53,17.36,0.37,5.76,-0.59
-33,-386,-122,-94,-524,3994,-1.66,-13.91,-18.14,-0.94,-5.24,39.94,-5.66,0.48,17.43,0.43,5.46,-2.50
-26,-388,-99,-122,-459,3926,-1.65,-14.88,-16.93,-1.22,-4.59,39.26,-5.68,0.43,17.49,0.31,5.42,-2.83
-14,-395,-16,-195,-322,3908,-1.57,-15.80,-15.33,-1.95,-3.22,39.08,-5.68,0.37,17.55,0.11,5.46,-5.06
-22,-390,7,-203,-355,3891,-1.55,-16.60,-13.76,-2.03,-3.55,38.91,-5.68,0.32,17.59,0.25,5.32,-5.27
-26,-380,45,-31,-335,4003,-1.55,-17.26,-12.11,-0.31,-3.35,40.03,-5.67,0.25,17.64,0.32,5.10,-5.95
-24,-369,50,-25,-309,4002,-1.54,-17.79,-10.59,-0.25,-3.09,40.02,-5.66,0.18,17.67,0.29,4.87,-5.57
-18,-334,61,-182,-262,3892,-1.50,-18.04,-9.16,-1.82,-2.62,38.92,-5.65,0.12,17.70,0.19,4.26,-5.42
17,-327,63,-199,-284,4273,-1.25,-18.23,-7.86,-1.99,-2.84,42.73,-5.65,0.05,17.72,-0.38,4.12,-5.01
14,-216,71,13,-190,4384,-1.04,-17.73,-6.64,0.13,-1.90,43.84,-5.63,-0.02,17.74,-0.32,2.28,-4.83
1,-188,69,-267,-218,3761,-0.93,-17.10,-5.56,-2.67,-2.18,37.61,-5.63,-0.07,17.76,-0.09,1.86,-4.37
-10,-55,86,-54,-402,3788,-0.89,-15.73,-4.48,-0.54,-4.02,37.88,-5.64,-0.12,17.77,0.10,-0.29,-4.55
1,-112,75,17,-371,3699,-0.80,-14.84,-3.57,0.17,-3.71,36.99,-5.65,-0.20,17.78,-0.08,0.74,-3.85
-117,-199,105,-84,-340,4052,-1.43,-14.57,-2.57,-0.84,-3.40,40.52,-5.65,-0.24,17.78,1.87,2.24,-4.50
-217,-249,108,11,-290,4165,-2.61,-14.63,-1.66,0.11,-2.90,41.65,-5.64,-0.30,17.78,3.47,3.08,-4.27
-56,-76,128,-76,-318,3871,-2.69,-13.63,-0.71,-0.76,-3.18,38.71,-5.64,-0.34,17.78,0.74,0.23,-4.60
-56,-74,116,-4,-261,3987,-2.77,-12.72,0.07,-0.04,-2.61,39.87,-5.64,-0.39,17.78,0.73,0.26,-3.91
-13,-22,15,-205,-471,3977,-2.57,-11.58,0.15,-2.05,-4.71,39.77,-5.65,-0.41,17.77,0.02,-0.53,-0.45
8,-25,-19,43,-537,4127,-2.26,-10.58,0.02,0.43,-5.37,41.27,-5.68,-0.46,17.77,-0.31,-0.40,0.65
-2,8,-177,-186,-46,3936,-2.05,-9.47,-1.06,-1.86,-0.46,39.36,-5.67,-0.49,17.77,-0.13,-0.87,5.61
3,-4,-211,-123,-125,3990,-1.83,-8.55,-2.24,-1.23,-1.25,39.90,-5.66,-0.51,17.77,-0.19,-0.60,6.33
18,-51,-217,363,202,4189,-1.53,-8.00,-3.34,3.63,2.02,41.89,-5.65,-0.55,17.78,-0.42,0.24,6.13
19,3,-107,352,55,3848,-1.26,-7.18,-3.66,3.52,0.55,38.48,-5.64,-0.59,17.80,-0.42,-0.61,2.29
0,0,-86,456,-874,3850,-1.14,-6.47,-3.82,4.56,-8.74,38.50,-5.66,-0.63,17.81,-0.09,-0.50,1.52
5,17,34,172,-723,3751,-0.99,-5.72,-3.23,1.72,-7.23,37.51,-5.68,-0.66,17.82,-0.16,-0.73,-2.33
-14,17,202,17,-627,3799,-0.98,-5.04,-1.67,0.17,-6.27,37.99,-5.70,-0.68,17.82,0.16,-0.68,-7.46
12,4,227,-63,-476,3939,-0.81,-4.51,-0.12,-0.63,-4.76,39.39,-5.72,-0.69,17.82,-0.27,-0.42,-7.74
31,-11,108,-126,-225,4085,-0.54,-4.13,0.55,-1.26,-2.25,40.85,-5.71,-0.69,17.82,-0.57,-0.13,-3.46
38,4,88,23,-439,3573,-0.25,-3.69,1.03,0.23,-4.39,35.73,-5.73,-0.70,17.81,-0.66,-0.35,-2.61
-8,-7,72,-60,-502,3890,-0.28,-3.36,1.37,-0.60,-5.02,38.90,-5.74,-0.70,17.81,0.11,-0.14,-1.94
2,4,84,31,-385,3970,-0.24,-3.00,1.74,0.31,-3.85,39.70,-5.73,-0.70,17.80,-0.05,-0.30,-2.21
12,8,70,-183,-464,4086,-0.14,-2.65,2.00,-1.83,-4.64,40.86,-5.74,-0.69,17.79,-0.21,-0.34,-1.64
-8,-10,56,-177,-415,3943,-0.17,-2.45,2.14,-1.77,-4.15,39.43,-5.74,-0.68,17.78,0.12,-0.02,-1.12
-11,20,-37,-580,28,3912,-0.22,-2.08,1.70,-5.80,0.28,39.12,-5.73,-0.67,17.77,0.17,-0.50,1.87
-10,-16,-125,-412,44,4357,-0.26,-1.97,0.77,-4.12,0.44,43.57,-5.72,-0.67,17.77,0.15,0.12,4.52
11,-25,-356,-25,-322,4011,-0.17,-1.93,-1.48,-0.25,-3.22,40.11,-5.70,-0.66,17.77,-0.20,0.27,11.52
16,-9,-354,-124,-426,3918,-0.05,-1.79,-3.49,-1.24,-4.26,39.18,-5.71,-0.65,17.79,-0.28,0.01,10.72
6,-3,-223,-133,-370,3954,-0.01,-1.63,-4.50,-1.33,-3.70,39.54,-5.70,-0.64,17.80,-0.10,-0.08,5.91
8,2,-198,-147,-344,3917,0.04,-1.45,-5.26,-1.47,-3.44,39.17,-5.70,-0.63,17.82,-0.13,-0.15,4.79
0,7,-143,-67,-381,3959,0.03,-1.27,-5.61,-0.67,-3.81,39.59,-5.70,-0.62,17.85,0.00,-0.22,2.80
-3,1,-137,-45,-346,3916,0.01,-1.13,-5.88,-0.45,-3.46,39.16,-5.69,-0.61,17.87,0.05,-0.11,2.49
6,2,-128,-57,-324,3965,0.05,-1.01,-6.08,-0.57,-3.24,39.65,-5.68,-0.60,17.89,-0.10,-0.11,2.12
3,-1,-117,-83,-309,3922,0.06,-0.91,-6.18,-0.83,-3.09,39.22,-5.67,-0.60,17.92,-0.05,-0.05,1.71
4,1,-34,-165,-449,3915,0.08,-0.82,-5.77,-1.65,-4.49,39.15,-5.67,-0.58,17.94,-0.06,-0.08,-0.96
2,0,-13,-143,-454,3903,0.08,-0.73,-5.27,-1.43,-4.54,39.03,-5.68,-0.57,17.96,-0.03,-0.06,-1.49
-1,-10,8,-82,-265,3957,0.07,-0.72,-4.70,-0.82,-2.65,39.57,-5.66,-0.56,17.98,0.02,0.11,-1.99
1,-9,18,-17,-323,3931,0.07,-0.70,-4.12,-0.17,-3.23,39.31,-5.65,-0.56,17.99,-0.01,0.10,-2.12
3,2,4,14,-389,3931,0.08,-0.62,-3.68,0.14,-3.89,39.31,-5.65,-0.54,18.01,-0.04,-0.08,-1.48
2,5,-2,4,-387,3938,0.08,-0.53,-3.33,0.04,-3.87,39.38,-5.65,-0.53,18.02,-0.03,-0.13,-1.15
1,1,-33,11,-444,3945,0.08,-0.47,-3.19,0.11,-4.44,39.45,-5.66,-0.52,18.03,-0.01,-0.05,-0.05
5,-6,-58,26,-462,3940,0.10,-0.46,-3.23,0.26,-4.62,39.40,-5.68,-0.52,18.05,-0.08,0.07,0.79
0,-14,-113,-239,-351,3898,0.09,-0.50,-3.59,-2.39,-3.51,38.98,-5.68,-0.51,18.06,0.01,0.20,2.52
5,-18,-124,-220,-358,3914,0.11,-0.56,-3.99,-2.20,-3.58,39.14,-5.67,-0.49,18.08,-0.08,0.26,2.74
5,-28,-209,-96,-606,4003,0.13,-0.67,-4.87,-0.96,-6.06,40.03,-5.69,-0.49,18.10,-0.07,0.42,5.30
-6,-8,-235,-149,-507,3738,0.08,-0.66,-5.81,-1.49,-5.07,37.38,-5.70,-0.48,18.12,0.11,0.08,5.84
5,-1,-293,-106,-522,3851,0.11,-0.60,-7.02,-1.06,-5.22,38.51,-5.71,-0.47,18.15,-0.08,-0.03,7.36
3,-11,-295,-24,-482,3929,0.11,-0.60,-8.12,-0.24,-4.82,39.29,-5.73,-0.47,18.18,-0.04,0.14,7.03
9,-4,-254,112,-488,4018,0.16,-0.57,-8.86,1.12,-4.88,40.18,-5.74,-0.48,18.21,-0.14,0.02,5.37
5,-1,-220,124,-473,3909,0.17,-0.52,-9.31,1.24,-4.73,39.09,-5.75,-0.50,18.25,-0.07,-0.02,4.05
33,25,-140,105,-57,4055,0.36,-0.31,-9.23,1.05,-0.57,40.55,-5.73,-0.51,18.29,-0.53,-0.45,1.37
-6,-13,-137,193,-277,4295,0.28,-0.36,-9.15,1.93,-2.77,42.95,-5.72,-0.53,18.32,0.12,0.19,1.30
18,4,-102,128,-357,4182,0.37,-0.30,-8.85,1.28,-3.57,41.82,-5.70,-0.55,18.36,-0.28,-0.09,0.22
2,-17,-68,130,-420,3917,0.34,-0.37,-8.38,1.30,-4.20,39.17,-5.71,-0.57,18.39,-0.01,0.26,-0.76
-3,-3,30,-128,-520,3879,0.29,-0.35,-7.36,-1.28,-5.20,38.79,-5.72,-0.56,18.42,0.07,0.02,-3.71
8,16,61,-236,-442,3874,0.31,-0.22,-6.25,-2.36,-4.42,38.74,-5.72,-0.55,18.45,-0.11,-0.29,-4.35
18,70,134,-354,-369,4187,0.39,0.23,-4.81,-3.54,-3.69,41.87,-5.72,-0.53,18.46,-0.27,-1.17,-6.30
-4,-6,110,-139,-607,3832,0.32,0.17,-3.66,-1.39,-6.07,38.32,-5.73,-0.52,18.48,0.09,0.11,-5.07
2,10,112,-154,-548,3923,0.30,0.21,-2.61,-1.54,-5.48,39.23,-5.74,-0.51,18.49,-0.01,-0.15,-4.75
2,13,116,-112,-528,3862,0.29,0.27,-1.64,-1.12,-5.28,38.62,-5.75,-0.49,18.50,-0.01,-0.20,-4.53
-10,5,123,-15,-456,3940,0.20,0.27,-0.73,-0.15,-4.56,39.40,-5.76,-0.48,18.50,0.18,-0.06,-4.43
0,-7,127,49,-393,3875,0.18,0.20,0.12,0.49,-3.93,38.75,-5.77,-0.50,18.50,0.01,0.13,-4.26
-9,98,135,83,-368,3861,0.10,0.78,0.93,0.83,-3.68,38.61,-5.76,-0.51,18.50,0.16,-1.60,-4.23
-10,72,139,24,-326,3996,0.03,1.14,1.69,0.24,-3.26,39.96,-5.74,-0.50,18.49,0.17,-1.13,-4.09
-100,20,234,-80,-424,4020,-0.58,1.15,2.95,-0.80,-4.24,40.20,-5.74,-0.48,18.48,1.65,-0.25,-6.85
-99,15,272,-103,-426,4023,-1.13,1.13,4.31,-1.03,-4.26,40.23,-5.75,-0.45,18.46,1.59,-0.17,-7.64
-45,13,107,-94,-304,3891,-1.29,1.09,4.53,-0.94,-3.04,38.91,-5.75,-0.43,18.44,0.66,-0.14,-1.97
-26,9,23,-144,-398,3896,-1.32,1.04,4.22,-1.44,-3.98,38.96,-5.75,-0.41,18.43,0.34,-0.07,0.76
110,-7,-72,-121,-434,3877,-0.52,0.89,3.36,-1.21,-4.34,38.77,-5.76,-0.39,18.41,-1.90,0.19,3.67
87,-4,-99,-58,-454,3971,0.07,0.78,2.42,-0.58,-4.54,39.71,-5.77,-0.37,18.40,-1.47,0.13,4.24
9,-15,-201,11,-552,3785,0.12,0.61,0.95,0.11,-5.52,37.85,-5.79,-0.36,18.40,-0.14,0.30,7.16
34,-17,-215,-49,-471,3911,0.31,0.44,-0.46,-0.49,-4.71,39.11,-5.80,-0.35,18.40,-0.55,0.32,7.12
21,-10,-259,-665,-465,4073,0.41,0.34,-1.99,-6.65,-4.65,40.73,-5.80,-0.33,18.41,-0.32,0.20,8.05
3,-21,-257,-637,-409,3896,0.39,0.18,-3.36,-6.37,-4.09,38.96,-5.80,-0.31,18.42,-0.02,0.37,7.48
-5,-19,-54,-143,-163,3937,0.32,0.04,-3.35,-1.43,-1.63,39.37,-5.78,-0.30,18.44,0.11,0.33,0.60
-2,2,15,-470,36,4056,0.27,0.05,-2.93,-4.70,0.36,40.56,-5.77,-0.29,18.45,0.06,-0.03,-1.58
49,125,213,-954,-520,3544,0.54,0.81,-1.33,-9.54,-5.20,35.44,-5.77,-0.27,18.46,-0.79,-2.06,-7.71
96,131,267,-711,-421,4373,1.08,1.53,0.43,-7.11,-4.21,43.73,-5.76,-0.24,18.45,-1.54,-2.10,-8.89
-11,156,374,-186,-437,3799,0.90,2.33,2.67,-1.86,-4.37,37.99,-5.76,-0.22,18.44,0.26,-2.46,-11.70
89,230,416,-77,-511,3377,1.35,3.50,4.94,-0.77,-5.11,33.77,-5.78,-0.19,18.43,-1.40,-3.63,-12.29
9,51,490,555,-511,3937,1.27,3.46,7.43,5.55,-5.11,39.37,-5.77,-0.19,18.40,-0.05,-0.60,-13.89
13,34,497,656,-544,3763,1.23,3.32,9.72,6.56,-5.44,37.63,-5.77,-0.19,18.36,-0.12,-0.32,-13.29
-97,-74,482,434,-119,3860,0.51,2.54,11.69,4.34,-1.19,38.60,-5.76,-0.19,18.32,1.68,1.45,-12.06
-73,-45,534,632,-374,3830,0.01,2.01,13.78,6.32,-3.74,38.30,-5.76,-0.20,18.26,1.24,0.92,-13.06
-91,-79,509,667,-334,3881,-0.54,1.33,15.50,6.67,-3.34,38.81,-5.76,-0.21,18.20,1.50,1.44,-11.58
-89,-83,496,678,-390,3928,-1.03,0.69,16.98,6.78,-3.90,39.28,-5.77,-0.21,18.13,1.43,1.46,-10.60
-79,-78,439,449,-359,3896,-1.41,0.14,17.96,4.49,-3.59,38.96,-5.77,-0.23,18.06,1.23,1.33,-8.31
-106,-102,404,281,-333,3997,-1.92,-0.49,18.63,2.81,-3.33,39.97,-5.77,-0.24,17.99,1.65,1.69,-6.88
-30,-27,322,-93,-401,4034,-1.91,-0.61,18.73,-0.93,-4.01,40.34,-5.78,-0.21,17.91,0.36,0.41,-4.07
-35,-33,280,-221,-368,3975,-1.93,-0.75,18.56,-2.21,-3.68,39.75,-5.79,-0.19,17.84,0.44,0.50,-2.70
2,15,200,-345,-251,4115,-1.72,-0.58,17.93,-3.45,-2.51,41.15,-5.79,-0.17,17.77,-0.17,-0.30,-0.22
13,25,214,-343,-153,4034,-1.47,-0.37,17.44,-3.43,-1.53,40.34,-5.78,-0.15,17.70,-0.33,-0.45,-0.88
133,144,274,-223,-113,3959,-0.51,0.54,17.37,-2.23,-1.13,39.59,-5.77,-0.13,17.63,-2.29,-2.40,-2.94
136,120,234,-246,-121,4041,0.37,1.22,17.06,-2.46,-1.21,40.41,-5.75,-0.11,17.56,-2.28,-1.94,-1.69
178,163,80,-344,-206,4036,1.42,2.09,15.84,-3.44,-2.06,40.36,-5.74,-0.07,17.50,-2.91,-2.60,3.08
104,139,12,-301,-214,3989,1.91,2.73,14.33,-3.01,-2.14,39.89,-5.72,-0.04,17.44,-1.61,-2.14,4.83
28,131,-324,-315,-410,3906,1.89,3.26,10.92,-3.15,-4.10,39.06,-5.72,-0.01,17.40,-0.33,-1.97,14.97
5,61,-454,-216,-1022,3705,1.73,3.30,7.06,-2.16,-10.22,37.05,-5.73,0.02,17.37,0.05,-0.78,17.97
-4,-9,-545,-186,-978,3985,1.53,2.92,3.03,-1.86,-9.78,39.85,-5.74,0.03,17.36,0.19,0.38,19.58
1,1,-441,-94,-767,3932,1.39,2.63,0.04,-0.94,-7.67,39.32,-5.75,0.05,17.36,0.09,0.19,14.96
-11,-2,-107,78,-696,3942,1.18,2.36,-0.62,0.78,-6.96,39.42,-5.76,0.05,17.37,0.28,0.22,3.40
-20,10,4,81,-735,4013,0.94,2.18,-0.53,0.81,-7.35,40.13,-5.78,0.06,17.37,0.41,0.00,-0.33
2,8,386,314,-691,4025,0.86,2.01,1.87,3.14,-6.91,40.25,-5.79,0.05,17.36,0.03,0.02,-12.40
22,12,521,430,-696,4015,0.91,1.89,4.86,4.30,-6.96,40.15,-5.79,0.05,17.34,-0.30,-0.06,-15.88
-11,60,942,76,-662,3839,0.75,2.06,10.12,0.76,-6.62,38.39,-5.81,0.05,17.31,0.24,-0.86,-28.22
5,60,1051,-77,-648,3711,0.70,2.22,15.52,-0.77,-6.48,37.11,-5.82,0.07,17.24,-0.03,-0.84,-29.94
-2,-71,1364,-194,-515,3777,0.62,1.57,22.29,-1.94,-5.15,37.77,-5.83,0.10,17.16,0.08,1.32,-38.08
-10,-115,1481,-50,-497,3850,0.50,0.71,29.10,-0.50,-4.97,38.50,-5.84,0.13,17.04,0.21,2.00,-39.55
-78,-119,1579,9,-355,4055,-0.03,-0.09,35.82,0.09,-3.55,40.55,-5.83,0.13,16.90,1.32,2.01,-40.42
-141,-145,1582,-25,-442,3965,-0.88,-0.96,41.89,-0.25,-4.42,39.65,-5.85,0.15,16.73,2.32,2.38,-38.30
-65,-34,1507,51,-319,4066,-1.19,-1.07,46.89,0.51,-3.19,40.66,-5.84,0.16,16.54,1.01,0.49,-33.93
-28,-6,1465,-33,-286,3897,-1.24,-1.00,51.14,-0.33,-2.86,38.97,-5.82,0.18,16.34,0.38,0.02,-30.95
-108,-80,1284,-300,-120,3893,-1.78,-1.39,53.86,-3.00,-1.20,38.93,-5.82,0.21,16.13,1.69,1.25,-23.83
-108,-59,1217,-257,-135,3906,-2.26,-1.61,55.89,-2.57,-1.35,39.06,-5.81,0.24,15.90,1.65,0.87,-20.81
-54,-34,984,-100,-21,3930,-2.36,-1.66,56.31,-1.00,-0.21,39.30,-5.80,0.26,15.68,0.73,0.45,-12.76
32,-22,904,-57,12,3968,-1.93,-1.63,56.19,-0.57,0.12,39.68,-5.79,0.28,15.45,-0.69,0.25,-10.09
18,-3,773,35,40,3972,-1.63,-1.48,55.29,0.35,0.40,39.72,-5.78,0.29,15.23,-0.43,-0.06,-5.99
33,13,671,-14,29,3830,-1.26,-1.25,53.85,-0.14,0.29,38.30,-5.76,0.31,15.02,-0.66,-0.32,-3.05
186,2,495,-119,226,3926,-0.00,-1.12,51.49,-1.19,2.26,39.26,-5.74,0.33,14.81,-3.15,-0.12,2.05
87,-20,452,-124,222,4109,0.53,-1.13,49.09,-1.24,2.22,41.09,-5.72,0.34,14.62,-1.43,0.25,2.63
26,-11,289,-104,183,3940,0.63,-1.08,45.95,-1.04,1.83,39.40,-5.70,0.36,14.43,-0.39,0.10,7.00
3,-12,256,-120,115,4050,0.59,-1.05,42.91,-1.20,1.15,40.50,-5.68,0.38,14.26,-0.01,0.12,7.01
8,5,117,-93,-160,3979,0.58,-0.91,39.34,-0.93,-1.60,39.79,-5.66,0.39,14.10,-0.09,-0.16,10.41
-1,-5,62,-79,-278,4071,0.51,-0.85,35.78,-0.79,-2.78,40.71,-5.64,0.41,13.96,0.06,0.02,10.98
4,5,-129,-216,-343,3983,0.49,-0.74,31.42,-2.16,-3.43,39.83,-5.63,0.44,13.84,-0.03,-0.14,15.86
1,6,-166,-214,-363,3905,0.44,-0.63,27.26,-2.14,-3.63,39.05,-5.63,0.46,13.73,0.02,-0.15,15.59
5,2,-214,-168,-277,3933,0.43,-0.55,23.23,-1.68,-2.77,39.33,-5.61,0.49,13.63,-0.05,-0.08,15.74
-1,13,-222,-122,-308,3904,0.38,-0.42,19.55,-1.22,-3.08,39.04,-5.60,0.51,13.56,0.05,-0.25,14.67
-50,1,-239,-91,-298,3951,0.04,-0.37,16.14,-0.91,-2.98,39.51,-5.58,0.52,13.49,0.85,-0.05,14.00
-30,-9,-210,-178,-235,3864,-0.15,-0.39,13.25,-1.78,-2.35,38.64,-5.57,0.54,13.44,0.50,0.12,11.96
-5,-17,-57,-25,-199,4038,-0.16,-0.45,11.57,-0.25,-1.99,40.38,-5.55,0.54,13.39,0.07,0.25,6.16
-10,-12,-28,-12,-228,3831,-0.21,-0.48,10.24,-0.12,-2.28,38.31,-5.53,0.54,13.35,0.15,0.17,4.69
6,-10,108,-109,-146,3993,-0.15,-0.49,9.88,-1.09,-1.46,39.93,-5.52,0.54,13.31,-0.11,0.13,-0.05
10,-10,162,-100,-260,3888,-0.08,-0.50,9.88,-1.00,-2.60,38.88,-5.50,0.55,13.27,-0.18,0.13,-1.88
-2,-1,220,-115,-344,4004,-0.08,-0.46,10.23,-1.15,-3.44,40.04,-5.49,0.57,13.23,0.03,-0.02,-3.71
-9,-4,233,-82,-379,3950,-0.13,-0.44,10.63,-0.82,-3.79,39.50,-5.49,0.59,13.19,0.14,0.03,-4.01
-5,8,266,-166,-452,3944,-0.14,-0.35,11.19,-1.66,-4.52,39.44,-5.50,0.61,13.14,0.07,-0.16,-4.92
0,6,303,-489,-533,3849,-0.13,-0.27,11.92,-4.89,-5.33,38.49,-5.51,0.63,13.10,-0.01,-0.12,-5.91
-29,6,408,-31,-374,3810,-0.29,-0.21,13.22,-0.31,-3.74,38.10,-5.52,0.62,13.04,0.47,-0.12,-9.00
-18,13,458,82,-430,3941,-0.37,-0.11,14.69,0.82,-4.30,39.41,-5.52,0.61,12.98,0.28,-0.23,-10.15
-43,12,559,-113,-353,3941,-0.60,-0.03,16.63,-1.13,-3.53,39.41,-5.52,0.63,12.92,0.68,-0.21,-12.86
-64,8,593,-251,-365,4021,-0.93,0.03,18.58,-2.51,-3.65,40.21,-5.52,0.66,12.84,1.01,-0.13,-13.30
-150,8,691,-6,-457,3901,-1.75,0.07,20.94,-0.06,-4.57,39.01,-5.54,0.66,12.76,2.41,-0.13,-15.76
-125,19,712,-18,-468,3857,-2.34,0.18,23.19,-0.18,-4.68,38.57,-5.57,0.66,12.67,1.94,-0.31,-15.65
-31,61,778,-11,-348,3904,-2.29,0.53,25.62,-0.11,-3.48,39.04,-5.56,0.66,12.57,0.35,-0.99,-17.00
51,108,797,52,-279,3890,-1.75,1.14,27.92,0.52,-2.79,38.90,-5.56,0.66,12.46,-1.00,-1.74,-16.80
139,165,752,152,-79,3900,-0.73,2.03,29.71,1.52,-0.79,39.00,-5.54,0.67,12.34,-2.41,-2.64,-14.62
152,173,698,48,-43,3993,0.27,2.88,31.00,0.48,-0.43,39.93,-5.52,0.69,12.22,-2.55,-2.71,-12.32
90,118,596,100,-54,3936,0.79,3.32,31.53,1.00,-0.54,39.36,-5.50,0.71,12.09,-1.46,-1.74,-8.67
42,76,560,107,-19,4020,0.97,3.45,31.80,1.07,-0.19,40.20,-5.48,0.73,11.97,-0.64,-1.02,-7.35
0,51,479,27,-1,3917,0.87,3.41,31.54,0.27,-0.01,39.17,-5.46,0.75,11.84,0.07,-0.60,-4.70
5,44,462,41,-7,3853,0.82,3.34,31.20,0.41,-0.07,38.53,-5.43,0.77,11.72,-0.02,-0.49,-4.25
-14,10,401,-22,-51,3821,0.65,3.07,30.53,-0.22,-0.51,38.21,-5.41,0.79,11.60,0.29,0.07,-2.43
0,-4,384,-65,-76,3955,0.58,2.74,29.82,-0.65,-0.76,39.55,-5.39,0.82,11.48,0.05,0.28,-2.11
16,-57,320,-80,-144,4039,0.62,2.12,28.79,-0.80,-1.44,40.39,-5.37,0.84,11.37,-0.22,1.13,-0.32
-77,-114,307,-57,-209,4052,0.09,1.21,27.78,-0.57,-2.09,40.52,-5.35,0.85,11.26,1.31,2.03,-0.25
-196,-204,271,-49,-336,3979,-1.11,-0.16,26.66,-0.49,-3.36,39.79,-5.33,0.86,11.15,3.23,3.44,0.56
-219,-217,272,-61,-400,3844,-2.34,-1.46,25.65,-0.61,-4.00,38.44,-5.36,0.86,11.05,3.53,3.56,0.16
197,-47,320,-53,-444,3676,-0.90,-1.61,25.04,-0.53,-4.44,36.76,-5.38,0.86,10.95,-3.41,0.67,-1.69
218,-34,341,-49,-443,4198,0.52,-1.65,24.61,-0.49,-4.43,41.98,-5.39,0.86,10.85,-3.65,0.45,-2.56
27,-24,382,-63,-392,3993,0.63,-1.63,24.48,-0.63,-3.92,39.93,-5.41,0.87,10.75,-0.41,0.28,-4.00
5,-28,393,-84,-344,4027,0.60,-1.64,24.43,-0.84,-3.44,40.27,-5.39,0.88,10.65,-0.04,0.35,-4.39
-3,-18,361,-162,-141,3961,0.52,-1.59,24.19,-1.62,-1.41,39.61,-5.37,0.89,10.55,0.09,0.18,-3.39
-2,-21,300,-212,-8,3959,0.46,-1.56,23.60,-2.12,-0.08,39.59,-5.35,0.90,10.46,0.07,0.23,-1.54
4,-15,30,-182,-122,3982,0.43,-1.49,21.42,-1.82,-1.22,39.82,-5.33,0.91,10.37,-0.03,0.14,6.82
-2,-18,4,-56,-233,3897,0.38,-1.45,19.31,-0.56,-2.33,38.97,-5.30,0.91,10.30,0.06,0.19,6.92
-2,-2,36,69,-371,3891,0.33,-1.32,17.60,0.69,-3.71,38.91,-5.30,0.89,10.23,0.06,-0.07,5.21
0,-2,89,23,-323,3956,0.30,-1.20,16.38,0.23,-3.23,39.56,-5.29,0.88,10.16,0.02,-0.06,2.97
3,-4,169,10,-285,3899,0.28,-1.10,15.77,0.10,-2.85,38.99,-5.28,0.87,10.10,-0.03,-0.02,0.04
-9,-8,182,25,-217,4014,0.20,-1.04,15.30,0.25,-2.17,40.14,-5.26,0.86,10.03,0.17,0.05,-0.57
-3,-3,203,49,-217,4068,0.16,-0.96,15.01,0.49,-2.17,40.68,-5.24,0.85,9.97,0.06,-0.02,-1.39
-8,-6,208,39,-249,3917,0.10,-0.90,14.78,0.39,-2.49,39.17,-5.23,0.84,9.91,0.14,0.03,-1.65
-6,16,253,-29,-284,3894,0.05,-0.71,14.85,-0.29,-2.84,38.94,-5.21,0.84,9.86,0.11,-0.33,-3.15
-3,5,257,-37,-254,3949,0.03,-0.61,14.93,-0.37,-2.54,39.49,-5.19,0.84,9.80,0.05,-0.13,-3.25
-12,-3,288,-167,-250,3865,-0.05,-0.57,15.19,-1.67,-2.50,38.65,-5.18,0.85,9.73,0.20,0.01,-4.21
-4,-2,294,-100,-250,3935,-0.07,-0.52,15.47,-1.00,-2.50,39.35,-5.16,0.86,9.67,0.06,-0.01,-4.31
-7,0,341,-67,-227,3937,-0.10,-0.47,16.00,-0.67,-2.27,39.37,-5.14,0.87,9.61,0.11,-0.04,-5.71
-4,-3,369,-161,-209,3954,-0.12,-0.44,16.65,-1.61,-2.09,39.54,-5.13,0.88,9.54,0.06,0.02,-6.42
2,18,398,-236,-209,3963,-0.09,-0.29,17.41,-2.36,-2.09,39.63,-5.11,0.90,9.47,-0.04,-0.33,-7.12
6,27,397,-264,-187,4018,-0.05,-0.09,18.09,-2.64,-1.87,40.18,-5.10,0.92,9.40,-0.11,-0.46,-6.84
6,44,417,-380,-283,3914,-0.01,0.18,18.83,-3.80,-2.83,39.14,-5.10,0.95,9.32,-0.10,-0.73,-7.25
-3,47,420,-348,-336,3900,-0.02,0.45,19.51,-3.48,-3.36,39.00,-5.09,0.97,9.25,0.05,-0.76,-7.10
7,35,368,-150,-466,3900,0.02,0.62,19.80,-1.50,-4.66,39.00,-5.11,0.99,9.17,-0.12,-0.54,-5.23
-3,36,350,-188,-458,3997,0.00,0.78,19.96,-1.88,-4.58,39.97,-5.12,1.02,9.09,0.05,-0.55,-4.57
-1,35,293,-27,-475,3898,-0.01,0.91,19.75,-0.27,-4.75,38.98,-5.13,1.02,9.01,0.02,-0.52,-2.71
26,50,279,-16,-497,3937,0.15,1.13,19.48,-0.16,-4.97,39.37,-5.15,1.03,8.93,-0.43,-0.76,-2.34
52,62,263,11,-403,3891,0.46,1.39,19.13,0.11,-4.03,38.91,-5.16,1.02,8.86,-0.85,-0.94,-1.92
34,40,266,44,-364,3923,0.62,1.50,18.84,0.44,-3.64,39.23,-5.15,1.02,8.78,-0.53,-0.56,-2.13
-41,-41,245,141,-339,3899,0.31,1.10,18.45,1.41,-3.39,38.99,-5.15,1.01,8.71,0.72,0.78,-1.56
-84,-71,250,144,-378,3938,-0.24,0.55,18.13,1.44,-3.78,39.38,-5.15,1.00,8.64,1.40,1.25,-1.84
-29,-52,298,197,-307,3940,-0.39,0.18,18.14,1.97,-3.07,39.40,-5.15,0.99,8.57,0.46,0.90,-3.47
-24,-41,299,132,-322,3945,-0.50,-0.09,18.15,1.32,-3.22,39.45,-5.15,0.98,8.49,0.37,0.69,-3.50
-11,-29,349,-142,-347,3958,-0.52,-0.25,18.46,-1.42,-3.47,39.58,-5.14,1.00,8.42,0.15,0.47,-5.08
-5,-46,368,-520,-279,3890,-0.49,-0.51,18.86,-5.20,-2.79,38.90,-5.14,1.03,8.35,0.05,0.74,-5.58
-10,-50,379,-34,-212,3873,-0.51,-0.76,19.29,-0.34,-2.12,38.73,-5.13,1.03,8.27,0.13,0.79,-5.79
-7,-29,377,91,-246,3940,-0.50,-0.86,19.66,0.91,-2.46,39.40,-5.12,1.01,8.19,0.08,0.42,-5.59
-11,-8,482,239,-158,4035,-0.52,-0.83,20.63,2.39,-1.58,40.35,-5.11,1.00,8.11,0.15,0.07,-8.79
-12,3,574,66,-173,3994,-0.54,-0.73,22.07,0.66,-1.73,39.94,-5.09,1.00,8.02,0.16,-0.11,-11.38
0,35,595,-104,-319,3944,-0.48,-0.44,23.49,-1.04,-3.19,39.44,-5.08,1.02,7.92,-0.04,-0.63,-11.58
-5,34,593,-115,-329,3936,-0.47,-0.19,24.76,-1.15,-3.29,39.36,-5.07,1.04,7.83,0.05,-0.59,-11.04
5,35,563,-278,-354,3922,-0.39,0.04,25.72,-2.78,-3.54,39.22,-5.07,1.07,7.72,-0.11,-0.59,-9.68
2,40,542,-311,-395,3854,-0.34,0.28,26.45,-3.11,-3.95,38.54,-5.08,1.10,7.62,-0.06,-0.66,-8.70
0,24,464,-355,-554,3945,-0.30,0.40,26.64,-3.55,-5.54,39.45,-5.09,1.12,7.51,-0.02,-0.38,-5.99
-1,15,441,-371,-561,3987,-0.28,0.45,26.66,-3.71,-5.61,39.87,-5.10,1.15,7.41,-0.00,-0.22,-5.20
-8,11,307,-230,-615,3895,-0.30,0.47,25.87,-2.30,-6.15,38.95,-5.11,1.17,7.30,0.11,-0.15,-0.95
2,19,269,-172,-669,3863,-0.26,0.54,24.92,-1.72,-6.69,38.63,-5.13,1.19,7.20,-0.05,-0.28,-0.00
-8,3,132,-32,-590,3910,-0.28,0.51,23.24,-0.32,-5.90,39.10,-5.14,1.19,7.11,0.11,-0.01,4.02
-1,4,83,22,-513,3946,-0.26,0.48,21.42,0.22,-5.13,39.46,-5.16,1.19,7.03,-0.00,-0.03,5.02
0,21,18,60,-428,3976,-0.23,0.56,19.39,0.60,-4.28,39.76,-5.17,1.18,6.95,-0.02,-0.31,6.48
0,20,27,49,-423,4007,-0.21,0.63,17.61,0.49,-4.23,40.07,-5.17,1.18,6.88,-0.02,-0.29,5.52
30,49,40,36,-292,3980,-0.01,0.86,16.10,0.36,-2.92,39.80,-5.16,1.17,6.82,-0.51,-0.76,4.53
75,92,43,60,-295,3964,0.45,1.34,14.75,0.60,-2.95,39.64,-5.15,1.16,6.76,-1.24,-1.45,3.93
31,163,52,114,-239,4113,0.60,2.20,13.59,1.14,-2.39,41.13,-5.14,1.16,6.70,-0.48,-2.59,3.21
-20,216,65,140,-266,4123,0.41,3.30,12.63,1.40,-2.66,41.23,-5.13,1.16,6.66,0.37,-3.40,2.41
28,156,120,55,-300,3874,0.54,3.92,12.10,0.55,-3.00,38.74,-5.12,1.17,6.61,-0.43,-2.34,0.36
5,135,137,24,-371,3852,0.52,4.35,11.72,0.24,-3.71,38.52,-5.12,1.17,6.56,-0.04,-1.95,-0.36
24,-62,151,-19,-366,3640,0.61,3.54,11.47,-0.19,-3.66,36.40,-5.13,1.17,6.52,-0.36,1.33,-0.92
-9,-147,202,-169,-349,3899,0.50,2.29,11.56,-1.69,-3.49,38.99,-5.12,1.20,6.47,0.19,2.67,-2.62
-1,-302,216,-241,-240,3865,0.44,0.22,11.72,-2.41,-2.40,38.65,-5.11,1.23,6.43,0.05,5.13,-3.04
-53,-255,213,-249,-340,4333,0.07,-1.36,11.85,-2.49,-3.40,43.33,-5.11,1.24,6.38,0.90,4.21,-2.89
-19,-92,185,45,-465,4119,-0.05,-1.79,11.79,0.45,-4.65,41.19,-5.12,1.22,6.33,0.32,1.42,-1.96
-10,-87,182,6,-462,4145,-0.10,-2.14,11.72,0.06,-4.62,41.45,-5.13,1.21,6.28,0.16,1.31,-1.88
6,2,159,-225,-303,3971,-0.06,-1.91,11.52,-2.25,-3.03,39.71,-5.12,1.22,6.24,-0.11,-0.18,-1.18
5,15,157,-216,-262,3940,-0.02,-1.63,11.33,-2.16,-2.62,39.40,-5.11,1.23,6.19,-0.09,-0.38,-1.18
5,22,157,-271,-210,3914,0.01,-1.33,11.15,-2.71,-2.10,39.14,-5.10,1.25,6.15,-0.08,-0.48,-1.24
4,20,157,-241,-265,3904,0.03,-1.08,10.99,-2.41,-2.65,39.04,-5.09,1.26,6.10,-0.07,-0.42,-1.30
6,8,170,-93,-411,3949,0.07,-0.92,10.93,-0.93,-4.11,39.49,-5.10,1.26,6.06,-0.10,-0.21,-1.77
-4,1,160,-37,-397,3918,0.04,-0.82,10.81,-0.37,-3.97,39.18,-5.12,1.25,6.02,0.07,-0.08,-1.47
-1,-3,130,-109,-371,3908,0.03,-0.76,10.53,-1.09,-3.71,39.08,-5.13,1.26,5.97,0.02,-0.01,-0.56
-5,-6,120,-134,-414,3926,-0.01,-0.72,10.20,-1.34,-4.14,39.26,-5.14,1.28,5.93,0.08,0.05,-0.34
8,-113,84,-1247,-89,4192,0.04,-1.34,9.70,-12.47,-0.89,41.92,-5.13,1.29,5.89,-0.13,1.81,0.70
2,-124,106,-1198,-32,4200,0.05,-1.96,9.37,-11.98,-0.32,42.00,-5.13,1.31,5.86,-0.03,1.95,-0.17
-5,-51,96,-124,11,4174,0.02,-2.07,9.02,-1.24,0.11,41.74,-5.11,1.30,5.82,0.09,0.70,0.04
-5,-31,69,218,-53,3849,-0.02,-2.06,8.54,2.18,-0.53,38.49,-5.10,1.28,5.78,0.08,0.37,0.78
-6,-15,-68,549,-426,3889,-0.05,-1.94,7.27,5.49,-4.26,38.89,-5.10,1.26,5.75,0.10,0.10,4.96
3,-8,-111,441,-411,3894,-0.03,-1.80,5.87,4.41,-4.11,38.94,-5.10,1.24,5.73,-0.05,-0.00,5.91
20,14,-256,130,-644,3745,0.10,-1.53,3.72,1.30,-6.44,37.45,-5.11,1.22,5.72,-0.33,-0.36,10.04
11,16,-339,-146,-738,3812,0.15,-1.28,1.28,-1.46,-7.38,38.12,-5.13,1.22,5.71,-0.17,-0.37,11.96
10,-22,-363,-42,-684,3925,0.20,-1.29,-1.06,-0.42,-6.84,39.25,-5.15,1.21,5.71,-0.15,0.27,11.91
3,-49,-338,-13,-729,3967,0.20,-1.46,-3.02,-0.13,-7.29,39.67,-5.17,1.20,5.73,-0.04,0.72,10.35
4,-57,-205,53,-745,3935,0.20,-1.66,-3.97,0.53,-7.45,39.35,-5.18,1.19,5.74,-0.05,0.84,5.50
8,-38,-152,60,-654,3848,0.23,-1.73,-4.50,0.60,-6.54,38.48,-5.20,1.17,5.76,-0.12,0.51,3.51
-7,27,31,-4,-574,3873,0.17,-1.39,-3.86,-0.04,-5.74,38.73,-5.22,1.16,5.77,0.13,-0.57,-2.46
-12,26,86,-59,-436,3948,0.08,-1.09,-2.95,-0.59,-4.36,39.48,-5.23,1.15,5.79,0.21,-0.53,-3.99
2,-2,181,-9,-279,3956,0.08,-0.99,-1.55,-0.09,-2.79,39.56,-5.22,1.13,5.79,-0.03,-0.04,-6.70
-2,-2,191,-20,-231,3900,0.06,-0.91,-0.23,-0.20,-2.31,39.00,-5.20,1.12,5.79,0.04,-0.04,-6.56
-18,34,159,59,-138,3794,-0.06,-0.61,0.76,0.59,-1.38,37.94,-5.19,1.11,5.79,0.30,-0.62,-5.11
-11,58,122,86,-150,3969,-0.12,-0.19,1.43,0.86,-1.50,39.69,-5.17,1.10,5.78,0.18,-1.00,-3.61
3,32,61,-41,-277,3905,-0.09,0.02,1.66,-0.41,-2.77,39.05,-5.16,1.09,5.78,-0.06,-0.54,-1.46
4,27,56,-53,-288,4003,-0.05,0.18,1.84,-0.53,-2.88,40.03,-5.14,1.09,5.77,-0.07,-0.44,-1.23
7,24,-23,-107,-382,3942,-0.01,0.31,1.51,-1.07,-3.82,39.42,-5.15,1.10,5.76,-0.12,-0.38,1.33
2,21,-52,-144,-448,3920,0.01,0.41,1.04,-1.44,-4.48,39.20,-5.17,1.11,5.76,-0.03,-0.32,2.14
4,6,-150,-25,-510,3949,0.03,0.40,0.02,-0.25,-5.10,39.49,-5.18,1.11,5.76,-0.07,-0.07,5.09
4,1,-175,-100,-585,3929,0.05,0.37,-1.05,-1.00,-5.85,39.29,-5.20,1.11,5.76,-0.06,0.01,5.55
6,3,-260,-64,-491,3913,0.08,0.35,-2.53,-0.64,-4.91,39.13,-5.22,1.11,5.77,-0.10,-0.02,7.89
4,3,-284,-50,-463,3947,0.10,0.33,-4.01,-0.50,-4.63,39.47,-5.24,1.11,5.79,-0.06,-0.02,8.16
-10,0,-366,-41,-396,3948,0.03,0.30,-5.84,-0.41,-3.96,39.48,-5.25,1.09,5.81,0.17,0.02,10.27
-46,2,-386,-63,-268,3957,-0.26,0.28,-7.61,-0.63,-2.68,39.57,-5.23,1.09,5.84,0.76,-0.01,10.30
-34,-4,-260,48,-119,4037,-0.44,0.23,-8.43,0.48,-1.19,40.37,-5.22,1.08,5.88,0.54,0.09,5.73
-61,-6,-234,19,-165,4054,-0.77,0.17,-9.02,0.19,-1.65,40.54,-5.21,1.07,5.91,0.97,0.11,4.63
-78,2,-171,2,-220,3909,-1.16,0.17,-9.16,0.02,-2.20,39.09,-5.20,1.06,5.95,1.23,-0.02,2.45
-64,-3,-155,12,-192,3898,-1.44,0.13,-9.19,0.12,-1.92,38.98,-5.19,1.05,5.99,0.97,0.06,1.89
-27,0,-112,2,-314,3947,-1.46,0.12,-8.95,0.02,-3.14,39.47,-5.18,1.03,6.02,0.34,0.01,0.52
-22,-1,-100,4,-326,3929,-1.45,0.10,-8.67,0.04,-3.26,39.29,-5.18,1.01,6.06,0.26,0.02,0.22
-11,-1,-72,26,-361,3947,-1.37,0.08,-8.24,0.26,-3.61,39.47,-5.19,0.99,6.09,0.08,0.02,-0.57
-10,-5,-55,-152,-350,3925,-1.29,0.04,-7.75,-1.52,-3.50,39.25,-5.19,1.00,6.12,0.07,0.09,-0.97
2,1,-28,39,-459,3927,-1.15,0.05,-7.15,0.39,-4.59,39.27,-5.21,0.99,6.15,-0.12,-0.01,-1.66
-11,0,-56,187,-425,4011,-1.10,0.04,-6.77,1.87,-4.25,40.11,-5.22,0.97,6.18,0.10,0.00,-0.58
-25,4,-94,111,-330,3865,-1.15,0.06,-6.67,1.11,-3.30,38.65,-5.22,0.95,6.20,0.33,-0.06,0.75
-19,0,-81,60,-300,3915,-1.15,0.06,-6.50,0.60,-3.00,39.15,-5.22,0.93,6.23,0.23,0.00,0.37
-5,27,-60,124,-365,3861,-1.06,0.22,-6.21,1.24,-3.65,38.61,-5.23,0.91,6.25,0.00,-0.44,-0.24
30,37,-81,120,-378,3814,-0.77,0.42,-6.09,1.20,-3.78,38.14,-5.23,0.89,6.28,-0.57,-0.59,0.52
239,34,-119,35,-330,3769,0.76,0.58,-6.20,0.35,-3.30,37.69,-5.23,0.87,6.30,-3.99,-0.53,1.76
178,43,-67,20,-384,4086,1.77,0.79,-5.99,0.20,-3.84,40.86,-5.22,0.85,6.33,-2.88,-0.67,0.08
24,-14,-19,278,-371,3912,1.74,0.62,-5.51,2.78,-3.71,39.12,-5.22,0.84,6.35,-0.27,0.29,-1.37
12,-28,1,176,-397,3992,1.64,0.39,-4.95,1.76,-3.97,39.92,-5.21,0.82,6.37,-0.08,0.50,-1.84
5,-34,180,-24,-180,3968,1.51,0.14,-3.36,-0.24,-1.80,39.68,-5.19,0.81,6.38,0.03,0.59,-7.33
-16,-41,285,-23,-83,3906,1.26,-0.12,-1.28,-0.23,-0.83,39.06,-5.17,0.81,6.39,0.37,0.69,-10.13
-10,-35,392,-338,-81,4010,1.07,-0.32,1.24,-3.38,-0.81,40.10,-5.15,0.82,6.38,0.25,0.57,-12.83
-8,-44,417,-289,-134,4003,0.92,-0.56,3.66,-2.89,-1.34,40.03,-5.13,0.83,6.37,0.21,0.70,-12.80
-9,-6,458,-136,-377,3991,0.77,-0.54,6.08,-1.36,-3.77,39.91,-5.13,0.85,6.34,0.21,0.06,-13.30
-19,10,456,-117,-459,3990,0.58,-0.42,8.26,-1.17,-4.59,39.90,-5.15,0.86,6.31,0.37,-0.20,-12.43
4,22,361,-83,-450,4000,0.54,-0.25,9.63,-0.83,-4.50,40.00,-5.16,0.87,6.27,-0.03,-0.39,-8.71
4,16,327,-138,-424,3927,0.51,-0.12,10.66,-1.38,-4.24,39.27,-5.17,0.89,6.23,-0.03,-0.28,-7.18
-2,20,200,-197,-464,3854,0.45,0.01,10.82,-1.97,-4.64,38.54,-5.18,0.90,6.19,0.07,-0.34,-2.82
-4,15,179,-146,-470,3955,0.38,0.10,10.83,-1.46,-4.70,39.55,-5.19,0.92,6.14,0.10,-0.25,-2.11
5,17,85,-177,-497,3922,0.37,0.19,10.26,-1.77,-4.97,39.22,-5.20,0.94,6.10,-0.06,-0.27,0.87
1,11,43,-161,-508,3895,0.34,0.24,9.50,-1.61,-5.08,38.95,-5.22,0.95,6.06,0.01,-0.17,2.02
1,-3,1,-53,-379,3923,0.31,0.20,8.56,-0.53,-3.79,39.23,-5.23,0.94,6.03,0.01,0.07,3.09
3,-5,-4,-42,-382,3920,0.30,0.15,7.68,-0.42,-3.82,39.20,-5.24,0.94,6.00,-0.03,0.10,2.94
2,-4,-8,104,-372,3923,0.28,0.11,6.86,1.04,-3.72,39.23,-5.24,0.92,5.97,-0.01,0.08,2.78
3,-1,6,64,-339,3922,0.27,0.09,6.21,0.64,-3.39,39.22,-5.24,0.90,5.95,-0.03,0.02,2.07
-3,-4,40,22,-252,3900,0.23,0.06,5.83,0.22,-2.52,39.00,-5.22,0.90,5.92,0.07,0.07,0.78
-1,-3,53,-15,-227,3936,0.20,0.03,5.57,-0.15,-2.27,39.36,-5.20,0.89,5.90,0.03,0.05,0.24
-3,-3,105,-41,-224,3999,0.16,0.01,5.66,-0.41,-2.24,39.99,-5.18,0.89,5.88,0.06,0.05,-1.49
-4,-5,123,-52,-244,3909,0.12,-0.02,5.84,-0.52,-2.44,39.09,-5.17,0.89,5.86,0.08,0.08,-2.03
-5,10,164,-35,-355,3945,0.08,0.04,6.26,-0.35,-3.55,39.45,-5.16,0.88,5.83,0.09,-0.17,-3.27
-3,9,167,-71,-360,3937,0.05,0.09,6.65,-0.71,-3.60,39.37,-5.17,0.90,5.80,0.05,-0.15,-3.23
2,-1,190,-54,-222,3884,0.06,0.08,7.14,-0.54,-2.22,38.84,-5.15,0.90,5.78,-0.03,0.02,-3.83
2,6,213,-20,-227,3909,0.06,0.11,7.73,-0.20,-2.27,39.09,-5.13,0.89,5.75,-0.03,-0.09,-4.39
-2,6,275,-21,-170,3919,0.05,0.13,8.63,-0.21,-1.70,39.19,-5.11,0.89,5.71,0.04,-0.09,-6.16
4,11,290,-123,-110,3921,0.07,0.19,9.54,-1.23,-1.10,39.21,-5.10,0.90,5.67,-0.06,-0.17,-6.34
3,15,336,-40,-303,3980,0.08,0.26,10.64,-0.40,-3.03,39.80,-5.08,0.90,5.63,-0.04,-0.23,-7.50
-8,13,342,-79,-312,3964,0.02,0.31,11.66,-0.79,-3.12,39.64,-5.06,0.91,5.58,0.14,-0.20,-7.33
-11,6,350,-149,-381,3882,-0.05,0.32,12.63,-1.49,-3.81,38.82,-5.07,0.94,5.53,0.18,-0.08,-7.25
1,11,352,-149,-381,3921,-0.04,0.35,13.51,-1.49,-3.81,39.21,-5.07,0.96,5.48,-0.02,-0.16,-6.99
-4,13,361,-118,-410,3945,-0.06,0.40,14.36,-1.18,-4.10,39.45,-5.09,0.98,5.42,0.06,-0.19,-6.98
-4,16,350,-215,-400,3943,-0.08,0.46,15.06,-2.15,-4.00,39.43,-5.09,1.00,5.36,0.06,-0.24,-6.36
-2,17,322,-292,-406,3913,-0.08,0.51,15.52,-2.92,-4.06,39.13,-5.09,1.03,5.30,0.03,-0.25,-5.24
-7,12,315,-269,-363,3957,-0.12,0.54,15.89,-2.69,-3.63,39.57,-5.10,1.05,5.24,0.11,-0.16,-4.87
3,14,302,-261,-318,3889,-0.09,0.57,16.14,-2.61,-3.18,38.89,-5.09,1.08,5.17,-0.06,-0.19,-4.33
1,15,295,-234,-361,3918,-0.07,0.60,16.33,-2.34,-3.61,39.18,-5.09,1.11,5.11,-0.02,-0.21,-4.03
-6,12,250,-167,-467,3966,-0.10,0.62,16.22,-1.67,-4.67,39.66,-5.11,1.13,5.04,0.09,-0.16,-2.54
-9,1,236,-166,-495,3903,-0.15,0.56,16.04,-1.66,-4.95,39.03,-5.12,1.14,4.98,0.14,0.03,-2.14
2,2,174,-104,-507,3965,-0.12,0.52,15.49,-1.04,-5.07,39.65,-5.14,1.15,4.92,-0.04,0.01,-0.23
1,11,159,-78,-487,3936,-0.10,0.53,14.92,-0.78,-4.87,39.36,-5.15,1.16,4.86,-0.02,-0.15,0.06
6,6,108,-132,-429,3984,-0.05,0.51,14.08,-1.32,-4.29,39.84,-5.17,1.18,4.81,-0.11,-0.06,1.49
-1,3,93,-86,-392,3898,-0.05,0.48,13.24,-0.86,-3.92,38.98,-5.19,1.19,4.75,0.01,-0.01,1.69
-2,-4,107,-34,-423,3921,-0.06,0.41,12.57,-0.34,-4.23,39.21,-5.20,1.18,4.70,0.03,0.10,0.97
3,4,101,13,-392,3921,-0.04,0.39,11.93,0.13,-3.92,39.21,-5.21,1.17,4.66,-0.05,-0.04,0.94
-5,-3,102,13,-213,3921,-0.06,0.34,11.36,0.13,-2.13,39.21,-5.19,1.17,4.61,0.08,0.08,0.70
-3,2,123,-31,-176,3901,-0.08,0.31,10.97,-0.31,-1.76,39.01,-5.17,1.17,4.57,0.04,-0.01,-0.16
-8,2,275,-114,-38,3913,-0.12,0.29,11.55,-1.14,-0.38,39.13,-5.15,1.18,4.52,0.13,-0.01,-5.10
-15,-1,323,-106,-92,3928,-0.20,0.26,12.37,-1.06,-0.92,39.28,-5.13,1.18,4.47,0.24,0.04,-6.42
-15,8,434,0,-179,3983,-0.27,0.28,13.78,0.00,-1.79,39.83,-5.12,1.18,4.42,0.23,-0.11,-9.67
0,10,440,43,-147,3973,-0.24,0.31,15.08,0.43,-1.47,39.73,-5.10,1.18,4.36,-0.02,-0.14,-9.40
-9,38,461,23,-344,3970,-0.27,0.52,16.39,0.23,-3.44,39.70,-5.10,1.17,4.29,0.13,-0.60,-9.63
-3,37,469,-159,-303,3975,-0.26,0.69,17.61,-1.59,-3.03,39.75,-5.09,1.19,4.22,0.03,-0.57,-9.46
-1,33,549,-197,-321,3942,-0.24,0.82,19.20,-1.97,-3.21,39.42,-5.08,1.22,4.14,-0.00,-0.50,-11.59
-3,47,559,-135,-355,3941,-0.24,1.03,20.69,-1.35,-3.55,39.41,-5.08,1.25,4.06,0.03,-0.72,-11.38
-5,28,532,-32,-471,3943,-0.24,1.09,21.86,-0.32,-4.71,39.43,-5.10,1.25,3.98,0.07,-0.39,-10.04
-10,35,516,-6,-552,3911,-0.28,1.20,22.83,-0.06,-5.52,39.11,-5.12,1.26,3.89,0.15,-0.50,-9.14
67,101,452,58,-556,3950,0.16,1.69,23.30,0.58,-5.56,39.50,-5.13,1.26,3.79,-1.12,-1.58,-6.80
84,128,427,60,-566,3989,0.65,2.31,23.58,0.60,-5.66,39.89,-5.14,1.27,3.70,-1.37,-1.99,-5.85
-172,45,332,71,-503,4019,-0.46,2.35,23.24,0.71,-5.03,40.19,-5.15,1.28,3.61,2.88,-0.58,-2.75
-84,64,314,-39,-405,3785,-0.93,2.51,22.83,-0.39,-4.05,37.85,-5.17,1.28,3.52,1.35,-0.89,-2.29
46,72,303,-195,-199,3895,-0.55,2.69,22.40,-1.95,-1.99,38.95,-5.15,1.31,3.43,-0.82,-1.01,-2.08
47,58,279,-147,-161,3863,-0.21,2.78,21.86,-1.47,-1.61,38.63,-5.13,1.34,3.34,-0.81,-0.77,-1.46
-2,21,195,-60,-108,3888,-0.20,2.63,20.86,-0.60,-1.08,38.88,-5.11,1.35,3.26,0.02,-0.15,1.02
46,53,166,-57,-98,3954,0.10,2.69,19.79,-0.57,-0.98,39.54,-5.09,1.37,3.18,-0.77,-0.69,1.61
100,99,88,50,-130,3890,0.70,3.02,18.35,0.50,-1.30,38.90,-5.07,1.38,3.11,-1.64,-1.44,3.73
49,73,95,55,-147,4091,0.93,3.17,17.09,0.55,-1.47,40.91,-5.05,1.38,3.04,-0.76,-0.99,3.03
27,51,190,47,-233,3992,1.00,3.16,16.54,0.47,-2.33,39.92,-5.04,1.39,2.98,-0.38,-0.62,-0.39
21,53,208,57,-308,4071,1.03,3.17,16.16,0.57,-3.08,40.71,-5.03,1.39,2.92,-0.28,-0.65,-1.14
111,88,164,107,-493,4015,1.60,3.39,15.54,1.07,-4.93,40.15,-5.03,1.39,2.85,-1.76,-1.23,0.12
65,82,144,87,-483,3851,1.84,3.55,14.87,0.87,-4.83,38.51,-5.03,1.40,2.80,-0.96,-1.11,0.55
-18,83,94,-90,-433,3720,1.54,3.70,13.95,-0.90,-4.33,37.20,-5.04,1.42,2.74,0.43,-1.12,1.91
1,47,140,-197,-509,3866,1.40,3.62,13.41,-1.97,-5.09,38.66,-5.05,1.45,2.69,0.09,-0.52,0.16
11,-14,30,-144,-468,3866,1.32,3.17,12.25,-1.44,-4.68,38.66,-5.06,1.47,2.64,-0.08,0.48,3.46
16,-23,-20,-54,-391,3821,1.29,2.71,10.91,-0.54,-3.91,38.21,-5.07,1.47,2.60,-0.17,0.60,4.66
12,-33,-205,10,-355,3921,1.23,2.24,8.56,0.10,-3.55,39.21,-5.06,1.47,2.57,-0.11,0.73,10.08
7,-37,-249,-14,-345,4048,1.15,1.79,6.19,-0.14,-3.45,40.48,-5.06,1.46,2.54,-0.03,0.77,10.70
0,-29,-337,-203,-268,3893,1.04,1.43,3.51,-2.03,-2.68,38.93,-5.04,1.48,2.53,0.08,0.60,12.71
3,-31,-347,-262,-220,3872,0.95,1.10,1.05,-2.62,-2.20,38.72,-5.03,1.50,2.53,0.02,0.61,12.14
10,-81,-395,-333,-276,3833,0.92,0.50,-1.47,-3.33,-2.76,38.33,-5.02,1.52,2.53,-0.10,1.41,12.85
16,-103,-415,-353,-268,3846,0.92,-0.18,-3.85,-3.53,-2.68,38.46,-5.01,1.53,2.55,-0.20,1.73,12.66
-99,-58,-541,-76,-318,4295,0.23,-0.52,-6.77,-0.76,-3.18,42.95,-4.99,1.52,2.57,1.70,0.94,15.86
-41,-14,-606,46,-270,3984,-0.05,-0.55,-9.79,0.46,-2.70,39.84,-4.99,1.50,2.61,0.69,0.19,16.96
-6,27,-613,15,-427,3923,-0.08,-0.33,-12.55,0.15,-4.27,39.23,-5.00,1.48,2.66,0.10,-0.48,16.19
5,24,-617,34,-464,4032,-0.04,-0.15,-15.06,0.34,-4.64,40.32,-5.01,1.46,2.72,-0.09,-0.42,15.41
-10,27,-626,-99,-553,3896,-0.10,0.03,-17.37,-0.99,-5.53,38.96,-5.03,1.45,2.79,0.16,-0.46,14.86
-6,26,-616,-140,-608,3860,-0.12,0.18,-19.39,-1.40,-6.08,38.60,-5.05,1.45,2.87,0.09,-0.43,13.79
2,-9,-508,-220,-819,3901,-0.10,0.11,-20.55,-2.20,-8.19,39.01,-5.07,1.44,2.95,-0.04,0.16,9.70
1,-25,-460,-266,-830,3843,-0.08,-0.05,-21.30,-2.66,-8.30,38.43,-5.09,1.44,3.04,-0.02,0.42,7.80
-5,-55,-177,-368,-658,3928,-0.11,-0.38,-20.25,-3.68,-6.58,39.28,-5.11,1.45,3.12,0.08,0.90,-1.40
-15,-53,-84,-186,-631,4055,-0.19,-0.67,-18.74,-1.86,-6.31,40.55,-5.13,1.44,3.19,0.24,0.85,-4.00
2,-6,32,-220,-455,3931,-0.16,-0.64,-16.67,-2.20,-4.55,39.31,-5.14,1.45,3.26,-0.05,0.05,-7.18
8,3,6,-238,-337,3966,-0.09,-0.56,-14.97,-2.38,-3.37,39.66,-5.14,1.46,3.32,-0.14,-0.09,-5.67
0,-2,93,-75,-339,3965,-0.08,-0.51,-12.90,-0.75,-3.39,39.65,-5.13,1.44,3.37,-0.01,-0.01,-7.87
1,0,119,-90,-369,3891,-0.07,-0.46,-10.89,-0.90,-3.69,38.91,-5.15,1.42,3.41,-0.02,-0.04,-8.01
-1,-2,184,-149,-437,3939,-0.07,-0.43,-8.67,-1.49,-4.37,39.39,-5.17,1.43,3.45,0.01,0.00,-9.41
-5,-3,193,-146,-473,3905,-0.09,-0.40,-6.63,-1.46,-4.73,39.05,-5.19,1.43,3.48,0.08,0.02,-8.96
-26,-23,184,-81,-527,3939,-0.24,-0.50,-4.84,-0.81,-5.27,39.39,-5.21,1.42,3.50,0.42,0.35,-8.01
-65,-66,181,-104,-520,3962,-0.61,-0.85,-3.26,-1.04,-5.20,39.62,-5.23,1.42,3.51,1.05,1.05,-7.32
-136,-144,228,-127,-329,3919,-1.38,-1.65,-1.54,-1.27,-3.29,39.19,-5.22,1.43,3.51,2.20,2.31,-8.29
-141,-157,245,-70,-409,3869,-2.10,-2.44,0.11,-0.70,-4.09,38.69,-5.25,1.41,3.51,2.23,2.47,-8.26
-143,-168,291,-115,-350,3889,-2.77,-3.22,1.87,-1.15,-3.50,38.89,-5.25,1.41,3.50,2.21,2.60,-9.18
15,-86,333,-48,-310,3787,-2.40,-3.42,3.72,-0.48,-3.10,37.87,-5.25,1.39,3.49,-0.44,1.19,-9.93
84,-10,406,42,-340,4014,-1.64,-3.14,5.82,0.42,-3.40,40.14,-5.25,1.36,3.46,-1.55,-0.07,-11.63
73,-10,412,52,-331,4113,-1.04,-2.89,7.75,0.52,-3.31,41.13,-5.25,1.33,3.43,-1.32,-0.06,-11.13
-32,-3,439,53,-319,4076,-1.13,-2.62,9.66,0.53,-3.19,40.76,-5.25,1.31,3.39,0.45,-0.15,-11.35
-52,12,453,83,-318,3905,-1.33,-2.28,11.45,0.83,-3.18,39.05,-5.25,1.29,3.35,0.78,-0.38,-11.16
-115,14,487,33,-395,4076,-1.90,-1.97,13.28,0.33,-3.95,40.76,-5.25,1.27,3.29,1.80,-0.39,-11.65
-162,-29,502,19,-409,4000,-2.70,-1.95,15.01,0.19,-4.09,40.00,-5.27,1.25,3.23,2.54,0.34,-11.52
-85,3,504,-7,-306,3829,-2.95,-1.74,16.59,-0.07,-3.06,38.29,-5.27,1.23,3.16,1.21,-0.19,-11.02
-52,3,515,0,-273,3842,-2.97,-1.54,18.07,0.00,-2.73,38.42,-5.27,1.22,3.09,0.65,-0.17,-10.85
24,3,525,33,-158,3833,-2.53,-1.37,19.46,0.33,-1.58,38.33,-5.26,1.21,3.01,-0.60,-0.16,-10.68
88,2,520,2,-153,3869,-1.74,-1.22,20.69,0.02,-1.53,38.69,-5.25,1.21,2.93,-1.63,-0.13,-10.06
187,6,487,7,-106,3961,-0.42,-1.06,21.59,0.07,-1.06,39.61,-5.23,1.20,2.84,-3.20,-0.18,-8.61
98,5,471,37,-48,4128,0.22,-0.93,22.31,0.37,-0.48,41.28,-5.21,1.20,2.75,-1.64,-0.16,-7.81
19,19,380,89,-30,4022,0.31,-0.72,22.39,0.89,-0.30,40.22,-5.19,1.20,2.66,-0.30,-0.38,-4.69
3,15,367,36,-46,4008,0.30,-0.55,22.39,0.36,-0.46,40.08,-5.17,1.20,2.57,-0.03,-0.30,-4.25
-54,35,312,52,-145,4017,-0.06,-0.29,22.06,0.52,-1.45,40.17,-5.16,1.19,2.49,0.91,-0.62,-2.51
-132,13,285,56,-189,4099,-0.86,-0.18,21.59,0.56,-1.89,40.99,-5.14,1.19,2.40,2.17,-0.23,-1.77
-46,47,229,-147,-363,3788,-1.05,0.13,20.83,-1.47,-3.63,37.88,-5.15,1.22,2.32,0.70,-0.79,-0.15
2,61,230,-184,-350,3794,-0.94,0.49,20.15,-1.84,-3.50,37.94,-5.15,1.24,2.24,-0.11,-1.00,-0.43
-42,-35,158,-194,-293,3866,-1.10,0.22,19.10,-1.94,-2.93,38.66,-5.15,1.27,2.16,0.63,0.61,1.63
2,-45,123,-146,-376,3822,-0.98,-0.07,17.94,-1.46,-3.76,38.22,-5.16,1.29,2.09,-0.11,0.76,2.39
153,-20,155,-94,-527,4073,0.05,-0.19,17.09,-0.94,-5.27,40.73,-5.18,1.29,2.02,-2.59,0.32,0.99
91,-29,163,-29,-505,4138,0.60,-0.35,16.37,-0.29,-5.05,41.38,-5.19,1.29,1.96,-1.49,0.46,0.46
1,-33,172,-32,-487,4063,0.55,-0.51,15.79,-0.32,-4.87,40.63,-5.20,1.29,1.89,0.03,0.52,-0.06
10,-23,181,-73,-495,3952,0.56,-0.60,15.31,-0.73,-4.95,39.52,-5.22,1.29,1.83,-0.13,0.34,-0.54
-10,-35,229,-64,-372,3970,0.44,-0.75,15.18,-0.64,-3.72,39.70,-5.22,1.27,1.77,0.20,0.53,-2.21
3,-21,237,-128,-287,3938,0.41,-0.81,15.11,-1.28,-2.87,39.38,-5.20,1.28,1.71,-0.02,0.29,-2.51
-13,-16,234,-58,-315,3989,0.29,-0.82,15.02,-0.58,-3.15,39.89,-5.18,1.28,1.65,0.24,0.21,-2.44
1,-26,241,-112,-197,3944,0.27,-0.90,14.99,-1.12,-1.97,39.44,-5.16,1.28,1.59,0.00,0.37,-2.69
-2,2,263,-61,-279,3936,0.23,-0.80,15.10,-0.61,-2.79,39.36,-5.14,1.28,1.53,0.05,-0.10,-3.39
-7,-35,273,-90,-336,3977,0.16,-0.93,15.25,-0.90,-3.36,39.77,-5.12,1.28,1.47,0.13,0.52,-3.68
-2,-35,310,30,-343,3821,0.14,-1.05,15.62,0.30,-3.43,38.21,-5.12,1.26,1.41,0.04,0.51,-4.80
-15,-27,327,24,-331,4016,0.03,-1.11,16.05,0.24,-3.31,40.16,-5.11,1.25,1.34,0.26,0.37,-5.21
-26,-23,383,-54,-287,4012,-0.13,-1.14,16.78,-0.54,-2.87,40.12,-5.10,1.24,1.27,0.43,0.30,-6.84
-1,-8,401,-57,-248,3939,-0.12,-1.08,17.55,-0.57,-2.48,39.39,-5.08,1.24,1.20,0.01,0.05,-7.17
-13,-2,541,-50,0,3954,-0.19,-0.98,19.09,-0.50,0.00,39.54,-5.06,1.24,1.13,0.21,-0.04,-11.35
-20,-12,583,-45,7,3982,-0.29,-0.96,20.74,-0.45,0.07,39.82,-5.04,1.24,1.04,0.32,0.13,-12.18
-2,10,706,-70,-163,3886,-0.28,-0.80,22.97,-0.70,-1.63,38.86,-5.02,1.24,0.95,0.01,-0.23,-15.53
7,35,735,-170,-281,3849,-0.21,-0.51,25.16,-1.70,-2.81,38.49,-5.01,1.26,0.85,-0.13,-0.63,-15.71
-4,17,859,-212,-642,4007,-0.21,-0.35,27.88,-2.12,-6.42,40.07,-5.03,1.28,0.74,0.05,-0.32,-18.92
-11,27,914,-211,-870,3911,-0.26,-0.15,30.67,-2.11,-8.70,39.11,-5.04,1.29,0.62,0.17,-0.47,-19.76
-10,28,828,-185,-733,3869,-0.29,0.03,32.65,-1.85,-7.33,38.69,-5.06,1.31,0.49,0.15,-0.47,-16.12
-3,25,803,-94,-859,3925,-0.28,0.18,34.29,-0.94,-8.59,39.25,-5.07,1.32,0.35,0.03,-0.41,-14.68
-12,25,773,67,-943,3971,-0.33,0.32,35.57,0.67,-9.43,39.71,-5.09,1.33,0.21,0.18,-0.40,-13.19
-13,27,784,81,-925,3866,-0.37,0.45,36.80,0.81,-9.25,38.66,-5.10,1.34,0.06,0.19,-0.42,-13.12
-23,30,885,24,-825,3860,-0.48,0.59,38.52,0.24,-8.25,38.60,-5.12,1.35,-0.09,0.35,-0.46,-15.91
-15,36,931,28,-719,3912,-0.52,0.75,40.34,0.28,-7.19,39.12,-5.14,1.37,-0.25,0.21,-0.55,-16.80
-19,30,1166,73,-655,3908,-0.58,0.86,43.42,0.73,-6.55,39.08,-5.15,1.38,-0.42,0.28,-0.44,-23.64
-14,21,1236,67,-616,3907,-0.61,0.90,46.62,0.67,-6.16,39.07,-5.16,1.39,-0.61,0.19,-0.29,-24.84
-27,19,1425,169,-601,3986,-0.71,0.93,50.65,1.69,-6.01,39.86,-5.17,1.39,-0.81,0.40,-0.25,-29.78
-40,18,1501,89,-578,3955,-0.89,0.94,54.74,0.89,-5.78,39.55,-5.19,1.41,-1.03,0.61,-0.23,-30.86
-28,0,1593,93,-519,3942,-0.97,0.85,58.98,0.93,-5.19,39.42,-5.20,1.42,-1.26,0.40,0.07,-32.42
-26,18,1605,84,-529,3882,-1.03,0.87,62.88,0.84,-5.29,38.82,-5.21,1.43,-1.51,0.36,-0.24,-31.41
-17,4,1618,102,-478,3966,-1.03,0.81,66.46,1.02,-4.78,39.66,-5.21,1.44,-1.77,0.21,-0.00,-30.54
-24,18,1627,132,-479,3900,-1.07,0.84,69.74,1.32,-4.79,39.00,-5.22,1.45,-2.05,0.32,-0.24,-29.64
-13,22,1702,-41,-464,3833,-1.05,0.89,73.15,-0.41,-4.64,38.33,-5.23,1.48,-2.34,0.14,-0.30,-30.94
-19,29,1743,-49,-383,3975,-1.06,0.98,76.46,-0.49,-3.83,39.75,-5.24,1.49,-2.65,0.24,-0.42,-31.12
-16,28,1844,-37,-331,3962,-1.05,1.05,80.07,-0.37,-3.31,39.62,-5.22,1.51,-2.97,0.19,-0.39,-33.22
-8,38,1876,-129,-271,3921,-0.99,1.18,83.50,-1.29,-2.71,39.21,-5.20,1.55,-3.30,0.06,-0.55,-33.05
-26,59,1896,-197,-242,3873,-1.05,1.42,86.72,-1.97,-2.42,38.73,-5.18,1.60,-3.64,0.36,-0.89,-32.55
-22,85,1887,-247,-188,3923,-1.08,1.80,89.56,-2.47,-1.88,39.23,-5.16,1.65,-4.00,0.29,-1.30,-31.21
-24,47,1770,-213,-246,3964,-1.12,1.90,91.40,-2.13,-2.46,39.64,-5.14,1.70,-4.36,0.32,-0.65,-26.57
-18,43,1720,-249,-209,3975,-1.12,1.98,92.75,-2.49,-2.09,39.75,-5.12,1.75,-4.73,0.22,-0.57,-24.38
-10,47,1526,-231,-241,3989,-1.07,2.06,92.78,-2.31,-2.41,39.89,-5.10,1.81,-5.10,0.09,-0.64,-17.80
-32,49,1469,-229,-293,3866,-1.16,2.16,92.47,-2.29,-2.93,38.66,-5.09,1.87,-5.47,0.45,-0.66,-15.98
92,110,1253,-121,-135,4015,-0.48,2.61,90.86,-1.21,-1.35,40.15,-5.06,1.91,-5.83,-1.60,-1.66,-9.25
55,109,1198,-125,-153,3940,-0.10,3.02,89.08,-1.25,-1.53,39.40,-5.03,1.95,-6.19,-0.94,-1.61,-8.03
