gyroADC_X,gyroADC_Y,gyroADC_Z,accADC_X,accADC_Y,accADC_Z,GyroX,GyroY,GyroZ,AccX,AccY,AccZ,roll_IMU,pitch_IMU,yaw_IMU,roll_PID,pitch_PID,yaw_PID
0,-2,0,-7,-307,3909,-0.06,-0.12,-0.06,-0.07,-3.07,39.09,-3.77,-0.65,110.67,2.50,0.50,-9.95
0,0,-1,-14,-314,3907,-0.05,-0.10,-0.06,-0.14,-3.14,39.07,-3.78,-0.64,110.67,2.51,0.45,-9.94
-2,1,2,-4,-322,3927,-0.06,-0.09,-0.04,-0.04,-3.22,39.27,-3.79,-0.62,110.67,2.56,0.42,-9.97
-2,1,4,-12,-316,3920,-0.06,-0.07,-0.01,-0.12,-3.16,39.20,-3.81,-0.61,110.67,2.57,0.40,-9.99
0,2,8,-25,-311,3900,-0.06,-0.05,0.04,-0.25,-3.11,39.00,-3.82,-0.60,110.66,2.54,0.37,-10.03
2,2,9,26,-276,3926,-0.04,-0.04,0.09,0.26,-2.76,39.26,-3.83,-0.58,110.66,2.50,0.35,-10.05
1,3,8,14,-287,3898,-0.03,-0.01,0.13,0.14,-2.87,38.98,-3.84,-0.57,110.66,2.52,0.32,-10.05
1,0,5,17,-298,3879,-0.02,-0.01,0.15,0.17,-2.98,38.79,-3.86,-0.56,110.66,2.53,0.37,-10.03
2,0,-1,-11,-313,3919,-0.01,-0.01,0.13,-0.11,-3.13,39.19,-3.87,-0.55,110.66,2.52,0.37,-9.98
2,1,-1,-8,-312,3906,0.01,-0.00,0.11,-0.08,-3.12,39.06,-3.89,-0.54,110.66,2.52,0.33,-9.97
1,0,-1,-13,-320,3918,0.01,-0.00,0.09,-0.13,-3.20,39.18,-3.90,-0.52,110.66,2.55,0.35,-9.97
-3,-4,-1,-16,-311,3911,-0.01,-0.03,0.07,-0.16,-3.11,39.11,-3.91,-0.51,110.66,2.64,0.43,-9.97
-2,-4,-1,-11,-315,3914,-0.02,-0.05,0.06,-0.11,-3.15,39.14,-3.92,-0.50,110.66,2.64,0.42,-9.96
-1,-5,5,-18,-328,3913,-0.02,-0.07,0.09,-0.18,-3.28,39.13,-3.94,-0.49,110.66,2.63,0.44,-10.02
-1,-5,7,-4,-303,3924,-0.03,-0.10,0.12,-0.04,-3.03,39.24,-3.95,-0.47,110.66,2.64,0.44,-10.04
-2,-1,12,-11,-303,3918,-0.04,-0.09,0.18,-0.11,-3.03,39.18,-3.96,-0.46,110.66,2.67,0.35,-10.10
-2,0,12,10,-303,3913,-0.04,-0.08,0.24,0.10,-3.03,39.13,-3.98,-0.45,110.66,2.68,0.32,-10.11
0,-1,3,2,-295,3895,-0.04,-0.08,0.23,0.02,-2.95,38.95,-3.99,-0.43,110.66,2.64,0.33,-10.03
1,-1,1,1,-301,3904,-0.03,-0.08,0.21,0.01,-3.01,39.04,-4.00,-0.42,110.66,2.63,0.32,-10.01
4,-4,-1,-83,-347,3835,-0.00,-0.10,0.19,-0.83,-3.47,38.35,-4.01,-0.41,110.65,2.57,0.38,-9.99
-5,-11,-6,-41,-322,4001,-0.03,-0.15,0.13,-0.41,-3.22,40.01,-4.02,-0.39,110.65,2.77,0.52,-9.93
-4,-12,0,-56,-339,3938,-0.05,-0.21,0.12,-0.56,-3.39,39.38,-4.03,-0.38,110.65,2.76,0.55,-9.98
-2,-13,-1,-78,-348,3920,-0.06,-0.27,0.10,-0.78,-3.48,39.20,-4.04,-0.36,110.65,2.73,0.58,-9.97
0,-13,-16,-94,-342,3903,-0.05,-0.32,-0.01,-0.94,-3.42,39.03,-4.05,-0.35,110.65,2.69,0.58,-9.82
-2,-16,-21,-100,-345,3892,-0.06,-0.39,-0.13,-1.00,-3.45,38.92,-4.06,-0.33,110.65,2.74,0.65,-9.76
7,-11,-48,48,-183,3983,-0.01,-0.42,-0.41,0.48,-1.83,39.83,-4.04,-0.34,110.65,2.53,0.56,-9.47
5,-3,-38,93,-178,3916,0.02,-0.39,-0.60,0.93,-1.78,39.16,-4.03,-0.35,110.66,2.55,0.40,-9.52
3,3,-28,77,-274,3935,0.04,-0.34,-0.71,0.77,-2.74,39.35,-4.03,-0.37,110.66,2.59,0.28,-9.59
2,2,-23,62,-296,3936,0.04,-0.29,-0.78,0.62,-2.96,39.36,-4.04,-0.39,110.66,2.61,0.30,-9.62
-2,-2,-4,7,-320,3919,0.03,-0.27,-0.73,0.07,-3.20,39.19,-4.05,-0.38,110.67,2.71,0.37,-9.79
-1,-2,-1,-13,-314,3920,0.02,-0.26,-0.66,-0.13,-3.14,39.20,-4.07,-0.37,110.67,2.70,0.36,-9.82
0,-1,2,-10,-315,3905,0.02,-0.24,-0.58,-0.10,-3.15,39.05,-4.08,-0.36,110.67,2.69,0.32,-9.87
-1,-1,0,-34,-340,3904,0.01,-0.22,-0.53,-0.34,-3.40,39.04,-4.09,-0.35,110.67,2.72,0.31,-9.86
1,3,-4,-14,-301,3915,0.01,-0.18,-0.50,-0.14,-3.01,39.15,-4.10,-0.33,110.67,2.68,0.21,-9.83
0,3,-4,-6,-301,3913,0.01,-0.14,-0.47,-0.06,-3.01,39.13,-4.11,-0.32,110.68,2.71,0.19,-9.84
2,1,-3,9,-312,3904,0.02,-0.12,-0.44,0.09,-3.12,39.04,-4.13,-0.31,110.68,2.68,0.22,-9.85
2,0,-3,6,-312,3908,0.03,-0.11,-0.42,0.06,-3.12,39.08,-4.14,-0.31,110.68,2.69,0.23,-9.86
2,1,-2,-15,-303,3926,0.04,-0.09,-0.39,-0.15,-3.03,39.26,-4.15,-0.29,110.68,2.69,0.20,-9.87
1,2,-2,-14,-305,3918,0.04,-0.07,-0.36,-0.14,-3.05,39.18,-4.16,-0.27,110.68,2.71,0.16,-9.88
1,2,-8,-3,-304,3902,0.05,-0.05,-0.37,-0.03,-3.04,39.02,-4.17,-0.26,110.68,2.72,0.15,-9.82
0,2,-9,-4,-305,3914,0.04,-0.04,-0.39,-0.04,-3.05,39.14,-4.19,-0.25,110.68,2.75,0.13,-9.81
0,3,-13,-4,-313,3913,0.04,-0.01,-0.43,-0.04,-3.13,39.13,-4.20,-0.24,110.69,2.76,0.10,-9.77
-1,2,-13,-5,-318,3902,0.03,0.00,-0.47,-0.05,-3.18,39.02,-4.22,-0.23,110.69,2.79,0.11,-9.76
-3,0,-3,3,-315,3913,0.01,0.00,-0.44,0.03,-3.15,39.13,-4.23,-0.22,110.69,2.85,0.14,-9.85
-2,1,-2,3,-314,3924,-0.01,0.01,-0.41,0.03,-3.14,39.24,-4.25,-0.21,110.69,2.85,0.12,-9.87
-1,0,-3,-16,-308,3907,-0.01,0.01,-0.39,-0.16,-3.08,39.07,-4.26,-0.19,110.69,2.83,0.13,-9.86
-1,1,-4,-17,-307,3918,-0.02,0.01,-0.37,-0.17,-3.07,39.18,-4.27,-0.18,110.69,2.84,0.09,-9.86
-1,1,-9,-20,-310,3922,-0.02,0.02,-0.39,-0.20,-3.10,39.22,-4.27,-0.16,110.70,2.85,0.08,-9.81
0,2,-9,-4,-318,3922,-0.02,0.03,-0.40,-0.04,-3.18,39.22,-4.29,-0.15,110.70,2.84,0.05,-9.81
-2,3,-3,-20,-310,3913,-0.03,0.04,-0.38,-0.20,-3.10,39.13,-4.30,-0.14,110.70,2.89,0.02,-9.86
-2,6,-4,4,-329,3914,-0.04,0.07,-0.37,0.04,-3.29,39.14,-4.32,-0.13,110.70,2.90,-0.05,-9.86
1,-1,-3,-22,-332,3924,-0.03,0.06,-0.35,-0.22,-3.32,39.24,-4.33,-0.12,110.70,2.85,0.08,-9.87
-4,-2,-2,-52,-344,3900,-0.05,0.04,-0.33,-0.52,-3.44,39.00,-4.34,-0.11,110.70,2.96,0.10,-9.88
0,5,-10,35,-255,3907,-0.05,0.07,-0.36,0.35,-2.55,39.07,-4.33,-0.12,110.70,2.87,-0.04,-9.81
-1,4,-7,26,-271,3925,-0.05,0.09,-0.36,0.26,-2.71,39.25,-4.31,-0.13,110.71,2.88,-0.02,-9.83
-2,1,-3,26,-315,3919,-0.05,0.08,-0.34,0.26,-3.15,39.19,-4.33,-0.14,110.71,2.91,0.05,-9.87
-4,-1,0,4,-318,3925,-0.07,0.07,-0.31,0.04,-3.18,39.25,-4.34,-0.13,110.71,2.97,0.09,-9.90
-7,1,4,-17,-306,3915,-0.11,0.07,-0.25,-0.17,-3.06,39.15,-4.35,-0.12,110.71,3.04,0.04,-9.95
-8,-2,9,40,-420,3987,-0.15,0.05,-0.17,0.40,-4.20,39.87,-4.37,-0.12,110.71,3.09,0.11,-10.01
0,10,61,-38,-234,3868,-0.13,0.11,0.22,-0.38,-2.34,38.68,-4.35,-0.11,110.71,2.91,-0.16,-10.52
2,7,26,40,-218,3909,-0.11,0.14,0.35,0.40,-2.18,39.09,-4.34,-0.12,110.71,2.85,-0.10,-10.25
-2,-2,6,-2,-296,3923,-0.11,0.11,0.35,-0.02,-2.96,39.23,-4.34,-0.10,110.71,2.93,0.07,-10.08
-3,-3,4,-1,-307,3924,-0.12,0.08,0.34,-0.01,-3.07,39.24,-4.35,-0.09,110.71,2.96,0.10,-10.06
-2,-1,0,-5,-306,3917,-0.12,0.07,0.31,-0.05,-3.06,39.17,-4.36,-0.07,110.70,2.95,0.05,-10.02
0,-1,0,-5,-305,3919,-0.10,0.06,0.28,-0.05,-3.05,39.19,-4.37,-0.05,110.70,2.91,0.04,-10.02
0,-1,0,4,-315,3921,-0.09,0.04,0.25,0.04,-3.15,39.21,-4.39,-0.05,110.70,2.92,0.04,-10.01
-2,-3,1,6,-320,3918,-0.10,0.02,0.23,0.06,-3.20,39.18,-4.41,-0.06,110.70,2.98,0.09,-10.02
-1,-1,-1,-12,-313,3915,-0.09,0.01,0.20,-0.12,-3.13,39.15,-4.42,-0.04,110.70,2.96,0.04,-9.99
-1,0,-1,-9,-317,3921,-0.09,0.01,0.18,-0.09,-3.17,39.21,-4.43,-0.03,110.70,2.97,0.02,-9.99
0,1,-1,-10,-309,3921,-0.08,0.02,0.15,-0.10,-3.09,39.21,-4.44,-0.01,110.70,2.95,-0.02,-9.98
0,0,0,-9,-301,3914,-0.07,0.01,0.14,-0.09,-3.01,39.14,-4.44,0.01,110.70,2.95,-0.01,-9.99
1,0,0,-5,-311,3919,-0.06,0.01,0.12,-0.05,-3.11,39.19,-4.45,0.02,110.70,2.93,-0.01,-9.99
0,0,0,-3,-309,3913,-0.05,0.01,0.11,-0.03,-3.09,39.13,-4.47,0.02,110.70,2.96,-0.02,-9.98
0,1,1,-5,-302,3921,-0.05,0.02,0.11,-0.05,-3.02,39.21,-4.45,0.03,110.70,2.95,-0.05,-9.99
0,0,2,-5,-308,3926,-0.04,0.02,0.11,-0.05,-3.08,39.26,-4.47,0.05,110.70,2.96,-0.04,-10.00
1,2,2,-14,-317,3919,-0.03,0.03,0.11,-0.14,-3.17,39.19,-4.48,0.06,110.70,2.95,-0.09,-10.00
1,3,2,-11,-312,3911,-0.02,0.04,0.11,-0.11,-3.12,39.11,-4.49,0.08,110.70,2.95,-0.12,-10.00
3,2,5,-12,-324,3889,-0.00,0.05,0.13,-0.12,-3.24,38.89,-4.51,0.08,110.70,2.92,-0.11,-10.03
3,1,5,20,-290,3916,0.02,0.05,0.15,0.20,-2.90,39.16,-4.50,0.07,110.70,2.90,-0.08,-10.03
3,0,0,-5,-312,3906,0.03,0.05,0.13,-0.05,-3.12,39.06,-4.52,0.07,110.69,2.91,-0.06,-9.99
1,1,-2,-1,-315,3921,0.04,0.05,0.11,-0.01,-3.15,39.21,-4.53,0.06,110.69,2.96,-0.07,-9.97
2,1,-1,-5,-321,3934,0.04,0.05,0.09,-0.05,-3.21,39.34,-4.55,0.06,110.69,2.95,-0.07,-9.97
2,1,-1,-1,-316,3916,0.05,0.05,0.08,-0.01,-3.16,39.16,-4.56,0.05,110.69,2.96,-0.07,-9.97
1,0,-1,0,-313,3917,0.05,0.04,0.06,0.00,-3.13,39.17,-4.56,0.03,110.69,2.98,-0.03,-9.97
1,0,-1,-5,-308,3911,0.05,0.04,0.05,-0.05,-3.08,39.11,-4.55,0.04,110.69,2.97,-0.04,-9.96
-2,-1,1,-15,-318,3913,0.04,0.03,0.05,-0.15,-3.18,39.13,-4.56,0.06,110.69,3.04,-0.03,-9.98
-3,-1,3,-15,-312,3922,0.01,0.02,0.06,-0.15,-3.12,39.22,-4.56,0.08,110.69,3.06,-0.04,-10.00
-3,1,3,-12,-309,3923,-0.01,0.03,0.08,-0.12,-3.09,39.23,-4.55,0.09,110.69,3.06,-0.09,-10.00
-5,-1,3,-32,-305,3931,-0.04,0.02,0.09,-0.32,-3.05,39.31,-4.54,0.11,110.69,3.11,-0.06,-10.00
-1,1,25,-84,-356,3916,-0.04,0.02,0.23,-0.84,-3.56,39.16,-4.55,0.13,110.69,3.04,-0.11,-10.22
2,4,36,-38,-343,3904,-0.02,0.04,0.43,-0.38,-3.43,39.04,-4.57,0.14,110.69,2.98,-0.19,-10.35
-2,3,42,-2,-327,3902,-0.03,0.06,0.64,-0.02,-3.27,39.02,-4.58,0.13,110.69,3.07,-0.16,-10.44
-2,1,42,-2,-328,3904,-0.04,0.06,0.83,-0.02,-3.28,39.04,-4.60,0.13,110.68,3.09,-0.12,-10.48
0,-3,34,30,-320,3931,-0.04,0.03,0.96,0.30,-3.20,39.31,-4.60,0.11,110.68,3.05,-0.02,-10.43
-3,-2,35,27,-335,3905,-0.05,0.02,1.07,0.27,-3.35,39.05,-4.61,0.09,110.68,3.12,-0.02,-10.46
-7,-4,38,39,-301,3920,-0.09,-0.01,1.20,0.39,-3.01,39.20,-4.61,0.07,110.67,3.21,0.03,-10.51
-3,-7,33,5,-288,3918,-0.10,-0.05,1.28,0.05,-2.88,39.18,-4.59,0.07,110.67,3.12,0.11,-10.48
-1,-4,7,-23,-278,3907,-0.09,-0.07,1.19,-0.23,-2.78,39.07,-4.57,0.08,110.66,3.06,0.05,-10.25
1,-3,1,-22,-281,3898,-0.08,-0.08,1.08,-0.22,-2.81,38.98,-4.56,0.09,110.66,3.01,0.03,-10.17
7,0,107,376,-698,3970,-0.03,-0.07,1.63,3.76,-6.98,39.70,-4.57,0.07,110.65,2.88,-0.03,-11.18
-7,9,168,-95,-283,3874,-0.07,-0.01,2.49,-0.95,-2.83,38.74,-4.56,0.09,110.64,3.17,-0.24,-11.86
6,5,26,-38,-289,3912,-0.02,0.02,2.40,-0.38,-2.89,39.12,-4.55,0.11,110.63,2.89,-0.18,-10.64
-1,0,21,-43,-303,3930,-0.03,0.02,2.29,-0.43,-3.03,39.30,-4.55,0.13,110.62,3.03,-0.09,-10.57
-3,2,11,-7,-309,3925,-0.04,0.03,2.12,-0.07,-3.09,39.25,-4.53,0.12,110.61,3.06,-0.13,-10.45
-4,1,12,-21,-319,3905,-0.06,0.03,1.99,-0.21,-3.19,39.05,-4.54,0.13,110.61,3.10,-0.12,-10.44
0,0,7,-4,-311,3898,-0.06,0.03,1.83,-0.04,-3.11,38.98,-4.55,0.12,110.60,3.02,-0.09,-10.36
0,1,5,-18,-313,3907,-0.05,0.03,1.68,-0.18,-3.13,39.07,-4.55,0.14,110.59,3.02,-0.12,-10.32
-2,-7,13,-66,-256,3865,-0.06,-0.01,1.59,-0.66,-2.56,38.65,-4.54,0.15,110.58,3.05,0.05,-10.37
-4,-12,35,-95,-274,3890,-0.08,-0.09,1.64,-0.95,-2.74,38.90,-4.53,0.17,110.58,3.09,0.16,-10.56
-2,-2,36,-1,-343,3931,-0.08,-0.09,1.70,-0.01,-3.43,39.31,-4.55,0.16,110.57,3.07,-0.04,-10.58
-3,-4,30,15,-305,3927,-0.09,-0.10,1.71,0.15,-3.05,39.27,-4.55,0.14,110.56,3.09,0.02,-10.53
-3,-3,24,-25,-300,3910,-0.10,-0.11,1.69,-0.25,-3.00,39.10,-4.54,0.16,110.56,3.08,-0.01,-10.48
-2,0,22,-31,-316,3917,-0.10,-0.10,1.65,-0.31,-3.16,39.17,-4.54,0.18,110.55,3.07,-0.09,-10.45
2,5,32,-101,-398,3889,-0.08,-0.06,1.68,-1.01,-3.98,38.89,-4.55,0.19,110.54,2.99,-0.21,-10.54
-5,9,44,-96,-385,3924,-0.10,0.00,1.78,-0.96,-3.85,39.24,-4.57,0.20,110.54,3.14,-0.32,-10.66
3,0,40,20,-281,3935,-0.07,0.00,1.85,0.20,-2.81,39.35,-4.55,0.19,110.53,2.97,-0.13,-10.64
3,-1,36,22,-309,3924,-0.05,-0.01,1.88,0.22,-3.09,39.24,-4.55,0.17,110.52,2.96,-0.09,-10.61
2,1,30,84,-263,3926,-0.03,0.00,1.88,0.84,-2.63,39.26,-4.54,0.16,110.52,2.97,-0.12,-10.56
2,-1,25,71,-264,3899,-0.02,-0.01,1.84,0.71,-2.64,38.99,-4.54,0.14,110.51,2.96,-0.07,-10.51
1,-1,10,-3,-287,3904,-0.01,-0.01,1.72,-0.03,-2.87,39.04,-4.52,0.14,110.50,2.96,-0.07,-10.36
1,-1,8,-33,-303,3916,-0.00,-0.02,1.60,-0.33,-3.03,39.16,-4.51,0.16,110.49,2.96,-0.08,-10.32
-1,-1,12,-51,-322,3905,-0.01,-0.02,1.51,-0.51,-3.22,39.05,-4.52,0.17,110.49,3.01,-0.09,-10.33
-1,-1,15,-45,-330,3915,-0.01,-0.02,1.45,-0.45,-3.30,39.15,-4.53,0.19,110.48,3.01,-0.10,-10.35
1,2,31,-73,-359,3895,-0.01,-0.01,1.49,-0.73,-3.59,38.95,-4.54,0.20,110.48,2.98,-0.17,-10.49
2,3,41,-74,-365,3908,0.01,0.01,1.59,-0.74,-3.65,39.08,-4.55,0.22,110.47,2.96,-0.21,-10.59
1,7,38,-22,-310,3900,0.01,0.05,1.67,-0.22,-3.10,39.00,-4.55,0.24,110.46,2.98,-0.31,-10.58
4,5,38,22,-306,3893,0.04,0.08,1.73,0.22,-3.06,38.93,-4.55,0.22,110.46,2.91,-0.27,-10.59
-3,2,47,-11,-341,3915,0.01,0.08,1.85,-0.11,-3.41,39.15,-4.57,0.22,110.45,3.07,-0.21,-10.69
-1,8,42,8,-338,3938,0.01,0.12,1.92,0.08,-3.38,39.38,-4.58,0.21,110.44,3.04,-0.33,-10.66
0,5,21,84,-273,3921,0.01,0.14,1.85,0.84,-2.73,39.21,-4.57,0.19,110.43,3.02,-0.27,-10.47
1,-2,8,16,-311,3905,0.01,0.11,1.72,0.16,-3.11,39.05,-4.57,0.17,110.43,2.99,-0.10,-10.33
-7,-8,-26,-87,-354,3924,-0.03,0.05,1.39,-0.87,-3.54,39.24,-4.58,0.19,110.42,3.17,0.02,-9.98
-8,-6,-32,-79,-346,3935,-0.08,0.01,1.05,-0.79,-3.46,39.35,-4.59,0.21,110.42,3.21,-0.02,-9.87
-5,-1,-38,43,-256,3924,-0.10,0.00,0.72,0.43,-2.56,39.24,-4.58,0.19,110.42,3.15,-0.11,-9.75
-3,0,-34,60,-256,3918,-0.11,0.00,0.44,0.60,-2.56,39.18,-4.57,0.18,110.41,3.10,-0.12,-9.73
0,-1,-11,98,-270,3929,-0.10,-0.00,0.33,0.98,-2.70,39.29,-4.56,0.16,110.41,3.04,-0.09,-9.91
-1,-3,-4,79,-281,3927,-0.09,-0.02,0.27,0.79,-2.81,39.27,-4.55,0.15,110.41,3.05,-0.03,-9.95
-1,1,7,-30,-298,3919,-0.09,-0.01,0.28,-0.30,-2.98,39.19,-4.54,0.16,110.41,3.04,-0.12,-10.05
0,7,8,-31,-304,3924,-0.08,0.03,0.31,-0.31,-3.04,39.24,-4.54,0.18,110.41,3.02,-0.27,-10.06
-1,4,18,-53,-360,3885,-0.08,0.05,0.38,-0.53,-3.60,38.85,-4.55,0.19,110.41,3.05,-0.22,-10.16
-1,7,29,-46,-390,3932,-0.08,0.09,0.52,-0.46,-3.90,39.32,-4.57,0.20,110.41,3.06,-0.30,-10.28
3,2,52,-47,-350,3918,-0.05,0.09,0.79,-0.47,-3.50,39.18,-4.58,0.21,110.40,2.98,-0.21,-10.53
3,6,59,-30,-360,3900,-0.03,0.12,1.07,-0.30,-3.60,39.00,-4.60,0.22,110.40,2.98,-0.30,-10.64
-2,0,75,10,-325,3923,-0.04,0.11,1.42,0.10,-3.25,39.23,-4.61,0.20,110.39,3.09,-0.16,-10.84
-8,0,91,-14,-333,3927,-0.08,0.10,1.83,-0.14,-3.33,39.27,-4.63,0.20,110.39,3.24,-0.16,-11.06
-2,7,78,24,-282,3876,-0.09,0.13,2.13,0.24,-2.82,38.76,-4.61,0.19,110.38,3.11,-0.30,-11.00
-2,5,72,15,-279,3928,-0.09,0.15,2.35,0.15,-2.79,39.28,-4.60,0.18,110.37,3.10,-0.26,-10.99
-3,1,76,-3,-314,3945,-0.10,0.14,2.58,-0.03,-3.14,39.45,-4.59,0.16,110.36,3.12,-0.17,-11.07
3,0,64,-8,-314,3903,-0.07,0.13,2.71,-0.08,-3.14,39.03,-4.60,0.15,110.35,2.99,-0.13,-10.99
-3,-1,83,-2,-381,3894,-0.08,0.11,2.95,-0.02,-3.81,38.94,-4.61,0.15,110.33,3.13,-0.11,-11.20
-4,-4,86,-30,-366,3934,-0.10,0.07,3.18,-0.30,-3.66,39.34,-4.63,0.15,110.32,3.17,-0.04,-11.26
-6,-3,115,60,-290,3977,-0.13,0.05,3.56,0.60,-2.90,39.77,-4.62,0.14,110.31,3.21,-0.04,-11.58
2,7,112,23,-288,3928,-0.10,0.08,3.89,0.23,-2.88,39.28,-4.61,0.13,110.29,3.03,-0.25,-11.62
-1,-3,118,84,-257,3917,-0.10,0.06,4.22,0.84,-2.57,39.17,-4.60,0.11,110.28,3.08,-0.03,-11.73
-8,1,114,63,-225,3906,-0.14,0.06,4.49,0.63,-2.25,39.06,-4.59,0.10,110.26,3.23,-0.10,-11.75
-1,9,145,6,-391,3935,-0.13,0.11,4.93,0.06,-3.91,39.35,-4.61,0.10,110.24,3.10,-0.28,-12.09
1,7,157,-8,-332,3927,-0.11,0.14,5.39,-0.08,-3.32,39.27,-4.63,0.11,110.22,3.06,-0.25,-12.28
2,0,149,-62,-263,3953,-0.09,0.13,5.76,-0.62,-2.63,39.53,-4.61,0.12,110.19,3.03,-0.11,-12.28
1,-2,142,-81,-212,3860,-0.07,0.10,6.05,-0.81,-2.12,38.60,-4.60,0.13,110.17,3.03,-0.08,-12.28
-3,3,215,-120,-308,4029,-0.08,0.11,6.76,-1.20,-3.08,40.29,-4.60,0.16,110.14,3.12,-0.19,-13.03
-1,2,193,16,-236,3894,-0.08,0.11,7.26,0.16,-2.36,38.94,-4.58,0.15,110.11,3.06,-0.17,-12.93
2,2,170,-92,-282,3895,-0.06,0.11,7.57,-0.92,-2.82,38.95,-4.57,0.17,110.08,2.99,-0.18,-12.79
2,3,149,-81,-271,3908,-0.04,0.12,7.72,-0.81,-2.71,39.08,-4.56,0.19,110.05,2.98,-0.22,-12.64
-2,-1,128,53,-349,3922,-0.05,0.10,7.73,0.53,-3.49,39.22,-4.57,0.18,110.02,3.07,-0.12,-12.46
-3,-1,129,84,-295,3935,-0.06,0.08,7.75,0.84,-2.95,39.35,-4.57,0.16,109.99,3.09,-0.11,-12.47
1,-5,115,-35,-275,3930,-0.05,0.05,7.67,-0.35,-2.75,39.30,-4.55,0.17,109.96,3.00,-0.03,-12.34
4,-2,95,2,-268,3919,-0.02,0.03,7.48,0.02,-2.68,39.19,-4.54,0.17,109.93,2.92,-0.08,-12.13
3,-1,87,-54,-338,3926,-0.00,0.02,7.27,-0.54,-3.38,39.26,-4.55,0.19,109.90,2.94,-0.11,-12.02
2,0,99,-69,-374,3912,0.01,0.02,7.14,-0.69,-3.74,39.12,-4.56,0.20,109.87,2.97,-0.14,-12.09
-4,-6,139,-3,-409,3835,-0.01,-0.02,7.28,-0.03,-4.09,38.35,-4.58,0.20,109.84,3.11,-0.01,-12.45
-6,2,183,-40,-281,4026,-0.05,-0.01,7.67,-0.40,-2.81,40.26,-4.56,0.22,109.81,3.15,-0.18,-12.90
6,-4,210,-27,-412,3861,-0.01,-0.03,8.18,-0.27,-4.12,38.61,-4.58,0.22,109.78,2.90,-0.06,-13.22
3,-6,246,-4,-442,3909,0.01,-0.06,8.86,-0.04,-4.42,39.09,-4.60,0.22,109.75,2.97,-0.01,-13.66
1,-3,371,75,-317,3908,0.02,-0.08,10.24,0.75,-3.17,39.08,-4.60,0.21,109.70,3.01,-0.05,-14.97
9,5,410,33,-369,3877,0.07,-0.04,11.72,0.33,-3.69,38.77,-4.61,0.20,109.66,2.84,-0.22,-15.58
-2,14,500,-51,-356,3857,0.05,0.05,13.60,-0.51,-3.56,38.57,-4.63,0.21,109.60,3.08,-0.44,-16.70
-5,-2,526,10,-247,3985,0.01,0.03,15.44,0.10,-2.47,39.85,-4.61,0.21,109.54,3.14,-0.11,-17.27
-12,-9,472,-150,-462,3924,-0.06,-0.02,16.78,-1.50,-4.62,39.24,-4.62,0.23,109.48,3.31,0.04,-17.06
-19,-1,413,-218,-431,3988,-0.17,-0.03,17.62,-2.18,-4.31,39.88,-4.63,0.25,109.41,3.49,-0.14,-16.71
-6,7,306,-41,-201,3833,-0.19,0.02,17.72,-0.41,-2.01,38.33,-4.61,0.26,109.33,3.22,-0.32,-15.82
-11,1,287,-90,-305,3846,-0.24,0.02,17.70,-0.90,-3.05,38.46,-4.61,0.29,109.26,3.33,-0.22,-15.65
-1,1,252,26,-306,3861,-0.22,0.03,17.47,0.26,-3.06,38.61,-4.61,0.27,109.19,3.12,-0.21,-15.30
-5,-1,263,29,-340,3902,-0.23,0.02,17.33,0.29,-3.40,39.02,-4.62,0.26,109.13,3.21,-0.16,-15.36
-6,2,259,-3,-299,3945,-0.24,0.03,17.17,-0.03,-2.99,39.45,-4.61,0.26,109.06,3.23,-0.22,-15.29
1,1,257,-41,-270,3925,-0.21,0.03,17.02,-0.41,-2.70,39.25,-4.59,0.27,108.99,3.07,-0.21,-15.24
-4,2,263,4,-410,3919,-0.22,0.04,16.93,0.04,-4.10,39.19,-4.61,0.27,108.92,3.18,-0.23,-15.27
-3,3,274,60,-355,3993,-0.21,0.05,16.91,0.60,-3.55,39.93,-4.62,0.26,108.85,3.17,-0.25,-15.35
0,9,346,23,-330,3994,-0.19,0.10,17.33,0.23,-3.30,39.94,-4.62,0.25,108.79,3.10,-0.38,-16.03
1,0,346,6,-294,3999,-0.17,0.09,17.70,0.06,-2.94,39.99,-4.61,0.25,108.71,3.07,-0.19,-16.10
-4,14,403,6,-318,3916,-0.17,0.17,18.39,0.06,-3.18,39.16,-4.61,0.23,108.64,3.17,-0.49,-16.71
-7,-2,432,72,-232,3934,-0.20,0.14,19.19,0.72,-2.32,39.34,-4.60,0.23,108.56,3.23,-0.15,-17.10
-9,-5,474,-17,-166,3991,-0.23,0.10,20.16,-0.17,-1.66,39.91,-4.58,0.23,108.48,3.27,-0.08,-17.63
3,-2,475,-41,-298,3851,-0.19,0.07,21.04,-0.41,-2.98,38.51,-4.57,0.26,108.40,3.01,-0.15,-17.80
1,19,409,-51,-331,4006,-0.17,0.18,21.43,-0.51,-3.31,40.06,-4.58,0.28,108.31,3.05,-0.62,-17.31
0,7,385,-4,-247,3955,-0.15,0.21,21.64,-0.04,-2.47,39.55,-4.56,0.29,108.23,3.05,-0.39,-17.14
1,6,408,-3,-234,3956,-0.13,0.22,21.96,-0.03,-2.34,39.56,-4.54,0.29,108.14,3.01,-0.37,-17.39
1,1,422,72,-287,3896,-0.11,0.21,22.34,0.72,-2.87,38.96,-4.54,0.28,108.05,3.00,-0.26,-17.57
3,0,435,11,-338,3942,-0.08,0.19,22.76,0.11,-3.38,39.42,-4.55,0.27,107.96,2.96,-0.23,-17.75
-4,5,440,-7,-355,3847,-0.10,0.20,23.17,-0.07,-3.55,38.47,-4.57,0.28,107.87,3.12,-0.34,-17.86
0,-5,444,-65,-383,3970,-0.09,0.15,23.56,-0.65,-3.83,39.70,-4.58,0.30,107.78,3.05,-0.13,-17.96
-3,7,452,-27,-348,3922,-0.10,0.18,23.96,-0.27,-3.48,39.22,-4.60,0.31,107.68,3.12,-0.39,-18.10
-8,-13,479,-76,-370,3857,-0.14,0.08,24.49,-0.76,-3.70,38.57,-4.61,0.33,107.58,3.24,0.03,-18.42
-12,-12,464,-70,-440,3939,-0.20,-0.00,24.87,-0.70,-4.40,39.39,-4.63,0.34,107.48,3.35,0.02,-18.36
8,5,464,35,-250,3952,-0.13,0.03,25.21,0.35,-2.50,39.52,-4.62,0.34,107.38,2.92,-0.33,-18.41
8,2,491,121,-188,3848,-0.07,0.04,25.69,1.21,-1.88,38.48,-4.60,0.34,107.28,2.89,-0.27,-18.72
-3,4,545,87,-186,3932,-0.08,0.06,26.44,0.87,-1.86,39.32,-4.59,0.33,107.17,3.11,-0.32,-19.32
-12,-5,535,57,-174,3911,-0.14,0.02,27.06,0.57,-1.74,39.11,-4.57,0.33,107.07,3.30,-0.12,-19.34
-2,-3,497,-39,-315,3956,-0.14,0.00,27.39,-0.39,-3.15,39.56,-4.57,0.36,106.96,3.10,-0.18,-19.07
-4,1,483,-80,-323,3933,-0.15,0.01,27.59,-0.80,-3.23,39.33,-4.58,0.39,106.85,3.14,-0.28,-18.98
-3,5,474,72,-321,3872,-0.15,0.04,27.73,0.72,-3.21,38.72,-4.58,0.38,106.74,3.12,-0.36,-18.92
-25,11,509,140,-404,3792,-0.29,0.10,28.06,1.40,-4.04,37.92,-4.59,0.37,106.63,3.62,-0.50,-19.27
-10,7,561,38,-344,3881,-0.32,0.13,28.67,0.38,-3.44,38.81,-4.60,0.36,106.51,3.32,-0.42,-19.82
-1,6,572,15,-319,3940,-0.30,0.16,29.30,0.15,-3.19,39.40,-4.60,0.36,106.39,3.14,-0.40,-20.00
-13,-4,569,4,-298,3932,-0.35,0.12,29.84,0.04,-2.98,39.32,-4.59,0.35,106.28,3.39,-0.18,-20.00
-11,-1,562,-4,-253,3900,-0.38,0.10,30.28,-0.04,-2.53,39.00,-4.57,0.35,106.15,3.34,-0.24,-20.00
-4,2,520,12,-315,3965,-0.37,0.10,30.43,0.12,-3.15,39.65,-4.57,0.35,106.03,3.20,-0.30,-19.76
-14,-3,492,-18,-274,3890,-0.41,0.07,30.38,-0.18,-2.74,38.90,-4.55,0.35,105.91,3.40,-0.19,-19.51
-9,-4,406,-72,-303,3913,-0.43,0.04,29.82,-0.72,-3.03,39.13,-4.55,0.38,105.79,3.30,-0.18,-18.66
-5,-4,372,-24,-314,3944,-0.42,0.01,29.11,-0.24,-3.14,39.44,-4.55,0.37,105.68,3.22,-0.17,-18.23
0,1,304,27,-300,3931,-0.37,0.02,28.05,0.27,-3.00,39.31,-4.55,0.36,105.57,3.10,-0.26,-17.44
-2,7,313,9,-308,3858,-0.35,0.06,27.16,0.09,-3.08,38.58,-4.55,0.35,105.46,3.14,-0.39,-17.33
-3,-2,307,-29,-247,3951,-0.33,0.04,26.31,-0.29,-2.47,39.51,-4.53,0.36,105.35,3.14,-0.21,-17.11
3,5,288,-26,-344,3967,-0.28,0.07,25.44,-0.26,-3.44,39.67,-4.55,0.37,105.25,3.02,-0.37,-16.77
6,9,281,-21,-361,3945,-0.22,0.11,24.61,-0.21,-3.61,39.45,-4.57,0.38,105.15,2.95,-0.46,-16.55
-5,8,279,-35,-327,3913,-0.22,0.15,23.85,-0.35,-3.27,39.13,-4.59,0.40,105.06,3.19,-0.47,-16.38
-10,-1,266,-55,-312,3902,-0.26,0.13,23.09,-0.55,-3.12,39.02,-4.59,0.42,104.97,3.30,-0.29,-16.11
-5,5,261,-20,-328,3931,-0.27,0.15,22.37,-0.20,-3.28,39.31,-4.60,0.42,104.88,3.21,-0.42,-15.93
-1,3,167,-70,-293,3917,-0.25,0.15,21.15,-0.70,-2.93,39.17,-4.59,0.44,104.79,3.12,-0.40,-14.89
0,3,145,-66,-300,3898,-0.22,0.15,19.92,-0.66,-3.00,38.98,-4.59,0.47,104.71,3.09,-0.41,-14.46
-3,3,91,-66,-271,3920,-0.22,0.16,18.49,-0.66,-2.71,39.20,-4.57,0.49,104.64,3.14,-0.42,-13.72
-1,4,68,-48,-288,3913,-0.20,0.17,17.05,-0.48,-2.88,39.13,-4.56,0.50,104.57,3.08,-0.46,-13.25
-1,2,83,-57,-335,3924,-0.19,0.16,15.85,-0.57,-3.35,39.24,-4.57,0.52,104.51,3.09,-0.43,-13.14
-3,-2,104,-17,-309,3924,-0.19,0.13,14.90,-0.17,-3.09,39.24,-4.57,0.51,104.45,3.13,-0.33,-13.13
-4,1,165,-21,-293,3938,-0.19,0.13,14.42,-0.21,-2.93,39.38,-4.55,0.50,104.39,3.14,-0.39,-13.55
0,0,178,-17,-327,3938,-0.17,0.11,14.06,-0.17,-3.27,39.38,-4.56,0.49,104.33,3.06,-0.36,-13.59
-3,3,197,5,-299,3940,-0.18,0.12,13.86,0.05,-2.99,39.40,-4.56,0.48,104.28,3.12,-0.41,-13.70
-5,8,213,6,-296,3870,-0.19,0.16,13.77,0.06,-2.96,38.70,-4.55,0.47,104.22,3.16,-0.51,-13.82
-4,1,319,44,-329,3920,-0.19,0.15,14.34,0.44,-3.29,39.20,-4.55,0.46,104.17,3.14,-0.36,-14.82
-6,10,331,-34,-285,3945,-0.21,0.19,14.92,-0.34,-2.85,39.45,-4.54,0.46,104.11,3.17,-0.56,-15.03
-7,5,362,13,-323,3881,-0.23,0.21,15.64,0.13,-3.23,38.81,-4.54,0.45,104.05,3.20,-0.46,-15.42
-12,-8,398,71,-332,3912,-0.28,0.14,16.50,0.71,-3.32,39.12,-4.55,0.44,103.98,3.32,-0.16,-15.88
-18,-10,442,71,-239,3881,-0.36,0.06,17.55,0.71,-2.39,38.81,-4.54,0.43,103.91,3.46,-0.10,-16.45
-29,-12,473,82,-200,3840,-0.50,-0.02,18.68,0.82,-2.00,38.40,-4.53,0.42,103.84,3.71,-0.03,-16.92
-54,-33,501,53,-312,3933,-0.78,-0.22,19.87,0.53,-3.12,39.33,-4.53,0.41,103.76,4.30,0.46,-17.38
-37,-22,506,64,-330,3880,-0.93,-0.33,20.97,0.64,-3.30,38.80,-4.54,0.40,103.67,4.00,0.28,-17.62
-38,-33,541,28,-399,3958,-1.07,-0.50,22.17,0.28,-3.99,39.58,-4.56,0.39,103.58,4.07,0.55,-18.14
-47,-35,546,-22,-433,3956,-1.25,-0.66,23.28,-0.22,-4.33,39.56,-4.58,0.40,103.49,4.32,0.63,-18.39
-65,-51,584,20,-465,3861,-1.52,-0.91,24.52,0.20,-4.65,38.61,-4.60,0.39,103.39,4.77,1.02,-18.94
-69,-50,602,-69,-401,3878,-1.79,-1.12,25.74,-0.69,-4.01,38.78,-4.62,0.41,103.29,4.94,1.05,-19.32
-49,-40,630,27,-450,3924,-1.91,-1.25,27.01,0.27,-4.50,39.24,-4.65,0.40,103.18,4.58,0.89,-19.79
-26,-24,658,10,-450,3955,-1.88,-1.27,28.32,0.10,-4.50,39.55,-4.67,0.40,103.07,4.12,0.57,-20.00
-1,12,710,-60,-515,3972,-1.70,-1.07,29.82,-0.60,-5.15,39.72,-4.70,0.41,102.95,3.58,-0.22,-20.00
1,5,699,-85,-510,3891,-1.52,-0.94,31.10,-0.85,-5.10,38.91,-4.72,0.42,102.83,3.51,-0.13,-20.00
-6,9,630,-19,-476,3979,-1.40,-0.79,31.83,-0.19,-4.76,39.79,-4.74,0.43,102.70,3.63,-0.25,-20.00
-2,10,604,-41,-488,3873,-1.28,-0.65,32.34,-0.41,-4.88,38.73,-4.76,0.44,102.57,3.53,-0.32,-20.00
1,15,526,-67,-380,3933,-1.14,-0.49,32.31,-0.67,-3.80,39.33,-4.78,0.46,102.44,3.45,-0.47,-19.85
-8,13,503,-6,-320,3913,-1.08,-0.36,32.15,-0.06,-3.20,39.13,-4.78,0.45,102.31,3.61,-0.46,-19.61
5,28,415,-37,-154,3929,-0.94,-0.16,31.46,-0.37,-1.54,39.29,-4.77,0.46,102.19,3.30,-0.83,-18.73
11,26,371,-73,-124,3952,-0.78,0.02,30.58,-0.73,-1.24,39.52,-4.75,0.47,102.06,3.12,-0.85,-18.17
35,49,239,-93,-111,3976,-0.49,0.32,28.98,-0.93,-1.11,39.76,-4.73,0.49,101.95,2.54,-1.40,-16.74
46,56,166,-60,-99,3940,-0.16,0.63,27.10,-0.60,-0.99,39.40,-4.71,0.50,101.84,2.22,-1.64,-15.75
51,49,59,-66,-205,3918,0.17,0.86,24.75,-0.66,-2.05,39.18,-4.70,0.52,101.74,2.02,-1.57,-14.39
46,44,41,-86,-237,3931,0.43,1.04,22.52,-0.86,-2.37,39.31,-4.68,0.54,101.65,2.03,-1.54,-13.80
18,18,7,-30,-297,3933,0.50,1.05,20.31,-0.30,-2.97,39.33,-4.66,0.54,101.57,2.57,-1.01,-13.08
8,8,3,-25,-312,3950,0.50,0.99,18.30,-0.25,-3.12,39.50,-4.64,0.54,101.50,2.77,-0.79,-12.66
-9,-12,13,8,-351,3898,0.39,0.82,16.55,0.08,-3.51,38.98,-4.65,0.53,101.43,3.15,-0.33,-12.40
-12,-10,28,1,-362,3941,0.28,0.68,15.06,0.01,-3.62,39.41,-4.66,0.53,101.37,3.25,-0.33,-12.24
-3,-2,59,-58,-443,3870,0.23,0.60,13.92,-0.58,-4.43,38.70,-4.68,0.54,101.32,3.09,-0.48,-12.28
10,9,78,-59,-416,3958,0.27,0.59,13.00,-0.59,-4.16,39.58,-4.70,0.55,101.27,2.82,-0.71,-12.26
-10,-5,126,-116,-445,3848,0.18,0.50,12.47,-1.16,-4.45,38.48,-4.71,0.57,101.22,3.26,-0.41,-12.56
-30,-9,163,-91,-403,3900,-0.02,0.40,12.22,-0.91,-4.03,39.00,-4.73,0.58,101.17,3.73,-0.31,-12.82
-11,0,143,-42,-233,3866,-0.08,0.36,11.87,-0.42,-2.33,38.66,-4.71,0.59,101.12,3.35,-0.49,-12.58
-13,-7,147,-89,-270,3883,-0.15,0.28,11.58,-0.89,-2.70,38.83,-4.69,0.61,101.08,3.40,-0.33,-12.55
-19,-6,196,-49,-340,3829,-0.25,0.22,11.62,-0.49,-3.40,38.29,-4.71,0.62,101.03,3.57,-0.34,-12.97
-25,-8,218,-76,-297,3927,-0.38,0.14,11.78,-0.76,-2.97,39.27,-4.70,0.63,100.98,3.72,-0.30,-13.19
-24,-21,224,-109,-247,3916,-0.49,0.00,11.97,-1.09,-2.47,39.16,-4.69,0.65,100.94,3.72,-0.00,-13.27
-20,-22,228,-122,-333,3902,-0.56,-0.13,12.17,-1.22,-3.33,39.02,-4.69,0.67,100.89,3.66,0.04,-13.34
-12,-5,291,2,-338,3897,-0.58,-0.15,12.72,0.02,-3.38,38.97,-4.70,0.66,100.84,3.51,-0.29,-13.97
-12,-3,315,44,-291,3929,-0.59,-0.15,13.37,0.44,-2.91,39.29,-4.70,0.64,100.78,3.51,-0.32,-14.29
-22,4,354,-34,-333,3857,-0.67,-0.11,14.20,-0.34,-3.33,38.57,-4.72,0.64,100.73,3.74,-0.47,-14.78
21,13,357,-36,-250,3927,-0.47,-0.02,14.95,-0.36,-2.50,39.27,-4.70,0.64,100.67,2.80,-0.68,-14.94
-13,5,298,-8,-397,3944,-0.51,0.01,15.28,-0.08,-3.97,39.44,-4.72,0.64,100.61,3.52,-0.53,-14.50
-16,12,286,9,-408,3881,-0.55,0.08,15.49,0.09,-4.08,38.81,-4.73,0.64,100.54,3.60,-0.69,-14.43
4,19,333,18,-323,3933,-0.47,0.19,15.97,0.18,-3.23,39.33,-4.73,0.62,100.48,3.17,-0.85,-14.92
10,9,341,10,-326,3923,-0.37,0.23,16.46,0.10,-3.26,39.23,-4.74,0.61,100.42,3.02,-0.65,-15.07
-40,-26,434,53,-336,3906,-0.57,0.04,17.46,0.53,-3.36,39.06,-4.74,0.60,100.35,4.10,0.12,-16.04
-38,-27,451,17,-376,4028,-0.75,-0.12,18.46,0.17,-3.76,40.28,-4.75,0.59,100.27,4.11,0.19,-16.37
-31,-30,522,27,-398,3772,-0.86,-0.29,19.80,0.27,-3.98,37.72,-4.77,0.58,100.19,4.01,0.31,-17.22
-13,-18,536,-84,-464,4010,-0.85,-0.38,21.09,-0.84,-4.64,40.10,-4.79,0.59,100.11,3.66,0.08,-17.58
-17,1,524,-57,-476,4038,-0.87,-0.33,22.18,-0.57,-4.76,40.38,-4.81,0.60,100.02,3.76,-0.33,-17.68
-11,4,466,-90,-444,3889,-0.85,-0.27,22.80,-0.90,-4.44,38.89,-4.83,0.62,99.93,3.64,-0.41,-17.30
-10,14,439,-101,-406,3926,-0.83,-0.16,23.20,-1.01,-4.06,39.26,-4.85,0.64,99.84,3.63,-0.66,-17.14
-9,21,457,1,-419,3861,-0.80,-0.02,23.67,0.01,-4.19,38.61,-4.86,0.64,99.74,3.61,-0.84,-17.37
-3,5,486,-60,-276,3930,-0.74,0.02,24.27,-0.60,-2.76,39.30,-4.85,0.65,99.65,3.46,-0.53,-17.72
-4,7,481,-107,-323,3944,-0.69,0.06,24.77,-1.07,-3.23,39.44,-4.85,0.68,99.55,3.47,-0.60,-17.77
0,11,458,21,-365,3990,-0.62,0.12,25.09,0.21,-3.65,39.90,-4.85,0.67,99.45,3.37,-0.70,-17.63
2,13,436,27,-322,3949,-0.55,0.19,25.24,0.27,-3.22,39.49,-4.85,0.66,99.35,3.31,-0.75,-17.46
-2,2,357,65,-411,3883,-0.50,0.18,24.89,0.65,-4.11,38.83,-4.86,0.65,99.25,3.39,-0.52,-16.71
-1,8,337,20,-305,3987,-0.46,0.21,24.46,0.20,-3.05,39.87,-4.86,0.65,99.15,3.35,-0.65,-16.45
9,7,265,-100,-383,3952,-0.36,0.23,23.63,-1.00,-3.83,39.52,-4.87,0.67,99.06,3.13,-0.65,-15.68
0,18,265,-61,-295,3890,-0.32,0.32,22.88,-0.61,-2.95,38.90,-4.85,0.68,98.97,3.29,-0.90,-15.53
-6,20,366,-130,-372,3943,-0.33,0.41,22.83,-1.30,-3.72,39.43,-4.86,0.71,98.87,3.42,-0.99,-16.36
3,22,365,-157,-301,3990,-0.28,0.50,22.77,-1.57,-3.01,39.90,-4.85,0.74,98.78,3.22,-1.07,-16.33
-4,18,357,-107,-354,3855,-0.27,0.56,22.67,-1.07,-3.54,38.55,-4.86,0.76,98.69,3.36,-1.02,-16.24
-12,17,380,-24,-434,3880,-0.32,0.61,22.72,-0.24,-4.34,38.80,-4.88,0.77,98.60,3.55,-1.02,-16.44
-14,14,422,19,-353,3915,-0.37,0.63,23.03,0.19,-3.53,39.15,-4.88,0.76,98.51,3.61,-0.96,-16.84
-3,14,419,21,-372,3906,-0.35,0.66,23.28,0.21,-3.72,39.06,-4.89,0.76,98.42,3.39,-0.96,-16.86
-15,6,423,135,-410,3919,-0.41,0.63,23.53,1.35,-4.10,39.19,-4.90,0.75,98.33,3.65,-0.79,-16.93
-17,13,444,214,-400,3902,-0.47,0.64,23.89,2.14,-4.00,39.02,-4.90,0.74,98.23,3.71,-0.93,-17.17
-13,3,457,225,-328,3900,-0.50,0.60,24.29,2.25,-3.28,39.00,-4.91,0.74,98.13,3.64,-0.71,-17.35
-22,0,460,92,-324,3845,-0.59,0.54,24.66,0.92,-3.24,38.45,-4.91,0.73,98.04,3.85,-0.63,-17.43
2,3,433,96,-173,3987,-0.52,0.50,24.84,0.96,-1.73,39.87,-4.89,0.73,97.94,3.33,-0.68,-17.23
-22,-18,424,154,-112,3866,-0.60,0.34,24.94,1.54,-1.12,38.66,-4.88,0.72,97.84,3.83,-0.20,-17.16
-7,-12,382,67,-272,3869,-0.58,0.23,24.78,0.67,-2.72,38.69,-4.87,0.72,97.74,3.52,-0.29,-16.77
3,-2,350,-14,-357,3929,-0.51,0.20,24.43,-0.14,-3.57,39.29,-4.88,0.71,97.64,3.30,-0.48,-16.42
2,5,299,-23,-223,3951,-0.44,0.21,23.81,-0.23,-2.23,39.51,-4.87,0.71,97.55,3.29,-0.63,-15.86
7,7,283,-52,-206,3944,-0.36,0.23,23.16,-0.52,-2.06,39.44,-4.85,0.72,97.45,3.15,-0.68,-15.59
2,7,239,31,-229,3921,-0.31,0.25,22.30,0.31,-2.29,39.21,-4.83,0.72,97.37,3.23,-0.69,-15.05
8,10,235,57,-287,3884,-0.23,0.29,21.50,0.57,-2.87,38.84,-4.83,0.71,97.28,3.09,-0.75,-14.86
9,7,248,-25,-364,3959,-0.15,0.30,20.87,-0.25,-3.64,39.59,-4.84,0.71,97.20,3.05,-0.69,-14.84
-11,10,288,79,-446,3888,-0.20,0.33,20.54,0.79,-4.46,38.88,-4.85,0.70,97.12,3.48,-0.76,-15.11
3,12,323,-17,-514,3921,-0.16,0.37,20.45,-0.17,-5.14,39.21,-4.87,0.71,97.03,3.20,-0.81,-15.38
-7,-5,336,-38,-448,3958,-0.19,0.30,20.46,-0.38,-4.48,39.58,-4.89,0.72,96.95,3.42,-0.45,-15.48
0,5,353,-3,-422,3913,-0.17,0.30,20.57,-0.03,-4.22,39.13,-4.90,0.72,96.87,3.28,-0.66,-15.64
-12,7,378,48,-359,3926,-0.23,0.32,20.81,0.48,-3.59,39.26,-4.91,0.71,96.79,3.55,-0.69,-15.89
-10,10,438,75,-295,3826,-0.27,0.35,21.41,0.75,-2.95,38.26,-4.90,0.70,96.70,3.51,-0.76,-16.50
2,5,451,-18,-305,3921,-0.23,0.34,22.02,-0.18,-3.05,39.21,-4.89,0.69,96.62,3.25,-0.65,-16.72
-6,5,508,1,-379,3929,-0.24,0.34,22.91,0.01,-3.79,39.29,-4.90,0.69,96.52,3.42,-0.65,-17.37
-7,3,516,-88,-278,3945,-0.26,0.32,23.77,-0.88,-2.78,39.45,-4.89,0.71,96.43,3.44,-0.62,-17.59
-25,-5,570,2,-439,3912,-0.39,0.26,24.87,0.02,-4.39,39.12,-4.90,0.71,96.33,3.85,-0.44,-18.25
-4,-2,607,-87,-347,3963,-0.37,0.22,26.09,-0.87,-3.47,39.63,-4.91,0.74,96.23,3.42,-0.51,-18.79
-15,5,725,-160,-293,3868,-0.43,0.23,27.90,-1.60,-2.93,38.68,-4.90,0.76,96.12,3.66,-0.67,-20.00
-5,7,760,-156,-332,3978,-0.41,0.25,29.75,-1.56,-3.32,39.78,-4.90,0.79,96.00,3.45,-0.73,-20.00
-16,8,828,-202,-297,3849,-0.47,0.27,31.82,-2.02,-2.97,38.49,-4.90,0.82,95.87,3.68,-0.78,-20.00
-8,0,841,-258,-330,3866,-0.47,0.25,33.77,-2.58,-3.30,38.66,-4.90,0.86,95.74,3.52,-0.63,-20.00
-13,9,884,-66,-308,3908,-0.50,0.28,35.78,-0.66,-3.08,39.08,-4.88,0.87,95.59,3.62,-0.83,-20.00
-26,10,907,25,-391,3878,-0.61,0.31,37.74,0.25,-3.91,38.78,-4.89,0.87,95.44,3.92,-0.86,-20.00
-17,22,1032,170,-129,3931,-0.65,0.41,40.26,1.70,-1.29,39.31,-4.88,0.87,95.28,3.74,-1.14,-20.00
5,19,1074,116,-147,3988,-0.56,0.49,42.79,1.16,-1.47,39.88,-4.86,0.88,95.11,3.26,-1.10,-20.00
-1,25,1197,14,-122,4029,-0.51,0.59,45.81,0.14,-1.22,40.29,-4.84,0.89,94.93,3.36,-1.26,-20.00
-22,13,1215,-29,-156,3873,-0.59,0.61,48.64,-0.29,-1.56,38.73,-4.83,0.91,94.74,3.79,-1.03,-20.00
-8,24,1189,-127,-314,3961,-0.58,0.70,51.03,-1.27,-3.14,39.61,-4.82,0.94,94.53,3.50,-1.30,-20.00
-14,6,1167,-92,-304,3847,-0.61,0.66,53.04,-0.92,-3.04,38.47,-4.81,0.98,94.32,3.62,-0.95,-20.00
-12,7,1060,-151,-480,3936,-0.62,0.64,54.21,-1.51,-4.80,39.36,-4.82,1.01,94.10,3.60,-0.98,-20.00
3,8,1018,-181,-407,3899,-0.54,0.62,55.00,-1.81,-4.07,38.99,-4.83,1.04,93.89,3.28,-1.02,-20.00
-9,26,871,-145,-620,3985,-0.54,0.72,54.81,-1.45,-6.20,39.85,-4.85,1.07,93.67,3.53,-1.43,-20.00
-5,19,831,-115,-511,3923,-0.52,0.76,54.40,-1.15,-5.11,39.23,-4.86,1.10,93.45,3.45,-1.32,-20.00
-8,16,683,-115,-488,3940,-0.52,0.79,53.12,-1.15,-4.88,39.40,-4.88,1.12,93.24,3.52,-1.28,-20.00
-6,11,644,-118,-436,3938,-0.50,0.77,51.74,-1.18,-4.36,39.38,-4.89,1.15,93.04,3.49,-1.19,-20.00
-5,10,500,-81,-391,3909,-0.48,0.76,49.62,-0.81,-3.91,39.09,-4.91,1.17,92.84,3.47,-1.18,-20.00
-10,1,426,21,-335,3933,-0.49,0.69,47.25,0.21,-3.35,39.33,-4.91,1.17,92.65,3.58,-0.98,-20.00
-7,2,288,4,-302,3950,-0.49,0.63,44.28,0.04,-3.02,39.50,-4.90,1.17,92.47,3.51,-0.99,-19.23
-7,-2,268,-8,-304,3900,-0.48,0.56,41.49,-0.08,-3.04,39.00,-4.89,1.17,92.31,3.50,-0.88,-18.51
-6,1,228,-14,-282,3952,-0.47,0.51,38.73,-0.14,-2.82,39.52,-4.88,1.17,92.15,3.47,-0.93,-17.63
-8,-5,223,-38,-296,3886,-0.47,0.43,36.22,-0.38,-2.96,38.86,-4.86,1.17,92.01,3.50,-0.79,-17.09
0,6,237,-86,-349,3939,-0.42,0.42,34.04,-0.86,-3.49,39.39,-4.88,1.19,91.87,3.34,-1.02,-16.78
-1,9,242,-105,-333,3918,-0.39,0.43,32.12,-1.05,-3.33,39.18,-4.88,1.22,91.75,3.35,-1.11,-16.44
-4,11,287,-77,-397,3935,-0.37,0.46,30.65,-0.77,-3.97,39.35,-4.89,1.23,91.62,3.41,-1.16,-16.54
1,15,294,-22,-381,3935,-0.33,0.50,29.38,-0.22,-3.81,39.35,-4.90,1.23,91.51,3.31,-1.25,-16.34
2,7,339,-121,-407,3964,-0.28,0.49,28.51,-1.21,-4.07,39.64,-4.92,1.25,91.39,3.28,-1.10,-16.55
1,8,373,-59,-446,3974,-0.25,0.49,27.94,-0.59,-4.46,39.74,-4.93,1.26,91.28,3.30,-1.13,-16.71
-7,6,456,43,-409,3860,-0.27,0.48,27.92,0.43,-4.09,38.60,-4.94,1.25,91.17,3.48,-1.08,-17.41
-12,20,472,-48,-417,3966,-0.31,0.56,28.01,-0.48,-4.17,39.66,-4.96,1.26,91.06,3.60,-1.39,-17.55
-6,9,442,-25,-369,3895,-0.32,0.55,27.91,-0.25,-3.69,38.95,-4.96,1.25,90.95,3.49,-1.16,-17.26
-13,4,433,-16,-286,3922,-0.37,0.52,27.76,-0.16,-2.86,39.22,-4.95,1.25,90.84,3.63,-1.05,-17.15
-3,11,426,-84,-274,3882,-0.35,0.54,27.58,-0.84,-2.74,38.82,-4.93,1.26,90.73,3.41,-1.20,-17.05
-6,4,443,-54,-271,3851,-0.35,0.51,27.52,-0.54,-2.71,38.51,-4.92,1.26,90.62,3.46,-1.05,-17.17
-5,9,485,14,-318,3952,-0.35,0.51,27.73,0.14,-3.18,39.52,-4.91,1.26,90.51,3.44,-1.15,-17.55
2,16,500,-34,-368,3911,-0.30,0.56,28.01,-0.34,-3.68,39.11,-4.92,1.25,90.40,3.29,-1.30,-17.72
-3,10,532,-61,-267,3996,-0.29,0.56,28.45,-0.61,-2.67,39.96,-4.90,1.26,90.28,3.37,-1.19,-18.07
-13,5,538,-78,-433,3912,-0.34,0.54,28.89,-0.78,-4.33,39.12,-4.92,1.27,90.17,3.60,-1.09,-18.19
-14,3,582,-70,-358,3930,-0.39,0.50,29.55,-0.70,-3.58,39.30,-4.93,1.27,90.05,3.65,-1.04,-18.68
18,21,595,-31,-354,3949,-0.24,0.58,30.22,-0.31,-3.54,39.49,-4.93,1.26,89.93,2.96,-1.42,-18.91
-10,1,643,47,-345,3988,-0.28,0.53,31.12,0.47,-3.45,39.88,-4.93,1.26,89.81,3.53,-1.00,-19.48
-12,4,646,100,-420,3949,-0.32,0.50,31.95,1.00,-4.20,39.49,-4.94,1.25,89.68,3.59,-1.05,-19.65
-6,10,693,70,-310,3887,-0.33,0.51,32.98,0.70,-3.10,38.87,-4.93,1.25,89.55,3.47,-1.17,-20.00
-5,20,718,30,-372,3932,-0.33,0.58,34.07,0.30,-3.72,39.32,-4.94,1.25,89.41,3.45,-1.39,-20.00
-12,20,696,-147,-364,3964,-0.37,0.65,34.90,-1.47,-3.64,39.64,-4.94,1.28,89.28,3.60,-1.43,-20.00
-18,18,678,-32,-357,3983,-0.44,0.69,35.55,-0.32,-3.57,39.83,-4.94,1.28,89.13,3.75,-1.40,-20.00
-7,29,661,-156,-135,3921,-0.44,0.80,36.03,-1.56,-1.35,39.21,-4.92,1.30,88.99,3.51,-1.66,-20.00
-9,29,656,-54,-283,3876,-0.45,0.90,36.43,-0.54,-2.83,38.76,-4.91,1.30,88.85,3.54,-1.69,-20.00
-9,21,627,8,-193,3928,-0.46,0.93,36.61,0.08,-1.93,39.28,-4.89,1.31,88.70,3.54,-1.55,-20.00
5,27,601,-54,-175,3967,-0.38,1.01,36.61,-0.54,-1.75,39.67,-4.87,1.32,88.55,3.22,-1.70,-20.00
5,20,549,-77,-309,3923,-0.31,1.03,36.30,-0.77,-3.09,39.23,-4.85,1.33,88.41,3.19,-1.56,-19.55
-5,15,533,-64,-202,3868,-0.31,1.02,35.92,-0.64,-2.02,38.68,-4.83,1.34,88.27,3.38,-1.47,-19.32
-3,8,428,-125,-331,3912,-0.30,0.96,34.94,-1.25,-3.31,39.12,-4.83,1.38,88.13,3.33,-1.33,-18.24
-9,13,404,-113,-355,3924,-0.32,0.95,33.91,-1.13,-3.55,39.24,-4.84,1.40,87.99,3.47,-1.45,-17.82
-2,10,315,-100,-398,3946,-0.30,0.91,32.44,-1.00,-3.98,39.46,-4.86,1.42,87.86,3.33,-1.39,-16.78
-9,5,285,-68,-433,3911,-0.33,0.85,30.94,-0.68,-4.33,39.11,-4.88,1.43,87.74,3.49,-1.28,-16.22
-5,9,199,-118,-337,3910,-0.33,0.82,29.06,-1.18,-3.37,39.10,-4.88,1.46,87.63,3.41,-1.37,-15.13
0,8,165,-52,-346,3919,-0.29,0.79,27.16,-0.52,-3.46,39.19,-4.88,1.45,87.52,3.30,-1.34,-14.46
-9,-3,202,72,-439,3827,-0.32,0.69,25.67,0.72,-4.39,38.27,-4.89,1.45,87.42,3.50,-1.08,-14.49
0,4,219,-97,-433,3981,-0.29,0.65,24.44,-0.97,-4.33,39.81,-4.91,1.46,87.32,3.32,-1.22,-14.39
-18,-2,194,-179,-289,3906,-0.37,0.57,23.18,-1.79,-2.89,39.06,-4.90,1.48,87.23,3.70,-1.09,-13.92
-17,-2,179,-197,-264,3885,-0.44,0.50,21.96,-1.97,-2.64,38.85,-4.88,1.51,87.14,3.69,-1.09,-13.55
-3,-11,181,-128,-284,3902,-0.41,0.38,20.86,-1.28,-2.84,39.02,-4.87,1.53,87.06,3.39,-0.89,-13.36
-10,-3,188,-62,-341,3901,-0.43,0.33,19.92,-0.62,-3.41,39.01,-4.87,1.52,86.98,3.54,-1.03,-13.23
-8,-3,240,-72,-377,3897,-0.44,0.28,19.40,-0.72,-3.77,38.97,-4.89,1.51,86.90,3.51,-1.01,-13.56
-14,-11,269,41,-430,3865,-0.48,0.18,19.10,0.41,-4.30,38.65,-4.90,1.50,86.82,3.65,-0.82,-13.74
-15,-2,352,-27,-435,3874,-0.52,0.15,19.33,-0.27,-4.35,38.74,-4.91,1.50,86.75,3.69,-0.99,-14.48
-16,-3,357,18,-425,3826,-0.57,0.12,19.58,0.18,-4.25,38.26,-4.92,1.49,86.67,3.73,-0.96,-14.57
-7,0,399,46,-402,3855,-0.55,0.11,20.05,0.46,-4.02,38.55,-4.93,1.49,86.59,3.55,-1.01,-15.01
3,15,419,24,-412,3950,-0.48,0.19,20.61,0.24,-4.12,39.50,-4.94,1.48,86.51,3.33,-1.33,-15.27
-3,16,474,-56,-405,3926,-0.45,0.27,21.44,-0.56,-4.05,39.26,-4.95,1.47,86.42,3.45,-1.37,-15.89
-6,4,476,-33,-275,3900,-0.44,0.26,22.20,-0.33,-2.75,39.00,-4.94,1.47,86.33,3.50,-1.12,-16.04
-12,8,431,-139,-324,3913,-0.47,0.29,22.61,-1.39,-3.24,39.13,-4.93,1.50,86.24,3.63,-1.23,-15.73
-6,-3,427,-75,-179,3936,-0.46,0.24,22.95,-0.75,-1.79,39.36,-4.92,1.50,86.15,3.49,-1.00,-15.76
-12,-3,360,-75,-148,3905,-0.49,0.20,22.85,-0.75,-1.48,39.05,-4.90,1.51,86.06,3.61,-0.99,-15.16
-16,-7,338,-45,-124,3921,-0.54,0.13,22.63,-0.45,-1.24,39.21,-4.88,1.51,85.97,3.69,-0.89,-14.93
-5,-2,275,-79,-108,3929,-0.51,0.11,22.04,-0.79,-1.08,39.29,-4.86,1.52,85.88,3.45,-0.99,-14.27
-6,-8,256,-27,-145,3920,-0.50,0.05,21.40,-0.27,-1.45,39.20,-4.84,1.52,85.80,3.45,-0.85,-13.98
-6,4,276,-173,-298,3903,-0.49,0.07,20.94,-1.73,-2.98,39.03,-4.84,1.54,85.71,3.45,-1.12,-14.05
4,2,264,-180,-288,3899,-0.41,0.07,20.46,-1.80,-2.88,38.99,-4.83,1.56,85.63,3.22,-1.09,-13.85
-1,11,235,-56,-468,3923,-0.38,0.13,19.85,-0.56,-4.68,39.23,-4.84,1.57,85.55,3.32,-1.29,-13.48
7,10,231,-13,-395,3875,-0.30,0.18,19.27,-0.13,-3.95,38.75,-4.85,1.56,85.48,3.14,-1.28,-13.33
-2,4,279,18,-326,3909,-0.28,0.19,19.05,0.18,-3.26,39.09,-4.85,1.55,85.40,3.32,-1.15,-13.69
1,9,302,33,-342,3920,-0.25,0.22,18.98,0.33,-3.42,39.20,-4.85,1.54,85.32,3.25,-1.26,-13.87
-4,11,403,25,-332,3920,-0.25,0.27,19.54,0.25,-3.32,39.20,-4.85,1.53,85.25,3.35,-1.30,-14.82
-1,8,422,11,-352,3907,-0.23,0.29,20.16,0.11,-3.52,39.07,-4.85,1.52,85.17,3.28,-1.24,-15.09
-3,3,481,42,-460,3910,-0.22,0.28,21.08,0.42,-4.60,39.10,-4.86,1.51,85.08,3.33,-1.13,-15.76
3,9,492,-48,-410,3956,-0.18,0.31,21.97,-0.48,-4.10,39.56,-4.87,1.51,84.99,3.21,-1.26,-16.02
-11,0,467,-120,-514,3880,-0.23,0.28,22.63,-1.20,-5.14,38.80,-4.89,1.52,84.91,3.52,-1.08,-15.92
-5,7,458,-75,-446,3941,-0.24,0.29,23.16,-0.75,-4.46,39.41,-4.91,1.52,84.81,3.41,-1.23,-15.94
-17,0,446,-137,-343,3913,-0.32,0.26,23.56,-1.37,-3.43,39.13,-4.91,1.55,84.72,3.67,-1.09,-15.91
-1,11,460,-96,-340,3924,-0.29,0.30,24.01,-0.96,-3.40,39.24,-4.91,1.54,84.62,3.34,-1.32,-16.10
3,7,473,-101,-301,3958,-0.24,0.32,24.50,-1.01,-3.01,39.58,-4.89,1.55,84.53,3.24,-1.25,-16.30
-5,2,477,-68,-295,3888,-0.25,0.30,24.96,-0.68,-2.95,38.88,-4.88,1.54,84.43,3.39,-1.14,-16.41
-17,8,495,18,-356,3946,-0.33,0.32,25.48,0.18,-3.56,39.46,-4.88,1.54,84.33,3.66,-1.26,-16.65
-2,8,505,37,-364,3932,-0.31,0.33,26.01,0.37,-3.64,39.32,-4.88,1.53,84.22,3.35,-1.26,-16.83
-10,4,615,-104,-384,3876,-0.34,0.32,27.16,-1.04,-3.84,38.76,-4.90,1.54,84.11,3.53,-1.19,-17.97
-2,17,684,-155,-384,3928,-0.32,0.39,28.62,-1.55,-3.84,39.28,-4.91,1.56,84.00,3.37,-1.49,-18.82
4,28,767,-47,-436,3942,-0.26,0.53,30.44,-0.47,-4.36,39.42,-4.92,1.57,83.88,3.24,-1.75,-19.86
-1,21,779,-14,-414,3902,-0.24,0.60,32.14,-0.14,-4.14,39.02,-4.93,1.57,83.75,3.34,-1.62,-20.00
4,24,760,-17,-449,3889,-0.19,0.69,33.57,-0.17,-4.49,38.89,-4.94,1.57,83.62,3.23,-1.71,-20.00
-16,13,746,-16,-495,3922,-0.27,0.70,34.76,-0.16,-4.95,39.22,-4.96,1.57,83.48,3.67,-1.49,-20.00
-5,15,678,87,-477,3954,-0.27,0.72,35.42,0.87,-4.77,39.54,-4.96,1.57,83.34,3.45,-1.54,-20.00
-7,12,648,82,-486,3893,-0.29,0.72,35.83,0.82,-4.86,38.93,-4.97,1.57,83.20,3.50,-1.48,-19.83
-7,17,571,254,-528,3946,-0.30,0.75,35.73,2.54,-5.28,39.46,-4.98,1.57,83.06,3.51,-1.59,-19.14
-5,23,546,277,-441,3938,-0.30,0.82,35.49,2.77,-4.41,39.38,-4.98,1.57,82.91,3.47,-1.73,-18.87
-6,34,508,187,-330,3905,-0.31,0.94,35.04,1.87,-3.30,39.05,-4.98,1.57,82.78,3.49,-1.98,-18.45
-9,38,536,131,-211,3910,-0.33,1.08,34.80,1.31,-2.11,39.10,-4.97,1.57,82.64,3.55,-2.10,-18.63
2,32,657,120,-149,3925,-0.29,1.17,35.33,1.20,-1.49,39.25,-4.95,1.57,82.50,3.31,-2.01,-19.74
9,41,703,6,-197,3927,-0.20,1.30,36.09,0.06,-1.97,39.27,-4.93,1.58,82.35,3.13,-2.23,-20.00
2,25,807,-161,-262,3911,-0.17,1.32,37.40,-1.61,-2.62,39.11,-4.92,1.61,82.20,3.25,-1.93,-20.00
-9,7,839,-85,-247,3963,-0.21,1.23,38.78,-0.85,-2.47,39.63,-4.89,1.62,82.05,3.47,-1.55,-20.00
-14,10,913,-197,-238,3899,-0.27,1.17,40.47,-1.97,-2.38,38.99,-4.88,1.65,81.89,3.58,-1.61,-20.00
-8,2,940,-278,-228,3981,-0.30,1.07,42.16,-2.78,-2.28,39.81,-4.86,1.68,81.72,3.45,-1.44,-20.00
-14,-8,960,-309,-295,3900,-0.35,0.91,43.80,-3.09,-2.95,39.00,-4.86,1.72,81.54,3.59,-1.22,-20.00
-14,3,968,-286,-365,3878,-0.40,0.84,45.32,-2.86,-3.65,38.78,-4.86,1.76,81.36,3.60,-1.45,-20.00
-20,1,985,-359,-461,3958,-0.48,0.76,46.80,-3.59,-4.61,39.58,-4.86,1.79,81.18,3.75,-1.41,-20.00
6,4,979,-419,-394,3926,-0.40,0.71,48.09,-4.19,-3.94,39.26,-4.86,1.83,80.99,3.19,-1.48,-20.00
-24,-6,931,-332,-559,3892,-0.50,0.60,48.96,-3.32,-5.59,38.92,-4.87,1.86,80.79,3.84,-1.27,-20.00
-8,-2,922,-273,-432,3925,-0.50,0.53,49.69,-2.73,-4.32,39.25,-4.88,1.90,80.59,3.52,-1.35,-20.00
-19,3,832,-258,-615,3862,-0.57,0.49,49.80,-2.58,-6.15,38.62,-4.89,1.92,80.40,3.77,-1.46,-20.00
-14,-8,804,-232,-520,3927,-0.60,0.40,49.72,-2.32,-5.20,39.27,-4.90,1.95,80.20,3.68,-1.23,-20.00
0,9,733,-171,-506,3936,-0.54,0.41,49.22,-1.71,-5.06,39.36,-4.91,1.97,80.00,3.39,-1.60,-20.00
-9,10,709,-135,-468,3868,-0.54,0.43,48.62,-1.35,-4.68,38.68,-4.93,1.99,79.81,3.58,-1.63,-20.00
-13,5,600,-22,-398,3938,-0.56,0.42,47.42,-0.22,-3.98,39.38,-4.93,1.99,79.62,3.67,-1.53,-20.00
-5,13,564,4,-348,3912,-0.54,0.46,46.12,0.04,-3.48,39.12,-4.93,1.99,79.44,3.50,-1.70,-20.00
-9,10,441,64,-370,3889,-0.54,0.47,44.20,0.64,-3.70,38.89,-4.93,1.99,79.26,3.58,-1.65,-19.32
-7,9,385,41,-335,3905,-0.53,0.48,42.13,0.41,-3.35,39.05,-4.92,1.99,79.09,3.54,-1.63,-18.43
1,0,276,121,-316,3859,-0.47,0.43,39.60,1.21,-3.16,38.59,-4.92,1.99,78.94,3.35,-1.43,-17.01
0,1,240,105,-293,3944,-0.42,0.39,37.10,1.05,-2.93,39.44,-4.91,1.98,78.79,3.36,-1.44,-16.21
3,1,129,72,-260,3942,-0.36,0.36,34.18,0.72,-2.60,39.42,-4.90,1.98,78.65,3.27,-1.42,-14.70
3,2,107,94,-252,3906,-0.31,0.34,31.41,0.94,-2.52,39.06,-4.89,1.97,78.53,3.25,-1.43,-13.98
8,14,44,18,-268,3925,-0.23,0.39,28.54,0.18,-2.68,39.25,-4.88,1.97,78.41,3.12,-1.69,-12.88
11,10,14,-34,-267,3911,-0.14,0.41,25.77,-0.34,-2.67,39.11,-4.87,1.96,78.31,3.03,-1.61,-12.09
8,6,-50,19,-339,3904,-0.08,0.41,22.89,0.19,-3.39,39.04,-4.87,1.95,78.22,3.07,-1.52,-10.99
5,6,-54,65,-366,3916,-0.04,0.40,20.27,0.65,-3.66,39.16,-4.87,1.94,78.14,3.12,-1.51,-10.45
6,6,-52,-45,-344,3925,0.00,0.40,17.93,-0.45,-3.44,39.25,-4.87,1.93,78.07,3.09,-1.51,-10.01
5,5,-57,10,-398,3888,0.03,0.39,15.79,0.10,-3.98,38.88,-4.87,1.92,78.00,3.10,-1.48,-9.55
3,4,-24,70,-322,3886,0.05,0.37,14.06,0.70,-3.22,38.86,-4.87,1.91,77.95,3.14,-1.44,-9.50
4,2,5,80,-345,3926,0.07,0.35,12.69,0.80,-3.45,39.26,-4.87,1.90,77.90,3.11,-1.39,-9.48
9,-12,38,19,-364,3914,0.12,0.24,11.65,0.19,-3.64,39.14,-4.87,1.89,77.85,3.00,-1.07,-9.55
4,-9,44,-9,-425,3941,0.13,0.16,10.75,-0.09,-4.25,39.41,-4.88,1.88,77.81,3.10,-1.10,-9.43
-2,-6,109,-163,-349,3935,0.10,0.11,10.34,-1.63,-3.49,39.35,-4.88,1.90,77.77,3.24,-1.16,-9.90
2,-12,125,-142,-380,3927,0.11,0.03,10.07,-1.42,-3.80,39.27,-4.90,1.90,77.73,3.16,-1.02,-9.98
-8,-5,164,-109,-349,3896,0.05,-0.01,10.06,-1.09,-3.49,38.96,-4.91,1.89,77.69,3.39,-1.15,-10.30
-6,-3,173,-183,-307,3864,0.00,-0.03,10.11,-1.83,-3.07,38.64,-4.90,1.91,77.65,3.35,-1.19,-10.39
0,3,157,-244,-394,3903,0.00,-0.00,10.06,-2.44,-3.94,39.03,-4.91,1.93,77.61,3.24,-1.34,-10.24
-3,6,160,-239,-332,3927,-0.01,0.03,10.03,-2.39,-3.32,39.27,-4.90,1.95,77.57,3.30,-1.42,-10.25
-5,13,205,-81,-273,3914,-0.04,0.11,10.28,-0.81,-2.73,39.14,-4.89,1.95,77.53,3.34,-1.58,-10.68
1,15,258,-117,-233,3915,-0.03,0.19,10.82,-1.17,-2.33,39.15,-4.87,1.95,77.48,3.20,-1.64,-11.23
-7,13,488,-148,-317,3898,-0.07,0.25,12.72,-1.48,-3.17,38.98,-4.86,1.97,77.43,3.37,-1.63,-13.53
-7,7,532,-126,-346,3906,-0.11,0.27,14.69,-1.26,-3.46,39.06,-4.87,1.96,77.37,3.39,-1.51,-14.28
-16,12,591,-30,-423,3914,-0.19,0.31,16.83,-0.30,-4.23,39.14,-4.88,1.96,77.31,3.60,-1.62,-15.18
-7,6,586,-38,-455,3930,-0.22,0.32,18.72,-0.38,-4.55,39.30,-4.89,1.95,77.23,3.43,-1.50,-15.49
-2,6,567,-177,-373,3887,-0.21,0.32,20.31,-1.77,-3.73,38.87,-4.90,1.97,77.15,3.33,-1.51,-15.63
-5,3,567,-90,-358,3913,-0.22,0.31,21.73,-0.90,-3.58,39.13,-4.91,1.97,77.07,3.40,-1.44,-15.89
-10,13,512,-145,-376,3959,-0.26,0.36,22.68,-1.45,-3.76,39.59,-4.92,1.98,76.98,3.52,-1.67,-15.60
-19,-1,468,-132,-462,3868,-0.35,0.32,23.27,-1.32,-4.62,38.68,-4.94,1.99,76.89,3.74,-1.38,-15.33
-10,5,347,-179,-404,3920,-0.37,0.32,23.06,-1.79,-4.04,39.20,-4.95,2.01,76.79,3.58,-1.51,-14.26
-12,3,317,-119,-437,3891,-0.41,0.30,22.69,-1.19,-4.37,38.91,-4.97,2.01,76.70,3.64,-1.47,-13.92
0,10,246,-64,-441,3916,-0.37,0.33,21.92,-0.64,-4.41,39.16,-4.98,2.01,76.62,3.39,-1.62,-13.17
-5,5,218,-35,-524,3897,-0.36,0.33,21.06,-0.35,-5.24,38.97,-5.00,2.01,76.53,3.50,-1.52,-12.76
-4,11,108,-11,-291,3902,-0.35,0.36,19.61,-0.11,-2.91,39.02,-4.99,2.00,76.46,3.47,-1.64,-11.54
-1,10,108,5,-282,3938,-0.32,0.39,18.31,0.05,-2.82,39.38,-4.98,1.99,76.38,3.40,-1.62,-11.29
1,8,81,-20,-355,3896,-0.28,0.40,16.97,-0.20,-3.55,38.96,-4.98,1.98,76.32,3.35,-1.58,-10.80
1,9,74,4,-339,3906,-0.25,0.41,15.73,0.04,-3.39,39.06,-4.98,1.97,76.25,3.34,-1.60,-10.50
6,5,39,38,-352,3926,-0.19,0.40,14.39,0.38,-3.52,39.26,-4.98,1.96,76.20,3.22,-1.50,-9.94
11,3,30,81,-386,3918,-0.10,0.38,13.13,0.81,-3.86,39.18,-4.98,1.95,76.14,3.09,-1.45,-9.62
17,3,57,7,-418,3891,0.01,0.36,12.17,0.07,-4.18,38.91,-4.99,1.94,76.10,2.95,-1.44,-9.66
15,3,65,22,-413,3906,0.10,0.34,11.35,0.22,-4.13,39.06,-5.00,1.93,76.05,2.97,-1.43,-9.56
8,3,130,72,-488,3961,0.14,0.33,11.01,0.72,-4.88,39.61,-5.01,1.92,76.01,3.10,-1.41,-10.05
5,1,135,107,-510,3929,0.16,0.30,10.73,1.07,-5.10,39.29,-5.01,1.91,75.96,3.16,-1.36,-10.03
1,-1,139,50,-509,3877,0.15,0.26,10.50,0.50,-5.09,38.77,-5.02,1.90,75.92,3.26,-1.30,-10.02
0,0,147,-32,-442,3907,0.13,0.24,10.35,-0.32,-4.42,39.07,-5.04,1.89,75.88,3.29,-1.31,-10.05
-1,0,97,-160,-361,3917,0.11,0.21,9.91,-1.60,-3.61,39.17,-5.04,1.91,75.84,3.32,-1.32,-9.54
1,4,73,-159,-323,3940,0.11,0.22,9.36,-1.59,-3.23,39.40,-5.03,1.93,75.81,3.27,-1.41,-9.23
-4,-5,31,-252,-210,3934,0.07,0.16,8.61,-2.52,-2.10,39.34,-5.01,1.94,75.77,3.37,-1.23,-8.73
-3,1,51,-224,-199,3931,0.05,0.15,8.06,-2.24,-1.99,39.31,-5.00,1.96,75.74,3.35,-1.35,-8.79
-14,3,98,-112,-340,3937,-0.04,0.16,7.86,-1.12,-3.40,39.37,-4.99,1.94,75.71,3.59,-1.39,-9.15
-16,1,98,-94,-364,3944,-0.14,0.15,7.67,-0.94,-3.64,39.44,-5.00,1.93,75.68,3.66,-1.33,-9.11
-5,2,96,-151,-542,3864,-0.15,0.15,7.49,-1.51,-5.42,38.64,-5.02,1.93,75.65,3.45,-1.36,-9.05
-1,5,109,-98,-509,3858,-0.14,0.16,7.40,-0.98,-5.09,38.58,-5.03,1.93,75.62,3.38,-1.42,-9.14
6,15,136,24,-423,3919,-0.09,0.24,7.49,0.24,-4.23,39.19,-5.04,1.92,75.59,3.23,-1.64,-9.39
6,19,160,51,-466,3914,-0.05,0.33,7.72,0.51,-4.66,39.14,-5.05,1.91,75.56,3.22,-1.74,-9.63
-4,13,214,12,-446,3864,-0.07,0.38,8.25,0.12,-4.46,38.64,-5.06,1.90,75.53,3.44,-1.62,-10.19
2,11,230,12,-500,3904,-0.05,0.40,8.83,0.12,-5.00,39.04,-5.07,1.89,75.49,3.32,-1.58,-10.43
3,10,288,-1,-407,3922,-0.02,0.43,9.70,-0.01,-4.07,39.22,-5.08,1.88,75.45,3.30,-1.56,-11.09
1,10,312,39,-350,3923,-0.02,0.44,10.64,0.39,-3.50,39.23,-5.08,1.87,75.41,3.34,-1.56,-11.46
-8,-6,372,50,-383,3964,-0.06,0.36,11.84,0.50,-3.83,39.64,-5.08,1.85,75.36,3.53,-1.20,-12.20
-7,5,384,68,-339,3919,-0.10,0.36,13.00,0.68,-3.39,39.19,-5.08,1.84,75.31,3.52,-1.41,-12.52
-15,-2,450,-59,-372,3881,-0.18,0.31,14.45,-0.59,-3.72,38.81,-5.08,1.83,75.26,3.71,-1.25,-13.35
-19,-7,465,-36,-408,3848,-0.28,0.24,15.84,-0.36,-4.08,38.48,-5.09,1.82,75.19,3.83,-1.12,-13.73
-12,-1,473,-85,-353,3886,-0.32,0.21,17.14,-0.85,-3.53,38.86,-5.10,1.81,75.12,3.70,-1.23,-14.04
-11,9,489,-118,-368,3916,-0.36,0.24,18.41,-1.18,-3.68,39.16,-5.11,1.81,75.05,3.70,-1.45,-14.42
7,11,596,-155,-419,3956,-0.28,0.28,20.20,-1.55,-4.19,39.56,-5.13,1.83,74.97,3.32,-1.51,-15.66
7,18,610,-108,-397,3872,-0.21,0.36,21.90,-1.08,-3.97,38.72,-5.14,1.83,74.89,3.31,-1.67,-16.09
-3,13,594,13,-468,3952,-0.21,0.41,23.34,0.13,-4.68,39.52,-5.15,1.83,74.79,3.52,-1.58,-16.22
11,5,586,-74,-441,3972,-0.12,0.40,24.58,-0.74,-4.41,39.72,-5.17,1.83,74.70,3.22,-1.42,-16.38
0,12,556,-10,-377,3872,-0.11,0.43,25.51,-0.10,-3.77,38.72,-5.17,1.82,74.59,3.44,-1.56,-16.30
-3,15,556,3,-370,3917,-0.11,0.48,26.35,0.03,-3.70,39.17,-5.17,1.81,74.49,3.50,-1.63,-16.45
0,4,557,-23,-267,3895,-0.10,0.46,27.11,-0.23,-2.67,38.95,-5.15,1.81,74.38,3.43,-1.40,-16.60
-16,-3,548,-86,-319,3924,-0.19,0.39,27.75,-0.86,-3.19,39.24,-5.14,1.81,74.27,3.77,-1.24,-16.63
-3,-4,509,-37,-436,3893,-0.19,0.33,28.08,-0.37,-4.36,38.93,-5.15,1.81,74.16,3.51,-1.20,-16.35
-13,7,502,-63,-388,3943,-0.25,0.34,28.33,-0.63,-3.88,39.43,-5.15,1.80,74.05,3.73,-1.43,-16.33
-5,5,483,-116,-327,3882,-0.26,0.33,28.44,-1.16,-3.27,38.82,-5.13,1.81,73.93,3.56,-1.39,-16.18
-15,-2,487,-144,-330,3973,-0.32,0.29,28.57,-1.44,-3.30,39.73,-5.12,1.83,73.82,3.77,-1.25,-16.23
-9,12,488,-133,-391,3945,-0.34,0.33,28.69,-1.33,-3.91,39.45,-5.13,1.85,73.70,3.66,-1.55,-16.25
-13,10,477,-155,-399,3912,-0.39,0.36,28.73,-1.55,-3.99,39.12,-5.14,1.87,73.59,3.77,-1.53,-16.16
-10,11,436,-150,-364,3918,-0.41,0.39,28.52,-1.50,-3.64,39.18,-5.15,1.90,73.48,3.72,-1.58,-15.76
-12,9,432,-154,-392,3915,-0.44,0.41,28.30,-1.54,-3.92,39.15,-5.16,1.92,73.37,3.77,-1.56,-15.67
-1,16,390,-137,-308,3976,-0.41,0.46,27.85,-1.37,-3.08,39.76,-5.14,1.93,73.25,3.53,-1.73,-15.22
-6,4,383,-97,-244,3851,-0.40,0.44,27.40,-0.97,-2.44,38.51,-5.13,1.94,73.14,3.61,-1.48,-15.06
-9,0,358,-43,-333,3972,-0.42,0.40,26.84,-0.43,-3.33,39.72,-5.12,1.93,73.04,3.67,-1.38,-14.74
-2,12,355,-89,-301,3874,-0.39,0.43,26.33,-0.89,-3.01,38.74,-5.10,1.93,72.93,3.51,-1.63,-14.60
3,14,371,-139,-315,3974,-0.33,0.47,25.96,-1.39,-3.15,39.74,-5.08,1.94,72.83,3.38,-1.70,-14.66
-11,7,380,-116,-298,3874,-0.36,0.47,25.68,-1.16,-2.98,38.74,-5.06,1.95,72.73,3.66,-1.56,-14.67
-12,5,383,-148,-354,3923,-0.40,0.45,25.45,-1.48,-3.54,39.23,-5.07,1.97,72.62,3.70,-1.53,-14.64
-9,6,347,-153,-357,3900,-0.42,0.44,25.02,-1.53,-3.57,39.00,-5.08,2.00,72.52,3.65,-1.56,-14.25
-4,-1,289,-87,-376,3904,-0.40,0.39,24.28,-0.87,-3.76,39.04,-5.08,1.99,72.43,3.55,-1.40,-13.61
-12,3,279,-81,-358,3898,-0.43,0.37,23.55,-0.81,-3.58,38.98,-5.09,1.99,72.33,3.72,-1.47,-13.38
-2,6,263,-178,-299,3929,-0.40,0.37,22.80,-1.78,-2.99,39.29,-5.07,2.01,72.24,3.50,-1.55,-13.09
1,5,265,-146,-306,3901,-0.35,0.37,22.14,-1.46,-3.06,39.01,-5.05,2.02,72.15,3.41,-1.54,-12.97
-7,4,278,-155,-414,3938,-0.36,0.35,21.62,-1.55,-4.14,39.38,-5.07,2.03,72.07,3.59,-1.52,-12.97
-9,5,256,-119,-429,3921,-0.38,0.35,21.02,-1.19,-4.29,39.21,-5.08,2.04,71.99,3.64,-1.54,-12.66
-7,9,199,-165,-315,3945,-0.39,0.37,20.13,-1.65,-3.15,39.45,-5.07,2.06,71.91,3.59,-1.64,-12.00
-8,15,192,-166,-260,3903,-0.40,0.42,19.29,-1.66,-2.60,39.03,-5.05,2.07,71.83,3.60,-1.79,-11.78
-2,11,178,-170,-325,3875,-0.37,0.45,18.45,-1.70,-3.25,38.75,-5.04,2.09,71.75,3.47,-1.73,-11.49
3,13,206,-149,-288,3912,-0.31,0.48,17.86,-1.49,-2.88,39.12,-5.02,2.10,71.68,3.34,-1.79,-11.61
7,27,322,-87,-235,3950,-0.24,0.60,18.04,-0.87,-2.35,39.50,-5.00,2.11,71.61,3.22,-2.10,-12.62
12,30,352,-85,-237,3950,-0.14,0.72,18.38,-0.85,-2.37,39.50,-4.98,2.11,71.54,3.08,-2.20,-12.93
-1,17,415,-13,-349,3934,-0.13,0.75,19.07,-0.13,-3.49,39.34,-4.98,2.10,71.46,3.34,-1.93,-13.59
1,14,419,26,-330,3977,-0.11,0.76,19.72,0.26,-3.30,39.77,-4.98,2.09,71.38,3.30,-1.87,-13.74
-7,9,449,53,-414,3958,-0.15,0.74,20.49,0.53,-4.14,39.58,-4.98,2.08,71.30,3.47,-1.76,-14.14
-12,5,431,51,-458,3915,-0.20,0.70,21.07,0.51,-4.58,39.15,-4.99,2.08,71.22,3.59,-1.66,-14.09
-10,6,339,5,-441,3904,-0.24,0.67,21.03,0.05,-4.41,39.04,-5.00,2.07,71.13,3.57,-1.67,-13.29
-12,-1,324,9,-430,3917,-0.29,0.59,20.90,0.09,-4.30,39.17,-5.00,2.06,71.05,3.63,-1.50,-13.13
-2,0,267,-117,-453,3890,-0.28,0.53,20.44,-1.17,-4.53,38.90,-5.02,2.07,70.97,3.43,-1.51,-12.56
1,-3,198,-12,-402,3959,-0.24,0.46,19.61,-0.12,-4.02,39.59,-5.02,2.06,70.89,3.36,-1.43,-11.80
-8,-5,112,-80,-413,3908,-0.27,0.38,18.33,-0.80,-4.13,39.08,-5.04,2.06,70.82,3.56,-1.36,-10.83
-4,-7,101,-88,-389,3913,-0.26,0.30,17.11,-0.88,-3.89,39.13,-5.05,2.05,70.75,3.48,-1.29,-10.49
2,-2,147,-83,-335,3908,-0.23,0.26,16.30,-0.83,-3.35,39.08,-5.04,2.04,70.69,3.35,-1.38,-10.72
-3,-1,163,-98,-335,3936,-0.22,0.23,15.66,-0.98,-3.35,39.36,-5.04,2.03,70.63,3.45,-1.38,-10.73
4,6,130,-120,-384,3924,-0.18,0.24,14.89,-1.20,-3.84,39.24,-5.05,2.03,70.57,3.30,-1.53,-10.30
5,5,135,-99,-373,3928,-0.13,0.25,14.22,-0.99,-3.73,39.28,-5.06,2.02,70.51,3.27,-1.50,-10.21
-8,1,178,83,-346,3928,-0.16,0.23,13.89,0.83,-3.46,39.28,-5.06,2.00,70.46,3.55,-1.41,-10.50
-20,12,204,147,-253,3900,-0.27,0.28,13.74,1.47,-2.53,39.00,-5.05,1.99,70.40,3.81,-1.64,-10.69
12,-2,263,-148,-440,3972,-0.17,0.24,13.97,-1.48,-4.40,39.72,-5.07,2.00,70.35,3.15,-1.34,-11.23
-2,-1,233,-63,-403,3952,-0.16,0.21,14.00,-0.63,-4.03,39.52,-5.08,1.99,70.29,3.44,-1.35,-10.98
-6,1,237,-48,-425,3947,-0.18,0.20,14.04,-0.48,-4.25,39.47,-5.09,1.98,70.23,3.53,-1.38,-11.01
-1,4,262,-56,-365,3949,-0.17,0.20,14.24,-0.56,-3.65,39.49,-5.09,1.97,70.18,3.43,-1.44,-11.26
-19,9,388,-46,-369,3845,-0.27,0.23,15.18,-0.46,-3.69,38.45,-5.09,1.96,70.12,3.82,-1.54,-12.50
-2,14,421,-167,-360,4034,-0.26,0.30,16.23,-1.67,-3.60,40.34,-5.09,1.98,70.05,3.47,-1.68,-12.97
-2,15,430,-95,-335,3925,-0.24,0.36,17.23,-0.95,-3.35,39.25,-5.09,1.97,69.98,3.46,-1.71,-13.23
-1,11,438,-56,-403,3941,-0.22,0.39,18.18,-0.56,-4.03,39.41,-5.09,1.97,69.91,3.44,-1.63,-13.48
-1,12,445,17,-363,3914,-0.21,0.42,19.08,0.17,-3.63,39.14,-5.09,1.96,69.84,3.44,-1.65,-13.70
-7,18,454,-55,-438,3946,-0.23,0.49,19.94,-0.55,-4.38,39.46,-5.11,1.95,69.76,3.57,-1.79,-13.93
-2,7,438,35,-377,3901,-0.22,0.49,20.62,0.35,-3.77,39.01,-5.11,1.94,69.68,3.47,-1.56,-13.92
-7,8,425,32,-495,3893,-0.24,0.49,21.15,0.32,-4.95,38.93,-5.12,1.94,69.59,3.58,-1.58,-13.91
-8,2,362,-15,-455,3931,-0.26,0.45,21.24,-0.15,-4.55,39.31,-5.13,1.94,69.51,3.62,-1.44,-13.38
-2,0,355,-35,-502,3858,-0.25,0.40,21.28,-0.35,-5.02,38.58,-5.14,1.94,69.42,3.50,-1.39,-13.32
-12,-6,411,-64,-543,3889,-0.30,0.33,21.66,-0.64,-5.43,38.89,-5.16,1.94,69.34,3.73,-1.25,-13.86
3,9,414,-95,-448,3925,-0.25,0.35,22.02,-0.95,-4.48,39.25,-5.17,1.94,69.25,3.42,-1.56,-13.95
3,14,426,-129,-342,3940,-0.21,0.40,22.42,-1.29,-3.42,39.40,-5.15,1.94,69.16,3.40,-1.68,-14.12
-15,2,440,-38,-305,3952,-0.28,0.37,22.86,-0.38,-3.05,39.52,-5.14,1.94,69.07,3.77,-1.42,-14.31
-12,-3,447,-86,-500,3875,-0.32,0.32,23.30,-0.86,-5.00,38.75,-5.16,1.94,68.98,3.74,-1.31,-14.45
7,7,442,-83,-503,3919,-0.25,0.33,23.67,-0.83,-5.03,39.19,-5.17,1.95,68.88,3.34,-1.52,-14.47
-10,6,496,-47,-445,3977,-0.28,0.33,24.32,-0.47,-4.45,39.77,-5.18,1.94,68.79,3.70,-1.49,-15.04
-7,5,508,-65,-379,3892,-0.30,0.33,24.99,-0.65,-3.79,38.92,-5.19,1.94,68.69,3.65,-1.47,-15.26
-13,2,584,-118,-532,3911,-0.35,0.31,26.05,-1.18,-5.32,39.11,-5.20,1.95,68.59,3.79,-1.41,-16.10
-1,11,592,-12,-428,3904,-0.32,0.34,27.06,-0.12,-4.28,39.04,-5.21,1.94,68.48,3.55,-1.60,-16.35
-10,6,564,-70,-474,3855,-0.35,0.35,27.79,-0.70,-4.74,38.55,-5.22,1.94,68.37,3.75,-1.50,-16.24
1,15,558,-122,-471,3949,-0.31,0.40,28.42,-1.22,-4.71,39.49,-5.24,1.95,68.26,3.52,-1.70,-16.30
2,15,537,-68,-446,3893,-0.26,0.45,28.85,-0.68,-4.46,38.93,-5.25,1.96,68.14,3.50,-1.72,-16.20
2,19,524,-46,-482,3882,-0.23,0.52,29.16,-0.46,-4.82,38.82,-5.26,1.96,68.03,3.49,-1.82,-16.14
-4,5,483,89,-519,3897,-0.23,0.50,29.19,0.89,-5.19,38.97,-5.27,1.96,67.91,3.62,-1.53,-15.78
-1,6,448,-15,-476,3947,-0.21,0.49,29.01,-0.15,-4.76,39.47,-5.28,1.95,67.80,3.56,-1.55,-15.44
-8,-9,458,-28,-432,3883,-0.24,0.39,28.90,-0.28,-4.32,38.83,-5.29,1.95,67.68,3.72,-1.21,-15.49
-11,-9,486,-33,-451,3915,-0.28,0.29,28.97,-0.33,-4.51,39.15,-5.30,1.95,67.57,3.80,-1.18,-15.74
-12,3,510,-124,-422,3895,-0.33,0.28,29.19,-1.24,-4.22,38.95,-5.31,1.96,67.45,3.84,-1.43,-15.97
0,4,529,-96,-490,3923,-0.29,0.28,29.50,-0.96,-4.90,39.23,-5.33,1.97,67.33,3.60,-1.45,-16.18
-6,17,625,-137,-413,3868,-0.30,0.35,30.36,-1.37,-4.13,38.68,-5.34,1.98,67.21,3.73,-1.75,-17.15
-10,20,663,-123,-494,3932,-0.33,0.44,31.37,-1.23,-4.94,39.32,-5.36,1.99,67.09,3.83,-1.84,-17.65
-9,30,734,3,-453,3878,-0.35,0.58,32.71,0.03,-4.53,38.78,-5.36,1.99,66.96,3.82,-2.08,-18.50
0,24,733,-111,-452,3951,-0.32,0.67,33.91,-1.11,-4.52,39.51,-5.38,2.00,66.82,3.64,-1.99,-18.70
1,18,708,-27,-460,3947,-0.28,0.71,34.84,-0.27,-4.60,39.47,-5.39,2.00,66.69,3.61,-1.88,-18.66
-24,-1,699,-31,-414,3919,-0.40,0.63,35.62,-0.31,-4.14,39.19,-5.39,2.00,66.54,4.15,-1.47,-18.72
-18,2,637,-69,-344,3877,-0.47,0.58,35.94,-0.69,-3.44,38.77,-5.38,2.00,66.40,4.05,-1.52,-18.24
-19,6,587,-65,-264,3857,-0.54,0.56,35.93,-0.65,-2.64,38.57,-5.36,2.00,66.26,4.07,-1.60,-17.80
-6,17,508,-94,-294,3941,-0.52,0.61,35.43,-0.94,-2.94,39.41,-5.34,2.01,66.12,3.79,-1.84,-17.03
-13,12,501,-170,-270,3886,-0.55,0.62,34.95,-1.70,-2.70,38.86,-5.32,2.03,65.98,3.93,-1.75,-16.86
-6,20,517,-123,-353,3843,-0.53,0.68,34.61,-1.23,-3.53,38.43,-5.32,2.03,65.84,3.77,-1.93,-16.92
5,20,536,-123,-353,3941,-0.45,0.73,34.41,-1.23,-3.53,39.41,-5.30,2.03,65.70,3.52,-1.95,-17.03
-10,14,558,-58,-311,3916,-0.46,0.75,34.38,-0.58,-3.11,39.16,-5.29,2.03,65.56,3.82,-1.83,-17.20
-26,21,572,-73,-423,4021,-0.57,0.80,34.43,-0.73,-4.23,40.21,-5.30,2.03,65.43,4.18,-1.99,-17.31
-4,5,497,-166,-394,3857,-0.54,0.75,34.02,-1.66,-3.94,38.57,-5.31,2.06,65.29,3.73,-1.67,-16.59
-10,5,485,-170,-358,3934,-0.55,0.71,33.57,-1.70,-3.58,39.34,-5.30,2.09,65.16,3.85,-1.68,-16.39
-2,3,442,-78,-358,3981,-0.51,0.65,32.91,-0.78,-3.58,39.81,-5.29,2.09,65.03,3.67,-1.62,-15.89
-9,-4,432,-119,-420,3900,-0.51,0.56,32.26,-1.19,-4.20,39.00,-5.31,2.10,64.90,3.83,-1.46,-15.67
-5,1,440,-200,-298,3829,-0.49,0.51,31.72,-2.00,-2.98,38.29,-5.29,2.12,64.77,3.73,-1.56,-15.62
8,14,425,-141,-391,3987,-0.39,0.55,31.14,-1.41,-3.91,39.87,-5.31,2.13,64.65,3.45,-1.84,-15.37
-9,14,337,-197,-347,3904,-0.41,0.58,30.08,-1.97,-3.47,39.04,-5.30,2.16,64.53,3.79,-1.87,-14.41
-6,15,316,-133,-409,3948,-0.40,0.61,29.00,-1.33,-4.09,39.48,-5.31,2.17,64.42,3.74,-1.90,-14.02
-8,4,271,-86,-356,3935,-0.41,0.58,27.75,-0.86,-3.56,39.35,-5.31,2.16,64.31,3.78,-1.67,-13.39
-7,4,262,-102,-368,3920,-0.41,0.54,26.57,-1.02,-3.68,39.20,-5.31,2.16,64.20,3.76,-1.65,-13.08
1,16,355,-176,-336,3918,-0.37,0.59,26.08,-1.76,-3.36,39.18,-5.29,2.18,64.10,3.57,-1.92,-13.76
0,11,380,-164,-276,3909,-0.33,0.59,25.79,-1.64,-2.76,39.09,-5.27,2.20,63.99,3.57,-1.84,-13.91
0,23,402,-167,-343,3921,-0.30,0.67,25.67,-1.67,-3.43,39.21,-5.25,2.22,63.89,3.55,-2.12,-14.06
-1,22,420,-147,-304,3965,-0.27,0.74,25.66,-1.47,-3.04,39.65,-5.23,2.23,63.79,3.55,-2.12,-14.20
-1,25,423,-104,-376,3950,-0.25,0.82,25.67,-1.04,-3.76,39.50,-5.24,2.23,63.69,3.54,-2.20,-14.22
-8,13,391,-113,-403,3915,-0.28,0.82,25.49,-1.13,-4.03,39.15,-5.25,2.23,63.58,3.70,-1.96,-13.91
-9,14,321,-55,-441,3905,-0.30,0.82,24.90,-0.55,-4.41,39.05,-5.26,2.22,63.49,3.73,-1.98,-13.19
-7,16,315,-50,-463,3909,-0.32,0.84,24.33,-0.50,-4.63,39.09,-5.27,2.22,63.39,3.70,-2.02,-13.02
2,11,292,-55,-374,3937,-0.27,0.82,23.68,-0.55,-3.74,39.37,-5.27,2.22,63.30,3.51,-1.91,-12.70
-3,6,277,-27,-373,3911,-0.26,0.77,23.00,-0.27,-3.73,39.11,-5.27,2.21,63.20,3.61,-1.79,-12.43
-6,4,232,-29,-415,3901,-0.27,0.72,22.12,-0.29,-4.15,39.01,-5.27,2.20,63.12,3.67,-1.73,-11.87
-2,-1,203,-3,-407,3926,-0.26,0.64,21.14,-0.03,-4.07,39.26,-5.27,2.20,63.03,3.59,-1.61,-11.43
4,1,149,-87,-364,3931,-0.21,0.58,19.94,-0.87,-3.64,39.31,-5.27,2.19,62.95,3.45,-1.62,-10.74
8,-1,141,-115,-391,3913,-0.14,0.52,18.80,-1.15,-3.91,39.13,-5.28,2.18,62.88,3.36,-1.56,-10.45
3,-5,168,-17,-401,3906,-0.11,0.44,17.95,-0.17,-4.01,39.06,-5.28,2.17,62.81,3.46,-1.45,-10.51
4,4,188,10,-408,3938,-0.07,0.42,17.30,0.10,-4.08,39.38,-5.29,2.17,62.74,3.43,-1.62,-10.55
2,2,340,63,-436,3951,-0.05,0.39,17.64,0.63,-4.36,39.51,-5.29,2.16,62.67,3.46,-1.57,-11.89
-9,0,388,60,-500,3897,-0.10,0.35,18.25,0.60,-5.00,38.97,-5.30,2.15,62.60,3.71,-1.51,-12.41
-14,8,454,32,-523,3884,-0.18,0.36,19.19,0.32,-5.23,38.84,-5.31,2.14,62.52,3.84,-1.68,-13.14
4,13,452,-31,-528,4025,-0.13,0.41,20.03,-0.31,-5.28,40.25,-5.32,2.14,62.44,3.47,-1.79,-13.28
8,24,436,-134,-468,3965,-0.07,0.51,20.69,-1.34,-4.68,39.65,-5.34,2.15,62.36,3.38,-2.05,-13.26
3,9,436,-89,-376,3864,-0.05,0.52,21.28,-0.89,-3.76,38.64,-5.34,2.14,62.28,3.47,-1.74,-13.37
2,11,492,-96,-397,3925,-0.03,0.53,22.15,-0.96,-3.97,39.25,-5.34,2.14,62.19,3.49,-1.78,-14.00
1,14,525,-107,-349,3917,-0.02,0.56,23.14,-1.07,-3.49,39.17,-5.33,2.13,62.10,3.50,-1.84,-14.46
21,33,573,-111,-420,3978,0.11,0.71,24.32,-1.11,-4.20,39.78,-5.34,2.13,62.00,3.07,-2.27,-15.08
29,47,577,-145,-350,3893,0.28,0.92,25.41,-1.45,-3.50,38.93,-5.32,2.14,61.90,2.85,-2.62,-15.32
31,47,601,-65,-247,3901,0.44,1.12,26.53,-0.65,-2.47,39.01,-5.30,2.15,61.79,2.75,-2.68,-15.72
29,45,581,41,-275,4003,0.57,1.28,27.42,0.41,-2.75,40.03,-5.28,2.15,61.68,2.74,-2.68,-15.71
-25,11,483,-4,-381,3885,0.36,1.22,27.63,-0.04,-3.81,38.85,-5.28,2.14,61.57,3.90,-1.97,-14.91
-24,7,483,-20,-475,4026,0.18,1.14,27.81,-0.20,-4.75,40.26,-5.29,2.14,61.46,3.93,-1.87,-14.94
42,22,411,-152,-613,3873,0.42,1.16,27.54,-1.52,-6.13,38.73,-5.30,2.16,61.36,2.53,-2.19,-14.27
25,24,353,-152,-473,3860,0.53,1.19,26.94,-1.52,-4.73,38.60,-5.31,2.17,61.25,2.85,-2.25,-13.65
11,18,271,-75,-456,3937,0.54,1.18,25.90,-0.75,-4.56,39.37,-5.32,2.18,61.15,3.14,-2.12,-12.75
8,13,276,-60,-393,3971,0.54,1.14,24.99,-0.60,-3.93,39.71,-5.32,2.17,61.05,3.20,-2.01,-12.61
1,7,246,-112,-337,3945,0.49,1.07,23.99,-1.12,-3.37,39.45,-5.30,2.17,60.95,3.35,-1.87,-12.15
11,5,241,-136,-381,3910,0.51,0.99,23.06,-1.36,-3.81,39.10,-5.31,2.17,60.86,3.14,-1.81,-11.93
14,17,241,-188,-309,3958,0.54,1.00,22.23,-1.88,-3.09,39.58,-5.29,2.19,60.77,3.06,-2.07,-11.76
5,6,218,-140,-364,3840,0.52,0.94,21.33,-1.40,-3.64,38.40,-5.30,2.19,60.69,3.25,-1.82,-11.39
8,18,261,-45,-361,3902,0.52,0.95,20.79,-0.45,-3.61,39.02,-5.29,2.19,60.61,3.19,-2.07,-11.64
13,24,286,-78,-338,3980,0.54,1.00,20.46,-0.78,-3.38,39.80,-5.28,2.18,60.52,3.07,-2.20,-11.78
16,34,403,-89,-282,3954,0.59,1.11,20.87,-0.89,-2.82,39.54,-5.26,2.18,60.44,2.99,-2.43,-12.84
16,36,419,-112,-327,3934,0.63,1.22,21.34,-1.12,-3.27,39.34,-5.24,2.18,60.36,2.96,-2.50,-13.06
6,24,365,-119,-394,3871,0.60,1.24,21.43,-1.19,-3.94,38.71,-5.25,2.18,60.27,3.18,-2.27,-12.61
-1,15,299,-150,-432,3990,0.53,1.21,21.11,-1.50,-4.32,39.90,-5.26,2.20,60.19,3.35,-2.08,-11.99
-31,-7,197,-121,-507,3923,0.29,1.05,20.20,-1.21,-5.07,39.23,-5.28,2.20,60.11,4.03,-1.60,-10.94
-51,-30,167,-105,-539,3915,-0.05,0.76,19.20,-1.05,-5.39,39.15,-5.29,2.21,60.03,4.54,-1.05,-10.49
-67,-45,142,-62,-403,3862,-0.45,0.41,18.15,-0.62,-4.03,38.62,-5.30,2.20,59.96,4.98,-0.65,-10.07
-68,-47,143,-66,-399,3891,-0.82,0.08,17.20,-0.66,-3.99,38.91,-5.31,2.19,59.89,5.11,-0.51,-9.89
-48,-36,166,-48,-404,3840,-1.03,-0.15,16.50,-0.48,-4.04,38.40,-5.32,2.18,59.83,4.77,-0.67,-9.94
-38,-24,156,-144,-334,3925,-1.16,-0.28,15.80,-1.44,-3.34,39.25,-5.30,2.18,59.76,4.59,-0.88,-9.72
13,13,106,-41,-351,3887,-0.97,-0.17,14.87,-0.41,-3.51,38.87,-5.30,2.17,59.71,3.50,-1.65,-9.11
20,18,121,-12,-348,3883,-0.75,-0.04,14.12,-0.12,-3.48,38.83,-5.30,2.15,59.65,3.30,-1.78,-9.09
22,17,235,-8,-357,3965,-0.54,0.06,14.14,-0.08,-3.57,39.65,-5.30,2.14,59.59,3.20,-1.78,-10.06
3,-4,266,0,-449,3909,-0.47,0.03,14.35,0.00,-4.49,39.09,-5.31,2.13,59.54,3.57,-1.33,-10.35
-12,-11,252,-91,-344,3970,-0.49,-0.04,14.45,-0.91,-3.44,39.70,-5.30,2.12,59.48,3.88,-1.16,-10.25
4,-10,255,-125,-363,3993,-0.42,-0.09,14.56,-1.25,-3.63,39.93,-5.30,2.11,59.42,3.53,-1.16,-10.29
7,-1,240,-193,-326,3900,-0.33,-0.09,14.57,-1.93,-3.26,39.00,-5.28,2.13,59.36,3.44,-1.36,-10.16
4,-7,227,-167,-347,3883,-0.28,-0.12,14.50,-1.67,-3.47,38.83,-5.27,2.15,59.30,3.48,-1.24,-10.03
7,-5,249,-182,-400,3916,-0.21,-0.14,14.57,-1.82,-4.00,39.16,-5.29,2.16,59.25,3.40,-1.29,-10.23
-2,-8,224,-184,-438,3859,-0.20,-0.18,14.48,-1.84,-4.38,38.59,-5.30,2.18,59.19,3.59,-1.23,-9.99
-8,-9,213,-28,-402,3938,-0.23,-0.21,14.33,-0.28,-4.02,39.38,-5.31,2.16,59.13,3.73,-1.19,-9.86
4,4,263,-71,-266,3972,-0.18,-0.17,14.50,-0.71,-2.66,39.72,-5.29,2.16,59.07,3.46,-1.46,-10.32
-1,4,351,-60,-433,3950,-0.17,-0.13,15.19,-0.60,-4.33,39.50,-5.30,2.15,59.01,3.56,-1.46,-11.19
-3,0,314,-74,-439,3945,-0.17,-0.11,15.59,-0.74,-4.39,39.45,-5.31,2.14,58.95,3.61,-1.38,-10.94
-21,-5,268,-173,-445,3960,-0.28,-0.13,15.66,-1.73,-4.45,39.60,-5.33,2.15,58.89,4.02,-1.28,-10.56
-6,5,274,-161,-410,3988,-0.29,-0.09,15.77,-1.61,-4.10,39.88,-5.34,2.16,58.83,3.73,-1.50,-10.63
-1,25,299,-249,-529,3830,-0.27,0.07,16.01,-2.49,-5.29,38.30,-5.36,2.18,58.76,3.63,-1.96,-10.88
7,26,291,-215,-507,3904,-0.20,0.22,16.19,-2.15,-5.07,39.04,-5.37,2.19,58.70,3.46,-2.04,-10.84
54,77,281,-197,-405,3902,0.15,0.67,16.28,-1.97,-4.05,39.02,-5.38,2.21,58.64,2.41,-3.21,-10.77
53,78,267,-204,-440,3911,0.46,1.08,16.28,-2.04,-4.40,39.11,-5.39,2.24,58.57,2.36,-3.36,-10.65
84,115,303,-38,-500,3878,0.93,1.67,16.50,-0.38,-5.00,38.78,-5.40,2.24,58.51,1.60,-4.27,-10.99
91,126,300,-18,-413,3971,1.39,2.27,16.68,-0.18,-4.13,39.71,-5.40,2.23,58.44,1.33,-4.66,-10.99
13,37,284,-117,-448,3982,1.33,2.27,16.75,-1.17,-4.48,39.82,-5.40,2.24,58.38,2.94,-2.85,-10.86
7,25,275,-42,-430,3945,1.24,2.20,16.75,-0.42,-4.30,39.45,-5.40,2.24,58.31,3.09,-2.59,-10.78
9,18,241,-92,-442,3902,1.17,2.09,16.55,-0.92,-4.42,39.02,-5.41,2.24,58.25,3.07,-2.41,-10.45
8,4,229,-98,-398,3935,1.10,1.90,16.29,-0.98,-3.98,39.35,-5.41,2.24,58.18,3.11,-2.08,-10.29
5,15,219,-98,-397,3944,1.02,1.80,15.99,-0.98,-3.97,39.44,-5.41,2.24,58.12,3.19,-2.27,-10.14
-7,7,212,-131,-461,3963,0.88,1.67,15.69,-1.31,-4.61,39.63,-5.42,2.24,58.06,3.48,-2.08,-10.02
1,16,192,-61,-460,3879,0.80,1.60,15.29,-0.61,-4.60,38.79,-5.43,2.24,58.00,3.35,-2.24,-9.77
0,8,201,-6,-469,3904,0.72,1.49,14.99,-0.06,-4.69,39.04,-5.44,2.24,57.94,3.39,-2.05,-9.78
3,10,157,-36,-399,3936,0.66,1.40,14.45,-0.36,-3.99,39.36,-5.43,2.23,57.88,3.35,-2.06,-9.30
0,0,147,-23,-402,3897,0.60,1.26,13.90,-0.23,-4.02,38.97,-5.43,2.22,57.83,3.42,-1.81,-9.11
-2,-6,101,-43,-418,3935,0.52,1.10,13.13,-0.43,-4.18,39.35,-5.44,2.22,57.78,3.49,-1.64,-8.56
-7,-8,136,25,-415,3871,0.43,0.94,12.64,0.25,-4.15,38.71,-5.44,2.21,57.73,3.61,-1.55,-8.76
1,-11,163,-60,-388,3926,0.39,0.78,12.37,-0.60,-3.88,39.26,-5.44,2.20,57.68,3.46,-1.44,-8.94
0,-8,170,-78,-393,3955,0.35,0.65,12.17,-0.78,-3.93,39.55,-5.44,2.19,57.63,3.49,-1.46,-8.95
5,6,209,-65,-445,3912,0.35,0.62,12.23,-0.65,-4.45,39.12,-5.45,2.18,57.58,3.40,-1.73,-9.29
-3,7,224,-71,-424,3909,0.30,0.60,12.37,-0.71,-4.24,39.09,-5.45,2.17,57.53,3.58,-1.74,-9.44
-1,12,201,-71,-393,3947,0.26,0.62,12.36,-0.71,-3.93,39.47,-5.45,2.16,57.48,3.55,-1.84,-9.24
0,12,193,-90,-453,3926,0.23,0.63,12.30,-0.90,-4.53,39.26,-5.47,2.16,57.44,3.54,-1.84,-9.16
-3,7,182,-198,-412,3885,0.19,0.61,12.18,-1.98,-4.12,38.85,-5.48,2.18,57.39,3.62,-1.74,-9.04
-11,16,186,-169,-409,3852,0.11,0.64,12.10,-1.69,-4.09,38.52,-5.49,2.19,57.34,3.82,-1.95,-9.05
-5,1,159,-135,-348,3963,0.06,0.59,11.86,-1.35,-3.48,39.63,-5.47,2.19,57.29,3.69,-1.63,-8.77
2,-2,79,-197,-332,3910,0.07,0.52,11.16,-1.97,-3.32,39.10,-5.46,2.21,57.25,3.54,-1.56,-7.95
3,4,97,-163,-335,3914,0.08,0.49,10.63,-1.63,-3.35,39.14,-5.44,2.22,57.21,3.51,-1.68,-8.00
1,-7,100,-186,-329,3941,0.08,0.40,10.18,-1.86,-3.29,39.41,-5.42,2.24,57.16,3.54,-1.44,-7.94
-6,0,81,-183,-305,3942,0.04,0.36,9.65,-1.83,-3.05,39.42,-5.40,2.25,57.13,3.68,-1.58,-7.67
-2,2,54,-170,-290,3950,0.02,0.33,9.02,-1.70,-2.90,39.50,-5.38,2.26,57.09,3.59,-1.62,-7.32
2,-1,36,-101,-419,3899,0.03,0.29,8.34,-1.01,-4.19,38.99,-5.39,2.25,57.06,3.51,-1.54,-7.03
-1,-5,37,-87,-421,3918,0.02,0.23,7.73,-0.87,-4.21,39.18,-5.40,2.24,57.03,3.58,-1.44,-6.92
-6,-13,76,-94,-422,3903,-0.02,0.13,7.42,-0.94,-4.22,39.03,-5.41,2.23,57.00,3.70,-1.24,-7.19
-9,-14,87,-75,-443,3904,-0.07,0.03,7.21,-0.75,-4.43,39.04,-5.43,2.22,56.97,3.78,-1.19,-7.24
2,14,219,-16,-446,3972,-0.05,0.11,7.82,-0.16,-4.46,39.72,-5.43,2.20,56.94,3.56,-1.77,-8.47
-13,1,244,-99,-390,3966,-0.13,0.11,8.53,-0.99,-3.90,39.66,-5.44,2.19,56.90,3.89,-1.50,-8.82
-4,3,182,-142,-395,3915,-0.14,0.12,8.79,-1.42,-3.95,39.15,-5.45,2.19,56.87,3.72,-1.54,-8.34
-3,1,191,-158,-401,3969,-0.14,0.11,9.07,-1.58,-4.01,39.69,-5.47,2.20,56.83,3.71,-1.50,-8.47
3,5,217,-353,-416,3897,-0.11,0.13,9.49,-3.53,-4.16,38.97,-5.47,2.22,56.80,3.58,-1.60,-8.76
1,-2,234,-248,-392,3858,-0.09,0.11,9.97,-2.48,-3.92,38.58,-5.48,2.24,56.76,3.62,-1.47,-9.00
-4,8,284,-191,-325,3951,-0.11,0.14,10.70,-1.91,-3.25,39.51,-5.46,2.26,56.71,3.71,-1.69,-9.56
-5,18,286,-215,-335,3956,-0.13,0.24,11.38,-2.15,-3.35,39.56,-5.45,2.28,56.67,3.73,-1.93,-9.70
-3,1,283,-162,-393,3864,-0.13,0.22,11.97,-1.62,-3.93,38.64,-5.46,2.29,56.62,3.70,-1.59,-9.78
-5,-1,294,-115,-423,3985,-0.15,0.19,12.56,-1.15,-4.23,39.85,-5.47,2.28,56.57,3.76,-1.54,-9.98
1,-3,295,-26,-446,3929,-0.13,0.16,13.11,-0.26,-4.46,39.29,-5.48,2.27,56.52,3.63,-1.48,-10.09
-5,0,261,-8,-458,3922,-0.15,0.14,13.39,-0.08,-4.58,39.22,-5.49,2.26,56.47,3.76,-1.53,-9.85
0,-7,195,6,-359,3988,-0.13,0.08,13.24,0.06,-3.59,39.88,-5.48,2.24,56.41,3.66,-1.36,-9.26
0,-13,161,7,-354,3862,-0.12,-0.00,12.90,0.07,-3.54,38.62,-5.48,2.23,56.36,3.65,-1.21,-8.90
8,-5,221,-75,-505,3933,-0.06,-0.03,12.96,-0.75,-5.05,39.33,-5.49,2.23,56.31,3.48,-1.36,-9.42
-5,-1,245,-57,-475,3881,-0.08,-0.04,13.15,-0.57,-4.75,38.81,-5.51,2.22,56.26,3.76,-1.43,-9.65
-8,-8,210,37,-413,3863,-0.12,-0.08,13.12,0.37,-4.13,38.63,-5.51,2.21,56.21,3.83,-1.27,-9.35
2,-5,202,-61,-408,3966,-0.10,-0.10,13.04,-0.61,-4.08,39.66,-5.51,2.19,56.16,3.62,-1.32,-9.26
-13,-34,227,-12,-389,3876,-0.17,-0.30,13.12,-0.12,-3.89,38.76,-5.51,2.18,56.10,3.95,-0.66,-9.48
-52,-56,229,-57,-339,3980,-0.47,-0.61,13.21,-0.57,-3.39,39.80,-5.50,2.16,56.05,4.82,-0.12,-9.51
-85,-79,160,-98,-384,3954,-0.94,-1.03,12.86,-0.98,-3.84,39.54,-5.51,2.15,56.00,5.62,0.47,-8.85
-49,-46,166,-33,-413,3877,-1.15,-1.21,12.59,-0.33,-4.13,38.77,-5.52,2.13,55.95,4.95,-0.14,-8.85
-33,-19,121,-83,-397,3912,-1.23,-1.21,12.07,-0.83,-3.97,39.12,-5.52,2.11,55.90,4.65,-0.68,-8.36
-20,-19,127,-10,-335,3935,-1.23,-1.20,11.63,-0.10,-3.35,39.35,-5.52,2.09,55.85,4.39,-0.67,-8.33
-8,-19,124,-34,-432,3923,-1.16,-1.20,11.23,-0.34,-4.32,39.23,-5.53,2.08,55.81,4.13,-0.66,-8.22
-4,-11,121,45,-392,3959,-1.07,-1.14,10.84,0.45,-3.92,39.59,-5.54,2.06,55.76,4.03,-0.82,-8.12
20,23,110,45,-363,3944,-0.84,-0.89,10.43,0.45,-3.63,39.44,-5.54,2.04,55.72,3.48,-1.57,-7.94
27,48,86,54,-382,3976,-0.59,-0.51,9.91,0.54,-3.82,39.76,-5.54,2.02,55.68,3.27,-2.17,-7.63
59,64,-44,89,-516,3957,-0.17,-0.07,8.65,0.89,-5.16,39.57,-5.55,2.01,55.65,2.51,-2.61,-6.29
74,59,-103,109,-497,3898,0.30,0.30,7.16,1.09,-4.97,38.98,-5.55,2.00,55.62,2.08,-2.60,-5.50
29,4,-148,-132,-529,3835,0.45,0.29,5.54,-1.32,-5.29,38.35,-5.57,2.00,55.60,2.96,-1.48,-4.81
2,-26,-164,-234,-534,3868,0.41,0.11,3.99,-2.34,-5.34,38.68,-5.58,2.01,55.58,3.53,-0.83,-4.37
-16,-31,-136,-185,-440,4005,0.27,-0.09,2.76,-1.85,-4.40,40.05,-5.59,2.03,55.57,3.94,-0.68,-4.38
16,13,-106,-192,-262,3995,0.34,-0.00,1.83,-1.92,-2.62,39.95,-5.57,2.03,55.57,3.26,-1.61,-4.45
5,-6,-120,-155,-298,3996,0.34,-0.04,0.92,-1.55,-2.98,39.96,-5.55,2.04,55.56,3.47,-1.21,-4.16
-12,-22,-130,-191,-254,3869,0.23,-0.17,0.03,-1.91,-2.54,38.69,-5.54,2.04,55.56,3.83,-0.85,-3.91
-24,-38,-69,-234,-249,3893,0.06,-0.39,-0.39,-2.34,-2.49,38.93,-5.52,2.05,55.56,4.11,-0.48,-4.34
-21,-35,-60,-267,-283,3854,-0.07,-0.56,-0.72,-2.67,-2.83,38.54,-5.51,2.06,55.56,4.08,-0.50,-4.36
-41,-70,-45,-162,-441,3932,-0.31,-0.93,-0.92,-1.62,-4.41,39.32,-5.53,2.07,55.57,4.57,0.31,-4.44
-35,-60,-26,-174,-465,3905,-0.50,-1.20,-0.99,-1.74,-4.65,39.05,-5.55,2.07,55.57,4.51,0.18,-4.59
-18,-52,62,-39,-464,3932,-0.56,-1.40,-0.51,-0.39,-4.64,39.32,-5.56,2.05,55.57,4.19,0.09,-5.43
-9,-34,91,9,-539,3942,-0.56,-1.47,0.10,0.09,-5.39,39.42,-5.58,2.03,55.57,4.02,-0.25,-5.79
-8,-27,-54,-39,-449,3898,-0.55,-1.49,-0.24,-0.39,-4.49,38.98,-5.59,2.01,55.57,4.00,-0.37,-4.50
-16,-34,12,294,-763,3887,-0.59,-1.55,-0.15,2.94,-7.63,38.87,-5.61,1.99,55.57,4.19,-0.20,-5.08
-3,-21,199,28,-442,3967,-0.55,-1.52,1.08,0.28,-4.42,39.67,-5.61,1.96,55.57,3.92,-0.46,-6.89
-7,-40,165,-109,-358,3944,-0.54,-1.61,1.98,-1.09,-3.58,39.44,-5.60,1.95,55.56,3.99,-0.03,-6.78
-9,-35,152,-73,-396,3850,-0.54,-1.66,2.71,-0.73,-3.96,38.50,-5.61,1.92,55.55,4.03,-0.10,-6.81
-7,-15,151,-5,-430,3949,-0.53,-1.59,3.36,-0.05,-4.30,39.49,-5.62,1.90,55.54,3.99,-0.52,-6.92
0,-21,141,-152,-231,3864,-0.48,-1.56,3.88,-1.52,-2.31,38.64,-5.60,1.90,55.52,3.82,-0.40,-6.93
-7,-14,133,-187,-355,3828,-0.47,-1.49,4.31,-1.87,-3.55,38.28,-5.59,1.91,55.50,3.96,-0.57,-6.95
-4,-1,171,-16,-509,3910,-0.45,-1.34,4.92,-0.16,-5.09,39.10,-5.61,1.90,55.48,3.91,-0.86,-7.38
-9,7,246,-11,-590,3823,-0.46,-1.17,5.93,-0.11,-5.90,38.23,-5.63,1.89,55.46,4.02,-1.07,-8.21
-4,10,273,-226,-244,3968,-0.44,-0.99,7.00,-2.26,-2.44,39.68,-5.61,1.89,55.43,3.90,-1.18,-8.64
-12,6,269,-146,-289,4006,-0.47,-0.85,7.94,-1.46,-2.89,40.06,-5.59,1.90,55.40,4.06,-1.14,-8.78
-9,-1,226,9,-380,3950,-0.47,-0.77,8.53,0.09,-3.80,39.50,-5.59,1.88,55.36,4.00,-1.01,-8.53
-11,10,229,-44,-517,3853,-0.49,-0.64,9.07,-0.44,-5.17,38.53,-5.61,1.87,55.33,4.06,-1.26,-8.65
-7,30,275,-238,-504,3965,-0.49,-0.39,9.84,-2.38,-5.04,39.65,-5.62,1.88,55.29,3.99,-1.75,-9.19
-1,15,245,-211,-314,3975,-0.44,-0.26,10.35,-2.11,-3.14,39.75,-5.61,1.90,55.25,3.85,-1.49,-9.03
-13,5,267,-154,-489,3876,-0.48,-0.20,10.94,-1.54,-4.89,38.76,-5.63,1.91,55.20,4.11,-1.31,-9.32
-5,16,276,-172,-489,3830,-0.46,-0.08,11.53,-1.72,-4.89,38.30,-5.65,1.92,55.16,3.96,-1.57,-9.51
10,6,279,-78,-404,3890,-0.35,-0.04,12.08,-0.78,-4.04,38.90,-5.65,1.91,55.11,3.62,-1.37,-9.63
15,-9,231,2,-399,3964,-0.23,-0.09,12.28,0.02,-3.99,39.64,-5.65,1.89,55.06,3.49,-1.04,-9.26
11,-7,210,88,-383,4040,-0.14,-0.12,12.34,0.88,-3.83,40.40,-5.65,1.88,55.01,3.54,-1.06,-9.09
0,-8,217,78,-416,3911,-0.12,-0.16,12.43,0.78,-4.16,39.11,-5.65,1.86,54.96,3.76,-1.02,-9.16
-9,2,233,-82,-546,3899,-0.17,-0.13,12.60,-0.82,-5.46,38.99,-5.67,1.86,54.91,3.97,-1.23,-9.32
-10,7,209,-149,-563,3892,-0.21,-0.08,12.62,-1.49,-5.63,38.92,-5.69,1.87,54.86,4.01,-1.36,-9.12
-13,15,219,-205,-456,3960,-0.27,0.02,12.69,-2.05,-4.56,39.60,-5.70,1.89,54.81,4.10,-1.56,-9.21
-17,9,223,-224,-503,3870,-0.35,0.08,12.78,-2.24,-5.03,38.70,-5.71,1.91,54.76,4.21,-1.46,-9.26
0,23,205,-43,-485,3937,-0.31,0.21,12.76,-0.43,-4.85,39.37,-5.72,1.90,54.71,3.86,-1.78,-9.10
-2,-6,196,-24,-413,3961,-0.29,0.15,12.68,-0.24,-4.13,39.61,-5.73,1.89,54.66,3.90,-1.16,-9.00
-4,1,215,-149,-419,3782,-0.29,0.14,12.72,-1.49,-4.19,37.82,-5.74,1.90,54.61,3.95,-1.31,-9.17
-1,-2,208,-32,-372,4001,-0.26,0.12,12.72,-0.32,-3.72,40.01,-5.74,1.89,54.56,3.88,-1.24,-9.10
-2,-1,224,-55,-472,3894,-0.25,0.10,12.81,-0.55,-4.72,38.94,-5.75,1.88,54.51,3.90,-1.25,-9.25
-2,21,230,-77,-481,3873,-0.24,0.22,12.93,-0.77,-4.81,38.73,-5.76,1.88,54.46,3.91,-1.73,-9.32
-4,-9,201,34,-335,3957,-0.24,0.14,12.87,0.34,-3.35,39.57,-5.76,1.87,54.41,3.95,-1.09,-9.06
1,13,200,-175,-578,3851,-0.21,0.20,12.80,-1.75,-5.78,38.51,-5.77,1.88,54.36,3.85,-1.56,-9.03
-4,9,280,-81,-288,3913,-0.21,0.24,13.23,-0.81,-2.88,39.13,-5.76,1.88,54.30,3.94,-1.49,-9.79
-10,6,290,-75,-269,4032,-0.25,0.25,13.67,-0.75,-2.69,40.32,-5.74,1.88,54.25,4.06,-1.43,-9.95
-19,19,299,-106,-631,3892,-0.34,0.34,14.13,-1.06,-6.31,38.92,-5.76,1.88,54.19,4.28,-1.72,-10.11
-4,7,317,-46,-519,3940,-0.33,0.35,14.65,-0.46,-5.19,39.40,-5.77,1.88,54.14,3.98,-1.48,-10.36
-5,-18,306,57,-288,4120,-0.33,0.21,15.05,0.57,-2.88,41.20,-5.76,1.87,54.08,3.99,-0.93,-10.34
-14,4,278,-31,-434,3814,-0.38,0.21,15.24,-0.31,-4.34,38.14,-5.77,1.86,54.01,4.20,-1.37,-10.13
-2,16,353,-47,-550,3913,-0.36,0.29,15.87,-0.47,-5.50,39.13,-5.78,1.86,53.95,3.95,-1.63,-10.88
1,15,368,-85,-461,3936,-0.31,0.35,16.53,-0.85,-4.61,39.36,-5.80,1.86,53.89,3.89,-1.63,-11.13
0,1,347,41,-202,4077,-0.28,0.32,16.99,0.41,-2.02,40.77,-5.78,1.86,53.82,3.89,-1.33,-11.03
-17,3,348,-4,-247,3840,-0.36,0.31,17.42,-0.04,-2.47,38.40,-5.77,1.85,53.75,4.25,-1.37,-11.11
-13,8,359,-45,-389,3914,-0.40,0.32,17.87,-0.45,-3.89,39.14,-5.77,1.84,53.68,4.18,-1.47,-11.29
-13,4,368,-40,-395,3907,-0.44,0.32,18.32,-0.40,-3.95,39.07,-5.76,1.83,53.61,4.19,-1.38,-11.44
-14,14,389,-29,-502,3873,-0.48,0.37,18.86,-0.29,-5.02,38.73,-5.78,1.83,53.53,4.23,-1.59,-11.72
-11,7,388,31,-509,3910,-0.50,0.38,19.34,0.31,-5.09,39.10,-5.79,1.82,53.45,4.18,-1.45,-11.80
7,5,340,-78,-407,3911,-0.41,0.37,19.48,-0.78,-4.07,39.11,-5.79,1.82,53.38,3.79,-1.40,-11.41
-2,2,297,-56,-528,3908,-0.38,0.34,19.35,-0.56,-5.28,39.08,-5.81,1.82,53.30,3.98,-1.33,-11.01
6,0,245,12,-468,3922,-0.31,0.31,18.91,0.12,-4.68,39.22,-5.81,1.81,53.23,3.80,-1.28,-10.48
7,5,243,-14,-473,3871,-0.23,0.31,18.50,-0.14,-4.73,38.71,-5.82,1.80,53.15,3.76,-1.38,-10.38
-4,-10,166,-152,-281,3806,-0.23,0.22,17.66,-1.52,-2.81,38.06,-5.80,1.82,53.08,3.98,-1.05,-9.56
-11,9,187,-41,-392,3951,-0.28,0.25,17.04,-0.41,-3.92,39.51,-5.80,1.81,53.01,4.13,-1.44,-9.61
-10,6,247,-98,-437,3925,-0.31,0.26,16.84,-0.98,-4.37,39.25,-5.82,1.80,52.95,4.13,-1.38,-10.08
-8,2,247,-69,-355,3962,-0.33,0.25,16.66,-0.69,-3.55,39.62,-5.80,1.80,52.88,4.08,-1.29,-10.04
-5,12,251,-84,-451,3811,-0.33,0.30,16.53,-0.84,-4.51,38.11,-5.82,1.80,52.82,4.03,-1.51,-10.04
-7,10,267,-31,-434,4001,-0.34,0.33,16.50,-0.31,-4.34,40.01,-5.82,1.79,52.75,4.08,-1.47,-10.16
-11,4,306,-76,-290,4002,-0.37,0.32,16.72,-0.76,-2.90,40.02,-5.80,1.79,52.68,4.16,-1.35,-10.53
-10,9,286,-66,-379,3900,-0.39,0.34,16.79,-0.66,-3.79,39.00,-5.80,1.78,52.62,4.14,-1.45,-10.37
-7,8,309,-72,-527,3893,-0.40,0.36,17.00,-0.72,-5.27,38.93,-5.82,1.78,52.55,4.09,-1.43,-10.60
-9,-1,318,18,-443,3919,-0.41,0.32,17.24,0.18,-4.43,39.19,-5.82,1.77,52.48,4.14,-1.23,-10.71
-2,3,316,1,-444,3962,-0.38,0.30,17.44,0.01,-4.44,39.62,-5.83,1.76,52.41,3.99,-1.31,-10.73
-5,-8,310,-47,-384,3874,-0.38,0.22,17.59,-0.47,-3.84,38.74,-5.82,1.75,52.34,4.05,-1.05,-10.70
-2,0,298,-95,-337,3892,-0.35,0.20,17.65,-0.95,-3.37,38.92,-5.80,1.75,52.27,3.97,-1.21,-10.60
6,1,276,-66,-214,3945,-0.28,0.19,17.57,-0.66,-2.14,39.45,-5.79,1.75,52.20,3.77,-1.23,-10.39
-6,6,341,-15,-438,3868,-0.29,0.20,17.89,-0.15,-4.38,38.68,-5.79,1.75,52.13,4.02,-1.33,-11.00
-4,3,358,-28,-379,3955,-0.28,0.20,18.28,-0.28,-3.79,39.55,-5.79,1.74,52.06,3.98,-1.26,-11.21
-1,-7,286,-63,-354,3873,-0.26,0.14,18.20,-0.63,-3.54,38.73,-5.78,1.73,51.98,3.90,-1.04,-10.58
0,-5,286,-3,-440,3967,-0.23,0.10,18.13,-0.03,-4.40,39.67,-5.78,1.72,51.91,3.88,-1.06,-10.56
-4,0,313,-70,-448,3992,-0.24,0.09,18.22,-0.70,-4.48,39.92,-5.79,1.71,51.84,3.97,-1.15,-10.80
-1,6,316,-75,-430,3870,-0.22,0.11,18.33,-0.75,-4.30,38.70,-5.80,1.71,51.77,3.91,-1.28,-10.84
-4,20,294,45,-403,3912,-0.22,0.22,18.29,0.45,-4.03,39.12,-5.80,1.70,51.70,3.97,-1.59,-10.64
-9,14,320,81,-451,3958,-0.25,0.29,18.41,0.81,-4.51,39.58,-5.80,1.69,51.62,4.08,-1.48,-10.88
-15,13,392,-131,-465,3896,-0.32,0.34,18.96,-1.31,-4.65,38.96,-5.82,1.70,51.55,4.23,-1.48,-11.58
-17,17,402,-173,-417,3881,-0.39,0.41,19.52,-1.73,-4.17,38.81,-5.83,1.73,51.47,4.30,-1.60,-11.77
-9,17,396,-177,-391,3826,-0.41,0.47,19.98,-1.77,-3.91,38.26,-5.83,1.76,51.39,4.14,-1.63,-11.80
-12,8,412,-81,-370,3948,-0.44,0.47,20.50,-0.81,-3.70,39.48,-5.81,1.75,51.31,4.20,-1.45,-12.03
-13,19,459,-35,-476,3910,-0.47,0.54,21.25,-0.35,-4.76,39.10,-5.83,1.75,51.22,4.24,-1.69,-12.56
-12,9,481,-89,-554,3826,-0.50,0.54,22.06,-0.89,-5.54,38.26,-5.84,1.76,51.14,4.24,-1.49,-12.89
-3,11,464,-161,-521,3943,-0.47,0.55,22.68,-1.61,-5.21,39.43,-5.86,1.77,51.05,4.06,-1.55,-12.86
1,-1,462,-76,-491,3908,-0.42,0.49,23.23,-0.76,-4.91,39.08,-5.87,1.78,50.96,3.97,-1.29,-12.94
-6,-6,474,-105,-555,3879,-0.41,0.41,23.80,-1.05,-5.55,38.79,-5.89,1.79,50.86,4.12,-1.17,-13.14
4,11,490,2,-465,3940,-0.35,0.43,24.41,0.02,-4.65,39.40,-5.90,1.78,50.77,3.90,-1.52,-13.39
-9,-5,491,-22,-550,3933,-0.37,0.36,24.96,-0.22,-5.50,39.33,-5.91,1.78,50.67,4.18,-1.17,-13.49
5,13,500,30,-540,3855,-0.30,0.40,25.52,0.30,-5.40,38.55,-5.92,1.78,50.57,3.89,-1.55,-13.66
-11,3,522,-8,-461,3917,-0.34,0.38,26.15,-0.08,-4.61,39.17,-5.93,1.78,50.46,4.23,-1.34,-13.96
0,11,521,47,-426,3884,-0.30,0.41,26.71,0.47,-4.26,38.84,-5.93,1.77,50.36,3.99,-1.51,-14.05
-9,16,531,-80,-351,3940,-0.33,0.47,27.28,-0.80,-3.51,39.40,-5.91,1.77,50.25,4.17,-1.62,-14.23
-10,12,555,-101,-286,3853,-0.36,0.49,27.94,-1.01,-2.86,38.53,-5.89,1.79,50.14,4.19,-1.56,-14.55
-10,26,604,-61,-423,3957,-0.38,0.60,28.83,-0.61,-4.23,39.57,-5.89,1.78,50.02,4.20,-1.87,-15.13
-15,11,626,-99,-401,3938,-0.43,0.61,29.76,-0.99,-4.01,39.38,-5.89,1.78,49.90,4.31,-1.56,-15.48
-9,24,568,-159,-593,3746,-0.45,0.69,30.25,-1.59,-5.93,37.46,-5.90,1.80,49.78,4.20,-1.86,-15.07
-7,23,583,40,-438,4005,-0.44,0.77,30.78,0.40,-4.38,40.05,-5.90,1.79,49.66,4.16,-1.86,-15.29
-13,4,555,68,-444,3923,-0.48,0.71,31.09,0.68,-4.44,39.23,-5.90,1.79,49.54,4.29,-1.46,-15.10
-7,7,535,-167,-509,3963,-0.47,0.68,31.25,-1.67,-5.09,39.63,-5.92,1.81,49.41,4.18,-1.53,-14.95
-11,12,519,-92,-468,3731,-0.49,0.69,31.29,-0.92,-4.68,37.31,-5.93,1.82,49.29,4.28,-1.64,-14.81
-4,28,535,-121,-547,3954,-0.47,0.79,31.42,-1.21,-5.47,39.54,-5.95,1.84,49.17,4.14,-2.00,-14.96
-6,7,519,-69,-520,3921,-0.46,0.75,31.45,-0.69,-5.20,39.21,-5.96,1.85,49.04,4.18,-1.57,-14.82
-2,17,517,-54,-404,3959,-0.42,0.78,31.45,-0.54,-4.04,39.59,-5.96,1.85,48.92,4.09,-1.78,-14.79
-5,3,459,-187,-509,3908,-0.41,0.72,31.11,-1.87,-5.09,39.08,-5.97,1.87,48.79,4.16,-1.49,-14.23
-4,-6,418,-78,-351,3923,-0.40,0.61,30.55,-0.78,-3.51,39.23,-5.96,1.87,48.67,4.12,-1.28,-13.76
-5,-2,399,33,-328,4062,-0.39,0.54,29.93,0.33,-3.28,40.62,-5.95,1.87,48.55,4.13,-1.34,-13.47
-16,-10,399,-121,-449,3781,-0.45,0.43,29.37,-1.21,-4.49,37.81,-5.96,1.89,48.44,4.38,-1.16,-13.35
-5,-8,397,-65,-276,3953,-0.43,0.33,28.85,-0.65,-2.76,39.53,-5.94,1.89,48.32,4.14,-1.18,-13.23
-13,14,391,-146,-467,3777,-0.47,0.39,28.35,-1.46,-4.67,37.77,-5.96,1.91,48.21,4.32,-1.65,-13.07
-4,15,426,-52,-487,3951,-0.45,0.44,28.12,-0.52,-4.87,39.51,-5.97,1.91,48.10,4.14,-1.68,-13.31
-6,7,437,-74,-432,3939,-0.44,0.44,27.97,-0.74,-4.32,39.39,-5.97,1.91,47.99,4.18,-1.52,-13.37
-4,2,386,-50,-419,3889,-0.42,0.41,27.53,-0.50,-4.19,38.89,-5.97,1.90,47.88,4.14,-1.41,-12.84
-3,8,366,-44,-414,3937,-0.39,0.41,27.01,-0.44,-4.14,39.37,-5.97,1.89,47.77,4.11,-1.53,-12.56
0,0,351,-64,-565,3932,-0.36,0.37,26.45,-0.64,-5.65,39.32,-5.99,1.90,47.67,4.05,-1.36,-12.32
5,7,346,-56,-539,3792,-0.29,0.38,25.91,-0.56,-5.39,37.92,-6.00,1.90,47.56,3.94,-1.50,-12.16
-6,13,353,-7,-363,3866,-0.30,0.42,25.48,-0.07,-3.63,38.66,-5.99,1.90,47.46,4.16,-1.63,-12.13
-1,18,364,-3,-396,4043,-0.27,0.49,25.15,-0.03,-3.96,40.43,-5.99,1.89,47.36,4.05,-1.75,-12.15
-5,-1,322,-56,-334,3952,-0.28,0.43,24.60,-0.56,-3.34,39.52,-5.97,1.89,47.26,4.12,-1.35,-11.68
-16,7,309,-95,-421,3841,-0.35,0.43,24.02,-0.95,-4.21,38.41,-5.98,1.89,47.17,4.37,-1.51,-11.45
-9,32,394,-87,-507,3888,-0.37,0.58,24.02,-0.87,-5.07,38.88,-5.99,1.89,47.07,4.24,-2.06,-12.17
-7,18,415,24,-409,3929,-0.37,0.64,24.15,0.24,-4.09,39.29,-5.99,1.89,46.98,4.20,-1.79,-12.36
-8,6,416,-71,-417,3852,-0.38,0.61,24.28,-0.71,-4.17,38.52,-5.99,1.88,46.88,4.22,-1.53,-12.38
-2,-3,345,-146,-514,3840,-0.36,0.53,23.95,-1.46,-5.14,38.40,-6.01,1.90,46.79,4.11,-1.34,-11.71
3,11,345,-130,-477,3968,-0.30,0.54,23.66,-1.30,-4.77,39.68,-6.03,1.91,46.69,4.00,-1.63,-11.65
4,11,352,-61,-469,3861,-0.25,0.56,23.44,-0.61,-4.69,38.61,-6.04,1.91,46.60,3.97,-1.63,-11.66
1,-3,376,-97,-438,3791,-0.22,0.48,23.39,-0.97,-4.38,37.91,-6.05,1.91,46.51,4.03,-1.33,-11.84
-4,9,385,-98,-464,3932,-0.22,0.49,23.40,-0.98,-4.64,39.32,-6.06,1.91,46.42,4.14,-1.58,-11.91
-3,-20,415,19,-422,4092,-0.22,0.32,23.59,0.19,-4.22,40.92,-6.06,1.90,46.32,4.12,-0.94,-12.19
3,-16,401,-69,-433,3797,-0.18,0.19,23.68,-0.69,-4.33,37.97,-6.06,1.90,46.23,3.99,-0.98,-12.08
1,7,392,-43,-363,3960,-0.15,0.21,23.70,-0.43,-3.63,39.60,-6.05,1.89,46.13,4.02,-1.45,-12.00
0,-10,385,-17,-365,3956,-0.14,0.13,23.68,-0.17,-3.65,39.56,-6.04,1.89,46.04,4.02,-1.08,-11.93
0,19,350,-69,-397,3886,-0.12,0.23,23.45,-0.69,-3.97,38.86,-6.03,1.88,45.95,4.02,-1.69,-11.58
1,9,349,30,-328,3861,-0.11,0.26,23.23,0.30,-3.28,38.61,-6.02,1.87,45.85,3.98,-1.49,-11.52
-3,15,407,-115,-444,3742,-0.11,0.33,23.39,-1.15,-4.44,37.42,-6.04,1.88,45.76,4.08,-1.64,-12.04
-18,12,446,-17,-570,3812,-0.21,0.37,23.77,-0.17,-5.70,38.12,-6.05,1.88,45.67,4.42,-1.59,-12.43
-1,6,424,-101,-592,3844,-0.20,0.37,23.98,-1.01,-5.92,38.44,-6.07,1.89,45.57,4.08,-1.47,-12.28
2,5,408,-113,-563,3952,-0.16,0.36,24.07,-1.13,-5.63,39.52,-6.08,1.90,45.48,4.02,-1.46,-12.15
3,-3,385,-170,-394,3900,-0.13,0.31,24.01,-1.70,-3.94,39.00,-6.07,1.93,45.38,3.98,-1.30,-11.94
-1,9,371,-161,-503,3931,-0.12,0.33,23.88,-1.61,-5.03,39.31,-6.09,1.95,45.29,4.07,-1.56,-11.78
-5,8,356,-78,-442,4005,-0.14,0.35,23.66,-0.78,-4.42,40.05,-6.09,1.94,45.19,4.16,-1.54,-11.61
-8,0,348,-35,-401,3895,-0.18,0.31,23.42,-0.35,-4.01,38.95,-6.08,1.93,45.10,4.23,-1.36,-11.48
2,11,368,-72,-405,3946,-0.15,0.35,23.32,-0.72,-4.05,39.46,-6.08,1.93,45.01,4.01,-1.59,-11.63
-13,6,391,53,-471,3958,-0.21,0.35,23.37,0.53,-4.71,39.58,-6.08,1.92,44.92,4.33,-1.48,-11.82
-8,5,390,-35,-461,3939,-0.24,0.35,23.41,-0.35,-4.61,39.39,-6.08,1.91,44.82,4.24,-1.46,-11.81
-19,6,400,-63,-453,3824,-0.33,0.35,23.51,-0.63,-4.53,38.24,-6.09,1.91,44.73,4.50,-1.48,-11.91
-16,-3,405,-44,-478,3913,-0.40,0.30,23.63,-0.44,-4.78,39.13,-6.10,1.91,44.64,4.46,-1.28,-11.96
-12,3,412,-33,-588,3878,-0.43,0.28,23.78,-0.33,-5.88,38.78,-6.12,1.91,44.54,4.40,-1.40,-12.04
-13,14,408,-36,-534,3947,-0.47,0.34,23.89,-0.36,-5.34,39.47,-6.13,1.91,44.45,4.44,-1.64,-12.02
-9,20,434,-63,-554,3813,-0.47,0.43,24.15,-0.63,-5.54,38.13,-6.14,1.91,44.35,4.37,-1.79,-12.28
-3,10,435,-29,-466,3813,-0.44,0.45,24.39,-0.29,-4.66,38.13,-6.15,1.91,44.26,4.24,-1.59,-12.33
-6,-9,426,-5,-446,4044,-0.44,0.35,24.55,-0.05,-4.46,40.44,-6.15,1.90,44.16,4.30,-1.17,-12.27
-2,11,507,-79,-512,3921,-0.41,0.38,25.19,-0.79,-5.12,39.21,-6.17,1.91,44.06,4.22,-1.58,-13.07
-5,16,512,-53,-373,4051,-0.40,0.44,25.79,-0.53,-3.73,40.51,-6.15,1.90,43.96,4.27,-1.70,-13.22
-4,6,524,-113,-458,3980,-0.38,0.43,26.41,-1.13,-4.58,39.80,-6.16,1.91,43.85,4.25,-1.50,-13.43
-5,8,527,-62,-522,3831,-0.37,0.44,26.98,-0.62,-5.22,38.31,-6.18,1.91,43.74,4.28,-1.54,-13.56
0,18,554,-43,-434,4027,-0.34,0.50,27.66,-0.43,-4.34,40.27,-6.18,1.91,43.63,4.17,-1.76,-13.91
-8,-4,559,-83,-416,3924,-0.35,0.43,28.31,-0.83,-4.16,39.24,-6.17,1.90,43.52,4.33,-1.29,-14.06
-9,2,553,-21,-390,3848,-0.37,0.40,28.85,-0.21,-3.90,38.48,-6.16,1.90,43.41,4.35,-1.40,-14.11
-11,12,536,-82,-440,3968,-0.40,0.43,29.23,-0.82,-4.40,39.68,-6.17,1.89,43.29,4.40,-1.61,-14.02
-19,5,544,-148,-462,3888,-0.48,0.42,29.63,-1.48,-4.62,38.88,-6.18,1.92,43.17,4.60,-1.48,-14.16
-12,0,542,19,-336,3947,-0.50,0.38,29.97,0.19,-3.36,39.47,-6.17,1.91,43.05,4.45,-1.37,-14.19
-11,9,575,-93,-515,3871,-0.52,0.39,30.48,-0.93,-5.15,38.71,-6.18,1.92,42.93,4.45,-1.56,-14.56
-17,29,583,-63,-457,3798,-0.57,0.53,30.99,-0.63,-4.57,37.98,-6.19,1.92,42.81,4.59,-2.00,-14.72
-3,20,534,-84,-466,3975,-0.53,0.60,31.15,-0.84,-4.66,39.75,-6.20,1.92,42.69,4.30,-1.84,-14.32
-1,3,513,-68,-479,3902,-0.48,0.56,31.16,-0.68,-4.79,39.02,-6.21,1.93,42.56,4.25,-1.48,-14.13
-8,11,421,-75,-371,3743,-0.49,0.57,30.62,-0.75,-3.71,37.43,-6.20,1.93,42.44,4.39,-1.65,-13.24
-13,9,441,-71,-542,3976,-0.52,0.57,30.24,-0.71,-5.42,39.76,-6.21,1.93,42.32,4.50,-1.61,-13.33
-13,16,489,31,-484,3828,-0.54,0.61,30.20,0.31,-4.84,38.28,-6.22,1.93,42.20,4.52,-1.77,-13.71
-1,13,491,43,-437,4017,-0.50,0.63,30.18,0.43,-4.37,40.17,-6.21,1.93,42.08,4.26,-1.71,-13.71
-17,11,440,-166,-432,3885,-0.55,0.63,29.84,-1.66,-4.32,38.85,-6.22,1.96,41.97,4.60,-1.69,-13.21
3,38,449,-124,-401,3996,-0.48,0.80,29.60,-1.24,-4.01,39.96,-6.20,1.97,41.85,4.16,-2.29,-13.23
-10,-21,448,2,-292,4050,-0.49,0.59,29.37,0.02,-2.92,40.50,-6.18,1.97,41.73,4.42,-1.04,-13.16
-14,14,444,-50,-590,3911,-0.53,0.62,29.14,-0.50,-5.90,39.11,-6.20,1.98,41.62,4.52,-1.76,-13.08
-8,6,477,68,-422,3916,-0.52,0.59,29.14,0.68,-4.22,39.16,-6.20,1.98,41.50,4.39,-1.59,-13.34
-16,8,454,-39,-475,3877,-0.57,0.58,28.99,-0.39,-4.75,38.77,-6.20,1.98,41.39,4.57,-1.63,-13.11
-3,16,407,-25,-423,3913,-0.53,0.62,28.58,-0.25,-4.23,39.13,-6.20,1.97,41.27,4.30,-1.80,-12.62
-2,8,395,26,-438,3924,-0.49,0.61,28.13,0.26,-4.38,39.24,-6.20,1.97,41.16,4.27,-1.63,-12.43
3,-26,304,-6,-169,3943,-0.42,0.39,27.17,-0.06,-1.69,39.43,-6.18,1.97,41.05,4.13,-0.88,-11.46
-13,-4,252,-105,-391,3817,-0.46,0.33,25.99,-1.05,-3.91,38.17,-6.17,1.97,40.95,4.46,-1.31,-10.79
-13,9,371,-6,-585,3957,-0.49,0.35,25.65,-0.06,-5.85,39.57,-6.18,1.97,40.85,4.48,-1.58,-11.72
-14,16,406,11,-517,3859,-0.53,0.41,25.57,0.11,-5.17,38.59,-6.19,1.97,40.75,4.51,-1.74,-11.99
-7,9,371,-13,-387,3975,-0.52,0.42,25.27,-0.13,-3.87,39.75,-6.18,1.96,40.64,4.36,-1.60,-11.63
-10,-7,331,39,-303,3925,-0.53,0.34,24.76,0.39,-3.03,39.25,-6.17,1.96,40.55,4.42,-1.25,-11.19
-1,3,292,-57,-542,3996,-0.48,0.32,24.07,-0.57,-5.42,39.96,-6.18,1.96,40.45,4.23,-1.44,-10.71
-7,-7,308,-17,-444,3832,-0.48,0.25,23.54,-0.17,-4.44,38.32,-6.19,1.96,40.36,4.36,-1.22,-10.74
-8,8,279,-138,-381,3927,-0.48,0.27,22.89,-1.38,-3.81,39.27,-6.17,1.97,40.27,4.36,-1.54,-10.36
-5,-1,275,-104,-430,3948,-0.46,0.24,22.28,-1.04,-4.30,39.48,-6.17,1.96,40.18,4.30,-1.34,-10.20
-1,0,258,69,-364,3947,-0.42,0.22,21.62,0.69,-3.64,39.47,-6.16,1.95,40.09,4.20,-1.35,-9.93
-3,2,240,15,-480,3828,-0.40,0.21,20.92,0.15,-4.80,38.28,-6.17,1.95,40.01,4.24,-1.38,-9.63
-2,3,235,16,-490,3894,-0.37,0.20,20.27,0.16,-4.90,38.94,-6.17,1.94,39.93,4.22,-1.40,-9.46
2,3,232,62,-493,3927,-0.32,0.20,19.65,0.62,-4.93,39.27,-6.18,1.93,39.85,4.12,-1.39,-9.31
4,6,195,-28,-523,3872,-0.26,0.22,18.88,-0.28,-5.23,38.72,-6.19,1.93,39.78,4.08,-1.45,-8.84
5,-1,201,-52,-453,3934,-0.21,0.19,18.22,-0.52,-4.53,39.34,-6.19,1.92,39.70,4.04,-1.30,-8.76
-1,-2,226,-131,-360,3937,-0.19,0.16,17.77,-1.31,-3.60,39.37,-6.17,1.93,39.63,4.15,-1.27,-8.88
-12,-9,232,-63,-278,3936,-0.25,0.09,17.41,-0.63,-2.78,39.36,-6.16,1.93,39.56,4.37,-1.11,-8.85
-7,0,262,-33,-571,3918,-0.26,0.08,17.27,-0.33,-5.71,39.18,-6.17,1.92,39.49,4.29,-1.29,-9.07
-6,8,295,-69,-599,3884,-0.27,0.12,17.34,-0.69,-5.99,38.84,-6.19,1.93,39.43,4.28,-1.47,-9.36
4,-16,327,10,-467,3830,-0.22,0.01,17.60,0.10,-4.67,38.30,-6.19,1.92,39.36,4.07,-0.94,-9.68
-6,13,351,87,-589,3809,-0.24,0.09,17.98,0.87,-5.89,38.09,-6.20,1.91,39.28,4.28,-1.55,-9.95
-4,-2,421,-2,-556,3913,-0.24,0.07,18.75,-0.02,-5.56,39.13,-6.21,1.91,39.21,4.25,-1.24,-10.68
-11,-5,383,-26,-393,3975,-0.28,0.03,19.21,-0.26,-3.93,39.75,-6.21,1.90,39.13,4.40,-1.16,-10.44
-16,8,343,-187,-463,3980,-0.35,0.08,19.38,-1.87,-4.63,39.80,-6.21,1.92,39.06,4.52,-1.45,-10.13
-14,-9,328,-72,-514,3864,-0.40,0.01,19.45,-0.72,-5.14,38.64,-6.23,1.92,38.98,4.50,-1.09,-10.00
-7,-1,318,23,-474,3920,-0.40,0.01,19.44,0.23,-4.74,39.20,-6.23,1.91,38.90,4.37,-1.24,-9.91
-5,-1,310,-43,-459,3929,-0.39,-0.00,19.39,-0.43,-4.59,39.29,-6.24,1.90,38.83,4.33,-1.23,-9.83
-5,8,324,-12,-511,3936,-0.38,0.05,19.43,-0.12,-5.11,39.36,-6.25,1.90,38.75,4.33,-1.43,-9.95
-4,-8,316,69,-447,3909,-0.37,-0.01,19.41,0.69,-4.47,39.09,-6.25,1.89,38.67,4.31,-1.08,-9.87
1,-2,275,10,-367,3929,-0.33,-0.02,19.15,0.10,-3.67,39.29,-6.24,1.88,38.60,4.19,-1.19,-9.46
-5,-11,246,-114,-343,3975,-0.33,-0.08,18.73,-1.14,-3.43,39.75,-6.22,1.88,38.52,4.29,-1.00,-9.13
-6,7,195,-29,-431,3892,-0.33,-0.03,18.05,-0.29,-4.31,38.92,-6.22,1.87,38.45,4.32,-1.37,-8.56
-5,8,175,22,-436,3965,-0.33,0.02,17.31,0.22,-4.36,39.65,-6.22,1.86,38.38,4.29,-1.40,-8.25
-6,4,188,-30,-490,3962,-0.33,0.04,16.73,-0.30,-4.90,39.62,-6.23,1.85,38.31,4.32,-1.32,-8.24
-11,0,190,-41,-575,3876,-0.36,0.04,16.21,-0.41,-5.75,38.76,-6.24,1.85,38.25,4.44,-1.23,-8.15
-3,-5,220,-81,-433,3986,-0.35,0.00,15.93,-0.81,-4.33,39.86,-6.24,1.84,38.19,4.27,-1.11,-8.35
3,-3,215,-27,-451,3834,-0.29,-0.01,15.65,-0.27,-4.51,38.34,-6.25,1.83,38.12,4.14,-1.14,-8.24
5,10,214,-99,-387,3977,-0.23,0.05,15.39,-0.99,-3.87,39.77,-6.23,1.83,38.06,4.07,-1.42,-8.18
0,-2,213,-99,-369,3949,-0.21,0.03,15.15,-0.99,-3.69,39.49,-6.21,1.83,38.00,4.16,-1.17,-8.12
0,2,182,-128,-304,3894,-0.19,0.04,14.75,-1.28,-3.04,38.94,-6.19,1.83,37.94,4.14,-1.26,-7.78
-1,6,170,-74,-383,3903,-0.18,0.07,14.31,-0.74,-3.83,39.03,-6.18,1.82,37.88,4.15,-1.35,-7.58
2,9,152,-72,-463,3903,-0.15,0.12,13.81,-0.72,-4.63,39.03,-6.19,1.82,37.83,4.08,-1.41,-7.33
1,4,150,3,-436,3930,-0.13,0.13,13.34,0.03,-4.36,39.30,-6.19,1.80,37.78,4.10,-1.31,-7.22
1,-9,105,-82,-325,3901,-0.11,0.06,12.65,-0.82,-3.25,39.01,-6.17,1.80,37.73,4.08,-1.02,-6.70
-4,2,89,-43,-447,3918,-0.12,0.07,11.93,-0.43,-4.47,39.18,-6.18,1.79,37.68,4.19,-1.24,-6.42
-5,2,92,-87,-453,3890,-0.14,0.08,11.29,-0.87,-4.53,38.90,-6.19,1.78,37.63,4.22,-1.24,-6.32
-5,6,95,-91,-467,3918,-0.16,0.10,10.74,-0.91,-4.67,39.18,-6.20,1.78,37.59,4.24,-1.32,-6.24
-5,10,118,-58,-448,3930,-0.17,0.16,10.39,-0.58,-4.48,39.30,-6.21,1.76,37.55,4.24,-1.41,-6.36
-4,2,107,-33,-449,3910,-0.18,0.15,10.00,-0.33,-4.49,39.10,-6.21,1.75,37.51,4.23,-1.24,-6.19
-3,8,141,-9,-503,3885,-0.18,0.19,9.86,-0.09,-5.03,38.85,-6.22,1.74,37.47,4.22,-1.36,-6.45
-1,9,147,-69,-487,3931,-0.17,0.22,9.77,-0.69,-4.87,39.31,-6.23,1.73,37.43,4.18,-1.39,-6.48
4,5,120,-53,-471,3891,-0.13,0.23,9.53,-0.53,-4.71,38.91,-6.24,1.72,37.40,4.07,-1.30,-6.20
0,5,126,-23,-515,3887,-0.11,0.24,9.34,-0.23,-5.15,38.87,-6.26,1.72,37.36,4.16,-1.30,-6.22
6,-2,120,-8,-488,3893,-0.07,0.20,9.14,-0.08,-4.88,38.93,-6.26,1.70,37.32,4.03,-1.14,-6.12
5,3,144,-5,-577,3888,-0.03,0.20,9.11,-0.05,-5.77,38.88,-6.28,1.70,37.29,4.05,-1.24,-6.32
7,9,182,11,-552,3917,0.02,0.23,9.31,0.11,-5.52,39.17,-6.29,1.69,37.25,4.00,-1.36,-6.67
-4,8,191,0,-512,3865,-0.01,0.26,9.54,0.00,-5.12,38.65,-6.30,1.68,37.21,4.24,-1.34,-6.79
0,21,218,0,-392,3881,-0.01,0.36,9.92,0.00,-3.92,38.81,-6.29,1.67,37.18,4.15,-1.63,-7.09
4,6,217,-14,-330,4056,0.02,0.36,10.25,-0.14,-3.30,40.56,-6.28,1.66,37.13,4.06,-1.32,-7.14
-5,11,202,-148,-503,3953,-0.01,0.39,10.46,-1.48,-5.03,39.53,-6.29,1.68,37.09,4.26,-1.44,-7.05
-9,14,215,-141,-487,3936,-0.07,0.44,10.72,-1.41,-4.87,39.36,-6.31,1.69,37.05,4.36,-1.52,-7.21
-18,12,250,-146,-453,3975,-0.17,0.47,11.17,-1.46,-4.53,39.75,-6.31,1.71,37.01,4.58,-1.50,-7.58
-12,1,252,-123,-434,3945,-0.23,0.43,11.59,-1.23,-4.34,39.45,-6.30,1.74,36.96,4.47,-1.28,-7.68
-7,4,259,-23,-564,3851,-0.25,0.41,12.01,-0.23,-5.64,38.51,-6.32,1.73,36.91,4.38,-1.34,-7.81
-11,-11,298,13,-610,3943,-0.29,0.30,12.63,0.13,-6.10,39.43,-6.33,1.73,36.86,4.48,-1.00,-8.26
0,-6,473,-21,-722,3866,-0.26,0.23,14.25,-0.21,-7.22,38.66,-6.35,1.73,36.81,4.26,-1.08,-10.04
-1,11,515,-53,-813,3795,-0.24,0.28,15.97,-0.53,-8.13,37.95,-6.37,1.74,36.75,4.29,-1.44,-10.72
-4,13,555,-25,-458,3921,-0.24,0.33,17.76,-0.25,-4.58,39.21,-6.37,1.73,36.68,4.35,-1.49,-11.40
-3,17,543,-18,-362,3998,-0.24,0.40,19.29,-0.18,-3.62,39.98,-6.36,1.72,36.60,4.32,-1.59,-11.58
-5,6,402,24,-269,3903,-0.24,0.40,19.82,0.24,-2.69,39.03,-6.34,1.72,36.52,4.35,-1.37,-10.48
-8,15,358,-5,-316,3903,-0.27,0.45,20.02,-0.05,-3.16,39.03,-6.33,1.72,36.44,4.41,-1.56,-10.14
-3,1,238,-68,-317,3947,-0.26,0.41,19.47,-0.68,-3.17,39.47,-6.31,1.72,36.36,4.30,-1.27,-9.01
-4,2,214,-107,-361,3912,-0.26,0.38,18.83,-1.07,-3.61,39.12,-6.29,1.73,36.29,4.30,-1.29,-8.68
-5,5,181,-96,-415,3917,-0.26,0.37,18.05,-0.96,-4.15,39.17,-6.28,1.72,36.21,4.32,-1.34,-8.24
-7,-4,165,-81,-382,3917,-0.28,0.31,17.25,-0.81,-3.82,39.17,-6.26,1.72,36.15,4.35,-1.14,-7.95
-2,19,205,31,-431,3979,-0.26,0.40,16.78,0.31,-4.31,39.79,-6.26,1.71,36.08,4.24,-1.62,-8.19
-7,-3,202,-45,-493,3868,-0.28,0.34,16.33,-0.45,-4.93,38.68,-6.27,1.71,36.01,4.36,-1.16,-8.07
-1,2,155,-19,-385,3924,-0.26,0.32,15.64,-0.19,-3.85,39.24,-6.26,1.70,35.95,4.23,-1.25,-7.54
-2,4,149,12,-388,3947,-0.24,0.31,14.99,0.12,-3.88,39.47,-6.26,1.69,35.89,4.24,-1.28,-7.36
-1,6,131,24,-457,3885,-0.23,0.32,14.29,0.24,-4.57,38.85,-6.26,1.68,35.84,4.21,-1.32,-7.07
-1,5,132,12,-449,3910,-0.21,0.31,13.66,0.12,-4.49,39.10,-6.26,1.67,35.78,4.21,-1.29,-6.95
0,8,139,-52,-452,3915,-0.19,0.33,13.15,-0.52,-4.52,39.15,-6.27,1.66,35.73,4.19,-1.35,-6.91
1,4,143,-28,-433,3896,-0.16,0.32,12.70,-0.28,-4.33,38.96,-6.27,1.65,35.68,4.16,-1.26,-6.85
4,-5,120,-23,-380,3915,-0.12,0.26,12.17,-0.23,-3.80,39.15,-6.26,1.64,35.63,4.08,-1.05,-6.55
1,-4,118,-38,-447,3916,-0.10,0.21,11.67,-0.38,-4.47,39.16,-6.26,1.62,35.58,4.14,-1.05,-6.43
-2,1,160,-78,-523,3900,-0.11,0.19,11.48,-0.78,-5.23,39.00,-6.28,1.62,35.54,4.21,-1.15,-6.75
-2,3,179,-65,-524,3926,-0.11,0.19,11.42,-0.65,-5.24,39.26,-6.29,1.62,35.49,4.22,-1.18,-6.89
3,-2,183,-21,-440,3893,-0.08,0.16,11.40,-0.21,-4.40,38.93,-6.30,1.61,35.45,4.12,-1.07,-6.92
-1,1,191,-63,-470,3884,-0.08,0.15,11.42,-0.63,-4.70,38.84,-6.31,1.60,35.40,4.20,-1.12,-6.99
2,2,192,-77,-436,3955,-0.06,0.15,11.45,-0.77,-4.36,39.55,-6.30,1.59,35.36,4.14,-1.13,-7.00
3,2,204,-43,-465,3907,-0.03,0.15,11.55,-0.43,-4.65,39.07,-6.31,1.58,35.31,4.11,-1.12,-7.11
1,-7,183,0,-437,3940,-0.02,0.09,11.51,0.00,-4.37,39.40,-6.31,1.56,35.27,4.15,-0.91,-6.92
2,-6,178,1,-443,3933,-0.01,0.04,11.45,0.01,-4.43,39.33,-6.31,1.55,35.22,4.13,-0.91,-6.87
4,4,212,-31,-490,3959,0.02,0.06,11.59,-0.31,-4.90,39.59,-6.32,1.54,35.18,4.09,-1.12,-7.18
-5,9,203,-28,-593,3922,-0.02,0.11,11.67,-0.28,-5.93,39.22,-6.34,1.54,35.13,4.29,-1.23,-7.11
-3,1,191,-60,-467,3917,-0.03,0.11,11.67,-0.60,-4.67,39.17,-6.34,1.53,35.08,4.26,-1.06,-7.01
-6,7,202,-39,-527,3901,-0.07,0.14,11.74,-0.39,-5.27,39.01,-6.36,1.52,35.04,4.34,-1.19,-7.11
-1,8,248,-32,-517,3899,-0.07,0.17,12.08,-0.32,-5.17,38.99,-6.37,1.52,34.99,4.24,-1.21,-7.56
-2,1,255,-39,-452,3934,-0.07,0.16,12.42,-0.39,-4.52,39.34,-6.37,1.51,34.94,4.27,-1.06,-7.68
-10,2,260,-17,-468,3927,-0.12,0.16,12.77,-0.17,-4.68,39.27,-6.38,1.50,34.89,4.45,-1.07,-7.78
-10,6,263,-42,-450,3925,-0.17,0.18,13.09,-0.42,-4.50,39.25,-6.38,1.48,34.84,4.46,-1.15,-7.87
0,8,264,11,-492,3920,-0.16,0.21,13.40,0.11,-4.92,39.20,-6.39,1.47,34.79,4.26,-1.19,-7.93
1,1,250,82,-514,3859,-0.13,0.20,13.58,0.82,-5.14,38.59,-6.39,1.46,34.73,4.24,-1.04,-7.84
16,12,244,5,-507,3915,-0.02,0.25,13.71,0.05,-5.07,39.15,-6.40,1.46,34.68,3.91,-1.27,-7.81
21,10,234,8,-463,3913,0.11,0.29,13.77,0.08,-4.63,39.13,-6.41,1.45,34.62,3.77,-1.24,-7.73
10,7,232,-26,-501,3900,0.16,0.30,13.81,-0.26,-5.01,39.00,-6.42,1.44,34.57,3.99,-1.17,-7.72
19,3,227,-53,-444,4017,0.26,0.29,13.81,-0.53,-4.44,40.17,-6.41,1.43,34.51,3.77,-1.08,-7.67
-5,2,171,-64,-443,3980,0.20,0.27,13.47,-0.64,-4.43,39.80,-6.41,1.42,34.46,4.27,-1.05,-7.12
-12,6,166,-78,-455,3956,0.11,0.28,13.14,-0.78,-4.55,39.56,-6.41,1.41,34.41,4.45,-1.13,-7.01
-15,-1,150,16,-473,3939,0.01,0.25,12.74,0.16,-4.73,39.39,-6.42,1.40,34.36,4.54,-0.97,-6.80
-21,1,153,-23,-522,3879,-0.12,0.23,12.40,-0.23,-5.22,38.79,-6.43,1.39,34.31,4.70,-1.00,-6.75
-15,6,182,-9,-508,3902,-0.20,0.24,12.27,-0.09,-5.08,39.02,-6.44,1.38,34.26,4.61,-1.10,-6.97
-18,2,191,-2,-508,3887,-0.29,0.23,12.21,-0.02,-5.08,38.87,-6.45,1.38,34.21,4.70,-1.01,-7.03
-12,5,218,-19,-480,3902,-0.34,0.24,12.32,-0.19,-4.80,39.02,-6.46,1.37,34.16,4.60,-1.07,-7.28
-5,-8,215,-27,-476,3819,-0.33,0.16,12.40,-0.27,-4.76,38.19,-6.47,1.36,34.12,4.46,-0.78,-7.26
3,11,236,-51,-438,3916,-0.28,0.22,12.60,-0.51,-4.38,39.16,-6.47,1.34,34.07,4.28,-1.17,-7.47
10,12,240,-91,-432,3899,-0.19,0.27,12.80,-0.91,-4.32,38.99,-6.45,1.35,34.01,4.11,-1.21,-7.54
8,11,236,-28,-467,3915,-0.12,0.31,12.96,-0.28,-4.67,39.15,-6.45,1.34,33.96,4.13,-1.19,-7.53
5,3,236,8,-424,3948,-0.08,0.29,13.10,0.08,-4.24,39.48,-6.45,1.33,33.91,4.18,-1.02,-7.56
-5,10,227,28,-441,3976,-0.10,0.33,13.18,0.28,-4.41,39.76,-6.45,1.32,33.86,4.39,-1.16,-7.49
-2,2,222,-24,-478,3929,-0.11,0.31,13.21,-0.24,-4.78,39.29,-6.46,1.31,33.81,4.33,-0.99,-7.45
-20,7,201,-16,-465,3866,-0.22,0.32,13.12,-0.16,-4.65,38.66,-6.46,1.30,33.75,4.73,-1.09,-7.25
-15,11,199,-168,-423,4016,-0.29,0.35,13.02,-1.68,-4.23,40.16,-6.45,1.32,33.70,4.64,-1.19,-7.21
-10,-2,189,-47,-494,3856,-0.32,0.31,12.87,-0.47,-4.94,38.56,-6.47,1.32,33.65,4.56,-0.91,-7.09
-15,8,208,-31,-522,3926,-0.38,0.32,12.85,-0.31,-5.22,39.26,-6.48,1.31,33.60,4.69,-1.12,-7.24
1,6,250,-22,-425,3869,-0.33,0.33,13.09,-0.22,-4.25,38.69,-6.48,1.30,33.55,4.35,-1.07,-7.64
-3,0,240,36,-398,3933,-0.32,0.30,13.25,0.36,-3.98,39.33,-6.47,1.29,33.50,4.42,-0.93,-7.58
4,-4,156,-32,-406,3893,-0.26,0.24,12.87,-0.32,-4.06,38.93,-6.46,1.29,33.45,4.26,-0.83,-6.79
4,7,152,-21,-493,3857,-0.21,0.26,12.51,-0.21,-4.93,38.57,-6.48,1.28,33.40,4.25,-1.06,-6.69
8,11,165,54,-516,3912,-0.14,0.30,12.27,0.54,-5.16,39.12,-6.48,1.27,33.35,4.15,-1.14,-6.74
4,11,157,61,-415,3943,-0.10,0.34,12.00,0.61,-4.15,39.43,-6.48,1.26,33.30,4.22,-1.15,-6.62
10,5,96,-78,-420,3924,-0.03,0.33,11.39,-0.78,-4.20,39.24,-6.46,1.26,33.25,4.07,-1.02,-5.98
7,5,94,-87,-468,3935,0.01,0.33,10.82,-0.87,-4.68,39.35,-6.48,1.26,33.21,4.13,-1.03,-5.85
-2,3,137,-70,-490,3891,0.00,0.32,10.57,-0.70,-4.90,38.91,-6.49,1.26,33.17,4.33,-0.98,-6.17
-6,6,151,-37,-478,3927,-0.04,0.32,10.44,-0.37,-4.78,39.27,-6.50,1.25,33.13,4.42,-1.04,-6.26
-9,3,125,-115,-510,3899,-0.09,0.31,10.16,-1.15,-5.10,38.99,-6.52,1.27,33.09,4.51,-0.98,-5.98
-10,4,131,-61,-532,3902,-0.14,0.30,9.94,-0.61,-5.32,39.02,-6.54,1.27,33.05,4.56,-1.00,-5.98
-10,10,180,21,-534,3888,-0.19,0.33,10.04,0.21,-5.34,38.88,-6.55,1.26,33.01,4.58,-1.13,-6.42
-14,6,184,56,-500,3897,-0.25,0.34,10.16,0.56,-5.00,38.97,-6.55,1.25,32.97,4.68,-1.04,-6.47
-2,7,150,-168,-352,3938,-0.24,0.34,10.06,-1.68,-3.52,39.38,-6.54,1.27,32.93,4.42,-1.07,-6.16
0,-3,129,-182,-387,3995,-0.22,0.29,9.84,-1.82,-3.87,39.95,-6.53,1.29,32.89,4.37,-0.87,-5.93
-4,-4,88,51,-432,3878,-0.22,0.24,9.39,0.51,-4.32,38.78,-6.53,1.27,32.85,4.45,-0.82,-5.50
-4,-4,80,11,-422,3927,-0.22,0.19,8.94,0.11,-4.22,39.27,-6.52,1.26,32.82,4.45,-0.80,-5.34
4,3,72,-16,-494,3944,-0.18,0.19,8.49,-0.16,-4.94,39.44,-6.53,1.25,32.79,4.28,-0.94,-5.18
4,1,70,-29,-491,3905,-0.13,0.18,8.07,-0.29,-4.91,39.05,-6.54,1.24,32.75,4.27,-0.89,-5.08
1,26,107,-18,-455,3959,-0.11,0.32,7.91,-0.18,-4.55,39.59,-6.54,1.23,32.72,4.33,-1.42,-5.36
4,30,136,18,-476,3921,-0.08,0.47,7.95,0.18,-4.76,39.21,-6.55,1.21,32.69,4.26,-1.54,-5.61
-9,8,153,-51,-499,3884,-0.13,0.47,8.09,-0.51,-4.99,38.84,-6.56,1.21,32.66,4.55,-1.09,-5.78
-1,5,121,-150,-446,3942,-0.12,0.45,8.02,-1.50,-4.46,39.42,-6.56,1.23,32.63,4.38,-1.04,-5.49
-1,-2,117,7,-425,3920,-0.11,0.40,7.93,0.07,-4.25,39.20,-6.56,1.22,32.60,4.38,-0.87,-5.44
-5,-2,126,-13,-500,3887,-0.13,0.34,7.91,-0.13,-5.00,38.87,-6.57,1.21,32.56,4.47,-0.85,-5.51
1,3,117,-99,-465,3922,-0.11,0.33,7.83,-0.99,-4.65,39.22,-6.58,1.23,32.53,4.35,-0.96,-5.42
0,6,118,-100,-516,3922,-0.10,0.33,7.77,-1.00,-5.16,39.22,-6.60,1.24,32.50,4.38,-1.03,-5.41
-2,7,111,-49,-469,3933,-0.10,0.34,7.67,-0.49,-4.69,39.33,-6.60,1.23,32.47,4.43,-1.05,-5.33
-1,15,121,-34,-499,3867,-0.10,0.40,7.64,-0.34,-4.99,38.67,-6.61,1.22,32.44,4.41,-1.22,-5.40
3,1,157,-15,-542,3908,-0.07,0.37,7.83,-0.15,-5.42,39.08,-6.63,1.21,32.41,4.33,-0.92,-5.74
5,-2,157,-36,-454,3915,-0.03,0.32,8.01,-0.36,-4.54,39.15,-6.63,1.20,32.38,4.28,-0.84,-5.77
3,7,130,-28,-519,3877,-0.01,0.33,8.00,-0.28,-5.19,38.77,-6.64,1.19,32.35,4.33,-1.02,-5.54
-1,0,136,25,-528,3930,-0.02,0.29,8.03,0.25,-5.28,39.30,-6.65,1.18,32.32,4.41,-0.86,-5.60
-3,14,170,13,-495,3915,-0.03,0.35,8.26,0.13,-4.95,39.15,-6.66,1.17,32.29,4.46,-1.15,-5.93
-1,-4,160,6,-465,3974,-0.04,0.29,8.41,0.06,-4.65,39.74,-6.66,1.16,32.25,4.42,-0.76,-5.87
-7,3,113,-67,-441,3887,-0.08,0.28,8.26,-0.67,-4.41,38.87,-6.64,1.15,32.22,4.55,-0.90,-5.44
-11,-1,105,-70,-469,3952,-0.13,0.25,8.07,-0.70,-4.69,39.52,-6.66,1.14,32.19,4.65,-0.80,-5.33
-10,10,105,30,-474,3979,-0.18,0.28,7.91,0.30,-4.74,39.79,-6.66,1.13,32.16,4.65,-1.02,-5.29
-5,3,103,-19,-435,3843,-0.19,0.27,7.75,-0.19,-4.35,38.43,-6.65,1.11,32.13,4.55,-0.87,-5.24
5,1,78,-30,-445,3926,-0.14,0.25,7.45,-0.30,-4.45,39.26,-6.65,1.10,32.10,4.33,-0.82,-4.97
5,1,75,-41,-472,3883,-0.10,0.23,7.16,-0.41,-4.72,38.83,-6.66,1.09,32.07,4.32,-0.80,-4.89
1,3,75,4,-444,3920,-0.08,0.23,6.90,0.04,-4.44,39.20,-6.65,1.08,32.04,4.39,-0.83,-4.84
-4,1,82,-5,-450,3907,-0.10,0.21,6.71,-0.05,-4.50,39.07,-6.65,1.06,32.01,4.50,-0.78,-4.86
-9,2,92,-27,-515,3878,-0.14,0.20,6.60,-0.27,-5.15,38.78,-6.67,1.05,31.99,4.62,-0.79,-4.92
-9,4,92,-26,-527,3936,-0.19,0.21,6.50,-0.26,-5.27,39.36,-6.68,1.05,31.96,4.64,-0.83,-4.90
0,0,105,-14,-516,3878,-0.17,0.19,6.49,-0.14,-5.16,38.78,-6.70,1.04,31.94,4.46,-0.74,-5.00
-2,0,111,35,-565,3924,-0.16,0.17,6.52,0.35,-5.65,39.24,-6.71,1.03,31.91,4.51,-0.72,-5.06
-2,16,143,3,-540,3908,-0.16,0.25,6.74,0.03,-5.40,39.08,-6.72,1.02,31.89,4.52,-1.07,-5.37
-6,10,155,-38,-447,3955,-0.18,0.28,7.01,-0.38,-4.47,39.55,-6.71,1.01,31.86,4.60,-0.95,-5.52
-6,4,101,-41,-405,3900,-0.20,0.28,6.93,-0.41,-4.05,39.00,-6.70,1.01,31.83,4.60,-0.82,-5.04
-7,3,102,-18,-474,3934,-0.22,0.27,6.86,-0.18,-4.74,39.34,-6.70,0.99,31.80,4.63,-0.79,-5.04
-5,0,116,5,-467,3884,-0.23,0.24,6.88,0.05,-4.67,38.84,-6.71,0.98,31.78,4.59,-0.71,-5.16
-5,5,118,11,-472,3919,-0.24,0.25,6.91,0.11,-4.72,39.19,-6.71,0.96,31.75,4.59,-0.81,-5.18
1,-1,113,-20,-440,3910,-0.21,0.22,6.91,-0.20,-4.40,39.10,-6.70,0.95,31.72,4.46,-0.67,-5.13
-1,1,106,-38,-438,3930,-0.19,0.20,6.86,-0.38,-4.38,39.30,-6.69,0.94,31.69,4.49,-0.70,-5.06
-4,2,99,11,-527,3896,-0.20,0.19,6.78,0.11,-5.27,38.96,-6.70,0.93,31.67,4.56,-0.71,-4.98
-4,5,112,18,-570,3883,-0.20,0.21,6.79,0.18,-5.70,38.83,-6.72,0.93,31.64,4.57,-0.77,-5.09
0,2,164,-6,-590,3904,-0.18,0.20,7.11,-0.06,-5.90,39.04,-6.73,0.92,31.61,4.49,-0.70,-5.59
-1,6,181,40,-540,3939,-0.17,0.21,7.50,0.40,-5.40,39.39,-6.75,0.91,31.58,4.52,-0.78,-5.81
0,6,204,8,-414,3891,-0.15,0.23,8.00,0.08,-4.14,38.91,-6.74,0.90,31.55,4.49,-0.78,-6.10
0,-2,196,-24,-459,3954,-0.14,0.19,8.39,-0.24,-4.59,39.54,-6.73,0.89,31.52,4.48,-0.60,-6.10
3,3,169,-48,-409,3942,-0.11,0.19,8.58,-0.48,-4.09,39.42,-6.71,0.89,31.48,4.40,-0.70,-5.91
-1,-1,163,-87,-409,3911,-0.10,0.17,8.72,-0.87,-4.09,39.11,-6.70,0.90,31.45,4.47,-0.62,-5.88
-2,-4,137,-11,-443,3916,-0.10,0.13,8.68,-0.11,-4.43,39.16,-6.69,0.89,31.41,4.49,-0.54,-5.65
0,-1,129,-60,-432,3919,-0.09,0.11,8.60,-0.60,-4.32,39.19,-6.67,0.89,31.38,4.43,-0.60,-5.56
4,2,130,-3,-516,3881,-0.06,0.11,8.53,-0.03,-5.16,38.81,-6.69,0.88,31.35,4.35,-0.65,-5.55
-1,4,141,-10,-506,3890,-0.06,0.12,8.54,-0.10,-5.06,38.90,-6.70,0.88,31.31,4.46,-0.69,-5.65
-5,1,168,-99,-510,3976,-0.08,0.12,8.71,-0.99,-5.10,39.76,-6.71,0.89,31.28,4.55,-0.64,-5.90
-9,-3,193,-60,-531,3896,-0.13,0.09,9.02,-0.60,-5.31,38.96,-6.73,0.90,31.24,4.66,-0.55,-6.17
-8,3,254,-127,-597,3915,-0.17,0.10,9.67,-1.27,-5.97,39.15,-6.75,0.91,31.20,4.66,-0.69,-6.81
-6,2,258,-123,-577,3914,-0.19,0.10,10.27,-1.23,-5.77,39.14,-6.76,0.92,31.16,4.64,-0.68,-6.95
1,0,227,-80,-373,3882,-0.16,0.09,10.63,-0.80,-3.73,38.82,-6.75,0.93,31.12,4.48,-0.64,-6.76
-1,-5,214,-54,-391,3930,-0.15,0.05,10.87,-0.54,-3.91,39.30,-6.73,0.93,31.08,4.50,-0.53,-6.69
6,1,165,6,-340,3896,-0.10,0.05,10.79,0.06,-3.40,38.96,-6.71,0.93,31.03,4.33,-0.65,-6.25
3,2,154,50,-365,3913,-0.07,0.06,10.65,0.50,-3.65,39.13,-6.70,0.92,30.99,4.38,-0.66,-6.13
8,6,140,6,-443,3926,-0.02,0.09,10.44,0.06,-4.43,39.26,-6.69,0.91,30.95,4.26,-0.75,-5.97
5,-1,136,-3,-425,3927,0.02,0.07,10.23,-0.03,-4.25,39.27,-6.68,0.90,30.91,4.31,-0.59,-5.89
-1,4,115,-100,-414,3933,0.01,0.09,9.91,-1.00,-4.14,39.33,-6.67,0.91,30.87,4.42,-0.71,-5.65
-2,2,113,-81,-478,3905,-0.00,0.09,9.60,-0.81,-4.78,39.05,-6.68,0.93,30.83,4.45,-0.68,-5.57
-3,-1,131,-44,-537,3918,-0.02,0.08,9.44,-0.44,-5.37,39.18,-6.70,0.93,30.80,4.49,-0.62,-5.69
1,1,132,-12,-521,3891,-0.01,0.08,9.30,-0.12,-5.21,38.91,-6.71,0.92,30.76,4.41,-0.65,-5.66
-1,2,138,59,-459,3896,-0.02,0.08,9.22,0.59,-4.59,38.96,-6.71,0.91,30.72,4.46,-0.66,-5.70
0,3,141,46,-488,3928,-0.02,0.09,9.15,0.46,-4.88,39.28,-6.72,0.90,30.69,4.44,-0.68,-5.71
-3,0,168,28,-546,3878,-0.03,0.08,9.26,0.28,-5.46,38.78,-6.73,0.89,30.65,4.51,-0.61,-5.95
-1,4,182,29,-539,3910,-0.04,0.10,9.45,0.29,-5.39,39.10,-6.74,0.88,30.61,4.48,-0.69,-6.10
3,2,222,67,-533,3901,-0.01,0.10,9.86,0.67,-5.33,39.01,-6.75,0.87,30.57,4.40,-0.64,-6.52
-4,0,227,10,-509,3904,-0.04,0.09,10.26,0.10,-5.09,39.04,-6.76,0.86,30.53,4.55,-0.59,-6.63
-4,-4,217,-8,-462,3970,-0.06,0.06,10.55,-0.08,-4.62,39.70,-6.76,0.85,30.49,4.56,-0.49,-6.60
-6,7,203,-28,-469,3921,-0.09,0.09,10.74,-0.28,-4.69,39.21,-6.76,0.83,30.45,4.61,-0.72,-6.51
3,3,179,-55,-461,3951,-0.06,0.10,10.75,-0.55,-4.61,39.51,-6.74,0.83,30.41,4.40,-0.64,-6.31
-6,-7,170,-23,-451,3855,-0.09,0.05,10.72,-0.23,-4.51,38.55,-6.74,0.82,30.36,4.59,-0.41,-6.22
-11,-1,174,-10,-509,3894,-0.15,0.04,10.71,-0.10,-5.09,38.94,-6.75,0.81,30.32,4.72,-0.53,-6.25
5,9,172,-34,-488,3966,-0.10,0.09,10.68,-0.34,-4.88,39.66,-6.76,0.80,30.28,4.39,-0.74,-6.22
1,8,174,-5,-511,3882,-0.09,0.13,10.68,-0.05,-5.11,38.82,-6.77,0.80,30.24,4.48,-0.72,-6.24
-8,-1,186,-29,-514,3950,-0.13,0.11,10.74,-0.29,-5.14,39.50,-6.79,0.79,30.19,4.68,-0.53,-6.35
-13,9,223,-6,-559,3939,-0.19,0.15,11.03,-0.06,-5.59,39.39,-6.81,0.79,30.15,4.81,-0.75,-6.71
-2,10,229,14,-556,3938,-0.19,0.20,11.32,0.14,-5.56,39.38,-6.82,0.78,30.11,4.59,-0.78,-6.81
-11,9,276,-12,-560,3898,-0.24,0.23,11.88,-0.12,-5.60,38.98,-6.84,0.78,30.06,4.80,-0.76,-7.31
-11,7,291,-28,-483,3889,-0.28,0.25,12.46,-0.28,-4.83,38.89,-6.85,0.77,30.01,4.82,-0.72,-7.55
-5,8,274,-5,-415,3908,-0.28,0.28,12.89,-0.05,-4.15,39.08,-6.84,0.77,29.96,4.69,-0.75,-7.48
-2,11,268,-12,-451,3896,-0.27,0.32,13.23,-0.12,-4.51,38.96,-6.83,0.76,29.91,4.62,-0.81,-7.49
3,-4,256,-114,-554,3923,-0.22,0.26,13.47,-1.14,-5.54,39.23,-6.84,0.78,29.85,4.52,-0.50,-7.43
7,2,242,-144,-603,3828,-0.16,0.25,13.60,-1.44,-6.03,38.28,-6.86,0.80,29.80,4.43,-0.63,-7.33
7,2,227,27,-586,3809,-0.10,0.23,13.63,0.27,-5.86,38.09,-6.87,0.79,29.74,4.42,-0.63,-7.20
9,-1,220,7,-655,3963,-0.03,0.20,13.61,0.07,-6.55,39.63,-6.89,0.79,29.69,4.37,-0.56,-7.14
-4,16,278,-8,-306,3937,-0.05,0.28,13.94,-0.08,-3.06,39.37,-6.87,0.80,29.64,4.63,-0.93,-7.69
-13,3,286,-12,-426,3863,-0.13,0.27,14.29,-0.12,-4.26,38.63,-6.86,0.79,29.58,4.83,-0.66,-7.82
-11,1,236,-96,-513,3895,-0.18,0.25,14.30,-0.96,-5.13,38.95,-6.87,0.81,29.52,4.81,-0.63,-7.39
-9,3,227,-113,-413,3938,-0.22,0.24,14.26,-1.13,-4.13,39.38,-6.86,0.83,29.47,4.77,-0.68,-7.30
-13,2,212,-146,-473,3957,-0.28,0.23,14.12,-1.46,-4.73,39.57,-6.86,0.86,29.41,4.87,-0.67,-7.14
-6,3,197,-109,-490,3872,-0.29,0.23,13.91,-1.09,-4.90,38.72,-6.87,0.88,29.35,4.73,-0.71,-6.97
-7,1,147,-109,-404,3882,-0.30,0.21,13.42,-1.09,-4.04,38.82,-6.85,0.90,29.30,4.75,-0.67,-6.45
-3,8,133,-90,-376,3921,-0.29,0.24,12.89,-0.90,-3.76,39.21,-6.84,0.91,29.25,4.65,-0.83,-6.22
-2,2,145,-32,-386,3889,-0.27,0.23,12.48,-0.32,-3.86,38.89,-6.82,0.91,29.20,4.62,-0.71,-6.24
9,8,138,-41,-470,3894,-0.19,0.25,12.08,-0.41,-4.70,38.94,-6.82,0.90,29.15,4.37,-0.83,-6.10
3,4,104,-86,-459,3904,-0.15,0.25,11.50,-0.86,-4.59,39.04,-6.82,0.93,29.11,4.48,-0.76,-5.70
3,7,94,-50,-400,3931,-0.12,0.27,10.93,-0.50,-4.00,39.31,-6.80,0.93,29.06,4.46,-0.83,-5.50
6,8,66,-5,-459,3902,-0.07,0.29,10.24,-0.05,-4.59,39.02,-6.80,0.92,29.02,4.38,-0.85,-5.13
5,1,67,-7,-501,3910,-0.03,0.27,9.62,-0.07,-5.01,39.10,-6.81,0.91,28.98,4.40,-0.69,-5.02
2,4,83,-68,-528,3947,-0.02,0.27,9.17,-0.68,-5.28,39.47,-6.82,0.91,28.95,4.47,-0.76,-5.06
-1,13,122,-60,-458,3952,-0.02,0.32,8.99,-0.60,-4.58,39.52,-6.81,0.92,28.91,4.52,-0.96,-5.35
-13,-4,178,7,-464,3951,-0.10,0.26,9.18,0.07,-4.64,39.51,-6.80,0.90,28.88,4.78,-0.59,-5.86
-4,-1,168,21,-459,3916,-0.11,0.23,9.29,0.21,-4.59,39.16,-6.80,0.89,28.84,4.60,-0.63,-5.79
-4,2,161,46,-417,3951,-0.13,0.22,9.34,0.46,-4.17,39.51,-6.79,0.88,28.80,4.60,-0.68,-5.74
-3,6,152,34,-366,3885,-0.13,0.23,9.33,0.34,-3.66,38.85,-6.78,0.87,28.77,4.57,-0.76,-5.66
-5,3,120,-5,-422,3902,-0.15,0.23,9.13,-0.05,-4.22,39.02,-6.77,0.86,28.73,4.61,-0.69,-5.35
-2,2,111,11,-467,3922,-0.15,0.22,8.90,0.11,-4.67,39.22,-6.77,0.85,28.69,4.55,-0.66,-5.22
-2,-5,97,-15,-554,3923,-0.14,0.17,8.60,-0.15,-5.54,39.23,-6.79,0.85,28.66,4.56,-0.50,-5.04
-12,-4,117,-36,-570,3915,-0.20,0.12,8.45,-0.36,-5.70,39.15,-6.80,0.85,28.63,4.79,-0.51,-5.18
-5,6,135,-11,-548,3911,-0.21,0.15,8.43,-0.11,-5.48,39.11,-6.82,0.84,28.59,4.66,-0.72,-5.33
-8,6,140,-32,-585,3881,-0.24,0.17,8.44,-0.32,-5.85,38.81,-6.84,0.84,28.56,4.74,-0.72,-5.37
-2,11,127,-28,-397,3948,-0.23,0.22,8.37,-0.28,-3.97,39.48,-6.82,0.84,28.53,4.61,-0.84,-5.24
2,8,114,-38,-302,3930,-0.19,0.25,8.23,-0.38,-3.02,39.30,-6.80,0.84,28.49,4.50,-0.79,-5.10
-3,-2,84,17,-431,3895,-0.19,0.21,7.92,0.17,-4.31,38.95,-6.80,0.83,28.46,4.60,-0.57,-4.79
-1,1,88,29,-492,3865,-0.18,0.20,7.66,0.29,-4.92,38.65,-6.80,0.82,28.43,4.56,-0.61,-4.77
6,-8,106,-72,-354,3996,-0.12,0.13,7.54,-0.72,-3.54,39.96,-6.79,0.82,28.40,4.39,-0.42,-4.90
2,-6,103,-131,-366,3907,-0.10,0.08,7.42,-1.31,-3.66,39.07,-6.77,0.84,28.37,4.46,-0.45,-4.84
-9,2,116,36,-547,3903,-0.15,0.08,7.38,0.36,-5.47,39.03,-6.78,0.83,28.34,4.70,-0.61,-4.94
-2,7,128,38,-529,3891,-0.14,0.12,7.43,0.38,-5.29,38.91,-6.79,0.82,28.31,4.56,-0.71,-5.05
2,9,109,-7,-438,3955,-0.12,0.16,7.35,-0.07,-4.38,39.55,-6.78,0.81,28.28,4.47,-0.76,-4.87
5,5,101,-7,-404,3931,-0.07,0.17,7.23,-0.07,-4.04,39.31,-6.77,0.80,28.26,4.39,-0.68,-4.78
2,12,97,-1,-515,3872,-0.05,0.23,7.10,-0.01,-5.15,38.72,-6.78,0.79,28.23,4.45,-0.83,-4.72
2,17,99,-7,-432,3913,-0.04,0.31,6.99,-0.07,-4.32,39.13,-6.77,0.78,28.20,4.44,-0.95,-4.71
8,-2,71,-58,-447,3922,0.02,0.27,6.73,-0.58,-4.47,39.22,-6.75,0.79,28.17,4.29,-0.55,-4.42
4,5,68,-26,-456,3913,0.04,0.27,6.47,-0.26,-4.56,39.13,-6.75,0.78,28.15,4.36,-0.69,-4.35
4,6,58,-2,-455,3936,0.06,0.28,6.18,-0.02,-4.55,39.36,-6.74,0.76,28.12,4.35,-0.70,-4.20
3,6,52,-9,-479,3911,0.07,0.29,5.88,-0.09,-4.79,39.11,-6.75,0.75,28.10,4.37,-0.69,-4.09
-1,0,34,-48,-401,3964,0.06,0.26,5.50,-0.48,-4.01,39.64,-6.73,0.75,28.08,4.45,-0.57,-3.87
-1,1,15,7,-384,3931,0.05,0.24,5.04,0.07,-3.84,39.31,-6.72,0.74,28.06,4.44,-0.58,-3.61
-2,0,2,22,-445,3902,0.03,0.22,4.55,0.22,-4.45,39.02,-6.71,0.73,28.04,4.46,-0.54,-3.41
-3,0,-1,-2,-447,3914,0.01,0.19,4.08,-0.02,-4.47,39.14,-6.71,0.71,28.02,4.49,-0.52,-3.29
-1,1,-5,-13,-472,3908,0.00,0.18,3.65,-0.13,-4.72,39.08,-6.71,0.70,28.01,4.45,-0.53,-3.18
0,0,-6,-17,-464,3910,0.00,0.16,3.24,-0.17,-4.64,39.10,-6.71,0.68,28.00,4.43,-0.50,-3.09
2,3,-9,-24,-473,3922,0.01,0.17,2.87,-0.24,-4.73,39.22,-6.72,0.67,27.99,4.39,-0.55,-2.99
3,3,-9,-2,-475,3908,0.03,0.17,2.52,-0.02,-4.75,39.08,-6.73,0.65,27.98,4.37,-0.54,-2.92
4,3,-13,-18,-465,3921,0.05,0.17,2.19,-0.18,-4.65,39.21,-6.73,0.64,27.97,4.35,-0.53,-2.83
5,3,-14,-15,-470,3908,0.08,0.17,1.89,-0.15,-4.70,39.08,-6.73,0.62,27.96,4.32,-0.52,-2.76
7,9,-25,-47,-465,3954,0.11,0.21,1.55,-0.47,-4.65,39.54,-6.73,0.64,27.95,4.27,-0.66,-2.60
2,4,-24,-3,-474,3923,0.11,0.21,1.25,-0.03,-4.74,39.23,-6.73,0.62,27.95,4.37,-0.55,-2.55
2,1,-30,-23,-468,3906,0.11,0.20,0.94,-0.23,-4.68,39.06,-6.74,0.61,27.95,4.37,-0.47,-2.44
5,1,-37,-37,-468,3913,0.13,0.18,0.62,-0.37,-4.68,39.13,-6.75,0.60,27.94,4.32,-0.46,-2.32
1,0,-29,5,-475,3927,0.13,0.16,0.38,0.05,-4.75,39.27,-6.75,0.58,27.94,4.40,-0.43,-2.34
-1,2,-29,6,-462,3912,0.11,0.16,0.16,0.06,-4.62,39.12,-6.75,0.56,27.94,4.45,-0.45,-2.30
-2,-2,-71,-12,-407,3936,0.08,0.13,-0.28,-0.12,-4.07,39.36,-6.74,0.55,27.94,4.46,-0.36,-1.86
-1,-1,-88,-36,-394,3915,0.07,0.11,-0.79,-0.36,-3.94,39.15,-6.72,0.55,27.95,4.43,-0.38,-1.62
-7,-12,-143,-72,-363,3940,0.02,0.03,-1.59,-0.72,-3.63,39.40,-6.70,0.56,27.95,4.56,-0.13,-1.00
1,-14,-153,13,-424,3943,0.02,-0.06,-2.36,0.13,-4.24,39.43,-6.69,0.54,27.96,4.39,-0.06,-0.77
-5,-8,-89,29,-519,3909,-0.01,-0.10,-2.67,0.29,-5.19,39.09,-6.70,0.53,27.97,4.53,-0.16,-1.25
-2,-9,-103,-16,-310,3937,-0.02,-0.15,-3.03,-0.16,-3.10,39.37,-6.68,0.52,27.98,4.46,-0.12,-1.07
0,-34,-175,-39,-453,3934,-0.02,-0.34,-3.79,-0.39,-4.53,39.34,-6.67,0.53,28.00,4.40,0.44,-0.31
-2,1,-172,50,-449,3730,-0.03,-0.30,-4.46,0.50,-4.49,37.30,-6.67,0.50,28.02,4.45,-0.27,-0.21
12,2,-255,-48,-523,3838,0.05,-0.26,-5.57,-0.48,-5.23,38.38,-6.69,0.50,28.04,4.16,-0.30,0.70
-1,8,-240,-20,-598,3937,0.04,-0.18,-6.48,-0.20,-5.98,39.37,-6.71,0.50,28.06,4.44,-0.44,0.75
2,-1,-227,13,-440,3896,0.05,-0.17,-7.22,0.13,-4.40,38.96,-6.70,0.48,28.09,4.37,-0.25,0.77
-3,4,-227,5,-493,3903,0.02,-0.13,-7.88,0.05,-4.93,39.03,-6.71,0.46,28.12,4.48,-0.35,0.90
-1,-11,-236,-9,-417,3970,0.01,-0.18,-8.53,-0.09,-4.17,39.70,-6.69,0.45,28.16,4.44,-0.02,1.10
6,-4,-252,-21,-376,3916,0.05,-0.19,-9.22,-0.21,-3.76,39.16,-6.68,0.44,28.19,4.27,-0.16,1.36
1,-3,-275,29,-495,3936,0.05,-0.19,-9.97,0.29,-4.95,39.36,-6.69,0.42,28.23,4.38,-0.16,1.69
4,-8,-281,-6,-421,3925,0.07,-0.22,-10.69,-0.06,-4.21,39.25,-6.67,0.40,28.28,4.30,-0.04,1.88
3,-1,-303,-21,-432,3946,0.08,-0.20,-11.47,-0.21,-4.32,39.46,-6.65,0.39,28.32,4.31,-0.18,2.21
0,-9,-314,-84,-402,3915,0.07,-0.24,-12.24,-0.84,-4.02,39.15,-6.64,0.40,28.37,4.36,-0.02,2.45
9,-3,-331,-21,-471,3861,0.12,-0.23,-13.03,-0.21,-4.71,38.61,-6.66,0.39,28.42,4.18,-0.13,2.74
9,-14,-326,19,-512,3967,0.16,-0.29,-13.72,0.19,-5.12,39.67,-6.67,0.37,28.48,4.17,0.12,2.82
6,-6,-323,32,-485,3955,0.18,-0.30,-14.32,0.32,-4.85,39.55,-6.68,0.34,28.53,4.23,-0.02,2.90
4,-9,-320,4,-512,3900,0.19,-0.33,-14.84,0.04,-5.12,39.00,-6.69,0.33,28.59,4.28,0.06,2.97
5,-1,-318,52,-510,3899,0.20,-0.30,-15.29,0.52,-5.10,38.99,-6.70,0.30,28.65,4.27,-0.10,3.04
3,-2,-312,-26,-525,3938,0.20,-0.28,-15.67,-0.26,-5.25,39.38,-6.72,0.30,28.71,4.32,-0.08,3.05
8,-6,-297,39,-487,3942,0.23,-0.29,-15.91,0.39,-4.87,39.42,-6.73,0.27,28.78,4.21,0.02,2.97
9,-3,-306,-25,-474,3893,0.26,-0.28,-16.19,-0.25,-4.74,38.93,-6.74,0.27,28.84,4.20,-0.04,3.09
9,-2,-303,-51,-499,3924,0.29,-0.26,-16.42,-0.51,-4.99,39.24,-6.75,0.27,28.91,4.20,-0.07,3.10
5,-12,-299,6,-494,3931,0.29,-0.31,-16.60,0.06,-4.94,39.31,-6.77,0.25,28.97,4.29,0.16,3.10
2,-12,-259,-67,-499,3948,0.27,-0.35,-16.52,-0.67,-4.99,39.48,-6.78,0.26,29.04,4.36,0.17,2.74
3,-2,-250,-39,-471,3913,0.26,-0.33,-16.39,-0.39,-4.71,39.13,-6.78,0.27,29.10,4.34,-0.05,2.63
6,-5,-246,-25,-431,3894,0.27,-0.33,-16.25,-0.25,-4.31,38.94,-6.76,0.26,29.17,4.27,0.02,2.57
9,-6,-250,-29,-408,3934,0.30,-0.33,-16.15,-0.29,-4.08,39.34,-6.74,0.26,29.23,4.18,0.04,2.57
5,-7,-236,79,-495,3872,0.30,-0.34,-15.98,0.79,-4.95,38.72,-6.75,0.23,29.29,4.27,0.08,2.42
1,-6,-233,67,-521,3917,0.28,-0.34,-15.80,0.67,-5.21,39.17,-6.76,0.21,29.36,4.36,0.08,2.35
2,2,-241,-57,-495,3878,0.26,-0.30,-15.69,-0.57,-4.95,38.78,-6.77,0.21,29.42,4.36,-0.10,2.39
6,-2,-257,-74,-475,3925,0.27,-0.28,-15.69,-0.74,-4.75,39.25,-6.77,0.22,29.48,4.27,-0.03,2.52
-1,-2,-235,-33,-499,3886,0.24,-0.26,-15.55,-0.33,-4.99,38.86,-6.79,0.22,29.54,4.43,-0.03,2.30
1,-3,-237,-6,-472,3911,0.22,-0.26,-15.44,-0.06,-4.72,39.11,-6.80,0.20,29.60,4.40,0.00,2.30
6,-9,-249,-25,-431,3912,0.24,-0.28,-15.42,-0.25,-4.31,39.12,-6.78,0.19,29.67,4.29,0.13,2.39
2,-4,-250,-88,-459,3900,0.22,-0.28,-15.40,-0.88,-4.59,39.00,-6.78,0.20,29.73,4.37,0.02,2.39
3,-9,-276,-57,-425,3919,0.22,-0.31,-15.55,-0.57,-4.25,39.19,-6.76,0.21,29.79,4.34,0.13,2.63
6,8,-294,-72,-474,3885,0.24,-0.23,-15.78,-0.72,-4.74,38.85,-6.77,0.22,29.85,4.28,-0.25,2.82
4,-2,-317,4,-467,3911,0.24,-0.22,-16.14,0.04,-4.67,39.11,-6.77,0.19,29.91,4.32,-0.03,3.08
-4,-8,-323,-43,-422,3915,0.19,-0.24,-16.50,-0.43,-4.22,39.15,-6.75,0.19,29.98,4.49,0.10,3.19
-6,1,-355,-77,-363,3916,0.13,-0.21,-17.01,-0.77,-3.63,39.16,-6.74,0.20,30.05,4.53,-0.09,3.55
-5,-5,-369,-63,-380,3923,0.09,-0.22,-17.56,-0.63,-3.80,39.23,-6.72,0.20,30.12,4.51,0.03,3.77
5,-3,-406,-2,-430,3888,0.11,-0.22,-18.28,-0.02,-4.30,38.88,-6.70,0.18,30.19,4.29,0.00,4.22
-3,-14,-403,-27,-455,3940,0.08,-0.28,-18.91,-0.27,-4.55,39.40,-6.70,0.19,30.26,4.46,0.24,4.30
9,-10,-424,79,-499,3893,0.13,-0.32,-19.61,0.79,-4.99,38.93,-6.70,0.16,30.34,4.21,0.18,4.61
14,5,-433,2,-550,3851,0.20,-0.25,-20.29,0.02,-5.50,38.51,-6.72,0.15,30.42,4.10,-0.13,4.81
21,7,-436,-33,-493,3923,0.31,-0.19,-20.92,-0.33,-4.93,39.23,-6.73,0.15,30.51,3.93,-0.19,4.95
