gyroADC_X,gyroADC_Y,gyroADC_Z,accADC_X,accADC_Y,accADC_Z,GyroX,GyroY,GyroZ,AccX,AccY,AccZ,roll_IMU,pitch_IMU,yaw_IMU,roll_PID,pitch_PID,yaw_PID
5,-3,-131,43,-281,3969,0.16,-0.01,-15.62,0.43,-2.81,39.69,-3.27,-2.48,79.43,2.01,1.70,-3.21
1,1,-140,-27,-247,3973,0.15,-0.00,-14.91,-0.27,-2.47,39.73,-3.27,-2.46,79.49,2.10,1.61,-2.87
-5,-8,-120,-43,-350,3882,0.10,-0.05,-14.15,-0.43,-3.50,38.82,-3.28,-2.45,79.54,2.24,1.79,-3.11
2,-9,-125,-30,-333,3904,0.11,-0.10,-13.50,-0.30,-3.33,39.04,-3.28,-2.44,79.60,2.10,1.82,-2.86
-7,6,-147,-15,-355,3943,0.05,-0.05,-13.04,-0.15,-3.55,39.43,-3.29,-2.42,79.65,2.30,1.49,-2.31
7,4,-149,-51,-323,3910,0.09,-0.03,-12.65,-0.51,-3.23,39.10,-3.30,-2.41,79.70,2.01,1.52,-2.19
-2,-2,-168,-58,-374,3963,0.07,-0.03,-12.41,-0.58,-3.74,39.63,-3.30,-2.40,79.75,2.20,1.63,-1.75
0,2,-142,92,-197,3892,0.06,-0.02,-12.03,0.92,-1.97,38.92,-3.30,-2.38,79.79,2.16,1.54,-2.19
-3,-1,-122,60,-220,3880,0.04,-0.02,-11.57,0.60,-2.20,38.80,-3.29,-2.37,79.84,2.22,1.59,-2.50
3,3,-60,64,-181,3932,0.05,-0.00,-10.78,0.64,-1.81,39.32,-3.28,-2.35,79.88,2.09,1.49,-3.58
2,10,-52,33,-169,3909,0.06,0.06,-10.02,0.33,-1.69,39.09,-3.27,-2.34,79.92,2.10,1.33,-3.58
1,13,-21,26,-291,3953,0.06,0.13,-9.15,0.26,-2.91,39.53,-3.28,-2.32,79.96,2.13,1.23,-4.01
-1,10,-12,-13,-318,3956,0.05,0.18,-8.31,-0.13,-3.18,39.56,-3.29,-2.31,79.99,2.18,1.27,-4.01
-5,0,-10,-52,-278,3970,0.01,0.16,-7.54,-0.52,-2.78,39.70,-3.29,-2.29,80.02,2.27,1.47,-3.88
-2,-3,-20,-93,-273,3939,-0.00,0.13,-6.91,-0.93,-2.73,39.39,-3.29,-2.28,80.05,2.21,1.53,-3.54
-2,5,-42,-21,-282,3956,-0.01,0.15,-6.47,-0.21,-2.82,39.56,-3.30,-2.26,80.08,2.22,1.35,-2.99
-2,5,-42,-17,-309,3914,-0.02,0.16,-6.08,-0.17,-3.09,39.14,-3.30,-2.24,80.10,2.23,1.34,-2.91
-3,-2,-14,-10,-381,3885,-0.04,0.13,-5.56,-0.10,-3.81,38.85,-3.32,-2.23,80.12,2.26,1.48,-3.36
-4,-3,-8,1,-358,3906,-0.06,0.10,-5.05,0.01,-3.58,39.06,-3.33,-2.22,80.14,2.29,1.50,-3.37
-2,-7,-5,-14,-320,3913,-0.07,0.05,-4.58,-0.14,-3.20,39.13,-3.34,-2.20,80.16,2.26,1.58,-3.33
-1,-6,-4,-17,-322,3917,-0.07,0.01,-4.14,-0.17,-3.22,39.17,-3.34,-2.19,80.18,2.25,1.56,-3.25
-1,-8,-4,-33,-311,3923,-0.07,-0.04,-3.75,-0.33,-3.11,39.23,-3.35,-2.17,80.19,2.25,1.61,-3.16
-3,-8,-4,-25,-307,3928,-0.08,-0.09,-3.40,-0.25,-3.07,39.28,-3.36,-2.16,80.20,2.30,1.61,-3.08
-1,-8,-4,-16,-306,3918,-0.08,-0.13,-3.09,-0.16,-3.06,39.18,-3.37,-2.14,80.22,2.26,1.61,-3.01
0,-9,-4,-24,-302,3908,-0.07,-0.17,-2.80,-0.24,-3.02,39.08,-3.37,-2.13,80.23,2.25,1.63,-2.95
12,-6,-22,-106,-336,3919,0.01,-0.19,-2.66,-1.06,-3.36,39.19,-3.38,-2.11,80.24,1.98,1.57,-2.55
8,-2,-37,-105,-359,3904,0.06,-0.18,-2.62,-1.05,-3.59,39.04,-3.39,-2.10,80.25,2.06,1.47,-2.24
-5,-7,-77,-22,-210,4069,0.02,-0.21,-2.82,-0.22,-2.10,40.69,-3.38,-2.08,80.26,2.33,1.57,-1.47
4,-6,-88,-37,-85,3938,0.05,-0.22,-3.08,-0.37,-0.85,39.38,-3.37,-2.07,80.27,2.13,1.55,-1.31
8,6,-131,16,-302,3851,0.09,-0.16,-3.57,0.16,-3.02,38.51,-3.38,-2.05,80.29,2.04,1.28,-0.54
3,9,-116,109,-375,3926,0.10,-0.09,-3.92,1.09,-3.75,39.26,-3.40,-2.05,80.30,2.15,1.19,-0.93
-1,0,-26,38,-355,3928,0.08,-0.08,-3.69,0.38,-3.55,39.28,-3.41,-2.04,80.32,2.25,1.37,-2.70
-2,1,-17,4,-334,3921,0.06,-0.07,-3.42,0.04,-3.34,39.21,-3.42,-2.03,80.33,2.28,1.33,-2.83
4,0,-8,-21,-326,3899,0.08,-0.06,-3.13,-0.21,-3.26,38.99,-3.43,-2.01,80.34,2.16,1.34,-2.95
5,-2,-10,-23,-315,3912,0.10,-0.07,-2.88,-0.23,-3.15,39.12,-3.44,-1.99,80.35,2.14,1.38,-2.85
-1,2,-16,-32,-272,3934,0.09,-0.05,-2.69,-0.32,-2.72,39.34,-3.44,-1.98,80.36,2.27,1.28,-2.69
-1,1,-27,-63,-250,3923,0.07,-0.04,-2.58,-0.63,-2.50,39.23,-3.44,-1.96,80.37,2.27,1.28,-2.44
11,8,-131,-182,-159,3910,0.13,0.01,-3.12,-1.82,-1.59,39.10,-3.44,-1.94,80.39,2.01,1.12,-0.45
15,17,-158,-161,-140,3956,0.21,0.12,-3.77,-1.61,-1.40,39.56,-3.43,-1.93,80.40,1.90,0.89,-0.04
-3,-2,-227,-223,-16,3883,0.17,0.09,-4.78,-2.23,-0.16,38.83,-3.42,-1.91,80.42,2.27,1.28,1.14
8,7,-249,-177,-56,3882,0.20,0.13,-5.82,-1.77,-0.56,38.82,-3.41,-1.90,80.44,2.03,1.07,1.35
17,-6,-323,-54,-420,3971,0.29,0.08,-7.21,-0.54,-4.20,39.71,-3.42,-1.88,80.47,1.83,1.34,2.54
12,23,-314,4,-346,3816,0.33,0.21,-8.41,0.04,-3.46,38.16,-3.43,-1.87,80.51,1.93,0.71,2.09
13,6,-236,172,-420,3942,0.38,0.23,-9.00,1.72,-4.20,39.42,-3.44,-1.88,80.54,1.91,1.06,0.37
15,3,-208,147,-478,3892,0.43,0.22,-9.37,1.47,-4.78,38.92,-3.46,-1.88,80.58,1.86,1.12,-0.28
0,1,-164,26,-453,3959,0.39,0.21,-9.44,0.26,-4.53,39.59,-3.47,-1.87,80.61,2.19,1.16,-1.19
5,-9,-86,160,-463,3897,0.38,0.13,-9.02,1.60,-4.63,38.97,-3.49,-1.88,80.65,2.10,1.39,-2.68
-5,-14,-14,-16,-321,3915,0.31,0.03,-8.20,-0.16,-3.21,39.15,-3.49,-1.86,80.68,2.32,1.51,-3.97
-6,-15,-9,-24,-304,3918,0.24,-0.06,-7.44,-0.24,-3.04,39.18,-3.50,-1.85,80.71,2.37,1.54,-3.90
-7,-12,-4,-23,-311,3926,0.18,-0.13,-6.72,-0.23,-3.11,39.26,-3.51,-1.84,80.74,2.41,1.49,-3.84
-6,-10,-4,-36,-329,3921,0.12,-0.18,-6.07,-0.36,-3.29,39.21,-3.51,-1.82,80.76,2.41,1.45,-3.70
4,-5,-6,-41,-304,3925,0.13,-0.19,-5.50,-0.41,-3.04,39.25,-3.52,-1.81,80.78,2.20,1.35,-3.53
4,-5,-9,-13,-291,3907,0.15,-0.20,-5.00,-0.13,-2.91,39.07,-3.52,-1.79,80.80,2.20,1.34,-3.36
1,-7,-15,-24,-298,3917,0.14,-0.22,-4.59,-0.24,-2.98,39.17,-3.53,-1.78,80.82,2.27,1.38,-3.15
1,-7,-12,-29,-319,3926,0.13,-0.24,-4.21,-0.29,-3.19,39.26,-3.54,-1.76,80.84,2.28,1.37,-3.12
1,-10,-5,-94,-377,3914,0.12,-0.28,-3.82,-0.94,-3.77,39.14,-3.55,-1.75,80.85,2.29,1.43,-3.18
3,-7,-9,-92,-369,3903,0.13,-0.30,-3.49,-0.92,-3.69,39.03,-3.55,-1.73,80.87,2.25,1.37,-3.02
-12,-11,-42,-163,-326,3953,0.04,-0.33,-3.40,-1.63,-3.26,39.53,-3.56,-1.72,80.88,2.58,1.45,-2.33
2,-9,-56,-238,-408,3951,0.05,-0.36,-3.40,-2.38,-4.08,39.51,-3.57,-1.70,80.89,2.30,1.40,-2.05
-22,-11,-137,-199,-384,3870,-0.09,-0.39,-3.90,-1.99,-3.84,38.70,-3.57,-1.69,80.91,2.83,1.44,-0.51
-2,-6,-141,-97,-328,4048,-0.09,-0.38,-4.37,-0.97,-3.28,40.48,-3.58,-1.68,80.93,2.43,1.33,-0.54
14,13,-170,-4,-294,3775,0.00,-0.27,-4.97,-0.04,-2.94,37.75,-3.59,-1.66,80.95,2.08,0.91,-0.08
-2,7,-172,32,-281,3881,-0.01,-0.20,-5.52,0.32,-2.81,38.81,-3.59,-1.65,80.97,2.41,1.00,-0.16
6,12,-142,126,-176,3905,0.03,-0.10,-5.83,1.26,-1.76,39.05,-3.57,-1.65,80.99,2.23,0.88,-0.85
5,6,-136,75,-194,3877,0.06,-0.06,-6.08,0.75,-1.94,38.77,-3.56,-1.64,81.02,2.23,0.98,-1.02
0,5,-109,38,-404,3931,0.05,-0.02,-6.14,0.38,-4.04,39.31,-3.57,-1.64,81.04,2.35,0.98,-1.59
-2,4,-70,87,-409,3945,0.03,0.01,-5.95,0.87,-4.09,39.45,-3.59,-1.64,81.06,2.40,1.00,-2.34
-5,-2,-16,-7,-320,3929,-0.00,-0.01,-5.45,-0.07,-3.20,39.29,-3.60,-1.62,81.08,2.48,1.11,-3.32
-2,0,-13,-1,-316,3927,-0.01,-0.01,-4.99,-0.01,-3.16,39.27,-3.61,-1.61,81.10,2.43,1.06,-3.28
-2,1,-2,-22,-296,3932,-0.02,0.00,-4.50,-0.22,-2.96,39.32,-3.62,-1.59,81.12,2.43,1.03,-3.40
-1,2,-1,-31,-309,3925,-0.03,0.01,-4.06,-0.31,-3.09,39.25,-3.62,-1.57,81.14,2.42,1.00,-3.32
-3,0,-2,-19,-310,3921,-0.04,0.01,-3.66,-0.19,-3.10,39.21,-3.63,-1.56,81.15,2.47,1.03,-3.21
-2,0,-4,-23,-297,3913,-0.05,0.01,-3.32,-0.23,-2.97,39.13,-3.64,-1.54,81.17,2.45,1.02,-3.10
-1,0,-20,-50,-302,3937,-0.05,0.01,-3.11,-0.50,-3.02,39.37,-3.64,-1.53,81.18,2.44,1.00,-2.72
-2,-1,-29,-31,-281,3904,-0.06,0.00,-2.98,-0.31,-2.81,39.04,-3.65,-1.51,81.19,2.46,1.02,-2.51
3,-5,-121,-160,-151,3935,-0.03,-0.03,-3.42,-1.60,-1.51,39.35,-3.64,-1.49,81.20,2.35,1.09,-0.74
-1,-3,-202,-240,-69,3878,-0.04,-0.04,-4.31,-2.40,-0.69,38.78,-3.63,-1.48,81.22,2.43,1.05,0.71
6,20,-250,-32,-345,3954,0.00,0.08,-5.40,-0.32,-3.45,39.54,-3.64,-1.46,81.24,2.28,0.54,1.44
2,15,-249,-78,-427,3990,0.01,0.17,-6.38,-0.78,-4.27,39.90,-3.65,-1.45,81.27,2.37,0.61,1.20
9,10,-272,-87,-253,3919,0.07,0.21,-7.40,-0.87,-2.53,39.19,-3.65,-1.43,81.30,2.21,0.69,1.44
10,8,-276,-86,-218,3931,0.12,0.24,-8.35,-0.86,-2.18,39.31,-3.65,-1.42,81.33,2.17,0.71,1.31
2,-14,-321,-131,-207,3950,0.12,0.13,-9.47,-1.31,-2.07,39.50,-3.64,-1.40,81.37,2.33,1.17,1.97
32,-4,-359,-100,-246,3873,0.31,0.09,-10.71,-1.00,-2.46,38.73,-3.64,-1.39,81.41,1.67,0.97,2.47
3,-30,-337,59,-397,3957,0.29,-0.10,-11.70,0.59,-3.97,39.57,-3.66,-1.38,81.46,2.27,1.55,1.80
14,-2,-300,3,-453,3924,0.35,-0.10,-12.36,0.03,-4.53,39.24,-3.67,-1.38,81.51,2.04,0.98,0.90
-18,-10,-313,-42,-267,3909,0.20,-0.15,-13.03,-0.42,-2.67,39.09,-3.67,-1.37,81.56,2.73,1.15,1.01
0,-11,-307,-32,-266,3902,0.18,-0.21,-13.60,-0.32,-2.66,39.02,-3.67,-1.35,81.61,2.37,1.17,0.76
-11,-9,-242,5,-360,3975,0.10,-0.24,-13.72,0.05,-3.60,39.75,-3.68,-1.34,81.67,2.63,1.14,-0.59
21,-6,-240,41,-300,3918,0.22,-0.25,-13.81,0.41,-3.00,39.18,-3.69,-1.34,81.72,1.95,1.07,-0.66
-5,-17,-201,54,-495,4092,0.16,-0.33,-13.65,0.54,-4.95,40.92,-3.71,-1.34,81.78,2.50,1.32,-1.42
-6,-16,-200,88,-428,3959,0.11,-0.40,-13.51,0.88,-4.28,39.59,-3.73,-1.34,81.83,2.55,1.32,-1.41
-5,-25,-134,-48,-576,3767,0.07,-0.51,-12.97,-0.48,-5.76,37.67,-3.74,-1.34,81.88,2.55,1.53,-2.63
-11,-28,-108,-6,-541,3959,-0.00,-0.63,-12.34,-0.06,-5.41,39.59,-3.76,-1.34,81.93,2.70,1.63,-3.02
1,-3,-93,155,-223,3940,0.00,-0.58,-11.67,1.55,-2.23,39.40,-3.75,-1.36,81.98,2.45,1.12,-3.17
2,-4,-68,144,-209,3883,0.01,-0.55,-10.92,1.44,-2.09,38.83,-3.73,-1.38,82.02,2.42,1.14,-3.52
2,-4,-21,25,-250,3919,0.03,-0.52,-9.95,0.25,-2.50,39.19,-3.73,-1.37,82.06,2.42,1.12,-4.26
0,-4,-16,-6,-283,3933,0.02,-0.49,-9.06,-0.06,-2.83,39.33,-3.74,-1.35,82.09,2.46,1.11,-4.16
-1,0,-6,-24,-287,3907,0.01,-0.44,-8.19,-0.24,-2.87,39.07,-3.74,-1.34,82.13,2.48,1.00,-4.17
0,0,-7,-20,-296,3904,0.01,-0.40,-7.41,-0.20,-2.96,39.04,-3.74,-1.33,82.16,2.47,0.98,-3.98
1,2,-12,-22,-305,3910,0.02,-0.35,-6.74,-0.22,-3.05,39.10,-3.75,-1.31,82.18,2.45,0.92,-3.73
2,4,-12,-16,-305,3906,0.03,-0.29,-6.14,-0.16,-3.05,39.06,-3.76,-1.30,82.21,2.43,0.85,-3.59
-7,5,-23,-76,-225,3891,-0.02,-0.23,-5.67,-0.76,-2.25,38.91,-3.75,-1.28,82.23,2.63,0.81,-3.27
0,1,-45,-153,-230,3954,-0.02,-0.20,-5.38,-1.53,-2.30,39.54,-3.75,-1.27,82.25,2.48,0.87,-2.75
-1,11,-59,6,-335,3924,-0.02,-0.11,-5.20,0.06,-3.35,39.24,-3.76,-1.26,82.27,2.51,0.64,-2.43
0,10,-49,42,-356,3924,-0.02,-0.04,-4.98,0.42,-3.56,39.24,-3.78,-1.25,82.29,2.50,0.63,-2.58
-5,2,-4,8,-343,3929,-0.05,-0.02,-4.50,0.08,-3.43,39.29,-3.79,-1.24,82.31,2.62,0.78,-3.39
-3,2,-1,2,-314,3929,-0.06,-0.01,-4.06,0.02,-3.14,39.29,-3.80,-1.22,82.33,2.59,0.77,-3.36
-6,-5,1,0,-321,3926,-0.09,-0.04,-3.65,0.00,-3.21,39.26,-3.81,-1.21,82.34,2.66,0.91,-3.31
-7,-5,1,-16,-308,3927,-0.12,-0.07,-3.28,-0.16,-3.08,39.27,-3.82,-1.19,82.35,2.70,0.91,-3.22
3,3,-3,-24,-291,3923,-0.09,-0.04,-2.97,-0.24,-2.91,39.23,-3.83,-1.18,82.36,2.49,0.73,-3.07
4,3,-4,-19,-304,3919,-0.06,-0.02,-2.70,-0.19,-3.04,39.19,-3.83,-1.16,82.37,2.47,0.71,-2.99
4,5,-4,-49,-342,3925,-0.03,0.01,-2.45,-0.49,-3.42,39.25,-3.84,-1.15,82.38,2.46,0.65,-2.94
0,-2,-8,-4,-272,3916,-0.03,0.00,-2.25,-0.04,-2.72,39.16,-3.85,-1.13,82.39,2.55,0.79,-2.81
4,7,-7,-26,-297,3932,0.00,0.04,-2.07,-0.26,-2.97,39.32,-3.85,-1.11,82.40,2.46,0.58,-2.79
-4,3,-7,-53,-317,3926,-0.02,0.06,-1.91,-0.53,-3.17,39.26,-3.86,-1.09,82.41,2.63,0.65,-2.76
-2,-1,-18,-58,-307,3914,-0.03,0.05,-1.83,-0.58,-3.07,39.14,-3.86,-1.08,82.42,2.60,0.72,-2.51
-5,2,-17,-6,-330,3914,-0.06,0.05,-1.75,-0.06,-3.30,39.14,-3.88,-1.06,82.42,2.68,0.65,-2.52
-4,-3,2,-6,-324,3913,-0.08,0.03,-1.56,-0.06,-3.24,39.13,-3.89,-1.05,82.43,2.67,0.75,-2.86
-4,-2,3,-15,-331,3911,-0.10,0.01,-1.39,-0.15,-3.31,39.11,-3.90,-1.04,82.43,2.68,0.72,-2.84
-4,-3,5,-28,-313,3924,-0.11,-0.01,-1.22,-0.28,-3.13,39.24,-3.91,-1.02,82.44,2.69,0.73,-2.85
-4,-2,6,-28,-307,3923,-0.12,-0.02,-1.06,-0.28,-3.07,39.23,-3.91,-1.00,82.44,2.70,0.71,-2.83
-2,2,8,-22,-302,3928,-0.12,-0.00,-0.90,-0.22,-3.02,39.28,-3.92,-0.99,82.45,2.66,0.61,-2.84
-2,1,7,-16,-307,3926,-0.12,0.00,-0.77,-0.16,-3.07,39.26,-3.93,-0.97,82.45,2.67,0.62,-2.79
-5,-1,8,-19,-307,3928,-0.14,-0.00,-0.64,-0.19,-3.07,39.28,-3.94,-0.95,82.45,2.74,0.65,-2.78
-4,-2,9,-20,-311,3919,-0.15,-0.02,-0.53,-0.20,-3.11,39.19,-3.94,-0.94,82.45,2.73,0.66,-2.77
0,-7,15,-55,-342,3979,-0.14,-0.06,-0.38,-0.55,-3.42,39.79,-3.95,-0.92,82.46,2.65,0.76,-2.86
-1,-2,17,-26,-316,3921,-0.13,-0.06,-0.24,-0.26,-3.16,39.21,-3.96,-0.90,82.46,2.67,0.65,-2.87
4,-8,13,2,-321,3888,-0.09,-0.11,-0.14,0.02,-3.21,38.88,-3.97,-0.89,82.46,2.57,0.78,-2.77
-4,-8,19,15,-303,3917,-0.11,-0.14,-0.01,0.15,-3.03,39.17,-3.99,-0.88,82.46,2.74,0.78,-2.86
-13,-1,204,58,-362,3940,-0.18,-0.14,1.24,0.58,-3.62,39.40,-4.00,-0.88,82.45,2.96,0.64,-6.34
-5,-6,229,-82,-301,3931,-0.19,-0.16,2.51,-0.82,-3.01,39.31,-4.01,-0.86,82.44,2.80,0.73,-6.57
-9,9,159,-126,-276,3956,-0.22,-0.09,3.23,-1.26,-2.76,39.56,-4.01,-0.84,82.43,2.89,0.39,-4.98
-7,5,127,-47,-218,3914,-0.24,-0.05,3.68,-0.47,-2.18,39.14,-4.00,-0.82,82.41,2.85,0.45,-4.23
-3,3,50,-15,-336,3910,-0.24,-0.03,3.62,-0.15,-3.36,39.10,-4.02,-0.81,82.40,2.78,0.48,-2.68
-2,3,54,32,-356,3905,-0.23,-0.00,3.59,0.32,-3.56,39.05,-4.03,-0.80,82.38,2.76,0.47,-2.77
9,-11,113,-103,-529,3741,-0.15,-0.07,3.92,-1.03,-5.29,37.41,-4.05,-0.79,82.37,2.53,0.77,-3.89
-5,7,158,-130,-562,3918,-0.16,-0.02,4.49,-1.30,-5.62,39.18,-4.07,-0.78,82.35,2.83,0.38,-4.68
-4,-9,123,-74,-277,3891,-0.17,-0.07,4.79,-0.74,-2.77,38.91,-4.07,-0.76,82.33,2.81,0.71,-3.90
-5,-5,124,-109,-395,3832,-0.19,-0.10,5.07,-1.09,-3.95,38.32,-4.08,-0.74,82.31,2.85,0.62,-3.86
2,4,107,-60,-185,3913,-0.16,-0.06,5.21,-0.60,-1.85,39.13,-4.07,-0.73,82.29,2.69,0.42,-3.48
0,10,95,7,-150,3974,-0.14,0.00,5.27,0.07,-1.50,39.74,-4.05,-0.72,82.27,2.71,0.27,-3.22
-6,-4,67,-66,-271,3875,-0.16,-0.02,5.15,-0.66,-2.71,38.75,-4.05,-0.70,82.25,2.84,0.55,-2.68
0,-5,66,-143,-329,3889,-0.15,-0.05,5.04,-1.43,-3.29,38.89,-4.06,-0.68,82.23,2.72,0.57,-2.68
0,4,55,31,-340,3923,-0.13,-0.02,4.87,0.31,-3.40,39.23,-4.08,-0.68,82.21,2.73,0.37,-2.50
-2,1,48,-19,-376,3929,-0.13,-0.01,4.68,-0.19,-3.76,39.29,-4.09,-0.67,82.19,2.78,0.42,-2.40
1,-4,70,-130,-397,3914,-0.11,-0.03,4.64,-1.30,-3.97,39.14,-4.10,-0.65,82.17,2.72,0.52,-2.85
-3,-2,80,-90,-362,3955,-0.12,-0.04,4.66,-0.90,-3.62,39.55,-4.11,-0.63,82.15,2.81,0.47,-3.05
0,14,111,125,-274,3943,-0.11,0.05,4.87,1.25,-2.74,39.43,-4.11,-0.65,82.13,2.74,0.13,-3.63
-11,12,109,121,-301,3855,-0.16,0.11,5.05,1.21,-3.01,38.55,-4.12,-0.66,82.11,2.99,0.16,-3.55
3,-3,4,-66,-154,3893,-0.13,0.08,4.57,-0.66,-1.54,38.93,-4.11,-0.65,82.10,2.68,0.47,-1.52
8,-3,-29,-164,-251,3869,-0.07,0.06,3.94,-1.64,-2.51,38.69,-4.10,-0.63,82.08,2.56,0.46,-0.99
-7,12,-57,33,-247,3949,-0.10,0.13,3.19,0.33,-2.47,39.49,-4.09,-0.63,82.07,2.87,0.13,-0.59
2,9,-35,11,-258,3941,-0.08,0.17,2.66,0.11,-2.58,39.41,-4.08,-0.61,82.06,2.67,0.17,-1.16
-5,0,-34,175,-206,3944,-0.10,0.15,2.19,1.75,-2.06,39.44,-4.07,-0.62,82.05,2.81,0.37,-1.28
-1,-4,-29,176,-246,3934,-0.10,0.11,1.79,1.76,-2.46,39.34,-4.06,-0.64,82.04,2.73,0.47,-1.47
2,-10,-12,-4,-318,3944,-0.08,0.04,1.54,-0.04,-3.18,39.44,-4.08,-0.63,82.03,2.67,0.61,-1.87
-2,-5,-3,-19,-313,3929,-0.08,0.01,1.37,-0.19,-3.13,39.29,-4.08,-0.61,82.03,2.76,0.50,-2.09
-3,3,8,-25,-304,3929,-0.09,0.02,1.28,-0.25,-3.04,39.29,-4.09,-0.59,82.02,2.79,0.32,-2.34
-3,3,9,-26,-307,3928,-0.10,0.04,1.21,-0.26,-3.07,39.28,-4.10,-0.57,82.02,2.79,0.31,-2.37
-7,-6,0,1,-293,3914,-0.13,-0.00,1.09,0.01,-2.93,39.14,-4.10,-0.56,82.01,2.89,0.49,-2.22
-2,-5,3,-30,-285,3947,-0.13,-0.03,1.00,-0.30,-2.85,39.47,-4.11,-0.54,82.01,2.79,0.46,-2.30
-4,-11,5,-142,-315,3938,-0.14,-0.10,0.93,-1.42,-3.15,39.38,-4.11,-0.52,82.01,2.83,0.59,-2.35
-3,-5,2,-71,-326,3963,-0.15,-0.12,0.85,-0.71,-3.26,39.63,-4.12,-0.50,82.00,2.82,0.47,-2.31
-4,0,14,83,-362,3873,-0.16,-0.11,0.85,0.83,-3.62,38.73,-4.13,-0.51,82.00,2.85,0.37,-2.56
10,-7,19,-70,-367,3773,-0.08,-0.14,0.88,-0.70,-3.67,37.73,-4.15,-0.50,82.00,2.55,0.51,-2.65
-1,3,35,38,-337,3901,-0.08,-0.11,1.00,0.38,-3.37,39.01,-4.16,-0.50,81.99,2.79,0.30,-2.95
-8,-3,48,-17,-347,3923,-0.12,-0.11,1.20,-0.17,-3.47,39.23,-4.18,-0.49,81.99,2.95,0.41,-3.17
12,-7,84,-66,-329,3875,-0.03,-0.14,1.59,-0.66,-3.29,38.75,-4.19,-0.47,81.98,2.53,0.49,-3.81
-11,4,86,42,-260,4050,-0.10,-0.11,1.95,0.42,-2.60,40.50,-4.17,-0.48,81.97,3.00,0.26,-3.77
18,-4,210,19,-253,3888,0.02,-0.12,3.04,0.19,-2.53,38.88,-4.15,-0.47,81.96,2.37,0.42,-6.05
9,7,317,47,-164,3867,0.07,-0.06,4.67,0.47,-1.64,38.67,-4.13,-0.47,81.94,2.53,0.19,-7.86
1,12,438,-65,-353,3945,0.07,0.01,6.87,-0.65,-3.53,39.45,-4.14,-0.45,81.91,2.69,0.05,-9.83
4,7,444,-86,-157,3945,0.09,0.06,8.90,-0.86,-1.57,39.45,-4.13,-0.44,81.88,2.62,0.13,-9.50
3,19,367,-88,-242,3966,0.10,0.17,10.24,-0.88,-2.42,39.66,-4.12,-0.42,81.84,2.63,-0.16,-7.63
1,11,381,-47,-252,3887,0.10,0.22,11.54,-0.47,-2.52,38.87,-4.12,-0.40,81.79,2.67,-0.02,-7.62
-3,-2,468,52,-306,3820,0.07,0.18,13.24,0.52,-3.06,38.20,-4.13,-0.40,81.74,2.77,0.26,-9.01
0,20,449,15,-393,4067,0.06,0.29,14.66,0.15,-3.93,40.67,-4.15,-0.39,81.68,2.72,-0.22,-8.31
6,9,330,11,-178,3892,0.09,0.31,15.21,0.11,-1.78,38.92,-4.13,-0.39,81.62,2.58,-0.01,-5.76
1,2,317,3,-282,3900,0.09,0.29,15.62,0.03,-2.82,39.00,-4.13,-0.36,81.56,2.68,0.12,-5.40
-2,0,337,37,-429,3867,0.07,0.26,16.11,0.37,-4.29,38.67,-4.15,-0.36,81.49,2.76,0.16,-5.70
-3,-7,348,22,-390,3952,0.04,0.20,16.62,0.22,-3.90,39.52,-4.17,-0.35,81.43,2.80,0.32,-5.81
-10,-12,320,-20,-442,3912,-0.02,0.10,16.91,-0.20,-4.42,39.12,-4.19,-0.34,81.36,2.97,0.44,-5.17
-3,2,289,-13,-494,3959,-0.04,0.10,16.99,-0.13,-4.94,39.59,-4.21,-0.33,81.29,2.85,0.15,-4.52
-28,0,365,-26,-473,3926,-0.21,0.09,17.51,-0.26,-4.73,39.26,-4.22,-0.32,81.22,3.41,0.19,-5.95
-6,-14,356,6,-462,3922,-0.22,-0.00,17.93,0.06,-4.62,39.22,-4.24,-0.32,81.15,2.98,0.49,-5.67
1,7,231,56,-386,3895,-0.19,0.04,17.55,0.56,-3.86,38.95,-4.26,-0.32,81.08,2.85,0.05,-3.21
10,15,262,120,-270,3948,-0.11,0.13,17.39,1.20,-2.70,39.48,-4.26,-0.33,81.01,2.64,-0.12,-3.87
-2,-4,280,31,-337,3925,-0.11,0.09,17.36,0.31,-3.37,39.25,-4.28,-0.33,80.94,2.90,0.27,-4.24
-12,-7,282,92,-345,3931,-0.18,0.04,17.35,0.92,-3.45,39.31,-4.29,-0.34,80.87,3.12,0.35,-4.29
1,10,277,-60,-249,3920,-0.15,0.10,17.30,-0.60,-2.49,39.20,-4.28,-0.31,80.80,2.85,-0.02,-4.19
0,9,282,-82,-247,3956,-0.14,0.14,17.29,-0.82,-2.47,39.56,-4.28,-0.29,80.74,2.86,-0.03,-4.29
-6,-7,331,-48,-227,3940,-0.16,0.09,17.58,-0.48,-2.27,39.40,-4.26,-0.27,80.67,2.98,0.30,-5.22
-1,4,351,11,-162,3959,-0.15,0.10,17.96,0.11,-1.62,39.59,-4.25,-0.27,80.59,2.86,0.07,-5.54
7,-1,465,-6,-228,3947,-0.09,0.08,19.00,-0.06,-2.28,39.47,-4.23,-0.25,80.52,2.67,0.16,-7.63
-10,-11,479,-52,-295,3920,-0.14,0.01,20.03,-0.52,-2.95,39.20,-4.23,-0.23,80.44,3.04,0.37,-7.68
-7,-18,508,-50,-367,3886,-0.17,-0.10,21.12,-0.50,-3.67,38.86,-4.25,-0.21,80.35,2.99,0.53,-8.02
-9,-8,576,-21,-405,3964,-0.21,-0.14,22.52,-0.21,-4.05,39.64,-4.27,-0.20,80.26,3.06,0.33,-9.09
-10,-1,615,5,-385,3846,-0.25,-0.13,24.02,0.05,-3.85,38.46,-4.29,-0.19,80.17,3.10,0.18,-9.55
-12,-10,661,-29,-366,3800,-0.30,-0.18,25.65,-0.29,-3.66,38.00,-4.30,-0.18,80.07,3.17,0.37,-10.11
6,2,727,-38,-417,3981,-0.23,-0.15,27.52,-0.38,-4.17,39.81,-4.32,-0.16,79.96,2.79,0.11,-11.03
-20,-9,728,-63,-378,3877,-0.33,-0.19,29.21,-0.63,-3.78,38.77,-4.34,-0.14,79.84,3.36,0.33,-10.67
-15,-3,716,-23,-378,3849,-0.39,-0.19,30.66,-0.23,-3.78,38.49,-4.36,-0.13,79.72,3.29,0.20,-10.10
-10,2,708,-80,-344,4007,-0.41,-0.16,31.91,-0.80,-3.44,40.07,-4.36,-0.10,79.59,3.20,0.07,-9.66
-9,10,574,-65,-291,3947,-0.42,-0.08,32.22,-0.65,-2.91,39.47,-4.36,-0.07,79.46,3.18,-0.13,-6.86
-5,2,506,-90,-150,3892,-0.41,-0.06,32.08,-0.90,-1.50,38.92,-4.35,-0.05,79.33,3.09,0.01,-5.50
-3,6,374,-112,-146,3906,-0.39,-0.02,31.16,-1.12,-1.46,39.06,-4.34,-0.03,79.21,3.03,-0.10,-3.02
-11,-2,298,15,-211,3950,-0.42,-0.03,29.86,0.15,-2.11,39.50,-4.32,-0.03,79.09,3.19,0.07,-1.76
0,7,183,33,-379,3916,-0.38,0.02,27.99,0.33,-3.79,39.16,-4.34,-0.02,78.98,2.97,-0.13,0.16
-4,8,195,29,-443,3946,-0.36,0.06,26.38,0.29,-4.43,39.46,-4.36,-0.02,78.87,3.06,-0.17,-0.44
0,-5,233,114,-351,3888,-0.33,0.03,25.16,1.14,-3.51,38.88,-4.37,-0.03,78.77,2.97,0.11,-1.48
-5,7,249,77,-414,3959,-0.32,0.07,24.17,0.77,-4.14,39.59,-4.38,-0.03,78.68,3.08,-0.14,-2.03
-7,3,305,52,-368,3877,-0.33,0.08,23.61,0.52,-3.68,38.77,-4.40,-0.03,78.58,3.14,-0.06,-3.29
-5,1,318,33,-320,3913,-0.33,0.08,23.19,0.33,-3.20,39.13,-4.41,-0.04,78.49,3.10,-0.01,-3.64
-1,5,321,47,-305,3905,-0.30,0.10,22.83,0.47,-3.05,39.05,-4.42,-0.05,78.40,3.02,-0.09,-3.78
-8,1,333,42,-278,3908,-0.32,0.10,22.58,0.42,-2.78,39.08,-4.41,-0.06,78.31,3.16,-0.01,-4.08
-4,0,332,34,-277,3888,-0.32,0.09,22.34,0.34,-2.77,38.88,-4.40,-0.07,78.22,3.07,0.02,-4.11
3,17,343,5,-353,3905,-0.27,0.18,22.20,0.05,-3.53,39.05,-4.42,-0.06,78.13,2.93,-0.35,-4.36
-10,8,348,-52,-296,3948,-0.30,0.21,22.10,-0.52,-2.96,39.48,-4.41,-0.04,78.04,3.20,-0.20,-4.48
-1,-3,362,-89,-244,3992,-0.28,0.17,22.10,-0.89,-2.44,39.92,-4.41,-0.01,77.95,3.00,0.02,-4.76
-31,-10,386,89,-352,3860,-0.44,0.09,22.25,0.89,-3.52,38.60,-4.42,-0.02,77.87,3.66,0.19,-5.22
1,2,411,141,-332,3885,-0.39,0.10,22.53,1.41,-3.32,38.85,-4.42,-0.03,77.78,3.00,-0.05,-5.66
-33,-36,489,211,-503,3765,-0.55,-0.13,23.26,2.11,-5.03,37.65,-4.44,-0.04,77.68,3.75,0.79,-7.08
-26,-20,520,217,-593,4000,-0.65,-0.24,24.11,2.17,-5.93,40.00,-4.46,-0.04,77.59,3.65,0.50,-7.52
-16,-12,701,68,-624,3923,-0.69,-0.29,25.97,0.68,-6.24,39.23,-4.48,-0.04,77.48,3.47,0.35,-10.78
-44,-24,685,45,-481,3905,-0.89,-0.41,27.55,0.45,-4.81,39.05,-4.50,-0.04,77.37,4.10,0.62,-10.10
-36,-15,730,-56,40,3912,-1.02,-0.46,29.25,-0.56,0.40,39.12,-4.48,-0.03,77.26,3.97,0.45,-10.63
-40,-20,754,-223,71,3828,-1.16,-0.53,30.92,-2.23,0.71,38.28,-4.47,-0.01,77.13,4.08,0.56,-10.74
-41,-17,548,-262,-75,3981,-1.29,-0.58,31.17,-2.62,-0.75,39.81,-4.47,0.01,77.01,4.13,0.50,-6.49
-28,-8,474,-276,-24,3954,-1.33,-0.58,30.95,-2.76,-0.24,39.54,-4.46,0.03,76.88,3.88,0.30,-5.03
-60,-24,245,-338,-372,3911,-1.57,-0.66,29.35,-3.38,-3.72,39.11,-4.47,0.06,76.77,4.60,0.63,-0.73
-60,-27,162,-325,-302,4022,-1.78,-0.76,27.40,-3.25,-3.02,40.22,-4.47,0.08,76.66,4.66,0.70,0.53
-16,21,54,-117,-333,3949,-1.70,-0.56,24.99,-1.17,-3.33,39.49,-4.48,0.10,76.56,3.75,-0.34,2.19
-19,13,52,-126,-346,3920,-1.64,-0.42,22.81,-1.26,-3.46,39.20,-4.50,0.13,76.47,3.80,-0.23,1.74
-31,-14,56,-34,-368,3916,-1.67,-0.47,20.87,-0.34,-3.68,39.16,-4.52,0.14,76.38,4.07,0.32,1.23
-34,-9,64,11,-390,3914,-1.71,-0.47,19.17,0.11,-3.90,39.14,-4.54,0.14,76.31,4.16,0.22,0.69
-34,-20,121,85,-453,3935,-1.74,-0.55,17.99,0.85,-4.53,39.35,-4.57,0.13,76.24,4.18,0.47,-0.73
-36,-22,147,69,-437,3946,-1.79,-0.63,17.09,0.69,-4.37,39.46,-4.59,0.12,76.17,4.25,0.54,-1.46
-4,57,310,-33,-23,4125,-1.64,-0.22,17.27,-0.33,-0.23,41.25,-4.58,0.13,76.10,3.55,-1.19,-4.73
18,57,467,185,-124,3663,-1.36,0.15,18.39,1.85,-1.24,36.63,-4.57,0.12,76.02,3.02,-1.28,-7.67
-2,53,650,23,-275,3670,-1.24,0.46,20.52,0.23,-2.75,36.70,-4.57,0.12,75.94,3.39,-1.28,-10.91
-39,38,767,-8,-79,4006,-1.35,0.65,23.15,-0.08,-0.79,40.06,-4.55,0.13,75.85,4.17,-1.03,-12.70
56,-37,1195,133,-19,3715,-0.88,0.36,28.12,1.33,-0.19,37.15,-4.54,0.13,75.74,2.10,0.57,-20.00
18,-25,1204,115,-270,3881,-0.68,0.17,32.65,1.15,-2.70,38.81,-4.54,0.12,75.61,2.81,0.38,-19.46
21,13,1082,-386,-646,4170,-0.48,0.23,35.99,-3.86,-6.46,41.70,-4.55,0.15,75.47,2.71,-0.42,-16.23
56,18,1028,-207,-316,4136,-0.09,0.32,38.66,-2.07,-3.16,41.36,-4.55,0.18,75.31,1.89,-0.57,-14.53
-6,-9,786,-47,-460,3971,-0.12,0.23,39.59,-0.47,-4.60,39.71,-4.57,0.20,75.15,3.17,-0.01,-9.40
1,6,787,-29,-426,3950,-0.10,0.24,40.43,-0.29,-4.26,39.50,-4.58,0.21,74.99,3.03,-0.33,-9.22
-31,-12,807,88,-339,3826,-0.28,0.15,41.31,0.88,-3.39,38.26,-4.59,0.21,74.83,3.74,0.07,-9.43
-7,16,826,-76,-200,3972,-0.30,0.23,42.22,-0.76,-2.00,39.72,-4.57,0.23,74.66,3.24,-0.54,-9.61
17,7,753,-115,-271,3964,-0.16,0.25,42.59,-1.15,-2.71,39.64,-4.57,0.26,74.49,2.71,-0.38,-8.03
-8,-12,714,-68,-309,3834,-0.19,0.15,42.69,-0.68,-3.09,38.34,-4.57,0.30,74.32,3.23,0.01,-7.21
-15,-1,575,42,-302,3955,-0.27,0.13,41.92,0.42,-3.02,39.55,-4.56,0.29,74.15,3.39,-0.21,-4.55
0,17,548,27,-276,3924,-0.24,0.22,41.08,0.27,-2.76,39.24,-4.55,0.29,73.99,3.07,-0.60,-4.19
-10,-18,583,-24,-255,3859,-0.28,0.09,40.52,-0.24,-2.55,38.59,-4.53,0.31,73.83,3.27,0.14,-5.02
-7,-10,592,63,-258,4039,-0.29,0.02,40.08,0.63,-2.58,40.39,-4.52,0.30,73.67,3.21,-0.00,-5.30
-8,1,595,-74,-278,3875,-0.31,0.02,39.70,-0.74,-2.78,38.75,-4.52,0.33,73.51,3.23,-0.25,-5.44
-8,-1,584,-125,-327,3905,-0.33,0.01,39.30,-1.25,-3.27,39.05,-4.52,0.36,73.35,3.24,-0.22,-5.30
-28,1,475,-189,-324,3917,-0.47,0.02,38.26,-1.89,-3.24,39.17,-4.52,0.39,73.20,3.68,-0.29,-3.31
-1,11,456,-162,-339,3950,-0.43,0.08,37.22,-1.62,-3.39,39.50,-4.53,0.42,73.05,3.12,-0.53,-3.15
-2,14,378,-29,-411,3880,-0.40,0.16,35.80,-0.29,-4.11,38.80,-4.54,0.44,72.91,3.15,-0.62,-1.88
-8,5,370,-24,-536,3919,-0.41,0.18,34.48,-0.24,-5.36,39.19,-4.56,0.45,72.77,3.28,-0.44,-2.01
-7,5,410,87,-383,3879,-0.41,0.19,33.53,0.87,-3.83,38.79,-4.57,0.44,72.64,3.27,-0.45,-3.03
-12,10,431,115,-425,4005,-0.44,0.23,32.81,1.15,-4.25,40.05,-4.59,0.44,72.51,3.39,-0.56,-3.61
-13,2,509,44,-411,3906,-0.48,0.22,32.63,0.44,-4.11,39.06,-4.60,0.44,72.38,3.43,-0.39,-5.23
-5,5,519,-12,-355,3965,-0.46,0.23,32.54,-0.12,-3.55,39.65,-4.62,0.44,72.25,3.27,-0.46,-5.45
-9,-5,467,-93,-354,3931,-0.47,0.18,32.13,-0.93,-3.54,39.31,-4.63,0.47,72.12,3.36,-0.26,-4.48
-11,-1,414,-108,-333,3911,-0.49,0.15,31.44,-1.08,-3.33,39.11,-4.63,0.50,71.99,3.41,-0.35,-3.56
-15,11,357,-62,-368,3932,-0.53,0.20,30.48,-0.62,-3.68,39.32,-4.65,0.52,71.87,3.52,-0.62,-2.61
-2,15,369,5,-371,3883,-0.49,0.27,29.68,0.05,-3.71,38.83,-4.67,0.52,71.75,3.25,-0.72,-3.03
10,9,436,-60,-304,3920,-0.38,0.30,29.37,-0.60,-3.04,39.20,-4.66,0.54,71.64,2.97,-0.62,-4.45
-8,-12,450,-13,-423,3880,-0.39,0.20,29.18,-0.13,-4.23,38.80,-4.67,0.55,71.52,3.35,-0.17,-4.78
-22,-4,464,77,-530,3867,-0.49,0.15,29.09,0.77,-5.30,38.67,-4.69,0.55,71.41,3.68,-0.32,-5.08
-1,6,468,-24,-424,3964,-0.44,0.18,29.04,-0.24,-4.24,39.64,-4.71,0.56,71.29,3.25,-0.54,-5.17
-12,5,510,39,-607,3868,-0.47,0.19,29.24,0.39,-6.07,38.68,-4.73,0.56,71.17,3.49,-0.53,-5.97
-7,12,535,140,-434,3955,-0.47,0.24,29.58,1.40,-4.34,39.55,-4.74,0.56,71.06,3.40,-0.68,-6.40
-6,41,746,258,-407,3897,-0.46,0.47,31.18,2.58,-4.07,38.97,-4.74,0.55,70.93,3.38,-1.33,-10.33
4,56,919,274,-321,3924,-0.39,0.76,33.66,2.74,-3.21,39.24,-4.74,0.55,70.80,3.16,-1.71,-13.29
-8,41,1272,109,-319,3948,-0.40,0.94,38.06,1.09,-3.19,39.48,-4.74,0.55,70.65,3.40,-1.45,-19.48
-11,23,1325,6,-254,3971,-0.42,0.98,42.33,0.06,-2.54,39.71,-4.73,0.56,70.48,3.46,-1.10,-19.60
-24,7,1348,-210,-256,3947,-0.53,0.93,46.32,-2.10,-2.56,39.47,-4.72,0.59,70.29,3.75,-0.79,-19.17
-21,14,1320,-260,-227,3900,-0.60,0.92,49.74,-2.60,-2.27,39.00,-4.71,0.63,70.10,3.70,-0.95,-17.83
-18,12,1129,-277,-170,3872,-0.65,0.90,51.66,-2.77,-1.70,38.72,-4.70,0.67,69.89,3.65,-0.93,-13.52
-12,17,1064,-349,-211,3943,-0.66,0.92,52.98,-3.49,-2.11,39.43,-4.70,0.70,69.68,3.52,-1.06,-11.89
-4,21,775,-177,-350,3981,-0.62,0.95,52.41,-1.77,-3.50,39.81,-4.70,0.74,69.47,3.35,-1.18,-6.14
-8,20,692,-113,-325,3946,-0.61,0.98,51.39,-1.13,-3.25,39.46,-4.70,0.78,69.27,3.43,-1.19,-4.67
-4,1,510,-79,-358,3873,-0.57,0.89,49.36,-0.79,-3.58,38.73,-4.72,0.81,69.07,3.35,-0.80,-1.42
-18,2,433,-42,-512,3910,-0.62,0.81,47.07,-0.42,-5.12,39.10,-4.73,0.83,68.88,3.66,-0.81,-0.36
-10,-5,269,-119,-510,3991,-0.62,0.70,44.00,-1.19,-5.10,39.91,-4.75,0.85,68.71,3.51,-0.65,2.30
-19,-12,225,-45,-440,3914,-0.68,0.56,40.97,-0.45,-4.40,39.14,-4.77,0.87,68.54,3.72,-0.48,2.52
-9,-2,124,-112,-208,3870,-0.66,0.49,37.63,-1.12,-2.08,38.70,-4.75,0.89,68.39,3.50,-0.68,3.83
-6,-6,116,-149,-214,3874,-0.63,0.40,34.58,-1.49,-2.14,38.74,-4.74,0.91,68.26,3.42,-0.59,3.32
-5,10,83,-78,-326,3925,-0.60,0.42,31.63,-0.78,-3.26,39.25,-4.74,0.94,68.13,3.39,-0.94,3.33
-2,13,62,-50,-296,3946,-0.55,0.46,28.84,-0.50,-2.96,39.46,-4.72,0.95,68.02,3.31,-1.01,3.14
0,10,19,-25,-304,3910,-0.50,0.48,26.07,-0.25,-3.04,39.10,-4.72,0.94,67.91,3.25,-0.95,3.40
1,12,14,6,-317,3914,-0.44,0.50,23.55,0.06,-3.17,39.14,-4.72,0.93,67.82,3.21,-1.00,2.94
0,3,20,-5,-327,3913,-0.40,0.47,21.32,-0.05,-3.27,39.13,-4.72,0.92,67.73,3.22,-0.80,2.32
1,3,21,-10,-342,3916,-0.35,0.44,19.31,-0.10,-3.42,39.16,-4.72,0.91,67.66,3.19,-0.78,1.86
7,3,59,45,-379,3919,-0.27,0.41,17.74,0.45,-3.79,39.19,-4.73,0.90,67.59,3.05,-0.77,0.74
6,-1,77,48,-409,3904,-0.21,0.37,16.44,0.48,-4.09,39.04,-4.74,0.90,67.52,3.07,-0.67,0.08
-11,2,180,27,-480,4000,-0.26,0.34,15.89,0.27,-4.80,40.00,-4.76,0.89,67.46,3.43,-0.72,-2.13
-1,5,197,21,-427,3947,-0.24,0.34,15.50,0.21,-4.27,39.47,-4.77,0.89,67.40,3.23,-0.78,-2.56
-16,-2,242,6,-376,3914,-0.31,0.29,15.43,0.06,-3.76,39.14,-4.78,0.88,67.33,3.57,-0.62,-3.49
-17,-7,262,-29,-364,3926,-0.38,0.22,15.49,-0.29,-3.64,39.26,-4.80,0.87,67.27,3.62,-0.49,-3.89
-3,-4,289,-132,-164,3864,-0.36,0.17,15.70,-1.32,-1.64,38.64,-4.78,0.89,67.21,3.32,-0.55,-4.39
-6,3,315,-170,-98,3915,-0.36,0.18,16.05,-1.70,-0.98,39.15,-4.77,0.90,67.15,3.37,-0.70,-4.83
7,18,356,-31,-289,3931,-0.28,0.27,16.62,-0.31,-2.89,39.31,-4.75,0.90,67.08,3.07,-1.03,-5.54
-2,4,374,52,-313,3964,-0.27,0.27,17.24,0.52,-3.13,39.64,-4.75,0.89,67.01,3.25,-0.74,-5.77
1,4,451,36,-373,3929,-0.24,0.26,18.26,0.36,-3.73,39.29,-4.76,0.88,66.94,3.18,-0.73,-7.10
3,-2,482,79,-392,3934,-0.19,0.22,19.38,0.79,-3.92,39.34,-4.76,0.87,66.86,3.14,-0.59,-7.48
4,-3,634,154,-527,3885,-0.15,0.18,21.31,1.54,-5.27,38.85,-4.78,0.86,66.78,3.11,-0.56,-10.14
-22,-10,675,193,-609,3968,-0.27,0.10,23.29,1.93,-6.09,39.68,-4.79,0.86,66.68,3.68,-0.39,-10.52
-11,7,847,71,-626,3972,-0.31,0.14,26.13,0.71,-6.26,39.72,-4.80,0.86,66.58,3.48,-0.75,-13.38
-37,4,913,27,-639,3814,-0.50,0.15,29.09,0.27,-6.39,38.14,-4.82,0.86,66.46,4.07,-0.69,-14.06
-21,16,1123,-40,-502,3885,-0.58,0.23,33.03,-0.40,-5.02,38.85,-4.84,0.87,66.33,3.78,-0.97,-17.45
-14,42,1182,-145,-539,3933,-0.61,0.46,36.94,-1.45,-5.39,39.33,-4.86,0.90,66.19,3.66,-1.57,-17.77
-30,30,1303,-226,-241,3872,-0.73,0.60,41.19,-2.26,-2.41,38.72,-4.85,0.93,66.02,4.01,-1.39,-19.28
-28,31,1307,-243,-99,3863,-0.83,0.73,45.05,-2.43,-0.99,38.63,-4.84,0.96,65.84,3.99,-1.46,-18.49
-15,39,1144,-76,17,3939,-0.84,0.89,47.52,-0.76,0.17,39.39,-4.82,0.98,65.65,3.71,-1.68,-14.62
-10,40,1076,-123,56,3938,-0.81,1.05,49.33,-1.23,0.56,39.38,-4.80,1.00,65.46,3.59,-1.76,-12.83
-11,21,846,31,115,3854,-0.80,1.07,49.56,0.31,1.15,38.54,-4.78,1.02,65.26,3.60,-1.39,-8.09
-16,4,780,-8,78,4001,-0.82,0.99,49.36,-0.08,0.78,40.01,-4.76,1.04,65.06,3.69,-1.03,-6.79
-5,1,602,117,-201,3957,-0.77,0.90,48.10,1.17,-2.01,39.57,-4.75,1.04,64.87,3.45,-0.95,-3.45
-26,-6,586,98,-258,3798,-0.85,0.77,46.86,0.98,-2.58,37.98,-4.75,1.04,64.68,3.89,-0.78,-3.39
0,-7,476,-24,-465,3911,-0.76,0.65,45.08,-0.24,-4.65,39.11,-4.76,1.05,64.51,3.35,-0.73,-1.55
-19,-6,440,-97,-627,3904,-0.80,0.55,43.26,-0.97,-6.27,39.04,-4.78,1.07,64.33,3.76,-0.73,-1.22
-10,-18,259,-217,-573,3959,-0.78,0.38,40.51,-2.17,-5.73,39.59,-4.80,1.10,64.17,3.58,-0.46,1.86
-1,-17,202,-185,-609,3961,-0.71,0.24,37.69,-1.85,-6.09,39.61,-4.81,1.12,64.02,3.39,-0.46,2.39
-24,2,194,12,-574,3930,-0.79,0.23,35.11,0.12,-5.74,39.30,-4.83,1.12,63.88,3.89,-0.84,1.98
-19,18,226,26,-476,3997,-0.82,0.32,32.97,0.26,-4.76,39.97,-4.85,1.12,63.75,3.81,-1.19,0.86
-12,5,314,-47,-420,3818,-0.81,0.32,31.59,-0.47,-4.20,38.18,-4.87,1.13,63.63,3.68,-0.93,-1.24
6,15,369,-32,-362,3896,-0.70,0.38,30.68,-0.32,-3.62,38.96,-4.88,1.13,63.50,3.29,-1.15,-2.56
5,23,537,50,-439,3875,-0.60,0.48,30.89,0.50,-4.39,38.75,-4.89,1.13,63.38,3.29,-1.34,-5.92
-3,15,563,42,-353,3960,-0.56,0.52,31.24,0.42,-3.53,39.60,-4.89,1.12,63.26,3.44,-1.19,-6.37
-6,16,640,153,-503,3955,-0.54,0.57,32.02,1.53,-5.03,39.55,-4.90,1.12,63.13,3.50,-1.22,-7.76
-8,7,631,165,-450,3968,-0.53,0.55,32.66,1.65,-4.50,39.68,-4.91,1.11,63.00,3.55,-1.03,-7.43
-14,2,616,88,-453,3888,-0.56,0.51,33.15,0.88,-4.53,38.88,-4.92,1.11,62.87,3.68,-0.91,-7.01
-17,0,658,-57,-316,3892,-0.61,0.46,33.85,-0.57,-3.16,38.92,-4.91,1.11,62.73,3.75,-0.86,-7.70
-15,5,830,18,-250,3856,-0.64,0.44,35.53,0.18,-2.50,38.56,-4.89,1.11,62.59,3.71,-0.96,-10.82
11,39,882,10,-379,3964,-0.51,0.64,37.36,0.10,-3.79,39.64,-4.90,1.11,62.44,3.15,-1.70,-11.46
-16,22,1047,-37,-335,3955,-0.56,0.71,40.01,-0.37,-3.35,39.55,-4.90,1.11,62.28,3.71,-1.37,-14.22
-9,33,1080,-9,-348,3927,-0.56,0.84,42.60,-0.09,-3.48,39.27,-4.90,1.11,62.11,3.57,-1.63,-14.31
-7,34,1222,-35,-180,3855,-0.54,0.96,45.79,-0.35,-1.80,38.55,-4.88,1.13,61.93,3.51,-1.70,-16.48
-21,35,1255,22,-43,4033,-0.62,1.08,48.87,0.22,-0.43,40.33,-4.86,1.14,61.74,3.80,-1.76,-16.46
-14,35,1335,-20,-145,3886,-0.64,1.18,52.12,-0.20,-1.45,38.86,-4.84,1.16,61.53,3.66,-1.80,-17.35
-26,37,1377,-50,-244,3841,-0.74,1.29,55.31,-0.50,-2.44,38.41,-4.82,1.18,61.31,3.91,-1.88,-17.49
8,47,1501,25,-340,3875,-0.61,1.45,58.94,0.25,-3.40,38.75,-4.82,1.18,61.07,3.19,-2.13,-19.19
-9,28,1544,156,-354,3961,-0.61,1.48,62.46,1.56,-3.54,39.61,-4.82,1.19,60.83,3.53,-1.76,-19.27
-31,17,1558,2,-346,3833,-0.73,1.43,65.72,0.02,-3.46,38.33,-4.82,1.20,60.56,4.01,-1.53,-18.82
-9,24,1561,-136,-383,3926,-0.72,1.43,68.67,-1.36,-3.83,39.26,-4.83,1.24,60.29,3.57,-1.70,-18.21
-15,28,1477,-109,-506,3881,-0.74,1.46,70.81,-1.09,-5.06,38.81,-4.85,1.28,60.01,3.71,-1.81,-16.02
-12,26,1457,-172,-501,3918,-0.74,1.47,72.62,-1.72,-5.01,39.18,-4.86,1.31,59.72,3.65,-1.80,-15.20
-11,14,1321,-268,-412,3949,-0.73,1.41,73.41,-2.68,-4.12,39.49,-4.86,1.36,59.43,3.63,-1.57,-12.25
-34,-1,1270,-252,-401,3952,-0.86,1.27,73.82,-2.52,-4.01,39.52,-4.87,1.41,59.14,4.14,-1.25,-11.11
-16,3,1067,-183,-356,3885,-0.87,1.16,72.95,-1.83,-3.56,38.85,-4.87,1.46,58.85,3.78,-1.34,-7.17
-7,6,1019,-261,-433,3936,-0.83,1.08,71.87,-2.61,-4.33,39.36,-4.88,1.50,58.56,3.59,-1.41,-6.43
6,7,865,-251,-497,3939,-0.71,1.01,69.96,-2.51,-4.97,39.39,-4.88,1.54,58.28,3.30,-1.43,-3.71
-8,5,784,-136,-515,3969,-0.69,0.94,67.74,-1.36,-5.15,39.69,-4.90,1.57,58.01,3.58,-1.39,-2.55
-8,0,589,-88,-582,3938,-0.67,0.85,64.56,-0.88,-5.82,39.38,-4.91,1.59,57.76,3.59,-1.28,0.71
-9,-13,540,-9,-516,3915,-0.66,0.68,61.40,-0.09,-5.16,39.15,-4.92,1.61,57.51,3.61,-0.98,1.01
-3,-3,320,-139,-468,3869,-0.61,0.60,57.21,-1.39,-4.68,38.69,-4.94,1.63,57.28,3.49,-1.18,4.55
-2,0,270,-178,-472,3887,-0.56,0.54,53.14,-1.78,-4.72,38.87,-4.95,1.66,57.07,3.46,-1.24,4.67
-11,-1,138,-182,-251,3941,-0.57,0.48,48.67,-1.82,-2.51,39.41,-4.93,1.69,56.88,3.63,-1.23,6.36
-3,8,122,-148,-196,3981,-0.53,0.48,44.54,-1.48,-1.96,39.81,-4.91,1.71,56.70,3.45,-1.42,5.77
0,25,128,-185,-268,3926,-0.48,0.58,40.87,-1.85,-2.68,39.26,-4.89,1.74,56.54,3.36,-1.82,4.83
-1,22,132,-270,-251,3867,-0.44,0.66,37.59,-2.70,-2.51,38.67,-4.88,1.77,56.39,3.36,-1.80,4.02
2,30,144,-105,-214,3929,-0.38,0.78,34.71,-1.05,-2.14,39.29,-4.86,1.79,56.25,3.27,-2.00,3.14
-4,28,188,-27,-308,3903,-0.37,0.87,32.38,-0.27,-3.08,39.03,-4.85,1.78,56.12,3.39,-1.98,1.73
1,19,219,-24,-385,3926,-0.32,0.90,30.48,-0.24,-3.85,39.26,-4.86,1.78,56.00,3.28,-1.81,0.67
-2,24,212,-38,-384,3938,-0.30,0.95,28.73,-0.38,-3.84,39.38,-4.87,1.78,55.88,3.34,-1.92,0.43
-2,3,150,-52,-394,3918,-0.29,0.88,26.77,-0.52,-3.94,39.18,-4.88,1.78,55.78,3.34,-1.47,1.26
-2,-1,146,-4,-418,3887,-0.27,0.78,24.98,-0.04,-4.18,38.87,-4.89,1.77,55.68,3.34,-1.36,0.94
-11,4,156,91,-388,3927,-0.31,0.73,23.44,0.91,-3.88,39.27,-4.89,1.77,55.59,3.53,-1.45,0.39
-3,6,155,-11,-388,3945,-0.30,0.69,22.04,-0.11,-3.88,39.45,-4.90,1.76,55.50,3.37,-1.47,0.11
1,5,204,-48,-360,3896,-0.26,0.65,21.08,-0.48,-3.60,38.96,-4.90,1.75,55.42,3.28,-1.44,-1.10
-4,13,217,-139,-321,3895,-0.26,0.67,20.29,-1.39,-3.21,38.95,-4.89,1.78,55.33,3.38,-1.62,-1.54
10,30,249,-109,-338,3907,-0.17,0.78,19.78,-1.09,-3.38,39.07,-4.89,1.77,55.26,3.07,-1.99,-2.30
5,28,285,-63,-321,3920,-0.12,0.88,19.54,-0.63,-3.21,39.20,-4.89,1.76,55.18,3.16,-1.97,-3.09
-8,23,465,-57,-290,3963,-0.16,0.93,20.43,-0.57,-2.90,39.63,-4.87,1.76,55.10,3.42,-1.88,-6.55
6,24,522,-82,-296,3961,-0.11,0.98,21.57,-0.82,-2.96,39.61,-4.86,1.76,55.01,3.11,-1.92,-7.45
-16,8,695,-16,-332,3940,-0.20,0.93,23.65,-0.16,-3.32,39.40,-4.85,1.75,54.92,3.58,-1.57,-10.50
-6,16,734,-29,-254,4041,-0.21,0.94,25.76,-0.29,-2.54,40.41,-4.84,1.75,54.81,3.37,-1.74,-10.82
-20,12,813,-98,-386,3836,-0.31,0.92,28.15,-0.98,-3.86,38.36,-4.86,1.76,54.70,3.70,-1.65,-11.89
-16,9,821,-55,-468,3915,-0.38,0.88,30.34,-0.55,-4.68,39.15,-4.87,1.76,54.58,3.64,-1.59,-11.56
-3,9,824,-36,-379,3932,-0.36,0.85,32.33,-0.36,-3.79,39.32,-4.88,1.76,54.45,3.38,-1.58,-11.17
-11,21,830,-38,-371,3885,-0.39,0.89,34.16,-0.38,-3.71,38.85,-4.88,1.76,54.32,3.55,-1.83,-10.88
-8,28,885,-81,-386,3860,-0.40,0.97,36.14,-0.81,-3.86,38.60,-4.89,1.77,54.18,3.50,-2.00,-11.55
-3,26,912,-45,-314,3938,-0.38,1.03,38.09,-0.45,-3.14,39.38,-4.88,1.77,54.02,3.39,-1.98,-11.66
-5,20,899,-13,-356,3926,-0.37,1.05,39.77,-0.13,-3.56,39.26,-4.88,1.77,53.87,3.43,-1.86,-11.01
0,24,886,19,-379,3949,-0.33,1.09,41.20,0.19,-3.79,39.49,-4.89,1.77,53.70,3.32,-1.95,-10.43
-7,13,810,-43,-434,3941,-0.34,1.06,42.02,-0.43,-4.34,39.41,-4.90,1.77,53.53,3.47,-1.72,-8.69
-2,13,769,-40,-409,3907,-0.32,1.04,42.51,-0.40,-4.09,39.07,-4.90,1.78,53.37,3.37,-1.72,-7.74
0,8,667,-41,-368,3931,-0.29,0.98,42.32,-0.41,-3.68,39.31,-4.91,1.78,53.20,3.32,-1.60,-5.71
-16,-1,647,-38,-414,3879,-0.36,0.88,42.04,-0.38,-4.14,38.79,-4.92,1.78,53.03,3.67,-1.40,-5.36
-5,7,567,-148,-468,3900,-0.35,0.83,41.29,-1.48,-4.68,39.00,-4.93,1.81,52.87,3.45,-1.56,-3.89
5,6,539,-118,-424,3942,-0.29,0.79,40.45,-1.18,-4.24,39.42,-4.94,1.82,52.71,3.24,-1.54,-3.51
-17,-2,477,129,-386,4010,-0.36,0.69,39.32,1.29,-3.86,40.10,-4.94,1.82,52.55,3.71,-1.35,-2.49
0,8,420,-66,-443,3942,-0.33,0.67,37.95,-0.66,-4.43,39.42,-4.96,1.83,52.40,3.36,-1.55,-1.64
-6,6,390,-38,-235,3897,-0.33,0.64,36.53,-0.38,-2.35,38.97,-4.94,1.83,52.25,3.47,-1.50,-1.34
0,15,392,-58,-241,3940,-0.30,0.67,35.27,-0.58,-2.41,39.40,-4.92,1.83,52.11,3.33,-1.70,-1.66
-1,2,386,31,-386,3981,-0.27,0.62,34.10,0.31,-3.86,39.81,-4.92,1.83,51.98,3.34,-1.42,-1.79
-1,13,377,-18,-416,3860,-0.25,0.63,32.99,-0.18,-4.16,38.60,-4.93,1.83,51.85,3.34,-1.64,-1.85
-7,12,377,-98,-353,3959,-0.27,0.64,31.99,-0.98,-3.53,39.59,-4.93,1.83,51.72,3.47,-1.62,-2.07
4,12,381,-91,-396,3964,-0.22,0.65,31.11,-0.91,-3.96,39.64,-4.95,1.83,51.60,3.24,-1.63,-2.35
10,20,386,-110,-307,3943,-0.14,0.71,30.36,-1.10,-3.07,39.43,-4.93,1.83,51.47,3.08,-1.81,-2.61
-5,4,412,-59,-244,3923,-0.15,0.66,29.83,-0.59,-2.44,39.23,-4.91,1.84,51.36,3.38,-1.47,-3.26
-2,10,419,-134,-403,3883,-0.15,0.66,29.41,-1.34,-4.03,38.83,-4.92,1.85,51.24,3.33,-1.60,-3.49
3,12,432,-124,-372,3950,-0.12,0.66,29.10,-1.24,-3.72,39.50,-4.94,1.86,51.12,3.23,-1.65,-3.82
-1,16,380,-90,-463,3941,-0.11,0.70,28.51,-0.90,-4.63,39.41,-4.95,1.87,51.01,3.32,-1.75,-2.89
-7,15,389,-123,-473,3919,-0.14,0.72,28.03,-1.23,-4.73,39.19,-4.97,1.88,50.90,3.46,-1.74,-3.18
0,16,451,-74,-348,3905,-0.13,0.74,27.98,-0.74,-3.48,39.05,-4.97,1.88,50.79,3.31,-1.77,-4.45
-5,18,484,-103,-308,3955,-0.15,0.78,28.13,-1.03,-3.08,39.55,-4.95,1.88,50.68,3.41,-1.82,-5.08
26,32,620,-94,-273,3945,0.03,0.90,29.10,-0.94,-2.73,39.45,-4.93,1.88,50.56,2.72,-2.14,-7.62
11,36,647,-137,-351,3808,0.09,1.03,30.14,-1.37,-3.51,38.08,-4.94,1.90,50.44,3.01,-2.27,-7.94
-15,7,571,21,-442,3976,-0.01,0.97,30.61,0.21,-4.42,39.76,-4.95,1.90,50.32,3.57,-1.66,-6.28
-4,10,519,-49,-458,4002,-0.03,0.93,30.71,-0.49,-4.58,40.02,-4.96,1.91,50.20,3.36,-1.72,-5.20
-34,-25,289,-66,-319,3915,-0.24,0.69,29.40,-0.66,-3.19,39.15,-4.95,1.90,50.08,4.02,-0.93,-0.81
-26,-27,220,-145,-192,3891,-0.37,0.45,27.81,-1.45,-1.92,38.91,-4.93,1.92,49.97,3.88,-0.84,0.24
-8,-17,170,-60,-343,3944,-0.38,0.30,26.06,-0.60,-3.43,39.44,-4.93,1.91,49.87,3.52,-1.00,0.87
-7,-13,154,-57,-315,3918,-0.39,0.19,24.40,-0.57,-3.15,39.18,-4.92,1.90,49.77,3.50,-1.04,0.82
-6,-9,144,-106,-358,3904,-0.39,0.12,22.83,-1.06,-3.58,39.04,-4.93,1.89,49.68,3.48,-1.10,0.68
-3,-4,143,-95,-342,3936,-0.37,0.08,21.42,-0.95,-3.42,39.36,-4.93,1.88,49.59,3.42,-1.18,0.39
-4,-7,158,-47,-420,3904,-0.35,0.03,20.24,-0.47,-4.20,39.04,-4.94,1.88,49.51,3.44,-1.11,-0.18
-3,-5,161,-63,-367,3923,-0.34,-0.00,19.20,-0.63,-3.67,39.23,-4.95,1.87,49.44,3.42,-1.13,-0.47
-14,-4,180,-45,-381,3874,-0.39,-0.03,18.38,-0.45,-3.81,38.74,-4.96,1.86,49.36,3.66,-1.14,-1.04
-13,3,191,-74,-420,3956,-0.43,-0.01,17.71,-0.74,-4.20,39.56,-4.97,1.85,49.29,3.66,-1.28,-1.41
2,8,144,-158,-362,3939,-0.37,0.04,16.81,-1.58,-3.62,39.39,-4.98,1.87,49.23,3.35,-1.41,-0.65
3,-2,110,-105,-290,3905,-0.32,0.03,15.80,-1.05,-2.90,39.05,-4.96,1.87,49.16,3.30,-1.20,-0.18
-5,-11,99,-144,-316,3905,-0.32,-0.04,14.83,-1.44,-3.16,39.05,-4.95,1.89,49.10,3.45,-1.01,-0.17
-2,-11,86,-165,-355,3901,-0.30,-0.11,13.87,-1.65,-3.55,39.01,-4.95,1.91,49.05,3.39,-1.01,-0.12
-1,-10,23,-115,-306,3980,-0.27,-0.16,12.62,-1.15,-3.06,39.80,-4.94,1.90,49.00,3.35,-1.01,0.88
-3,-9,18,-66,-289,3982,-0.26,-0.19,11.47,-0.66,-2.89,39.82,-4.93,1.89,48.95,3.38,-1.01,0.73
-14,-4,21,-87,-373,3928,-0.32,-0.20,10.45,-0.87,-3.73,39.28,-4.94,1.88,48.91,3.63,-1.11,0.44
-16,-2,36,-81,-377,3929,-0.39,-0.19,9.63,-0.81,-3.77,39.29,-4.95,1.87,48.87,3.70,-1.14,-0.05
-2,-2,71,-140,-476,3856,-0.36,-0.19,9.10,-1.40,-4.76,38.56,-4.97,1.87,48.84,3.42,-1.15,-0.88
-6,4,98,-125,-452,3900,-0.36,-0.14,8.78,-1.25,-4.52,39.00,-4.99,1.88,48.80,3.51,-1.28,-1.49
5,13,181,-15,-496,3930,-0.30,-0.05,9.01,-0.15,-4.96,39.30,-5.00,1.87,48.77,3.28,-1.48,-3.13
-8,15,212,-15,-408,3915,-0.31,0.05,9.40,-0.15,-4.08,39.15,-5.01,1.86,48.73,3.55,-1.54,-3.67
10,19,276,-125,-426,3909,-0.22,0.16,10.15,-1.25,-4.26,39.09,-5.03,1.86,48.69,3.18,-1.66,-4.81
4,10,285,-75,-429,3898,-0.18,0.20,10.87,-0.75,-4.29,38.98,-5.04,1.85,48.65,3.29,-1.48,-4.83
-4,20,333,-34,-378,3964,-0.18,0.31,11.81,-0.34,-3.78,39.64,-5.05,1.84,48.60,3.46,-1.71,-5.59
-1,11,334,3,-385,3926,-0.17,0.34,12.67,0.03,-3.85,39.26,-5.05,1.83,48.55,3.40,-1.52,-5.42
-3,12,344,-22,-334,4004,-0.17,0.38,13.50,-0.22,-3.34,40.04,-5.05,1.82,48.49,3.44,-1.55,-5.43
-6,4,339,32,-341,3825,-0.19,0.37,14.22,0.32,-3.41,38.25,-5.05,1.81,48.44,3.50,-1.37,-5.17
1,-8,413,22,-411,3919,-0.17,0.28,15.32,0.22,-4.11,39.19,-5.05,1.80,48.38,3.36,-1.10,-6.43
-3,9,436,-12,-392,3897,-0.17,0.31,16.44,-0.12,-3.92,38.97,-5.06,1.79,48.31,3.44,-1.45,-6.64
4,10,523,-67,-406,3956,-0.13,0.34,17.99,-0.67,-4.06,39.56,-5.07,1.78,48.24,3.30,-1.47,-8.06
5,9,524,-52,-474,3957,-0.08,0.36,19.39,-0.52,-4.74,39.57,-5.08,1.78,48.16,3.28,-1.46,-7.77
-2,8,576,-101,-492,3917,-0.09,0.37,20.96,-1.01,-4.92,39.17,-5.10,1.79,48.08,3.43,-1.44,-8.47
0,14,629,-110,-434,3930,-0.08,0.42,22.70,-1.10,-4.34,39.30,-5.11,1.79,47.99,3.40,-1.58,-9.16
1,26,858,12,-541,3912,-0.06,0.54,25.67,0.12,-5.41,39.12,-5.13,1.79,47.89,3.38,-1.86,-13.15
-27,19,893,82,-491,3918,-0.22,0.60,28.55,0.82,-4.91,39.18,-5.13,1.79,47.78,4.00,-1.73,-13.22
-41,6,930,136,-509,3717,-0.45,0.58,31.37,1.36,-5.09,37.17,-5.14,1.79,47.65,4.35,-1.46,-13.33
9,24,929,-30,-614,4119,-0.35,0.66,33.90,-0.30,-6.14,41.19,-5.16,1.80,47.52,3.32,-1.86,-12.75
14,11,918,120,-709,4043,-0.23,0.67,36.11,1.20,-7.09,40.43,-5.17,1.80,47.37,3.19,-1.59,-12.02
-26,-3,918,104,-548,3791,-0.37,0.58,38.10,1.04,-5.48,37.91,-5.18,1.81,47.22,4.04,-1.29,-11.57
-5,7,997,40,-680,3874,-0.36,0.57,40.37,0.40,-6.80,38.74,-5.19,1.81,47.06,3.62,-1.49,-12.67
-8,4,1028,171,-529,3967,-0.37,0.53,42.60,1.71,-5.29,39.67,-5.19,1.82,46.89,3.69,-1.42,-12.80
-14,15,1073,56,-483,3942,-0.42,0.57,44.89,0.56,-4.83,39.42,-5.20,1.82,46.72,3.83,-1.66,-13.19
-8,12,1091,-12,-390,3943,-0.43,0.59,47.05,-0.12,-3.90,39.43,-5.20,1.82,46.53,3.71,-1.61,-13.07
-10,15,1040,-64,-337,3995,-0.45,0.62,48.69,-0.64,-3.37,39.95,-5.19,1.82,46.33,3.75,-1.68,-11.66
-8,10,1004,-250,-237,3860,-0.45,0.62,49.95,-2.50,-2.37,38.60,-5.17,1.86,46.14,3.70,-1.60,-10.64
0,11,853,-283,-261,3969,-0.40,0.62,50.16,-2.83,-2.61,39.69,-5.16,1.89,45.94,3.51,-1.64,-7.52
-18,0,794,-285,-243,3873,-0.47,0.56,49.98,-2.85,-2.43,38.73,-5.14,1.93,45.74,3.89,-1.43,-6.35
-2,8,568,-409,-207,3899,-0.44,0.55,48.45,-4.09,-2.07,38.99,-5.13,1.97,45.54,3.55,-1.61,-2.10
-9,9,512,-440,-235,3917,-0.45,0.55,46.73,-4.40,-2.35,39.17,-5.12,2.00,45.36,3.68,-1.65,-1.34
-14,15,380,-328,-229,3951,-0.49,0.59,44.37,-3.28,-2.29,39.51,-5.10,2.03,45.18,3.79,-1.81,0.83
-13,18,311,-345,-204,3905,-0.52,0.64,41.83,-3.45,-2.04,39.05,-5.09,2.07,45.01,3.77,-1.91,1.67
-10,23,210,-195,-36,3959,-0.53,0.72,38.93,-1.95,-0.36,39.59,-5.07,2.09,44.86,3.69,-2.04,3.08
-11,18,192,-200,-87,3952,-0.54,0.76,36.21,-2.00,-0.87,39.52,-5.05,2.11,44.71,3.70,-1.96,2.84
-14,5,128,-144,-231,3894,-0.57,0.71,33.37,-1.44,-2.31,38.94,-5.03,2.12,44.58,3.76,-1.70,3.51
-12,5,107,-132,-297,3904,-0.59,0.67,30.68,-1.32,-2.97,39.04,-5.01,2.13,44.46,3.71,-1.69,3.34
-4,6,40,-126,-324,3922,-0.56,0.64,27.86,-1.26,-3.24,39.22,-4.99,2.13,44.34,3.53,-1.70,4.08
-5,5,35,-88,-360,3914,-0.53,0.61,25.29,-0.88,-3.60,39.14,-5.00,2.12,44.24,3.54,-1.67,3.61
-5,9,30,-90,-387,3919,-0.51,0.60,22.94,-0.90,-3.87,39.19,-5.01,2.12,44.15,3.54,-1.74,3.19
-3,12,34,-105,-395,3914,-0.48,0.61,20.86,-1.05,-3.95,39.14,-5.02,2.12,44.07,3.50,-1.81,2.64
2,11,50,-111,-463,3894,-0.42,0.62,19.07,-1.11,-4.63,38.94,-5.04,2.12,44.00,3.40,-1.79,1.92
0,13,73,-116,-426,3913,-0.37,0.64,17.61,-1.16,-4.26,39.13,-5.05,2.12,43.93,3.44,-1.84,1.13
5,13,95,-148,-431,3914,-0.31,0.65,16.43,-1.48,-4.31,39.14,-5.07,2.13,43.86,3.33,-1.85,0.42
6,18,113,-154,-438,3897,-0.24,0.70,15.48,-1.54,-4.38,38.97,-5.09,2.14,43.80,3.30,-1.97,-0.16
12,21,172,-42,-389,3967,-0.14,0.76,14.98,-0.42,-3.89,39.67,-5.09,2.13,43.74,3.15,-2.04,-1.46
-5,17,177,65,-398,3953,-0.16,0.78,14.56,0.65,-3.98,39.53,-5.09,2.12,43.68,3.51,-1.96,-1.66
-7,17,221,-28,-467,3893,-0.19,0.81,14.45,-0.28,-4.67,38.93,-5.10,2.12,43.63,3.56,-1.96,-2.57
-10,12,253,5,-415,3871,-0.23,0.80,14.55,0.05,-4.15,38.71,-5.11,2.11,43.57,3.64,-1.86,-3.20
12,18,291,-87,-315,3972,-0.13,0.83,14.87,-0.87,-3.15,39.72,-5.10,2.10,43.51,3.16,-1.98,-3.90
-2,19,290,-50,-284,3850,-0.13,0.86,15.15,-0.50,-2.84,38.50,-5.09,2.10,43.45,3.43,-2.01,-3.82
9,12,296,-36,-329,3962,-0.06,0.85,15.44,-0.36,-3.29,39.62,-5.08,2.09,43.39,3.19,-1.85,-3.87
-3,18,287,-62,-351,3942,-0.07,0.88,15.65,-0.62,-3.51,39.42,-5.08,2.08,43.33,3.43,-1.98,-3.64
3,5,339,-50,-382,4069,-0.05,0.82,16.15,-0.50,-3.82,40.69,-5.08,2.07,43.26,3.31,-1.69,-4.58
31,33,359,-221,-448,3879,0.14,0.94,16.73,-2.21,-4.48,38.79,-5.09,2.09,43.20,2.69,-2.31,-4.86
26,33,342,-11,-408,3893,0.29,1.05,17.14,-0.11,-4.08,38.93,-5.10,2.08,43.13,2.76,-2.33,-4.42
37,39,355,-14,-428,3944,0.49,1.18,17.59,-0.14,-4.28,39.44,-5.10,2.08,43.06,2.48,-2.49,-4.58
41,49,474,-14,-490,3932,0.69,1.36,18.72,-0.14,-4.90,39.32,-5.11,2.08,42.99,2.35,-2.74,-6.75
35,42,506,-59,-473,3958,0.83,1.48,19.94,-0.59,-4.73,39.58,-5.12,2.08,42.91,2.44,-2.63,-7.12
10,30,566,10,-402,3965,0.81,1.51,21.40,0.10,-4.02,39.65,-5.12,2.08,42.82,2.95,-2.39,-8.01
32,35,549,73,-489,3962,0.92,1.58,22.61,0.73,-4.89,39.62,-5.12,2.08,42.73,2.48,-2.51,-7.40
-12,-7,396,-17,-498,3792,0.76,1.38,22.76,-0.17,-4.98,37.92,-5.13,2.08,42.64,3.42,-1.61,-4.25
-34,-37,358,-61,-424,3947,0.48,1.01,22.67,-0.61,-4.24,39.47,-5.13,2.08,42.55,3.95,-0.89,-3.49
-47,-42,383,-86,-448,4010,0.14,0.66,22.74,-0.86,-4.48,40.10,-5.15,2.08,42.46,4.31,-0.70,-3.98
-36,-23,387,-89,-497,3820,-0.09,0.45,22.83,-0.89,-4.97,38.20,-5.16,2.08,42.37,4.16,-1.03,-4.04
-10,-9,444,-238,-443,3945,-0.14,0.35,23.25,-2.38,-4.43,39.45,-5.17,2.10,42.28,3.65,-1.30,-5.10
-2,3,441,-245,-457,3872,-0.14,0.33,23.62,-2.45,-4.57,38.72,-5.18,2.13,42.19,3.50,-1.56,-4.96
-4,30,456,-39,-392,3884,-0.15,0.48,24.04,-0.39,-3.92,38.84,-5.18,2.12,42.09,3.54,-2.14,-5.17
-9,29,476,-44,-330,3983,-0.19,0.61,24.54,-0.44,-3.30,39.83,-5.18,2.11,42.00,3.65,-2.15,-5.46
15,32,491,-178,-366,3851,-0.08,0.75,25.08,-1.78,-3.66,38.51,-5.18,2.14,41.90,3.14,-2.27,-5.64
16,20,468,-109,-379,3992,0.02,0.79,25.42,-1.09,-3.79,39.92,-5.18,2.14,41.79,3.09,-2.03,-5.09
-7,7,405,-35,-346,3994,-0.02,0.76,25.35,-0.35,-3.46,39.94,-5.18,2.13,41.69,3.56,-1.76,-3.82
-26,-4,391,25,-393,3904,-0.18,0.66,25.20,0.25,-3.93,39.04,-5.18,2.13,41.59,3.99,-1.50,-3.57
-83,-75,407,60,-484,3956,-0.67,0.13,25.16,0.60,-4.84,39.56,-5.19,2.12,41.49,5.29,0.09,-3.90
-49,-62,396,21,-437,3962,-0.90,-0.26,25.06,0.21,-4.37,39.62,-5.19,2.11,41.39,4.67,-0.06,-3.70
-23,-26,415,-46,-384,3876,-0.95,-0.39,25.09,-0.46,-3.84,38.76,-5.20,2.10,41.29,4.16,-0.75,-4.07
-13,-17,426,-77,-321,3954,-0.93,-0.46,25.18,-0.77,-3.21,39.54,-5.19,2.09,41.19,3.94,-0.91,-4.27
-11,-10,447,-64,-398,3898,-0.91,-0.47,25.39,-0.64,-3.98,38.98,-5.20,2.08,41.09,3.90,-1.04,-4.65
-1,-17,444,-121,-360,3927,-0.82,-0.53,25.56,-1.21,-3.60,39.27,-5.20,2.07,40.99,3.68,-0.88,-4.55
0,-1,411,-137,-387,3935,-0.74,-0.48,25.51,-1.37,-3.87,39.35,-5.22,2.08,40.89,3.65,-1.22,-3.89
-7,-7,415,-123,-399,3933,-0.71,-0.48,25.49,-1.23,-3.99,39.33,-5.23,2.08,40.79,3.79,-1.10,-3.97
-7,6,427,-133,-427,3914,-0.68,-0.39,25.55,-1.33,-4.27,39.14,-5.25,2.08,40.69,3.79,-1.39,-4.20
-10,14,444,-171,-349,3893,-0.67,-0.27,25.70,-1.71,-3.49,38.93,-5.24,2.11,40.58,3.85,-1.60,-4.51
16,21,473,-186,-317,3896,-0.51,-0.11,26.01,-1.86,-3.17,38.96,-5.23,2.13,40.48,3.27,-1.80,-5.02
-5,14,487,-105,-241,3923,-0.49,-0.02,26.38,-1.05,-2.41,39.23,-5.21,2.13,40.37,3.67,-1.69,-5.22
11,22,526,-71,-352,3914,-0.37,0.12,26.95,-0.71,-3.52,39.14,-5.21,2.12,40.27,3.31,-1.88,-5.88
6,15,539,-13,-368,3938,-0.30,0.20,27.55,-0.13,-3.68,39.38,-5.21,2.12,40.16,3.40,-1.76,-6.01
-15,19,620,-123,-359,3943,-0.36,0.30,28.57,-1.23,-3.59,39.43,-5.20,2.11,40.04,3.84,-1.86,-7.43
-7,28,635,-168,-479,3895,-0.37,0.44,29.59,-1.68,-4.79,38.95,-5.22,2.13,39.93,3.69,-2.09,-7.50
-1,43,613,-293,-476,3858,-0.34,0.66,30.37,-2.93,-4.76,38.58,-5.23,2.15,39.81,3.56,-2.47,-6.88
6,42,581,-283,-417,3927,-0.27,0.85,30.88,-2.83,-4.17,39.27,-5.23,2.19,39.68,3.40,-2.53,-6.11
31,66,558,-92,-354,3930,-0.05,1.16,31.19,-0.92,-3.54,39.30,-5.22,2.18,39.56,2.83,-3.10,-5.57
29,82,543,-63,-220,4131,0.13,1.55,31.39,-0.63,-2.20,41.31,-5.20,2.19,39.43,2.81,-3.54,-5.21
44,54,441,-175,-307,3793,0.39,1.72,30.94,-1.75,-3.07,37.93,-5.18,2.22,39.31,2.42,-3.03,-3.24
23,31,380,-89,-305,3953,0.49,1.74,30.16,-0.89,-3.05,39.53,-5.16,2.22,39.19,2.81,-2.57,-2.17
-10,-4,323,-53,-355,3903,0.38,1.54,29.12,-0.53,-3.55,39.03,-5.16,2.22,39.08,3.50,-1.81,-1.24
-6,-8,301,-60,-388,3944,0.30,1.34,28.04,-0.60,-3.88,39.44,-5.16,2.22,38.96,3.44,-1.67,-1.03
-4,-4,220,-96,-408,3911,0.25,1.18,26.58,-0.96,-4.08,39.11,-5.17,2.22,38.86,3.42,-1.71,0.30
-8,-1,203,-96,-423,3871,0.18,1.06,25.16,-0.96,-4.23,38.71,-5.18,2.22,38.76,3.53,-1.74,0.33
13,6,220,-22,-487,3934,0.24,0.99,23.99,-0.22,-4.87,39.34,-5.18,2.22,38.66,3.09,-1.86,-0.28
17,19,235,-29,-527,3868,0.32,1.00,23.02,-0.29,-5.27,38.68,-5.19,2.23,38.57,3.00,-2.13,-0.79
72,54,331,-28,-532,3912,0.72,1.23,22.74,-0.28,-5.32,39.12,-5.20,2.23,38.48,1.77,-2.90,-2.81
38,44,397,27,-608,3944,0.88,1.38,22.89,0.27,-6.08,39.44,-5.21,2.23,38.39,2.43,-2.74,-4.11
56,68,464,257,-658,3988,1.14,1.66,23.43,2.57,-6.58,39.88,-5.21,2.23,38.30,1.99,-3.31,-5.35
54,51,452,200,-624,3914,1.35,1.80,23.84,2.00,-6.24,39.14,-5.22,2.23,38.21,1.98,-3.00,-5.01
-18,-15,572,192,-615,3918,1.11,1.53,24.95,1.92,-6.15,39.18,-5.22,2.23,38.11,3.51,-1.59,-7.20
-29,-20,638,196,-654,3906,0.82,1.25,26.34,1.96,-6.54,39.06,-5.22,2.23,38.01,3.81,-1.41,-8.23
-27,-11,810,-31,-457,3889,0.57,1.06,28.65,-0.31,-4.57,38.89,-5.23,2.23,37.89,3.84,-1.54,-11.21
-37,-21,821,-167,-423,3883,0.29,0.83,30.79,-1.67,-4.23,38.83,-5.24,2.25,37.77,4.13,-1.29,-10.95
-45,-7,693,-167,-361,3831,-0.01,0.70,31.94,-1.67,-3.61,38.31,-5.24,2.28,37.64,4.38,-1.56,-8.09
-80,-30,620,-297,-54,3898,-0.50,0.45,32.53,-2.97,-0.54,38.98,-5.22,2.30,37.51,5.21,-1.03,-6.47
-13,-13,338,-460,-51,3908,-0.53,0.32,31.34,-4.60,-0.51,39.08,-5.21,2.33,37.39,3.85,-1.36,-1.00
17,21,322,-434,-69,3871,-0.37,0.42,30.17,-4.34,-0.69,38.71,-5.19,2.35,37.27,3.18,-2.10,-0.93
51,35,183,-436,-202,3934,-0.02,0.59,28.27,-4.36,-2.02,39.34,-5.18,2.38,37.15,2.39,-2.45,1.48
23,15,150,-352,-240,3967,0.12,0.62,26.36,-3.52,-2.40,39.67,-5.16,2.41,37.05,2.91,-2.07,1.72
1,0,126,-100,-448,3977,0.11,0.56,24.49,-1.00,-4.48,39.77,-5.17,2.41,36.95,3.36,-1.74,1.80
6,1,115,-123,-434,3950,0.14,0.51,22.74,-1.23,-4.34,39.50,-5.18,2.41,36.86,3.26,-1.75,1.63
-43,-19,164,58,-518,3929,-0.14,0.34,21.47,0.58,-5.18,39.29,-5.19,2.41,36.78,4.34,-1.30,0.36
-40,-11,219,153,-447,3978,-0.37,0.24,20.66,1.53,-4.47,39.78,-5.20,2.40,36.70,4.34,-1.42,-0.94
-13,34,470,-1,-433,3838,-0.41,0.43,21.46,-0.01,-4.33,38.38,-5.20,2.39,36.61,3.81,-2.38,-5.86
15,45,460,-66,-410,3901,-0.28,0.66,22.12,-0.66,-4.10,39.01,-5.21,2.38,36.52,3.21,-2.67,-5.51
41,36,321,-151,-453,3917,-0.00,0.81,21.86,-1.51,-4.53,39.17,-5.22,2.39,36.44,2.61,-2.53,-2.74
39,34,288,-23,-446,3970,0.24,0.94,21.44,-0.23,-4.46,39.70,-5.23,2.39,36.35,2.59,-2.52,-2.16
4,15,272,-66,-341,4021,0.24,0.94,20.95,-0.66,-3.41,40.21,-5.22,2.38,36.27,3.30,-2.13,-1.94
20,19,267,-94,-314,3946,0.34,0.96,20.48,-0.94,-3.14,39.46,-5.20,2.38,36.19,2.94,-2.22,-1.94
-19,-17,209,-240,-457,3879,0.19,0.76,19.71,-2.40,-4.57,38.79,-5.21,2.40,36.11,3.78,-1.44,-0.93
-47,-33,188,-263,-404,3868,-0.12,0.48,18.89,-2.63,-4.04,38.68,-5.22,2.42,36.03,4.43,-1.06,-0.69
3,-9,123,-281,-402,3980,-0.09,0.38,17.75,-2.81,-4.02,39.80,-5.22,2.45,35.96,3.41,-1.54,0.38
4,-2,84,-231,-399,3892,-0.06,0.33,16.49,-2.31,-3.99,38.92,-5.23,2.47,35.90,3.39,-1.68,0.90
-5,29,127,-43,-553,3850,-0.08,0.47,15.61,-0.43,-5.53,38.50,-5.24,2.47,35.84,3.58,-2.35,-0.17
-18,19,139,-134,-531,3971,-0.18,0.54,14.90,-1.34,-5.31,39.71,-5.26,2.47,35.78,3.89,-2.17,-0.57
63,51,74,-23,-451,4036,0.22,0.80,13.86,-0.23,-4.51,40.36,-5.26,2.47,35.72,2.13,-2.88,0.52
20,30,42,-127,-393,3904,0.32,0.90,12.73,-1.27,-3.93,39.04,-5.27,2.46,35.67,2.99,-2.48,0.92
13,8,-20,-19,-299,3967,0.37,0.86,11.34,-0.19,-2.99,39.67,-5.26,2.45,35.63,3.11,-2.01,1.87
10,4,-9,-91,-329,3908,0.39,0.80,10.15,-0.91,-3.29,39.08,-5.25,2.44,35.59,3.16,-1.91,1.38
17,2,9,-121,-542,3820,0.46,0.73,9.19,-1.21,-5.42,38.20,-5.27,2.44,35.55,3.01,-1.85,0.80
8,-6,-6,42,-591,3953,0.46,0.62,8.23,0.42,-5.91,39.53,-5.28,2.44,35.52,3.19,-1.65,0.89
8,-10,101,-59,-542,3891,0.46,0.50,8.02,-0.59,-5.42,38.91,-5.29,2.43,35.49,3.20,-1.54,-1.33
20,-17,120,-155,-412,3988,0.54,0.34,7.95,-1.55,-4.12,39.88,-5.30,2.43,35.46,2.95,-1.35,-1.73
-45,-28,128,-227,-19,3965,0.21,0.14,7.94,-2.27,-0.19,39.65,-5.28,2.44,35.43,4.34,-1.08,-1.89
-40,-39,103,-177,-77,4033,-0.06,-0.11,7.77,-1.77,-0.77,40.33,-5.26,2.44,35.40,4.30,-0.79,-1.42
-52,-45,105,-36,-490,3873,-0.37,-0.38,7.64,-0.36,-4.90,38.73,-5.28,2.43,35.37,4.64,-0.58,-1.49
-69,-59,121,-97,-391,3942,-0.75,-0.70,7.61,-0.97,-3.91,39.42,-5.28,2.41,35.33,5.10,-0.20,-1.82
-52,-52,105,-164,-327,3910,-0.99,-0.95,7.49,-1.64,-3.27,39.10,-5.27,2.41,35.30,4.81,-0.27,-1.52
-32,-33,82,-135,-346,3939,-1.09,-1.05,7.24,-1.35,-3.46,39.39,-5.26,2.39,35.27,4.42,-0.62,-1.11
22,24,82,-100,-470,3880,-0.85,-0.80,7.02,-1.00,-4.70,38.80,-5.28,2.38,35.25,3.27,-1.84,-1.16
26,34,102,-135,-462,3809,-0.60,-0.51,6.94,-1.35,-4.62,38.09,-5.30,2.38,35.22,3.13,-2.12,-1.58
43,35,102,-130,-384,3895,-0.28,-0.25,6.87,-1.30,-3.84,38.95,-5.31,2.36,35.19,2.71,-2.20,-1.60
22,26,127,-131,-432,3863,-0.12,-0.06,6.95,-1.31,-4.32,38.63,-5.33,2.36,35.17,3.10,-2.07,-2.08
42,38,113,-72,-359,3954,0.15,0.17,6.95,-0.72,-3.59,39.54,-5.32,2.34,35.14,2.62,-2.37,-1.80
33,24,116,-50,-372,3944,0.34,0.30,6.96,-0.50,-3.72,39.44,-5.32,2.33,35.11,2.75,-2.11,-1.86
5,16,151,-128,-372,3970,0.33,0.37,7.19,-1.28,-3.72,39.70,-5.32,2.32,35.08,3.32,-1.95,-2.52
16,23,113,-96,-227,3953,0.40,0.47,7.16,-0.96,-2.27,39.53,-5.30,2.31,35.05,3.07,-2.12,-1.75
-9,-6,110,-86,-358,3918,0.30,0.39,7.11,-0.86,-3.58,39.18,-5.30,2.30,35.02,3.60,-1.50,-1.70
1,-2,85,-19,-278,3987,0.28,0.34,6.92,-0.19,-2.78,39.87,-5.29,2.29,35.00,3.39,-1.56,-1.23
-22,-22,42,-84,-413,3934,0.12,0.17,6.48,-0.84,-4.13,39.34,-5.29,2.28,34.97,3.91,-1.10,-0.46
-19,-25,59,-93,-409,3904,-0.01,0.00,6.20,-0.93,-4.09,39.04,-5.30,2.26,34.95,3.89,-0.99,-0.86
-36,-16,173,-133,-406,3926,-0.23,-0.10,6.63,-1.33,-4.06,39.26,-5.32,2.26,34.92,4.31,-1.14,-3.08
-30,-16,186,18,-328,4004,-0.39,-0.18,7.10,0.18,-3.28,40.04,-5.32,2.24,34.89,4.22,-1.10,-3.24
-5,0,169,-76,-300,3943,-0.38,-0.17,7.42,-0.76,-3.00,39.43,-5.30,2.23,34.86,3.71,-1.43,-2.82
4,4,129,-105,-377,3879,-0.32,-0.13,7.47,-1.05,-3.77,38.79,-5.31,2.21,34.83,3.51,-1.51,-2.00
12,13,164,-102,-452,3840,-0.21,-0.03,7.72,-1.02,-4.52,38.40,-5.33,2.21,34.80,3.33,-1.71,-2.65
-7,8,252,-50,-168,4013,-0.23,0.02,8.49,-0.50,-1.68,40.13,-5.31,2.20,34.77,3.71,-1.62,-4.27
45,42,177,-138,-432,3875,0.06,0.27,8.72,-1.38,-4.32,38.75,-5.33,2.20,34.73,2.58,-2.38,-2.69
36,31,173,-149,-395,3913,0.28,0.43,8.90,-1.49,-3.95,39.13,-5.34,2.21,34.70,2.72,-2.21,-2.57
29,20,146,-81,-371,3932,0.43,0.51,8.90,-0.81,-3.71,39.32,-5.34,2.19,34.66,2.82,-2.00,-2.02
21,14,133,-71,-418,3885,0.51,0.55,8.82,-0.71,-4.18,38.85,-5.35,2.19,34.63,2.96,-1.88,-1.77
-19,-3,207,-73,-508,3918,0.34,0.47,9.20,-0.73,-5.08,39.18,-5.36,2.18,34.59,3.83,-1.51,-3.19
-21,4,243,-23,-464,3851,0.18,0.45,9.77,-0.23,-4.64,38.51,-5.37,2.17,34.56,3.92,-1.64,-3.80
29,38,259,-60,-352,3808,0.34,0.64,10.37,-0.60,-3.52,38.08,-5.37,2.16,34.51,2.86,-2.37,-3.99
10,29,292,-164,-471,3883,0.37,0.75,11.11,-1.64,-4.71,38.83,-5.38,2.17,34.47,3.25,-2.23,-4.49
8,22,341,-127,-468,3927,0.38,0.81,12.08,-1.27,-4.68,39.27,-5.40,2.17,34.42,3.29,-2.10,-5.27
-5,5,396,16,-269,3991,0.31,0.76,13.29,0.16,-2.69,39.91,-5.38,2.17,34.37,3.57,-1.74,-6.12
0,10,319,-107,-594,3869,0.28,0.74,13.91,-1.07,-5.94,38.69,-5.40,2.17,34.32,3.49,-1.84,-4.41
-1,15,366,-116,-392,3884,0.25,0.76,14.75,-1.16,-3.92,38.84,-5.41,2.17,34.26,3.52,-1.94,-5.18
8,33,465,-146,-318,3917,0.27,0.89,16.11,-1.46,-3.18,39.17,-5.38,2.18,34.19,3.32,-2.35,-6.88
-8,24,478,-87,-454,3836,0.19,0.94,17.41,-0.87,-4.54,38.36,-5.40,2.18,34.13,3.67,-2.18,-6.85
-1,6,438,-177,-573,3909,0.17,0.89,18.34,-1.77,-5.73,39.09,-5.41,2.19,34.05,3.54,-1.81,-5.83
-15,-8,410,-107,-510,3899,0.06,0.75,19.01,-1.07,-5.10,38.99,-5.42,2.19,33.98,3.87,-1.49,-5.11
-10,0,360,-1,-414,3947,-0.01,0.67,19.31,-0.01,-4.14,39.47,-5.43,2.19,33.90,3.79,-1.63,-4.03
7,12,378,-65,-475,3979,0.04,0.68,19.68,-0.65,-4.75,39.79,-5.44,2.18,33.82,3.44,-1.87,-4.31
1,11,441,-176,-460,3830,0.04,0.68,20.40,-1.76,-4.60,38.30,-5.45,2.20,33.74,3.57,-1.86,-5.42
-6,11,509,-99,-385,3921,-0.00,0.68,21.47,-0.99,-3.85,39.21,-5.45,2.19,33.66,3.72,-1.86,-6.56
-15,-4,516,-151,-512,3885,-0.09,0.59,22.47,-1.51,-5.12,38.85,-5.47,2.20,33.57,3.94,-1.53,-6.48
12,13,534,-132,-534,3920,-0.01,0.61,23.48,-1.32,-5.34,39.20,-5.48,2.21,33.48,3.38,-1.89,-6.62
12,7,508,-280,-428,3862,0.06,0.59,24.23,-2.80,-4.28,38.62,-5.48,2.24,33.38,3.36,-1.78,-5.92
1,20,542,-215,-608,3703,0.06,0.65,25.11,-2.15,-6.08,37.03,-5.50,2.26,33.28,3.59,-2.07,-6.41
8,-18,402,-136,-565,3866,0.11,0.48,25.05,-1.36,-5.65,38.66,-5.51,2.27,33.18,3.45,-1.26,-3.57
8,-12,385,-191,-873,3815,0.14,0.36,24.90,-1.91,-8.73,38.15,-5.53,2.28,33.09,3.44,-1.36,-3.26
-7,-22,338,-167,-216,3973,0.09,0.19,24.47,-1.67,-2.16,39.73,-5.50,2.29,32.99,3.75,-1.12,-2.40
-6,-24,285,-185,-402,3897,0.04,0.02,23.76,-1.85,-4.02,38.97,-5.51,2.31,32.89,3.75,-1.04,-1.48
-15,-12,333,-72,-356,3998,-0.05,-0.05,23.42,-0.72,-3.56,39.98,-5.50,2.30,32.80,3.95,-1.26,-2.53
-9,4,346,-210,-429,3945,-0.10,-0.02,23.19,-2.10,-4.29,39.45,-5.51,2.33,32.71,3.85,-1.61,-2.84
-10,11,328,-209,-701,3833,-0.15,0.05,22.87,-2.09,-7.01,38.33,-5.53,2.34,32.62,3.89,-1.78,-2.54
-22,16,315,-143,-646,3831,-0.27,0.14,22.50,-1.43,-6.46,38.31,-5.54,2.35,32.53,4.18,-1.91,-2.36
-13,24,234,-10,-458,3965,-0.32,0.27,21.68,-0.10,-4.58,39.65,-5.55,2.34,32.44,4.01,-2.11,-0.89
-12,18,199,-70,-522,3851,-0.37,0.35,20.73,-0.70,-5.22,38.51,-5.56,2.34,32.36,4.01,-2.01,-0.39
-4,32,123,-140,-526,3946,-0.35,0.51,19.40,-1.40,-5.26,39.46,-5.58,2.35,32.28,3.86,-2.34,0.86
-15,17,125,-22,-263,4013,-0.41,0.57,18.23,-0.22,-2.63,40.13,-5.56,2.34,32.21,4.09,-2.05,0.56
-8,-2,-22,-157,-326,3942,-0.42,0.50,16.27,-1.57,-3.26,39.42,-5.55,2.35,32.15,3.94,-1.64,3.12
3,14,-33,3,-493,3844,-0.36,0.53,14.44,0.03,-4.93,38.44,-5.56,2.34,32.09,3.70,-1.98,2.93
-8,-2,-38,-171,-300,3778,-0.37,0.47,12.76,-1.71,-3.00,37.78,-5.54,2.35,32.04,3.92,-1.64,2.66
5,17,24,-276,-452,3969,-0.30,0.52,11.63,-2.76,-4.52,39.69,-5.55,2.37,31.99,3.64,-2.06,1.15
-2,2,128,-116,-345,3988,-0.28,0.48,11.25,-1.16,-3.45,39.88,-5.53,2.37,31.95,3.77,-1.73,-1.05
-6,3,152,-93,-435,3826,-0.29,0.45,11.05,-0.93,-4.35,38.26,-5.55,2.36,31.90,3.86,-1.74,-1.58
-8,-12,151,-23,-119,3949,-0.31,0.34,10.87,-0.23,-1.19,39.49,-5.53,2.36,31.86,3.90,-1.40,-1.60
-1,-13,140,-122,-211,3988,-0.29,0.22,10.64,-1.22,-2.11,39.88,-5.51,2.36,31.82,3.74,-1.35,-1.43
-5,-7,172,-102,-312,3947,-0.29,0.16,10.62,-1.02,-3.12,39.47,-5.50,2.35,31.77,3.81,-1.45,-2.08
1,-4,171,-93,-342,3896,-0.25,0.12,10.60,-0.93,-3.42,38.96,-5.49,2.34,31.73,3.67,-1.49,-2.06
3,-16,153,-79,-312,3917,-0.21,0.01,10.48,-0.79,-3.12,39.17,-5.47,2.33,31.69,3.61,-1.21,-1.72
-1,-23,137,-116,-310,3905,-0.20,-0.13,10.26,-1.16,-3.10,39.05,-5.46,2.32,31.65,3.68,-1.03,-1.44
23,-22,172,89,-442,3880,-0.04,-0.25,10.29,0.89,-4.42,38.80,-5.46,2.31,31.61,3.15,-1.01,-2.15
20,-35,206,-15,-271,4000,0.09,-0.44,10.51,-0.15,-2.71,40.00,-5.45,2.29,31.56,3.17,-0.68,-2.79
25,-29,254,-21,-478,3909,0.23,-0.57,11.01,-0.21,-4.78,39.09,-5.46,2.28,31.52,3.03,-0.76,-3.65
22,-34,269,7,-351,3960,0.34,-0.72,11.55,0.07,-3.51,39.60,-5.45,2.27,31.47,3.06,-0.61,-3.83
19,-19,337,-53,-248,3951,0.43,-0.77,12.45,-0.53,-2.48,39.51,-5.43,2.26,31.42,3.08,-0.89,-5.01
26,-18,360,-106,-355,3804,0.54,-0.80,13.40,-1.06,-3.55,38.04,-5.43,2.24,31.37,2.91,-0.89,-5.27
-6,-23,380,-72,-337,3916,0.45,-0.86,14.38,-0.72,-3.37,39.16,-5.42,2.22,31.31,3.57,-0.77,-5.45
-46,-56,397,-38,-427,3857,0.13,-1.12,15.36,-0.38,-4.27,38.57,-5.42,2.21,31.25,4.48,-0.02,-5.58
-260,-214,428,176,-86,4134,-1.47,-2.31,16.44,1.76,-0.86,41.34,-5.41,2.19,31.18,9.26,3.53,-5.97
-175,-158,450,24,-180,4139,-2.39,-3.04,17.54,0.24,-1.80,41.39,-5.41,2.18,31.11,7.78,2.61,-6.17
-81,-55,500,6,-255,3897,-2.65,-3.07,18.84,0.06,-2.55,38.97,-5.40,2.16,31.03,5.93,0.53,-6.89
-53,-36,488,36,-255,3904,-2.71,-2.99,19.93,0.36,-2.55,39.04,-5.40,2.14,30.95,5.38,0.14,-6.40
-22,-12,464,23,-521,3846,-2.57,-2.76,20.77,0.23,-5.21,38.46,-5.42,2.12,30.87,4.73,-0.40,-5.72
-4,22,488,184,-783,3592,-2.34,-2.35,21.67,1.84,-7.83,35.92,-5.44,2.11,30.78,4.31,-1.20,-6.01
0,24,544,-64,-139,4032,-2.10,-1.97,22.82,-0.64,-1.39,40.32,-5.43,2.10,30.69,4.16,-1.34,-6.89
-1,26,578,-154,3,4123,-1.90,-1.61,24.06,-1.54,0.03,41.23,-5.41,2.11,30.59,4.11,-1.48,-7.30
-29,0,587,-378,-437,3900,-1.89,-1.45,25.24,-3.78,-4.37,39.00,-5.42,2.13,30.49,4.68,-1.01,-7.21
-5,-3,541,-387,-475,3825,-1.73,-1.33,26.01,-3.87,-4.75,38.25,-5.43,2.15,30.39,4.16,-0.99,-6.10
3,-5,417,-33,-515,3950,-1.54,-1.22,25.96,-0.33,-5.15,39.50,-5.45,2.14,30.29,3.96,-0.98,-3.59
-1,6,421,8,-428,4020,-1.39,-1.06,25.93,0.08,-4.28,40.20,-5.46,2.13,30.18,4.00,-1.24,-3.68
-9,13,392,-322,-644,3921,-1.31,-0.88,25.73,-3.22,-6.44,39.21,-5.47,2.14,30.08,4.15,-1.44,-3.13
-17,27,380,-530,-807,3882,-1.28,-0.63,25.47,-5.30,-8.07,38.82,-5.49,2.16,29.98,4.32,-1.81,-2.94
-24,1,179,-416,-504,4016,-1.30,-0.56,24.02,-4.16,-5.04,40.16,-5.50,2.19,29.88,4.47,-1.31,0.83
-11,11,148,-323,-598,3860,-1.23,-0.43,22.52,-3.23,-5.98,38.60,-5.51,2.21,29.79,4.20,-1.56,1.13
-1,30,159,-1,-464,3990,-1.12,-0.21,21.24,-0.01,-4.64,39.90,-5.52,2.20,29.71,3.97,-2.00,0.62
1,20,128,-215,-310,3932,-1.00,-0.07,19.89,-2.15,-3.10,39.32,-5.51,2.22,29.63,3.89,-1.85,0.95
-14,-3,166,-368,-384,3918,-0.98,-0.08,18.92,-3.68,-3.84,39.18,-5.51,2.24,29.55,4.19,-1.40,-0.04
-5,7,160,-259,-138,4021,-0.92,-0.03,18.00,-2.59,-1.38,40.21,-5.50,2.26,29.48,3.98,-1.62,-0.12
-20,3,265,-264,-123,3957,-0.95,-0.01,17.82,-2.64,-1.23,39.57,-5.48,2.27,29.41,4.28,-1.56,-2.29
-22,-10,291,-152,-152,3873,-0.99,-0.07,17.81,-1.52,-1.52,38.73,-5.46,2.28,29.34,4.32,-1.28,-2.82
-20,19,412,-198,-230,4029,-1.01,0.06,18.54,-1.98,-2.30,40.29,-5.45,2.29,29.26,4.28,-1.91,-5.11
-13,13,465,-117,-331,3799,-0.99,0.13,19.52,-1.17,-3.31,37.99,-5.44,2.28,29.19,4.12,-1.81,-5.97
1,0,400,115,-634,3933,-0.88,0.12,20.01,1.15,-6.34,39.33,-5.45,2.28,29.11,3.82,-1.53,-4.54
15,20,387,-4,-611,3847,-0.70,0.23,20.37,-0.04,-6.11,38.47,-5.46,2.28,29.03,3.49,-1.97,-4.19
22,2,298,-28,-597,3908,-0.50,0.22,20.15,-0.28,-5.97,39.08,-5.48,2.28,28.95,3.30,-1.60,-2.43
31,-3,272,-91,-538,3922,-0.26,0.18,19.80,-0.91,-5.38,39.22,-5.49,2.28,28.87,3.07,-1.49,-1.98
16,0,250,-81,-609,4093,-0.14,0.16,19.34,-0.81,-6.09,40.93,-5.51,2.28,28.79,3.35,-1.55,-1.63
9,17,248,-297,-550,3956,-0.07,0.25,18.92,-2.97,-5.50,39.56,-5.52,2.30,28.72,3.48,-1.93,-1.68
-28,3,244,-154,-117,3998,-0.23,0.24,18.52,-1.54,-1.17,39.98,-5.50,2.31,28.64,4.26,-1.65,-1.69
-28,5,218,-45,-144,4057,-0.38,0.25,17.99,-0.45,-1.44,40.57,-5.48,2.31,28.57,4.29,-1.69,-1.27
-16,8,242,-18,-455,3796,-0.44,0.27,17.67,-0.18,-4.55,37.96,-5.49,2.30,28.50,4.07,-1.75,-1.83
-11,0,223,31,-563,3870,-0.46,0.24,17.26,0.31,-5.63,38.70,-5.50,2.29,28.43,3.98,-1.58,-1.53
7,5,203,163,-411,3828,-0.37,0.25,16.78,1.63,-4.11,38.28,-5.50,2.28,28.37,3.59,-1.68,-1.23
10,-4,167,83,-413,3972,-0.28,0.20,16.12,0.83,-4.13,39.72,-5.50,2.27,28.30,3.50,-1.47,-0.65
8,7,225,90,-476,3912,-0.20,0.22,15.88,0.90,-4.76,39.12,-5.51,2.26,28.24,3.53,-1.70,-1.88
6,3,221,105,-449,3941,-0.14,0.22,15.64,1.05,-4.49,39.41,-5.51,2.25,28.18,3.55,-1.61,-1.85
4,-3,164,66,-441,3898,-0.10,0.18,15.08,0.66,-4.41,38.98,-5.52,2.24,28.12,3.59,-1.47,-0.81
-16,13,192,-97,-613,3858,-0.19,0.24,14.74,-0.97,-6.13,38.58,-5.53,2.24,28.06,4.03,-1.81,-1.45
-19,7,214,-191,-381,3977,-0.29,0.26,14.57,-1.91,-3.81,39.77,-5.53,2.27,28.00,4.11,-1.71,-1.94
-21,19,244,-211,-395,3941,-0.39,0.35,14.60,-2.11,-3.95,39.41,-5.53,2.29,27.94,4.18,-1.99,-2.54
-15,11,277,-82,-406,3880,-0.44,0.38,14.83,-0.82,-4.06,38.80,-5.54,2.28,27.88,4.08,-1.83,-3.16
-7,-5,265,21,-442,3876,-0.44,0.31,14.96,0.21,-4.42,38.76,-5.54,2.27,27.83,3.92,-1.48,-2.88
-4,-18,253,82,-515,3865,-0.42,0.17,15.01,0.82,-5.15,38.65,-5.55,2.26,27.77,3.86,-1.17,-2.62
11,3,243,110,-337,3949,-0.31,0.17,14.99,1.10,-3.37,39.49,-5.55,2.25,27.71,3.52,-1.59,-2.42
2,-12,254,-9,-337,3913,-0.27,0.08,15.04,-0.09,-3.37,39.13,-5.54,2.24,27.65,3.69,-1.26,-2.63
8,-9,234,-42,-495,3879,-0.19,0.02,14.97,-0.42,-4.95,38.79,-5.55,2.23,27.59,3.55,-1.30,-2.24
5,9,182,70,-441,3927,-0.14,0.07,14.58,0.70,-4.41,39.27,-5.56,2.22,27.53,3.60,-1.67,-1.27
-12,-5,212,46,-470,3946,-0.20,0.03,14.41,0.46,-4.70,39.46,-5.56,2.21,27.47,3.97,-1.37,-1.92
6,1,219,107,-256,4047,-0.14,0.04,14.31,1.07,-2.56,40.47,-5.55,2.20,27.42,3.58,-1.48,-2.08
9,-4,150,62,-63,4046,-0.07,0.01,13.79,0.62,-0.63,40.46,-5.54,2.19,27.36,3.49,-1.37,-0.79
-17,30,258,-11,-670,3879,-0.17,0.19,13.99,-0.11,-6.70,38.79,-5.55,2.19,27.30,4.06,-2.11,-2.94
-20,36,308,-34,-184,4005,-0.28,0.39,14.47,-0.34,-1.84,40.05,-5.53,2.19,27.25,4.13,-2.28,-3.85
-12,-1,243,-126,-522,3829,-0.32,0.35,14.50,-1.26,-5.22,38.29,-5.55,2.19,27.19,4.00,-1.52,-2.52
-14,7,284,7,-493,3867,-0.37,0.35,14.79,0.07,-4.93,38.67,-5.56,2.19,27.13,4.06,-1.68,-3.29
-6,-4,259,11,-352,3947,-0.37,0.29,14.89,0.11,-3.52,39.47,-5.56,2.18,27.07,3.89,-1.44,-2.75
-7,8,227,-132,-491,3876,-0.38,0.31,14.78,-1.32,-4.91,38.76,-5.57,2.18,27.01,3.92,-1.69,-2.12
-3,7,239,-56,-381,3910,-0.36,0.33,14.76,-0.56,-3.81,39.10,-5.57,2.17,26.95,3.84,-1.66,-2.37
1,5,221,-108,-394,3966,-0.32,0.32,14.63,-1.08,-3.94,39.66,-5.58,2.16,26.90,3.75,-1.61,-2.03
-3,-3,226,-49,-480,3869,-0.30,0.27,14.55,-0.49,-4.80,38.69,-5.59,2.15,26.84,3.83,-1.43,-2.15
2,17,223,-82,-439,3950,-0.26,0.35,14.45,-0.82,-4.39,39.50,-5.60,2.14,26.78,3.72,-1.86,-2.11
1,-14,222,-3,-315,3955,-0.23,0.23,14.36,-0.03,-3.15,39.55,-5.59,2.13,26.73,3.73,-1.19,-2.11
2,-3,192,-20,-425,3962,-0.19,0.19,14.10,-0.20,-4.25,39.62,-5.59,2.12,26.67,3.70,-1.39,-1.56
-5,16,271,-43,-529,3886,-0.21,0.27,14.34,-0.43,-5.29,38.86,-5.61,2.12,26.61,3.86,-1.80,-3.11
1,20,302,-2,-255,4003,-0.18,0.36,14.75,-0.02,-2.55,40.03,-5.59,2.11,26.55,3.72,-1.90,-3.64
5,-1,307,40,-437,3893,-0.13,0.32,15.15,0.40,-4.37,38.93,-5.60,2.10,26.49,3.63,-1.45,-3.65
-10,5,338,-139,-479,3828,-0.18,0.32,15.69,-1.39,-4.79,38.28,-5.61,2.11,26.43,3.96,-1.58,-4.16
-16,-35,303,-133,-329,3949,-0.26,0.07,15.97,-1.33,-3.29,39.49,-5.59,2.11,26.37,4.09,-0.70,-3.38
-9,-14,295,-176,-610,3912,-0.29,-0.02,16.18,-1.76,-6.10,39.12,-5.61,2.12,26.30,3.96,-1.11,-3.17
-16,9,463,-197,-291,3877,-0.36,0.04,17.38,-1.97,-2.91,38.77,-5.59,2.14,26.23,4.11,-1.60,-6.32
-22,18,449,-237,-464,3866,-0.45,0.14,18.38,-2.37,-4.64,38.66,-5.60,2.16,26.16,4.27,-1.83,-5.81
-12,-12,406,-127,-443,3936,-0.48,0.06,19.02,-1.27,-4.43,39.36,-5.62,2.16,26.09,4.09,-1.20,-4.79
-10,8,412,-214,-680,3845,-0.50,0.10,19.63,-2.14,-6.80,38.45,-5.64,2.17,26.01,4.06,-1.62,-4.77
-5,2,422,-65,-446,3935,-0.48,0.10,20.24,-0.65,-4.46,39.35,-5.65,2.16,25.93,3.96,-1.50,-4.84
2,5,420,-138,-498,3846,-0.42,0.12,20.78,-1.38,-4.98,38.46,-5.66,2.17,25.85,3.81,-1.57,-4.67
3,6,449,66,-270,3981,-0.36,0.15,21.44,0.66,-2.70,39.81,-5.65,2.17,25.76,3.77,-1.59,-5.11
4,9,440,-20,-403,3894,-0.30,0.19,21.98,-0.20,-4.03,38.94,-5.65,2.16,25.67,3.73,-1.66,-4.81
-3,18,489,-63,-443,3887,-0.28,0.28,22.77,-0.63,-4.43,38.87,-5.66,2.15,25.58,3.87,-1.86,-5.63
-2,8,507,-49,-423,4007,-0.27,0.30,23.58,-0.49,-4.23,40.07,-5.66,2.14,25.49,3.85,-1.66,-5.81
-10,12,531,-164,-405,3905,-0.30,0.34,24.46,-1.64,-4.05,39.05,-5.67,2.17,25.39,4.03,-1.77,-6.10
-3,21,549,-120,-417,3957,-0.29,0.44,25.37,-1.20,-4.17,39.57,-5.68,2.17,25.29,3.89,-1.97,-6.26
3,19,497,-169,-563,3864,-0.24,0.51,25.86,-1.69,-5.63,38.64,-5.70,2.18,25.19,3.77,-1.96,-5.09
-12,5,576,79,-245,4063,-0.29,0.49,26.79,0.79,-2.45,40.63,-5.68,2.18,25.08,4.08,-1.67,-6.48
-18,-5,581,30,-487,3944,-0.37,0.41,27.65,0.30,-4.87,39.44,-5.69,2.17,24.97,4.22,-1.44,-6.39
-16,19,579,-90,-408,3831,-0.43,0.48,28.42,-0.90,-4.08,38.31,-5.70,2.17,24.86,4.20,-1.95,-6.17
-14,-1,566,-39,-468,3921,-0.48,0.43,29.03,-0.39,-4.68,39.21,-5.70,2.17,24.75,4.18,-1.53,-5.77
-3,6,528,-39,-407,3962,-0.45,0.42,29.35,-0.39,-4.07,39.62,-5.70,2.16,24.63,3.95,-1.67,-4.92
-4,13,526,97,-421,3935,-0.43,0.46,29.62,0.97,-4.21,39.35,-5.70,2.16,24.51,3.96,-1.81,-4.82
-13,8,503,-92,-378,3892,-0.46,0.46,29.73,-0.92,-3.78,38.92,-5.70,2.15,24.39,4.15,-1.71,-4.32
-7,13,517,-36,-494,3906,-0.46,0.50,29.91,-0.36,-4.94,39.06,-5.71,2.15,24.27,4.03,-1.82,-4.56
-3,22,532,-118,-407,3926,-0.43,0.58,30.16,-1.18,-4.07,39.26,-5.71,2.15,24.15,3.95,-2.03,-4.81
-3,20,445,-156,-722,3791,-0.41,0.64,29.86,-1.56,-7.22,37.91,-5.73,2.17,24.04,3.95,-2.01,-3.10
-10,10,476,-10,-289,4040,-0.43,0.64,29.78,-0.10,-2.89,40.40,-5.71,2.17,23.92,4.09,-1.81,-3.75
-6,17,454,-53,-579,3867,-0.42,0.68,29.57,-0.53,-5.79,38.67,-5.73,2.17,23.80,4.02,-1.97,-3.34
-5,13,466,100,-440,3949,-0.41,0.69,29.46,1.00,-4.40,39.49,-5.73,2.17,23.68,3.99,-1.89,-3.61
-10,22,412,-87,-573,3911,-0.43,0.76,29.02,-0.87,-5.73,39.11,-5.74,2.18,23.57,4.11,-2.09,-2.60
-17,4,435,7,-478,3926,-0.49,0.71,28.77,0.07,-4.78,39.26,-5.75,2.18,23.46,4.27,-1.71,-3.12
-11,8,420,-98,-423,3919,-0.51,0.68,28.46,-0.98,-4.23,39.19,-5.75,2.18,23.34,4.16,-1.78,-2.88
-16,4,405,-38,-382,3923,-0.55,0.64,28.08,-0.38,-3.82,39.23,-5.75,2.17,23.23,4.27,-1.69,-2.66
-5,13,384,-32,-519,3882,-0.53,0.66,27.62,-0.32,-5.19,38.82,-5.76,2.17,23.12,4.05,-1.88,-2.33
-10,15,395,145,-376,3922,-0.54,0.68,27.27,1.45,-3.76,39.22,-5.76,2.17,23.01,4.15,-1.92,-2.63
-6,5,423,-12,-244,4012,-0.52,0.64,27.12,-0.12,-2.44,40.12,-5.74,2.17,22.91,4.05,-1.71,-3.23
-8,1,384,-220,-565,3799,-0.52,0.59,26.75,-2.20,-5.65,37.99,-5.76,2.19,22.80,4.10,-1.62,-2.52
4,23,450,-156,-404,3915,-0.44,0.67,26.82,-1.56,-4.04,39.15,-5.77,2.21,22.69,3.85,-2.11,-3.84
-4,6,479,-153,-573,3888,-0.42,0.64,27.06,-1.53,-5.73,38.88,-5.79,2.23,22.59,4.01,-1.76,-4.37
-9,12,490,-153,-598,3905,-0.43,0.65,27.34,-1.53,-5.98,39.05,-5.80,2.24,22.48,4.13,-1.90,-4.53
-6,18,495,-22,-531,3858,-0.43,0.69,27.63,-0.22,-5.31,38.58,-5.81,2.24,22.37,4.07,-2.03,-4.57
4,11,454,-76,-482,4012,-0.36,0.69,27.63,-0.76,-4.82,40.12,-5.82,2.24,22.26,3.86,-1.89,-3.73
-3,-8,444,-94,-403,3953,-0.34,0.57,27.58,-0.94,-4.03,39.53,-5.82,2.24,22.15,3.99,-1.47,-3.53
-6,15,450,-135,-526,3808,-0.34,0.61,27.57,-1.35,-5.26,38.08,-5.83,2.25,22.04,4.07,-1.95,-3.65
-5,17,452,-21,-497,3991,-0.34,0.65,27.57,-0.21,-4.97,39.91,-5.84,2.25,21.93,4.05,-2.01,-3.69
-5,-6,428,-205,-567,3853,-0.34,0.55,27.42,-2.05,-5.67,38.53,-5.86,2.26,21.82,4.06,-1.52,-3.23
-7,5,417,-167,-523,3936,-0.35,0.52,27.22,-1.67,-5.23,39.36,-5.87,2.28,21.72,4.11,-1.75,-3.05
-5,7,433,29,-411,3986,-0.34,0.51,27.14,0.29,-4.11,39.86,-5.87,2.27,21.61,4.07,-1.78,-3.39
-10,-4,422,57,-376,3948,-0.37,0.44,27.00,0.57,-3.76,39.48,-5.86,2.27,21.50,4.17,-1.54,-3.20
0,17,466,56,-462,3909,-0.33,0.50,27.14,0.56,-4.62,39.09,-5.86,2.26,21.39,3.96,-1.98,-4.05
-9,-2,452,-20,-450,3893,-0.35,0.44,27.19,-0.20,-4.50,38.93,-5.87,2.26,21.29,4.15,-1.57,-3.76
-9,-14,382,-114,-342,3938,-0.37,0.31,26.80,-1.14,-3.42,39.38,-5.85,2.26,21.18,4.15,-1.29,-2.42
1,13,377,-151,-554,3834,-0.33,0.36,26.42,-1.51,-5.54,38.34,-5.87,2.27,21.07,3.94,-1.86,-2.40
3,1,314,21,-374,3953,-0.28,0.33,25.69,0.21,-3.74,39.53,-5.86,2.27,20.97,3.88,-1.61,-1.28
4,12,321,-7,-323,3979,-0.23,0.37,25.08,-0.07,-3.23,39.79,-5.85,2.26,20.87,3.84,-1.84,-1.55
-6,9,339,-90,-441,3901,-0.24,0.38,24.64,-0.90,-4.41,39.01,-5.85,2.26,20.77,4.05,-1.78,-2.01
-12,-1,327,-39,-398,3889,-0.29,0.34,24.17,-0.39,-3.98,38.89,-5.85,2.25,20.68,4.19,-1.56,-1.87
-10,-2,328,-87,-384,3946,-0.32,0.29,23.75,-0.87,-3.84,39.46,-5.84,2.25,20.58,4.15,-1.52,-1.98
-11,0,334,-106,-435,3926,-0.36,0.26,23.42,-1.06,-4.35,39.26,-5.85,2.24,20.49,4.18,-1.55,-2.18
-5,17,323,-61,-524,3859,-0.35,0.34,23.05,-0.61,-5.24,38.59,-5.86,2.24,20.40,4.07,-1.92,-2.03
-7,3,321,54,-400,3972,-0.36,0.33,22.70,0.54,-4.00,39.72,-5.86,2.23,20.31,4.11,-1.62,-2.07
-10,7,274,-9,-498,3912,-0.38,0.34,22.10,-0.09,-4.98,39.12,-5.87,2.23,20.22,4.18,-1.70,-1.24
-8,14,282,-47,-510,3874,-0.39,0.39,21.61,-0.47,-5.10,38.74,-5.88,2.23,20.14,4.15,-1.86,-1.51
-3,4,254,-16,-455,3955,-0.37,0.37,21.00,-0.16,-4.55,39.55,-5.89,2.22,20.05,4.05,-1.65,-1.08
1,5,248,-14,-455,3861,-0.33,0.37,20.41,-0.14,-4.55,38.61,-5.89,2.21,19.97,3.96,-1.66,-1.08
-3,6,226,-60,-614,3893,-0.32,0.37,19.75,-0.60,-6.14,38.93,-5.91,2.21,19.90,4.05,-1.68,-0.78
-7,8,296,101,-666,3859,-0.33,0.38,19.58,1.01,-6.66,38.59,-5.92,2.21,19.82,4.14,-1.73,-2.24
-1,10,333,-53,-457,3978,-0.30,0.40,19.65,-0.53,-4.57,39.78,-5.92,2.20,19.74,4.01,-1.77,-2.97
-10,5,352,-82,-454,3932,-0.33,0.39,19.84,-0.82,-4.54,39.32,-5.93,2.20,19.66,4.21,-1.66,-3.32
-16,20,396,30,-548,3960,-0.40,0.47,20.27,0.30,-5.48,39.60,-5.94,2.19,19.58,4.35,-1.98,-4.11
-10,33,406,24,-372,3929,-0.42,0.63,20.72,0.24,-3.72,39.29,-5.94,2.19,19.50,4.23,-2.29,-4.21
-8,31,447,26,-470,3879,-0.42,0.75,21.37,0.26,-4.70,38.79,-5.94,2.18,19.41,4.20,-2.28,-4.90
-10,33,452,-43,-393,3940,-0.44,0.88,21.99,-0.43,-3.93,39.40,-5.94,2.18,19.33,4.24,-2.35,-4.86
-13,14,464,-164,-470,3900,-0.48,0.88,22.62,-1.64,-4.70,39.00,-5.95,2.19,19.24,4.32,-1.97,-4.96
-7,20,477,-104,-415,3892,-0.47,0.91,23.27,-1.04,-4.15,38.92,-5.95,2.19,19.15,4.20,-2.10,-5.08
-7,9,480,-126,-509,3920,-0.47,0.88,23.87,-1.26,-5.09,39.20,-5.97,2.20,19.05,4.21,-1.87,-5.00
-7,2,476,-157,-423,3897,-0.46,0.80,24.39,-1.57,-4.23,38.97,-5.99,2.22,18.96,4.22,-1.72,-4.80
-2,20,507,-82,-426,3893,-0.43,0.84,25.04,-0.82,-4.26,38.93,-5.99,2.21,18.86,4.11,-2.10,-5.28
3,12,516,-88,-342,4015,-0.37,0.83,25.69,-0.88,-3.42,40.15,-5.97,2.22,18.75,3.98,-1.93,-5.32
6,8,502,-119,-391,3823,-0.29,0.80,26.18,-1.19,-3.91,38.23,-5.96,2.21,18.65,3.89,-1.84,-4.92
-4,4,511,-101,-492,3907,-0.29,0.74,26.68,-1.01,-4.92,39.07,-5.98,2.22,18.55,4.10,-1.75,-4.99
-17,25,516,-134,-430,3883,-0.36,0.82,27.16,-1.34,-4.30,38.83,-5.99,2.22,18.44,4.40,-2.20,-4.98
-7,-5,526,-101,-427,4110,-0.37,0.71,27.65,-1.01,-4.27,41.10,-5.98,2.22,18.33,4.19,-1.55,-5.07
-10,-6,513,-74,-442,3820,-0.39,0.60,28.02,-0.74,-4.42,38.20,-5.99,2.22,18.22,4.26,-1.50,-4.72
-17,5,507,-71,-514,3934,-0.46,0.57,28.31,-0.71,-5.14,39.34,-6.00,2.22,18.11,4.43,-1.72,-4.53
0,-6,508,-17,-524,4120,-0.41,0.48,28.57,-0.17,-5.24,41.20,-6.01,2.22,17.99,4.08,-1.47,-4.49
-16,11,515,-27,-517,3867,-0.47,0.50,28.86,-0.27,-5.17,38.67,-6.02,2.22,17.88,4.43,-1.82,-4.56
-2,12,484,-36,-377,3982,-0.43,0.52,28.92,-0.36,-3.77,39.82,-6.01,2.21,17.76,4.13,-1.85,-3.91
-6,13,456,-168,-429,3913,-0.43,0.55,28.81,-1.68,-4.29,39.13,-6.02,2.24,17.65,4.21,-1.89,-3.37
-2,29,447,37,-452,3939,-0.40,0.67,28.66,0.37,-4.52,39.39,-6.02,2.24,17.54,4.12,-2.25,-3.21
-5,11,438,-27,-307,3996,-0.39,0.67,28.47,-0.27,-3.07,39.96,-6.01,2.24,17.42,4.17,-1.88,-3.07
0,10,404,-100,-548,3790,-0.35,0.66,28.08,-1.00,-5.48,37.90,-6.02,2.25,17.31,4.07,-1.87,-2.46
-5,8,400,-43,-514,3910,-0.34,0.65,27.71,-0.43,-5.14,39.10,-6.03,2.25,17.20,4.18,-1.82,-2.46
-2,3,398,-31,-425,4017,-0.32,0.60,27.37,-0.31,-4.25,40.17,-6.03,2.24,17.09,4.11,-1.70,-2.49
6,-7,399,-97,-379,3956,-0.25,0.50,27.07,-0.97,-3.79,39.56,-6.01,2.24,16.98,3.92,-1.47,-2.58
-19,2,445,-60,-529,3889,-0.34,0.46,27.08,-0.60,-5.29,38.89,-6.03,2.24,16.88,4.46,-1.65,-3.51
-14,7,455,-100,-487,3984,-0.40,0.46,27.14,-1.00,-4.87,39.84,-6.04,2.24,16.77,4.38,-1.75,-3.69
-8,11,488,-81,-489,3928,-0.40,0.48,27.41,-0.81,-4.89,39.28,-6.05,2.24,16.66,4.26,-1.84,-4.30
-11,15,499,-71,-471,3899,-0.43,0.52,27.71,-0.71,-4.71,38.99,-6.05,2.24,16.55,4.34,-1.93,-4.45
-14,3,490,0,-614,3887,-0.47,0.49,27.93,0.00,-6.14,38.87,-6.07,2.25,16.44,4.42,-1.68,-4.22
-10,24,504,4,-614,3769,-0.49,0.59,28.21,0.04,-6.14,37.69,-6.08,2.25,16.33,4.35,-2.13,-4.44
-9,16,483,-122,-424,3970,-0.49,0.62,28.33,-1.22,-4.24,39.70,-6.08,2.25,16.22,4.33,-1.98,-3.98
-4,14,481,-124,-340,3981,-0.47,0.65,28.44,-1.24,-3.40,39.81,-6.06,2.25,16.10,4.21,-1.95,-3.91
-6,-2,473,13,-409,3971,-0.46,0.57,28.48,0.13,-4.09,39.71,-6.05,2.25,15.99,4.24,-1.60,-3.74
-3,15,474,-27,-489,3831,-0.43,0.60,28.52,-0.27,-4.89,38.31,-6.06,2.25,15.88,4.18,-1.95,-3.74
-1,5,482,-12,-467,3984,-0.39,0.57,28.61,-0.12,-4.67,39.84,-6.06,2.25,15.76,4.13,-1.74,-3.88
-7,27,469,-18,-525,3855,-0.40,0.68,28.61,-0.18,-5.25,38.55,-6.07,2.25,15.65,4.26,-2.22,-3.62
0,6,449,-10,-501,3934,-0.36,0.65,28.49,-0.10,-5.01,39.34,-6.08,2.24,15.54,4.11,-1.78,-3.23
-7,5,447,-78,-458,3938,-0.36,0.62,28.36,-0.78,-4.58,39.38,-6.08,2.24,15.43,4.26,-1.75,-3.22
-9,22,458,-6,-321,3953,-0.38,0.69,28.32,-0.06,-3.21,39.53,-6.07,2.24,15.31,4.29,-2.12,-3.45
-11,41,492,-41,-388,3887,-0.41,0.87,28.49,-0.41,-3.88,38.87,-6.06,2.24,15.20,4.34,-2.55,-4.10
-14,13,536,2,-481,3848,-0.46,0.86,28.91,0.02,-4.81,38.48,-6.07,2.24,15.09,4.41,-1.98,-4.89
-10,13,518,-88,-413,3887,-0.47,0.86,29.18,-0.88,-4.13,38.87,-6.07,2.24,14.97,4.34,-1.97,-4.46
-1,13,464,-67,-422,3909,-0.43,0.85,29.09,-0.67,-4.22,39.09,-6.07,2.23,14.85,4.14,-1.97,-3.38
-1,5,448,-132,-356,3973,-0.39,0.79,28.92,-1.32,-3.56,39.73,-6.04,2.24,14.74,4.12,-1.80,-3.09
-7,8,394,-121,-416,3853,-0.40,0.76,28.43,-1.21,-4.16,38.53,-6.05,2.24,14.63,4.24,-1.85,-2.10
-3,5,377,16,-458,3976,-0.38,0.72,27.88,0.16,-4.58,39.76,-6.05,2.24,14.52,4.15,-1.77,-1.87
0,17,362,-85,-469,3888,-0.34,0.75,27.30,-0.85,-4.69,38.88,-6.06,2.24,14.41,4.09,-2.03,-1.69
-1,7,371,-71,-462,3919,-0.31,0.72,26.84,-0.71,-4.62,39.19,-6.06,2.24,14.30,4.11,-1.81,-1.98
11,19,358,-3,-427,3961,-0.21,0.76,26.34,-0.03,-4.27,39.61,-6.06,2.23,14.20,3.83,-2.07,-1.82
8,-8,331,-56,-425,3926,-0.14,0.64,25.72,-0.56,-4.25,39.26,-6.06,2.23,14.10,3.87,-1.48,-1.41
-8,-2,342,-35,-400,3922,-0.18,0.56,25.24,-0.35,-4.00,39.22,-6.05,2.22,14.00,4.21,-1.58,-1.74
0,3,340,-73,-491,4028,-0.16,0.52,24.79,-0.73,-4.91,40.28,-6.06,2.22,13.90,4.04,-1.67,-1.79
-11,-2,352,-75,-454,3979,-0.21,0.46,24.46,-0.75,-4.54,39.79,-6.06,2.21,13.80,4.28,-1.55,-2.11
-20,-3,354,-59,-482,3890,-0.31,0.39,24.17,-0.59,-4.82,38.90,-6.07,2.21,13.70,4.50,-1.51,-2.21
-22,2,375,35,-523,3879,-0.41,0.37,24.04,0.35,-5.23,38.79,-6.08,2.21,13.61,4.57,-1.60,-2.66
-24,-2,371,-34,-526,3792,-0.52,0.32,23.90,-0.34,-5.26,37.92,-6.09,2.21,13.52,4.65,-1.50,-2.61
1,13,378,5,-598,3968,-0.46,0.37,23.81,0.05,-5.98,39.68,-6.10,2.21,13.42,4.13,-1.82,-2.77
11,16,372,62,-490,3846,-0.35,0.43,23.70,0.62,-4.90,38.46,-6.11,2.20,13.33,3.90,-1.89,-2.67
4,12,362,53,-488,3999,-0.29,0.46,23.54,0.53,-4.88,39.99,-6.11,2.19,13.23,4.03,-1.82,-2.50
11,-13,339,38,-250,4008,-0.19,0.33,23.25,0.38,-2.50,40.08,-6.10,2.19,13.14,3.85,-1.27,-2.09
-3,6,360,56,-597,3849,-0.19,0.34,23.12,0.56,-5.97,38.49,-6.10,2.19,13.05,4.14,-1.66,-2.55
-1,15,366,-4,-511,3917,-0.18,0.39,23.05,-0.04,-5.11,39.17,-6.11,2.19,12.96,4.10,-1.85,-2.68
5,14,367,-130,-433,4063,-0.13,0.44,22.98,-1.30,-4.33,40.63,-6.11,2.18,12.87,3.96,-1.84,-2.72
-9,22,395,-70,-346,3861,-0.17,0.53,23.09,-0.70,-3.46,38.61,-6.09,2.18,12.77,4.25,-2.03,-3.26
-27,30,636,185,-284,3934,-0.32,0.66,24.66,1.85,-2.84,39.34,-6.08,2.17,12.68,4.65,-2.22,-7.80
-10,17,612,63,-411,3906,-0.35,0.70,25.93,0.63,-4.11,39.06,-6.08,2.17,12.57,4.31,-1.97,-7.03
-7,15,557,-49,-387,3911,-0.36,0.72,26.73,-0.49,-3.87,39.11,-6.07,2.16,12.47,4.25,-1.93,-5.73
-15,4,568,-1,-474,3863,-0.41,0.67,27.52,-0.01,-4.74,38.63,-6.08,2.16,12.36,4.43,-1.69,-5.77
3,19,556,-55,-466,3968,-0.35,0.72,28.16,-0.55,-4.66,39.68,-6.08,2.16,12.25,4.05,-2.01,-5.38
-6,16,559,9,-467,3852,-0.35,0.75,28.76,0.09,-4.67,38.52,-6.09,2.16,12.13,4.23,-1.95,-5.31
7,10,488,-156,-497,3905,-0.28,0.73,28.86,-1.56,-4.97,39.05,-6.10,2.18,12.02,3.96,-1.84,-3.84
-1,6,458,-201,-414,3937,-0.25,0.70,28.77,-2.01,-4.14,39.37,-6.09,2.21,11.90,4.11,-1.77,-3.25
1,17,431,-82,-443,3948,-0.22,0.73,28.52,-0.82,-4.43,39.48,-6.10,2.21,11.79,4.06,-2.00,-2.75
1,8,421,-152,-395,3972,-0.19,0.71,28.24,-1.52,-3.95,39.72,-6.07,2.22,11.68,4.04,-1.82,-2.60
-6,1,340,-149,-596,3891,-0.21,0.64,27.49,-1.49,-5.96,38.91,-6.09,2.23,11.57,4.20,-1.67,-1.12
5,4,288,-56,-408,4014,-0.16,0.60,26.49,-0.56,-4.08,40.14,-6.08,2.23,11.47,3.96,-1.72,-0.28
5,8,210,-17,-446,3881,-0.11,0.59,25.13,-0.17,-4.46,38.81,-6.08,2.22,11.37,3.94,-1.79,1.00
-1,3,193,9,-429,3960,-0.11,0.55,23.79,0.09,-4.29,39.60,-6.08,2.22,11.27,4.06,-1.67,1.05
0,-1,133,-33,-442,3931,-0.10,0.49,22.22,-0.33,-4.42,39.31,-6.08,2.21,11.18,4.04,-1.57,1.92
-5,-3,130,-18,-476,3925,-0.12,0.42,20.79,-0.18,-4.76,39.25,-6.09,2.21,11.10,4.15,-1.51,1.67
-5,-6,126,66,-462,3925,-0.14,0.34,19.48,0.66,-4.62,39.25,-6.09,2.20,11.02,4.16,-1.42,1.46
-6,-3,118,5,-494,3912,-0.16,0.29,18.25,0.05,-4.94,39.12,-6.09,2.19,10.95,4.19,-1.46,1.35
-12,5,176,-9,-527,3921,-0.22,0.29,17.50,-0.09,-5.27,39.21,-6.10,2.18,10.88,4.33,-1.62,0.00
-7,-2,175,-37,-518,3953,-0.24,0.25,16.82,-0.37,-5.18,39.53,-6.11,2.18,10.82,4.24,-1.46,-0.13
-5,11,221,-3,-540,3852,-0.24,0.29,16.49,-0.03,-5.40,38.52,-6.12,2.17,10.75,4.21,-1.74,-1.13
-1,-1,217,-61,-372,3957,-0.23,0.26,16.16,-0.61,-3.72,39.57,-6.11,2.16,10.69,4.12,-1.48,-1.12
-7,7,145,36,-529,3851,-0.25,0.27,15.43,0.36,-5.29,38.51,-6.12,2.16,10.63,4.25,-1.64,0.18
-3,10,160,122,-543,3883,-0.24,0.31,14.86,1.22,-5.43,38.83,-6.13,2.15,10.57,4.17,-1.70,-0.25
1,22,255,72,-302,3922,-0.21,0.41,14.93,0.72,-3.02,39.22,-6.12,2.14,10.51,4.07,-1.97,-2.17
-3,7,293,128,-239,3980,-0.21,0.41,15.23,1.28,-2.39,39.80,-6.11,2.13,10.45,4.15,-1.66,-2.87
-9,3,305,-24,-426,3911,-0.24,0.39,15.56,-0.24,-4.26,39.11,-6.11,2.12,10.38,4.28,-1.57,-3.04
-7,19,314,-79,-407,3946,-0.26,0.47,15.92,-0.79,-4.07,39.46,-6.10,2.11,10.32,4.24,-1.91,-3.14
-14,-11,311,-24,-460,3852,-0.32,0.35,16.23,-0.24,-4.60,38.52,-6.11,2.10,10.26,4.40,-1.26,-3.01
-16,3,301,-28,-584,3839,-0.39,0.34,16.44,-0.28,-5.84,38.39,-6.12,2.10,10.19,4.47,-1.54,-2.75
-9,28,402,37,-530,3921,-0.40,0.47,17.25,0.37,-5.30,39.21,-6.13,2.10,10.12,4.34,-2.08,-4.63
-12,2,407,-59,-640,3861,-0.43,0.44,18.01,-0.59,-6.40,38.61,-6.14,2.10,10.05,4.42,-1.55,-4.56
-3,2,310,-121,-611,3889,-0.41,0.41,18.10,-1.21,-6.11,38.89,-6.16,2.11,9.98,4.24,-1.54,-2.56
11,14,290,-76,-579,3960,-0.30,0.45,18.06,-0.76,-5.79,39.60,-6.18,2.11,9.91,3.94,-1.80,-2.16
10,16,230,-63,-560,3869,-0.21,0.50,17.65,-0.63,-5.60,38.69,-6.19,2.11,9.84,3.94,-1.85,-1.03
1,3,228,-28,-491,3978,-0.18,0.47,17.28,-0.28,-4.91,39.78,-6.20,2.10,9.77,4.12,-1.58,-1.07
3,-1,221,-66,-458,3903,-0.15,0.42,16.90,-0.66,-4.58,39.03,-6.20,2.09,9.71,4.07,-1.48,-1.01
2,18,240,-59,-460,3901,-0.12,0.49,16.67,-0.59,-4.60,39.01,-6.21,2.09,9.64,4.09,-1.87,-1.45
-8,-1,248,-40,-384,3923,-0.16,0.43,16.52,-0.40,-3.84,39.23,-6.20,2.08,9.57,4.30,-1.47,-1.64
-5,13,268,-61,-441,3945,-0.17,0.47,16.50,-0.61,-4.41,39.45,-6.20,2.07,9.51,4.24,-1.76,-2.05
-18,4,355,-28,-349,3887,-0.26,0.45,17.02,-0.28,-3.49,38.87,-6.19,2.06,9.44,4.52,-1.56,-3.70
-15,0,381,-50,-510,3892,-0.33,0.40,17.64,-0.50,-5.10,38.92,-6.20,2.06,9.37,4.49,-1.47,-4.09
-4,10,343,-111,-506,3944,-0.32,0.42,17.97,-1.11,-5.06,39.44,-6.22,2.06,9.30,4.27,-1.68,-3.24
-2,-5,325,-97,-448,3904,-0.30,0.35,18.15,-0.97,-4.48,39.04,-6.22,2.05,9.23,4.23,-1.35,-2.83
2,7,296,4,-520,3945,-0.26,0.36,18.14,0.04,-5.20,39.45,-6.23,2.05,9.16,4.14,-1.59,-2.24
-7,-11,282,7,-527,3870,-0.28,0.25,18.05,0.07,-5.27,38.70,-6.24,2.04,9.09,4.34,-1.19,-1.98
-4,0,300,-109,-454,3924,-0.27,0.23,18.07,-1.09,-4.54,39.24,-6.25,2.04,9.02,4.28,-1.41,-2.33
-5,-1,286,-82,-479,3966,-0.28,0.20,18.01,-0.82,-4.79,39.66,-6.26,2.03,8.94,4.31,-1.37,-2.06
-9,-3,279,17,-513,3877,-0.30,0.16,17.91,0.17,-5.13,38.77,-6.27,2.02,8.87,4.40,-1.32,-1.94
-3,12,285,22,-512,3900,-0.29,0.22,17.86,0.22,-5.12,39.00,-6.27,2.01,8.80,4.28,-1.63,-2.07
-5,-3,272,-24,-441,3934,-0.29,0.18,17.73,-0.24,-4.41,39.34,-6.27,2.00,8.73,4.32,-1.31,-1.83
-11,2,256,-44,-430,3954,-0.33,0.17,17.52,-0.44,-4.30,39.54,-6.27,1.99,8.66,4.45,-1.40,-1.55
-9,4,227,-51,-460,3925,-0.35,0.18,17.15,-0.51,-4.60,39.25,-6.28,1.99,8.59,4.42,-1.44,-1.04
-1,6,226,-33,-461,3916,-0.32,0.20,16.82,-0.33,-4.61,39.16,-6.28,1.98,8.53,4.25,-1.48,-1.10
0,14,242,10,-437,3894,-0.29,0.26,16.61,0.10,-4.37,38.94,-6.28,1.97,8.46,4.22,-1.65,-1.46
-3,9,262,55,-421,3918,-0.28,0.29,16.55,0.55,-4.21,39.18,-6.28,1.96,8.40,4.28,-1.55,-1.88
-7,3,297,15,-461,3929,-0.29,0.28,16.71,0.15,-4.61,39.29,-6.28,1.95,8.33,4.37,-1.42,-2.56
-1,22,293,-23,-510,3854,-0.27,0.39,16.82,-0.23,-5.10,38.54,-6.29,1.94,8.26,4.25,-1.83,-2.45
7,17,247,-66,-423,3893,-0.20,0.45,16.65,-0.66,-4.23,38.93,-6.29,1.93,8.20,4.06,-1.74,-1.55
-1,3,228,-142,-402,4036,-0.19,0.43,16.37,-1.42,-4.02,40.36,-6.27,1.94,8.13,4.21,-1.46,-1.22
-2,-4,176,-20,-433,3912,-0.18,0.36,15.81,-0.20,-4.33,39.12,-6.27,1.93,8.07,4.23,-1.29,-0.29
-8,3,179,-26,-544,3883,-0.21,0.34,15.32,-0.26,-5.44,38.83,-6.28,1.93,8.01,4.37,-1.43,-0.46
-3,10,192,16,-451,3918,-0.21,0.37,14.96,0.16,-4.51,39.18,-6.28,1.92,7.95,4.26,-1.57,-0.80
-1,21,199,-13,-333,3913,-0.19,0.46,14.68,-0.13,-3.33,39.13,-6.27,1.91,7.89,4.21,-1.81,-1.01
-1,10,231,102,-346,3968,-0.18,0.47,14.62,1.02,-3.46,39.68,-6.26,1.90,7.83,4.20,-1.59,-1.67
2,20,264,118,-390,3895,-0.15,0.55,14.77,1.18,-3.90,38.95,-6.26,1.89,7.77,4.13,-1.81,-2.30
-14,8,337,15,-478,3894,-0.22,0.54,15.35,0.15,-4.78,38.94,-6.26,1.89,7.71,4.48,-1.56,-3.66
-3,20,322,-22,-526,3896,-0.22,0.61,15.78,-0.22,-5.26,38.96,-6.27,1.88,7.65,4.26,-1.81,-3.25
-2,-3,246,-124,-556,3903,-0.21,0.53,15.70,-1.24,-5.56,39.03,-6.29,1.89,7.59,4.25,-1.33,-1.72
5,5,216,-142,-547,3917,-0.16,0.51,15.45,-1.42,-5.47,39.17,-6.31,1.90,7.53,4.10,-1.49,-1.17
6,6,123,-101,-491,3926,-0.10,0.49,14.65,-1.01,-4.91,39.26,-6.32,1.90,7.47,4.08,-1.51,0.55
1,4,115,-30,-464,3923,-0.09,0.47,13.89,-0.30,-4.64,39.23,-6.33,1.89,7.42,4.18,-1.46,0.54
-5,-3,95,-48,-477,3921,-0.11,0.40,13.08,-0.48,-4.77,39.21,-6.33,1.88,7.37,4.31,-1.29,0.77
-5,1,83,-67,-457,3912,-0.13,0.37,12.28,-0.67,-4.57,39.12,-6.34,1.87,7.32,4.32,-1.36,0.83
-11,-1,38,-52,-414,3935,-0.18,0.33,11.28,-0.52,-4.14,39.35,-6.33,1.86,7.27,4.45,-1.30,1.53
-11,-1,26,-28,-438,3914,-0.23,0.29,10.31,-0.28,-4.38,39.14,-6.33,1.85,7.23,4.47,-1.28,1.56
-4,-2,-6,-18,-462,3921,-0.23,0.25,9.24,-0.18,-4.62,39.21,-6.34,1.83,7.19,4.33,-1.24,1.97
-7,-4,-12,35,-425,3913,-0.25,0.20,8.25,0.35,-4.25,39.13,-6.33,1.82,7.16,4.39,-1.17,1.87
-25,2,-42,16,-386,3946,-0.38,0.19,7.17,0.16,-3.86,39.46,-6.33,1.81,7.13,4.79,-1.29,2.24
-34,0,-52,17,-349,3946,-0.55,0.17,6.13,0.17,-3.49,39.46,-6.32,1.80,7.11,5.01,-1.23,2.21
-78,25,-63,-60,-393,4030,-0.97,0.31,5.13,-0.60,-3.93,40.30,-6.31,1.78,7.09,6.02,-1.77,2.22
-108,28,-61,-49,-411,4024,-1.53,0.45,4.25,-0.49,-4.11,40.24,-6.31,1.77,7.07,6.78,-1.86,1.98
-179,69,-39,3,-344,4144,-2.47,0.82,3.59,0.03,-3.44,41.44,-6.31,1.76,7.06,8.48,-2.79,1.38
-211,63,-24,-11,-357,3930,-3.51,1.12,3.08,-0.11,-3.57,39.30,-6.31,1.75,7.04,9.41,-2.74,0.96
-234,73,-16,37,-353,3947,-4.59,1.46,2.68,0.37,-3.53,39.47,-6.32,1.74,7.03,10.18,-3.03,0.71
-236,75,-9,26,-364,3976,-5.57,1.77,2.35,0.26,-3.64,39.76,-6.34,1.74,7.03,10.50,-3.15,0.50
-222,70,-64,-13,-513,4000,-6.37,2.02,1.73,-0.13,-5.13,40.00,-6.37,1.73,7.02,10.45,-3.12,1.48
-219,33,-45,26,-632,3817,-7.06,2.02,1.28,0.26,-6.32,38.17,-6.41,1.73,7.02,10.61,-2.36,0.99
-149,28,-146,-55,-783,3709,-7.27,1.99,0.26,-0.55,-7.83,37.09,-6.46,1.73,7.02,9.27,-2.25,2.82
-122,11,-182,-51,-773,3680,-7.28,1.86,-0.87,-0.51,-7.73,36.80,-6.51,1.74,7.02,8.76,-1.88,3.29
26,-25,-221,102,-732,3526,-6.40,1.52,-2.14,1.02,-7.32,35.26,-6.55,1.73,7.03,5.54,-1.05,3.81
149,-42,-229,80,-598,3764,-4.85,1.11,-3.32,0.80,-5.98,37.64,-6.58,1.72,7.04,2.64,-0.58,3.70
472,-75,-240,572,-774,2905,-1.48,0.54,-4.45,5.72,-7.74,29.05,-6.60,1.71,7.06,-4.84,0.25,3.67
614,-103,-246,88,-786,3179,2.41,-0.14,-5.51,0.88,-7.86,31.79,-6.60,1.69,7.09,-8.78,1.01,3.56
141,-72,-105,-495,-359,4804,3.03,-0.57,-5.60,-4.95,-3.59,48.04,-6.58,1.71,7.11,0.65,0.49,0.67
63,-43,-108,-456,-446,4280,3.11,-0.77,-5.70,-4.56,-4.46,42.80,-6.57,1.72,7.13,2.21,-0.05,0.71
-28,2,-93,-70,-528,3814,2.63,-0.68,-5.69,-0.70,-5.28,38.14,-6.58,1.70,7.15,4.19,-0.98,0.40
-31,16,-96,-10,-541,3827,2.18,-0.52,-5.71,-0.10,-5.41,38.27,-6.58,1.69,7.17,4.38,-1.30,0.46
91,-11,-69,128,-592,3856,2.51,-0.53,-5.56,1.28,-5.92,38.56,-6.58,1.67,7.20,1.81,-0.73,-0.05
108,-26,-71,165,-500,4009,2.92,-0.64,-5.44,1.65,-5.00,40.09,-6.57,1.64,7.22,1.35,-0.38,0.01
89,-21,-88,-37,-516,3877,3.17,-0.70,-5.43,-0.37,-5.16,38.77,-6.57,1.62,7.24,1.66,-0.45,0.36
99,-25,-90,-50,-431,3899,3.46,-0.78,-5.44,-0.50,-4.31,38.99,-6.55,1.60,7.26,1.37,-0.33,0.40
60,-20,-65,-153,-419,4003,3.48,-0.83,-5.29,-1.53,-4.19,40.03,-6.53,1.61,7.28,2.14,-0.43,-0.08
45,-20,-54,-138,-442,3988,3.41,-0.87,-5.09,-1.38,-4.42,39.88,-6.51,1.62,7.30,2.45,-0.43,-0.26
13,-10,-25,-110,-493,3945,3.14,-0.84,-4.73,-1.10,-4.93,39.45,-6.51,1.61,7.32,3.18,-0.63,-0.77
8,-4,-21,-126,-491,3947,2.88,-0.78,-4.39,-1.26,-4.91,39.47,-6.52,1.61,7.34,3.35,-0.77,-0.77
6,3,-2,-116,-443,3940,2.63,-0.69,-3.96,-1.16,-4.43,39.40,-6.49,1.62,7.35,3.45,-0.94,-1.06
4,3,0,-124,-435,3924,2.39,-0.60,-3.56,-1.24,-4.35,39.24,-6.47,1.63,7.37,3.54,-0.97,-1.02
8,5,4,-49,-453,3907,2.20,-0.51,-3.18,-0.49,-4.53,39.07,-6.47,1.61,7.38,3.50,-1.02,-1.01
7,2,3,-47,-446,3895,2.02,-0.44,-2.85,-0.47,-4.46,38.95,-6.46,1.58,7.39,3.57,-0.97,-0.92
-3,1,16,-34,-481,3914,1.80,-0.39,-2.47,-0.34,-4.81,39.14,-6.46,1.57,7.40,3.83,-0.95,-1.10
-4,-14,29,-30,-502,3907,1.60,-0.44,-2.04,-0.30,-5.02,39.07,-6.46,1.55,7.41,3.91,-0.62,-1.27
3,1,81,-67,-588,3877,1.46,-0.39,-1.34,-0.67,-5.88,38.77,-6.48,1.54,7.41,3.82,-0.93,-2.17
2,2,107,-16,-570,3853,1.32,-0.34,-0.56,-0.16,-5.70,38.53,-6.49,1.53,7.42,3.88,-0.96,-2.52
5,-1,118,37,-512,3935,1.22,-0.31,0.22,0.37,-5.12,39.35,-6.49,1.51,7.42,3.85,-0.89,-2.57
5,7,125,33,-532,3940,1.13,-0.24,0.96,0.33,-5.32,39.40,-6.49,1.50,7.41,3.88,-1.06,-2.55
-6,22,185,-113,-608,3964,0.98,-0.08,1.99,-1.13,-6.08,39.64,-6.51,1.50,7.40,4.15,-1.41,-3.54
-6,-4,198,-75,-549,3922,0.84,-0.10,3.00,-0.75,-5.49,39.22,-6.52,1.49,7.39,4.20,-0.88,-3.58
-6,9,214,-89,-452,3953,0.72,-0.03,4.01,-0.89,-4.52,39.53,-6.52,1.48,7.38,4.23,-1.15,-3.68
-9,4,212,-119,-450,3888,0.60,-0.00,4.90,-1.19,-4.50,38.88,-6.52,1.50,7.36,4.32,-1.07,-3.44
-7,-10,172,-146,-448,3915,0.49,-0.06,5.46,-1.46,-4.48,39.15,-6.52,1.52,7.34,4.31,-0.78,-2.50
-10,10,201,7,-667,3882,0.38,0.00,6.14,0.07,-6.67,38.82,-6.53,1.51,7.31,4.41,-1.20,-2.94
-10,-14,252,-42,-342,3971,0.28,-0.08,7.06,-0.42,-3.42,39.71,-6.52,1.51,7.28,4.43,-0.69,-3.77
-11,2,241,-133,-512,3906,0.19,-0.06,7.83,-1.33,-5.12,39.06,-6.53,1.52,7.25,4.48,-1.02,-3.37
-11,8,249,-34,-508,3909,0.10,-0.01,8.56,-0.34,-5.08,39.09,-6.54,1.51,7.22,4.51,-1.15,-3.37
-6,12,254,56,-512,3870,0.06,0.07,9.26,0.56,-5.12,38.70,-6.55,1.49,7.18,4.43,-1.25,-3.31
2,4,318,97,-529,3938,0.06,0.08,10.27,0.97,-5.29,39.38,-6.55,1.48,7.14,4.27,-1.08,-4.39
5,-3,325,97,-492,3832,0.09,0.06,11.23,0.97,-4.92,38.32,-6.56,1.47,7.10,4.20,-0.92,-4.31
7,9,325,8,-503,3891,0.12,0.11,12.09,0.08,-5.03,38.91,-6.56,1.46,7.05,4.16,-1.17,-4.12
3,5,329,13,-514,3963,0.13,0.13,12.88,0.13,-5.14,39.63,-6.57,1.45,7.00,4.24,-1.09,-4.02
-5,3,318,-172,-449,3952,0.08,0.13,13.53,-1.72,-4.49,39.52,-6.57,1.47,6.94,4.41,-1.07,-3.65
-3,13,321,-102,-438,3907,0.06,0.20,14.14,-1.02,-4.38,39.07,-6.55,1.48,6.89,4.37,-1.30,-3.58
-5,1,314,-49,-503,3930,0.02,0.18,14.64,-0.49,-5.03,39.30,-6.56,1.48,6.83,4.42,-1.05,-3.32
1,11,321,-92,-507,3916,0.02,0.23,15.13,-0.92,-5.07,39.16,-6.57,1.48,6.77,4.31,-1.27,-3.35
-7,6,307,-85,-509,3920,-0.02,0.25,15.49,-0.85,-5.09,39.20,-6.59,1.48,6.71,4.50,-1.17,-2.98
-2,14,301,-11,-495,3910,-0.03,0.31,15.78,-0.11,-4.95,39.10,-6.60,1.48,6.65,4.40,-1.34,-2.80
-4,9,296,-5,-495,3963,-0.05,0.33,16.01,-0.05,-4.95,39.63,-6.60,1.47,6.58,4.45,-1.24,-2.64
-6,0,299,32,-500,3958,-0.08,0.30,16.23,0.32,-5.00,39.58,-6.60,1.46,6.52,4.50,-1.04,-2.65
1,18,278,4,-450,3782,-0.07,0.38,16.30,0.04,-4.50,37.82,-6.61,1.45,6.45,4.36,-1.43,-2.21
0,-7,287,-45,-449,4006,-0.06,0.30,16.42,-0.45,-4.49,40.06,-6.60,1.44,6.39,4.37,-0.89,-2.36
-1,3,245,-27,-431,3883,-0.06,0.29,16.28,-0.27,-4.31,38.83,-6.59,1.43,6.33,4.39,-1.08,-1.54
0,17,228,-50,-488,3937,-0.06,0.36,16.04,-0.50,-4.88,39.37,-6.60,1.43,6.26,4.37,-1.38,-1.24
2,-2,213,2,-522,3902,-0.04,0.31,15.73,0.02,-5.22,39.02,-6.61,1.42,6.20,4.33,-0.98,-1.00
0,7,212,9,-462,3936,-0.03,0.32,15.45,0.09,-4.62,39.36,-6.61,1.41,6.14,4.37,-1.16,-1.04
4,5,163,17,-393,3867,-0.01,0.32,14.90,0.17,-3.93,38.67,-6.60,1.40,6.08,4.28,-1.11,-0.17
-1,4,157,4,-462,3943,-0.01,0.31,14.37,0.04,-4.62,39.43,-6.60,1.39,6.02,4.38,-1.08,-0.16
-4,7,171,-10,-450,3910,-0.03,0.33,13.98,-0.10,-4.50,39.10,-6.60,1.38,5.97,4.45,-1.14,-0.53
-6,-4,157,-26,-328,3962,-0.07,0.27,13.54,-0.26,-3.28,39.62,-6.58,1.38,5.91,4.48,-0.90,-0.35
-3,2,59,-50,-384,3919,-0.08,0.25,12.54,-0.50,-3.84,39.19,-6.57,1.37,5.86,4.42,-1.02,1.43
-2,4,39,-61,-394,3910,-0.08,0.25,11.53,-0.61,-3.94,39.10,-6.55,1.37,5.82,4.39,-1.06,1.61
2,2,12,-35,-453,3910,-0.06,0.24,10.45,-0.35,-4.53,39.10,-6.55,1.36,5.77,4.30,-1.00,1.92
3,3,9,-30,-463,3917,-0.04,0.23,9.46,-0.30,-4.63,39.17,-6.55,1.35,5.74,4.27,-1.01,1.76
5,1,9,-62,-480,3881,-0.00,0.22,8.57,-0.62,-4.80,38.81,-6.57,1.34,5.70,4.23,-0.96,1.56
8,8,13,-25,-462,3935,0.04,0.24,7.79,-0.25,-4.62,39.35,-6.57,1.33,5.67,4.16,-1.10,1.31
5,3,20,-3,-462,3953,0.07,0.24,7.13,-0.03,-4.62,39.53,-6.57,1.31,5.64,4.21,-0.99,1.02
3,-5,33,-3,-484,3914,0.08,0.18,6.62,-0.03,-4.84,39.14,-6.57,1.30,5.62,4.26,-0.81,0.64
6,-2,52,-19,-509,3919,0.11,0.15,6.28,-0.19,-5.09,39.19,-6.58,1.29,5.59,4.19,-0.85,0.18
6,4,71,-15,-516,3884,0.14,0.16,6.08,-0.15,-5.16,38.84,-6.60,1.28,5.57,4.19,-0.97,-0.25
8,9,135,10,-425,3996,0.17,0.20,6.30,0.10,-4.25,39.96,-6.59,1.26,5.55,4.14,-1.07,-1.51
2,-3,147,2,-360,3928,0.17,0.16,6.56,0.02,-3.60,39.28,-6.57,1.25,5.52,4.25,-0.81,-1.69
-6,10,211,57,-358,3915,0.11,0.21,7.19,0.57,-3.58,39.15,-6.56,1.24,5.49,4.42,-1.08,-2.85
-2,8,221,-61,-468,3937,0.09,0.24,7.82,-0.61,-4.68,39.37,-6.57,1.23,5.46,4.35,-1.04,-2.91
-4,0,258,-47,-575,3898,0.06,0.21,8.61,-0.47,-5.75,38.98,-6.59,1.23,5.43,4.41,-0.87,-3.48
1,-4,256,-54,-552,3953,0.06,0.17,9.31,-0.54,-5.52,39.53,-6.60,1.23,5.39,4.32,-0.78,-3.29
4,6,190,-89,-538,3933,0.08,0.19,9.54,-0.89,-5.38,39.33,-6.62,1.24,5.35,4.27,-0.99,-1.89
-5,-6,181,-85,-631,3891,0.04,0.13,9.69,-0.85,-6.31,38.91,-6.64,1.24,5.31,4.47,-0.73,-1.68
-3,3,201,-5,-504,3957,0.02,0.14,9.95,-0.05,-5.04,39.57,-6.65,1.23,5.27,4.44,-0.91,-2.02
-3,-7,190,-26,-430,3894,-0.00,0.08,10.11,-0.26,-4.30,38.94,-6.64,1.22,5.23,4.44,-0.68,-1.76
-3,9,229,-16,-534,3973,-0.02,0.13,10.50,-0.16,-5.34,39.73,-6.65,1.21,5.19,4.46,-1.02,-2.47
-2,1,240,5,-456,3898,-0.03,0.12,10.91,0.05,-4.56,38.98,-6.65,1.20,5.15,4.44,-0.84,-2.60
-5,0,248,-89,-368,3999,-0.06,0.11,11.33,-0.89,-3.68,39.99,-6.63,1.21,5.10,4.49,-0.82,-2.66
-12,-4,231,-195,-436,3945,-0.13,0.07,11.61,-1.95,-4.36,39.45,-6.63,1.23,5.06,4.65,-0.75,-2.26
-9,26,306,24,-575,3884,-0.17,0.22,12.32,0.24,-5.75,38.84,-6.64,1.22,5.01,4.61,-1.40,-3.62
1,29,320,-27,-458,3973,-0.15,0.38,13.04,-0.27,-4.58,39.73,-6.64,1.21,4.96,4.40,-1.49,-3.74
-12,14,367,21,-329,3907,-0.20,0.43,13.97,0.21,-3.29,39.07,-6.62,1.21,4.90,4.67,-1.20,-4.49
-6,28,413,82,-328,3850,-0.22,0.55,15.09,0.82,-3.28,38.50,-6.61,1.20,4.84,4.55,-1.51,-5.17
3,15,429,-25,-347,3872,-0.18,0.59,16.20,-0.25,-3.47,38.72,-6.60,1.20,4.78,4.34,-1.26,-5.25
12,17,427,-133,-299,3972,-0.09,0.64,17.19,-1.33,-2.99,39.72,-6.58,1.22,4.71,4.12,-1.32,-4.99
3,-1,432,-155,-485,3945,-0.06,0.57,18.10,-1.55,-4.85,39.45,-6.58,1.25,4.64,4.30,-0.96,-4.88
-6,4,410,-78,-540,3825,-0.09,0.53,18.79,-0.78,-5.40,38.25,-6.60,1.26,4.56,4.50,-1.06,-4.28
-2,-8,346,-101,-505,3901,-0.10,0.43,19.02,-1.01,-5.05,39.01,-6.62,1.27,4.49,4.43,-0.79,-2.92
-1,-17,291,-119,-396,3946,-0.09,0.28,18.90,-1.19,-3.96,39.46,-6.60,1.29,4.41,4.40,-0.58,-1.83
2,12,226,-42,-423,3942,-0.07,0.33,18.39,-0.42,-4.23,39.42,-6.59,1.29,4.34,4.33,-1.18,-0.62
-1,1,213,-23,-453,3859,-0.07,0.30,17.85,-0.23,-4.53,38.59,-6.59,1.28,4.27,4.39,-0.95,-0.47
5,3,129,16,-434,3910,-0.03,0.29,16.85,0.16,-4.34,39.10,-6.58,1.27,4.20,4.25,-0.98,1.01
7,4,120,-80,-468,3902,0.01,0.29,15.90,-0.80,-4.68,39.02,-6.60,1.27,4.14,4.21,-1.00,0.99
4,-5,105,40,-432,3914,0.04,0.23,14.95,0.40,-4.32,39.14,-6.60,1.26,4.08,4.26,-0.79,1.08
3,-3,96,-16,-451,3932,0.05,0.19,14.04,-0.16,-4.51,39.32,-6.59,1.25,4.02,4.28,-0.81,1.06
-2,7,122,-67,-449,3961,0.03,0.21,13.38,-0.67,-4.49,39.61,-6.58,1.24,3.97,4.38,-1.02,0.39
-5,4,123,-81,-464,3921,0.00,0.21,12.79,-0.81,-4.64,39.21,-6.60,1.24,3.92,4.46,-0.96,0.24
-9,3,146,85,-490,3877,-0.05,0.21,12.40,0.85,-4.90,38.77,-6.60,1.23,3.87,4.56,-0.93,-0.32
-13,6,148,-33,-504,3973,-0.13,0.23,12.06,-0.33,-5.04,39.73,-6.61,1.22,3.82,4.67,-0.99,-0.43
-6,-2,109,10,-503,3893,-0.15,0.19,11.52,0.10,-5.03,38.93,-6.62,1.21,3.78,4.53,-0.81,0.24
-10,0,116,5,-520,3892,-0.20,0.17,11.08,0.05,-5.20,38.92,-6.63,1.20,3.74,4.64,-0.84,0.00
-5,8,180,-71,-585,3902,-0.21,0.20,11.07,-0.71,-5.85,39.02,-6.65,1.20,3.69,4.55,-1.01,-1.30
-3,-7,205,58,-610,3912,-0.21,0.14,11.21,0.58,-6.10,39.12,-6.67,1.20,3.65,4.52,-0.69,-1.77
-1,11,247,-83,-566,3981,-0.19,0.19,11.60,-0.83,-5.66,39.81,-6.68,1.20,3.60,4.48,-1.07,-2.54
-2,-6,256,-16,-536,3870,-0.18,0.14,12.00,-0.16,-5.36,38.70,-6.70,1.20,3.55,4.51,-0.71,-2.63
-11,7,293,47,-611,3918,-0.23,0.17,12.59,0.47,-6.11,39.18,-6.71,1.19,3.50,4.72,-0.98,-3.25
4,25,305,2,-591,3877,-0.19,0.30,13.19,0.02,-5.91,38.77,-6.73,1.19,3.45,4.41,-1.38,-3.36
-4,7,314,18,-516,3942,-0.19,0.31,13.79,0.18,-5.16,39.42,-6.73,1.18,3.40,4.58,-1.01,-3.41
-8,20,321,39,-418,3942,-0.22,0.41,14.36,0.39,-4.18,39.42,-6.73,1.17,3.34,4.66,-1.29,-3.42
-6,25,356,88,-411,3899,-0.24,0.52,15.10,0.88,-4.11,38.99,-6.72,1.17,3.28,4.62,-1.42,-3.96
-5,2,392,179,-433,3972,-0.24,0.48,15.98,1.79,-4.33,39.72,-6.72,1.16,3.22,4.60,-0.93,-4.50
-5,9,421,13,-486,3869,-0.25,0.48,16.95,0.13,-4.86,38.69,-6.72,1.15,3.15,4.61,-1.07,-4.87
-5,11,422,-2,-430,3877,-0.25,0.50,17.83,-0.02,-4.30,38.77,-6.72,1.14,3.08,4.61,-1.11,-4.69
-4,1,390,-107,-418,3889,-0.25,0.46,18.43,-1.07,-4.18,38.89,-6.70,1.16,3.01,4.57,-0.91,-3.91
-11,20,386,-48,-418,3895,-0.30,0.54,18.94,-0.48,-4.18,38.95,-6.69,1.16,2.93,4.72,-1.32,-3.71
-22,-2,475,9,-374,3854,-0.40,0.47,19.94,0.09,-3.74,38.54,-6.68,1.16,2.85,4.96,-0.85,-5.29
-11,30,474,-6,-514,3887,-0.43,0.61,20.84,-0.06,-5.14,38.87,-6.69,1.16,2.77,4.75,-1.54,-5.07
-5,26,478,-49,-420,3920,-0.41,0.70,21.67,-0.49,-4.20,39.20,-6.67,1.16,2.68,4.62,-1.49,-4.96
-10,21,454,30,-492,3864,-0.43,0.76,22.27,0.30,-4.92,38.64,-6.68,1.16,2.60,4.73,-1.40,-4.33
-5,19,429,44,-458,3892,-0.42,0.80,22.66,0.44,-4.58,38.92,-6.68,1.15,2.51,4.63,-1.36,-3.74
-1,3,391,63,-382,3941,-0.39,0.74,22.78,0.63,-3.82,39.41,-6.67,1.15,2.42,4.53,-1.02,-2.93
3,17,350,-41,-645,3845,-0.33,0.77,22.64,-0.41,-6.45,38.45,-6.69,1.16,2.33,4.44,-1.32,-2.13
-15,1,370,90,-645,3911,-0.39,0.70,22.63,0.90,-6.45,39.11,-6.70,1.16,2.24,4.83,-0.98,-2.54
-8,-15,387,-10,-487,3952,-0.40,0.54,22.73,-0.10,-4.87,39.52,-6.71,1.16,2.15,4.70,-0.60,-2.86
7,22,375,-39,-488,3907,-0.31,0.62,22.74,-0.39,-4.88,39.07,-6.72,1.15,2.06,4.38,-1.38,-2.61
5,11,324,-28,-331,3884,-0.25,0.62,22.45,-0.28,-3.31,38.84,-6.70,1.16,1.97,4.39,-1.16,-1.63
-8,7,283,-84,-392,3988,-0.28,0.60,21.93,-0.84,-3.92,39.88,-6.68,1.17,1.88,4.65,-1.08,-0.91
2,9,225,-13,-432,3888,-0.24,0.60,21.11,-0.13,-4.32,38.88,-6.67,1.17,1.80,4.43,-1.12,0.09
2,1,155,-52,-387,3928,-0.20,0.54,19.94,-0.52,-3.87,39.28,-6.66,1.17,1.72,4.41,-0.94,1.25
0,1,81,-59,-442,3901,-0.18,0.50,18.44,-0.59,-4.42,39.01,-6.65,1.17,1.65,4.43,-0.93,2.42
-1,5,68,-49,-471,3925,-0.17,0.48,17.01,-0.49,-4.71,39.25,-6.65,1.16,1.58,4.46,-1.00,2.37
-5,4,77,16,-417,3939,-0.18,0.45,15.78,0.16,-4.17,39.39,-6.64,1.15,1.52,4.54,-0.97,1.91
-2,10,81,-6,-432,3914,-0.18,0.47,14.70,-0.06,-4.32,39.14,-6.64,1.14,1.46,4.47,-1.09,1.59
1,7,77,-96,-434,3936,-0.15,0.46,13.70,-0.96,-4.34,39.36,-6.62,1.16,1.40,4.39,-1.04,1.45
1,3,62,-100,-438,3908,-0.13,0.44,12.71,-1.00,-4.38,39.08,-6.61,1.18,1.35,4.38,-0.96,1.54
4,4,43,-49,-571,3883,-0.09,0.42,11.70,-0.49,-5.71,38.83,-6.63,1.19,1.31,4.32,-0.98,1.70
9,2,38,-57,-575,3893,-0.03,0.39,10.76,-0.57,-5.75,38.93,-6.64,1.19,1.26,4.21,-0.93,1.59
13,1,20,-61,-527,3928,0.05,0.36,9.81,-0.61,-5.27,39.28,-6.66,1.19,1.23,4.12,-0.90,1.75
5,1,20,-18,-486,3934,0.08,0.33,8.95,-0.18,-4.86,39.34,-6.67,1.18,1.19,4.28,-0.89,1.56
-2,0,11,-21,-477,3935,0.06,0.29,8.12,-0.21,-4.77,39.35,-6.67,1.17,1.16,4.43,-0.85,1.55
-3,1,9,-22,-474,3928,0.03,0.27,7.36,-0.22,-4.74,39.28,-6.67,1.15,1.13,4.46,-0.85,1.43
-4,0,3,-13,-471,3910,0.01,0.24,6.64,-0.13,-4.71,39.10,-6.68,1.14,1.10,4.49,-0.82,1.39
-3,-5,3,-32,-490,3939,-0.01,0.19,6.00,-0.32,-4.90,39.39,-6.69,1.13,1.08,4.48,-0.69,1.25
-3,-6,10,-28,-483,3899,-0.03,0.13,5.46,-0.28,-4.83,38.99,-6.70,1.11,1.06,4.49,-0.65,0.98
-3,-4,8,-28,-468,3914,-0.05,0.10,4.96,-0.28,-4.68,39.14,-6.70,1.10,1.04,4.49,-0.67,0.91
-1,-2,3,-15,-468,3901,-0.05,0.07,4.48,-0.15,-4.68,39.01,-6.70,1.08,1.02,4.46,-0.69,0.91
1,-2,3,-40,-486,3906,-0.04,0.05,4.05,-0.40,-4.86,39.06,-6.71,1.07,1.00,4.42,-0.68,0.81
2,-1,4,-3,-465,3905,-0.02,0.04,3.67,-0.03,-4.65,39.05,-6.71,1.05,0.99,4.40,-0.69,0.71
3,-3,5,-8,-473,3914,0.00,0.02,3.34,-0.08,-4.73,39.14,-6.72,1.04,0.98,4.37,-0.63,0.61
4,-4,7,-3,-463,3923,0.02,-0.01,3.05,-0.03,-4.63,39.23,-6.72,1.02,0.96,4.34,-0.59,0.51
3,-3,6,-11,-468,3917,0.04,-0.02,2.78,-0.11,-4.68,39.17,-6.72,1.00,0.95,4.36,-0.59,0.47
-1,-2,2,-5,-487,3929,0.03,-0.03,2.51,-0.05,-4.87,39.29,-6.72,0.99,0.94,4.45,-0.60,0.49
-2,-1,1,-9,-478,3936,0.02,-0.04,2.27,-0.09,-4.78,39.36,-6.73,0.97,0.93,4.48,-0.61,0.46
-3,-2,-2,-22,-487,3922,-0.00,-0.05,2.03,-0.22,-4.87,39.22,-6.74,0.96,0.93,4.51,-0.58,0.47
-3,-2,-1,-13,-479,3916,-0.02,-0.05,1.82,-0.13,-4.79,39.16,-6.74,0.94,0.92,4.52,-0.56,0.40
2,5,16,90,-542,3898,-0.01,-0.02,1.73,0.90,-5.42,38.98,-6.75,0.92,0.91,4.42,-0.71,0.03
0,3,31,70,-536,3896,-0.01,0.00,1.75,0.70,-5.36,38.96,-6.76,0.91,0.91,4.46,-0.66,-0.27
-6,2,42,29,-491,3913,-0.04,0.01,1.83,0.29,-4.91,39.13,-6.76,0.89,0.90,4.60,-0.63,-0.47
-5,10,35,-9,-479,3905,-0.07,0.07,1.86,-0.09,-4.79,39.05,-6.77,0.87,0.89,4.59,-0.80,-0.32
1,-2,39,-21,-491,3876,-0.06,0.05,1.91,-0.21,-4.91,38.76,-6.78,0.86,0.88,4.47,-0.54,-0.39
1,-7,39,24,-507,3896,-0.04,0.01,1.96,0.24,-5.07,38.96,-6.79,0.85,0.88,4.47,-0.42,-0.38
11,2,44,-6,-437,3904,0.03,0.02,2.03,-0.06,-4.37,39.04,-6.78,0.83,0.87,4.24,-0.59,-0.47
4,-5,44,-20,-389,3903,0.05,-0.01,2.10,-0.20,-3.89,39.03,-6.76,0.82,0.86,4.37,-0.44,-0.45
7,4,36,-24,-457,3926,0.09,0.01,2.11,-0.24,-4.57,39.26,-6.76,0.81,0.85,4.30,-0.62,-0.29
3,5,29,-41,-454,3943,0.10,0.04,2.07,-0.41,-4.54,39.43,-6.75,0.79,0.84,4.37,-0.64,-0.15
-3,3,8,-60,-457,3942,0.07,0.06,1.92,-0.60,-4.57,39.42,-6.73,0.80,0.84,4.48,-0.61,0.24
-7,2,5,-65,-462,3942,0.02,0.06,1.75,-0.65,-4.62,39.42,-6.72,0.82,0.83,4.58,-0.60,0.27
-11,1,-4,-27,-466,3914,-0.05,0.06,1.55,-0.27,-4.66,39.14,-6.73,0.81,0.82,4.68,-0.57,0.40
-7,0,-6,-23,-467,3899,-0.09,0.06,1.36,-0.23,-4.67,38.99,-6.73,0.79,0.82,4.61,-0.54,0.40
-4,-1,-6,-12,-468,3905,-0.10,0.04,1.19,-0.12,-4.68,39.05,-6.73,0.77,0.81,4.55,-0.50,0.36
-1,1,-7,-1,-487,3900,-0.10,0.05,1.03,-0.01,-4.87,39.00,-6.74,0.76,0.81,4.50,-0.53,0.35
4,1,-7,-12,-472,3929,-0.06,0.05,0.88,-0.12,-4.72,39.29,-6.75,0.74,0.80,4.39,-0.52,0.32
3,0,-9,-33,-462,3922,-0.04,0.04,0.74,-0.33,-4.62,39.22,-6.74,0.72,0.80,4.40,-0.49,0.32
3,0,-11,-20,-464,3912,-0.02,0.04,0.60,-0.20,-4.64,39.12,-6.75,0.70,0.80,4.40,-0.47,0.33
4,0,-12,-9,-459,3909,0.01,0.03,0.47,-0.09,-4.59,39.09,-6.74,0.68,0.80,4.37,-0.46,0.32
5,0,-17,-10,-456,3911,0.04,0.03,0.31,-0.10,-4.56,39.11,-6.74,0.67,0.80,4.34,-0.45,0.39
6,-2,-18,-32,-456,3932,0.07,0.02,0.17,-0.32,-4.56,39.32,-6.73,0.65,0.80,4.30,-0.39,0.38
0,1,-14,-32,-486,3934,0.06,0.02,0.07,-0.32,-4.86,39.34,-6.75,0.64,0.80,4.44,-0.45,0.28
-2,1,-14,-18,-474,3924,0.05,0.02,-0.02,-0.18,-4.74,39.24,-6.75,0.63,0.80,4.49,-0.44,0.26
-2,2,-12,-24,-484,3921,0.03,0.03,-0.09,-0.24,-4.84,39.21,-6.77,0.61,0.80,4.50,-0.45,0.20
-2,2,-11,-26,-476,3914,0.01,0.04,-0.15,-0.26,-4.76,39.14,-6.78,0.60,0.80,4.51,-0.45,0.17
1,0,-8,2,-480,3903,0.02,0.04,-0.18,0.02,-4.80,39.03,-6.78,0.58,0.80,4.45,-0.39,0.10
2,1,-9,26,-497,3903,0.03,0.04,-0.22,0.26,-4.97,39.03,-6.79,0.56,0.80,4.43,-0.40,0.11
10,-1,-16,-5,-486,3938,0.09,0.03,-0.30,-0.05,-4.86,39.38,-6.80,0.55,0.80,4.26,-0.35,0.24
7,0,-17,-50,-468,3944,0.12,0.03,-0.37,-0.50,-4.68,39.44,-6.79,0.57,0.80,4.31,-0.38,0.24
0,1,-15,-44,-473,3932,0.11,0.03,-0.42,-0.44,-4.73,39.32,-6.81,0.58,0.80,4.46,-0.41,0.19
-1,0,-15,-25,-469,3930,0.09,0.03,-0.47,-0.25,-4.69,39.30,-6.81,0.56,0.81,4.49,-0.38,0.18
0,0,-13,-12,-465,3890,0.08,0.03,-0.51,-0.12,-4.65,38.90,-6.81,0.54,0.81,4.47,-0.36,0.13
1,1,-13,-1,-466,3906,0.08,0.03,-0.53,-0.01,-4.66,39.06,-6.81,0.52,0.81,4.45,-0.37,0.12
-1,4,-14,8,-496,3932,0.07,0.05,-0.57,0.08,-4.96,39.32,-6.82,0.51,0.81,4.50,-0.43,0.13
-3,3,-17,20,-480,3932,0.04,0.06,-0.61,0.20,-4.80,39.32,-6.82,0.49,0.81,4.55,-0.40,0.18
-2,2,-22,15,-460,3912,0.02,0.07,-0.69,0.15,-4.60,39.12,-6.82,0.47,0.82,4.53,-0.37,0.27
-1,2,-22,23,-462,3906,0.02,0.07,-0.75,0.23,-4.62,39.06,-6.81,0.45,0.82,4.51,-0.36,0.25
8,-2,-27,-51,-436,3904,0.06,0.05,-0.84,-0.51,-4.36,39.04,-6.80,0.46,0.82,4.31,-0.28,0.34
7,-1,-29,-52,-440,3916,0.10,0.04,-0.93,-0.52,-4.40,39.16,-6.78,0.47,0.83,4.31,-0.30,0.36
13,-4,-36,-51,-456,3939,0.17,0.01,-1.06,-0.51,-4.56,39.39,-6.77,0.49,0.83,4.16,-0.25,0.47
15,0,-40,-36,-466,3937,0.24,0.01,-1.20,-0.36,-4.66,39.37,-6.76,0.50,0.84,4.09,-0.34,0.52
1,-7,-39,-33,-488,3925,0.23,-0.03,-1.32,-0.33,-4.88,39.25,-6.78,0.50,0.84,4.39,-0.18,0.47
-2,-7,-42,-27,-469,3931,0.19,-0.07,-1.44,-0.27,-4.69,39.31,-6.78,0.48,0.85,4.46,-0.16,0.51
-5,-6,-50,15,-454,3925,0.14,-0.10,-1.60,0.15,-4.54,39.25,-6.78,0.46,0.85,4.54,-0.16,0.63
-7,-4,-53,25,-451,3933,0.08,-0.11,-1.76,0.25,-4.51,39.33,-6.77,0.44,0.86,4.59,-0.18,0.66
-8,0,-45,-93,-544,3931,0.03,-0.10,-1.86,-0.93,-5.44,39.31,-6.79,0.45,0.87,4.63,-0.27,0.47
-8,0,-36,-58,-525,3919,-0.02,-0.09,-1.90,-0.58,-5.25,39.19,-6.80,0.46,0.87,4.66,-0.28,0.28
-3,1,-28,-22,-466,3892,-0.04,-0.08,-1.88,-0.22,-4.66,38.92,-6.81,0.44,0.88,4.56,-0.29,0.12
-2,0,-31,1,-436,3886,-0.05,-0.07,-1.88,0.01,-4.36,38.86,-6.79,0.43,0.89,4.54,-0.26,0.18
9,-3,-41,-63,-472,3915,0.01,-0.08,-1.94,-0.63,-4.72,39.15,-6.80,0.44,0.90,4.30,-0.21,0.37
11,-1,-35,-46,-492,3913,0.08,-0.08,-1.96,-0.46,-4.92,39.13,-6.81,0.45,0.91,4.25,-0.26,0.25
9,1,-19,-39,-474,3909,0.12,-0.06,-1.88,-0.39,-4.74,39.09,-6.82,0.46,0.91,4.29,-0.31,-0.06
6,0,-21,-15,-474,3931,0.15,-0.06,-1.82,-0.15,-4.74,39.31,-6.83,0.45,0.92,4.34,-0.28,-0.01
2,-1,-18,-17,-500,3919,0.15,-0.06,-1.75,-0.17,-5.00,39.19,-6.84,0.44,0.93,4.44,-0.25,-0.05
1,-2,-18,-9,-487,3908,0.14,-0.07,-1.68,-0.09,-4.87,39.08,-6.85,0.42,0.93,4.47,-0.22,-0.04
-2,-5,-27,-12,-481,3916,0.11,-0.09,-1.68,-0.12,-4.81,39.16,-6.86,0.41,0.94,4.54,-0.14,0.15
2,-2,-29,-6,-497,3940,0.11,-0.09,-1.69,-0.06,-4.97,39.40,-6.88,0.39,0.95,4.47,-0.19,0.18
2,1,-23,-14,-510,3936,0.11,-0.08,-1.66,-0.14,-5.10,39.36,-6.89,0.38,0.95,4.48,-0.25,0.07
1,1,-23,-4,-505,3934,0.11,-0.06,-1.63,-0.04,-5.05,39.34,-6.91,0.37,0.96,4.51,-0.25,0.07
-4,4,-24,-24,-469,3935,0.07,-0.03,-1.62,-0.24,-4.69,39.35,-6.89,0.37,0.97,4.61,-0.31,0.10
-8,5,-25,-36,-468,3941,0.02,0.00,-1.61,-0.36,-4.68,39.41,-6.88,0.38,0.97,4.70,-0.35,0.12
-11,7,-30,27,-497,3915,-0.05,0.04,-1.63,0.27,-4.97,39.15,-6.89,0.36,0.98,4.78,-0.39,0.22
-6,5,-40,39,-504,3893,-0.08,0.07,-1.71,0.39,-5.04,38.93,-6.89,0.35,0.99,4.70,-0.35,0.40
-9,0,-49,25,-456,3893,-0.13,0.06,-1.84,0.25,-4.56,38.93,-6.89,0.33,0.99,4.77,-0.23,0.56
-5,-1,-58,61,-456,3874,-0.15,0.05,-2.01,0.61,-4.56,38.74,-6.89,0.31,1.00,4.69,-0.20,0.70
-2,0,-63,3,-470,3894,-0.14,0.05,-2.19,0.03,-4.70,38.94,-6.89,0.29,1.01,4.63,-0.20,0.76
-3,2,-68,28,-472,3902,-0.15,0.05,-2.39,0.28,-4.72,39.02,-6.89,0.27,1.02,4.65,-0.23,0.82
-5,-2,-79,20,-424,3913,-0.16,0.04,-2.63,0.20,-4.24,39.13,-6.88,0.26,1.03,4.68,-0.14,0.99
-3,4,-85,-28,-463,3957,-0.17,0.06,-2.89,-0.28,-4.63,39.57,-6.86,0.27,1.04,4.63,-0.27,1.05
-7,-5,-90,-6,-439,3897,-0.19,0.02,-3.15,-0.06,-4.39,38.97,-6.85,0.26,1.05,4.71,-0.08,1.10
-4,-1,-91,3,-466,3883,-0.20,0.01,-3.39,0.03,-4.66,38.83,-6.85,0.24,1.07,4.65,-0.14,1.06
12,0,-106,-31,-454,3930,-0.10,0.01,-3.70,-0.31,-4.54,39.30,-6.83,0.25,1.08,4.29,-0.17,1.30
4,-3,-103,-24,-436,3945,-0.07,-0.01,-3.95,-0.24,-4.36,39.45,-6.81,0.25,1.10,4.44,-0.10,1.18
1,6,-126,45,-495,3914,-0.06,0.03,-4.33,0.45,-4.95,39.14,-6.82,0.23,1.12,4.50,-0.28,1.56
-1,4,-127,-19,-518,3922,-0.06,0.05,-4.67,-0.19,-5.18,39.22,-6.84,0.23,1.13,4.55,-0.25,1.51
-3,-1,-144,-10,-389,3944,-0.07,0.04,-5.08,-0.10,-3.89,39.44,-6.82,0.23,1.15,4.58,-0.14,1.76
-4,5,-143,-42,-482,3899,-0.09,0.07,-5.44,-0.42,-4.82,38.99,-6.83,0.24,1.18,4.61,-0.28,1.66
-1,2,-148,-51,-479,3903,-0.08,0.07,-5.80,-0.51,-4.79,39.03,-6.84,0.26,1.20,4.56,-0.23,1.68
0,-1,-142,-41,-505,3932,-0.08,0.06,-6.09,-0.41,-5.05,39.32,-6.85,0.26,1.22,4.54,-0.17,1.49
6,5,-170,-23,-433,3925,-0.03,0.08,-6.52,-0.23,-4.33,39.25,-6.84,0.26,1.25,4.40,-0.30,1.96
3,-2,-167,-108,-452,3965,-0.01,0.06,-6.88,-1.08,-4.52,39.65,-6.83,0.28,1.28,4.45,-0.16,1.82
3,-12,-203,78,-420,3903,0.01,-0.02,-7.43,0.78,-4.20,39.03,-6.82,0.26,1.31,4.44,0.08,2.43
8,-6,-232,-76,-548,3868,0.06,-0.05,-8.11,-0.76,-5.48,38.68,-6.84,0.26,1.34,4.34,-0.04,2.87
13,-7,-247,-57,-403,3925,0.13,-0.09,-8.80,-0.57,-4.03,39.25,-6.82,0.27,1.37,4.20,-0.01,3.02
9,-11,-256,-36,-461,3887,0.17,-0.15,-9.48,-0.36,-4.61,38.87,-6.82,0.28,1.41,4.27,0.08,3.05
5,-2,-245,-65,-407,3965,0.19,-0.15,-10.03,-0.65,-4.07,39.65,-6.80,0.29,1.45,4.34,-0.11,2.70
-1,-14,-263,-26,-469,3906,0.16,-0.22,-10.63,-0.26,-4.69,39.06,-6.81,0.30,1.49,4.47,0.15,2.93
0,-7,-313,-48,-549,3881,0.14,-0.24,-11.48,-0.48,-5.49,38.81,-6.83,0.30,1.54,4.47,0.01,3.75
1,-7,-329,28,-505,3891,0.14,-0.26,-12.34,0.28,-5.05,38.91,-6.84,0.28,1.59,4.46,0.03,3.89
-2,-3,-309,4,-410,3945,0.11,-0.25,-12.99,0.04,-4.10,39.45,-6.82,0.26,1.64,4.51,-0.04,3.33
-2,-14,-317,65,-384,3922,0.09,-0.31,-13.62,0.65,-3.84,39.22,-6.81,0.24,1.69,4.51,0.21,3.35
2,4,-338,-5,-519,3891,0.09,-0.25,-14.32,-0.05,-5.19,38.91,-6.83,0.23,1.75,4.44,-0.16,3.62
0,-14,-337,-39,-442,3947,0.08,-0.31,-14.95,-0.39,-4.42,39.47,-6.81,0.23,1.81,4.47,0.22,3.46
5,-5,-385,-34,-410,3956,0.10,-0.31,-15.80,-0.34,-4.10,39.56,-6.79,0.23,1.87,4.35,0.04,4.24
-3,-10,-362,3,-565,3827,0.08,-0.34,-16.43,0.03,-5.65,38.27,-6.81,0.22,1.94,4.54,0.15,3.63
0,-1,-303,-42,-337,3932,0.07,-0.31,-16.63,-0.42,-3.37,39.32,-6.79,0.21,2.00,4.47,-0.03,2.39
-1,-9,-300,53,-362,3915,0.05,-0.34,-16.80,0.53,-3.62,39.15,-6.78,0.19,2.07,4.48,0.15,2.29
9,-3,-295,-49,-506,3981,0.10,-0.32,-16.92,-0.49,-5.06,39.81,-6.79,0.20,2.14,4.27,0.02,2.16
11,-9,-306,-24,-457,3888,0.16,-0.35,-17.09,-0.24,-4.57,38.88,-6.78,0.20,2.20,4.21,0.14,2.34
-2,-18,-338,-99,-550,3872,0.13,-0.42,-17.45,-0.99,-5.50,38.72,-6.79,0.21,2.27,4.49,0.35,2.91
-7,-3,-337,-96,-538,3946,0.08,-0.40,-17.76,-0.96,-5.38,39.46,-6.81,0.21,2.34,4.61,0.03,2.82
0,-7,-307,19,-377,3915,0.07,-0.40,-17.85,0.19,-3.77,39.15,-6.79,0.19,2.41,4.46,0.12,2.18
-3,8,-286,-80,-524,3856,0.04,-0.31,-17.81,-0.80,-5.24,38.56,-6.80,0.20,2.48,4.54,-0.21,1.76
20,2,-297,-53,-437,3936,0.16,-0.27,-17.84,-0.53,-4.37,39.36,-6.79,0.20,2.55,4.03,-0.10,1.98
16,-4,-295,7,-436,3894,0.24,-0.27,-17.86,0.07,-4.36,38.94,-6.77,0.18,2.63,4.08,0.03,1.93
10,-5,-345,-164,-405,3951,0.28,-0.27,-18.18,-1.64,-4.05,39.51,-6.77,0.19,2.70,4.19,0.05,2.87
0,-9,-349,-223,-364,3945,0.25,-0.30,-18.49,-2.23,-3.64,39.45,-6.76,0.19,2.77,4.39,0.14,2.88
10,-27,-374,-11,-351,3875,0.29,-0.43,-18.92,-0.11,-3.51,38.75,-6.74,0.18,2.85,4.17,0.55,3.29
-1,-10,-387,-8,-411,3909,0.25,-0.45,-19.39,-0.08,-4.11,39.09,-6.72,0.17,2.92,4.39,0.21,3.45
2,-20,-338,112,-303,3948,0.24,-0.53,-19.51,1.12,-3.03,39.48,-6.70,0.15,3.00,4.32,0.45,2.42
5,3,-346,2,-425,3923,0.25,-0.46,-19.67,0.02,-4.25,39.23,-6.69,0.13,3.08,4.24,-0.02,2.55
0,-9,-319,-36,-376,3997,0.22,-0.47,-19.65,-0.36,-3.76,39.97,-6.67,0.13,3.16,4.34,0.23,2.00
-3,-7,-330,79,-522,3849,0.18,-0.46,-19.70,0.79,-5.22,38.49,-6.68,0.10,3.23,4.42,0.20,2.21
4,-10,-320,-110,-450,3940,0.19,-0.48,-19.68,-1.10,-4.50,39.40,-6.68,0.11,3.31,4.27,0.26,2.01
14,-8,-334,-92,-393,3959,0.25,-0.48,-19.75,-0.92,-3.93,39.59,-6.66,0.11,3.39,4.04,0.22,2.28
4,-3,-394,-75,-508,4074,0.25,-0.45,-20.18,-0.75,-5.08,40.74,-6.67,0.12,3.47,4.25,0.11,3.40
5,-12,-411,-11,-442,3812,0.26,-0.48,-20.67,-0.11,-4.42,38.12,-6.66,0.12,3.55,4.22,0.30,3.63
4,11,-474,-241,-602,3845,0.26,-0.36,-21.49,-2.41,-6.02,38.45,-6.66,0.12,3.64,4.25,-0.20,4.73
-2,-31,-475,24,-412,3964,0.22,-0.51,-22.24,0.24,-4.12,39.64,-6.65,0.10,3.72,4.37,0.71,4.58
2,-26,-497,-28,-355,3973,0.21,-0.62,-23.05,-0.28,-3.55,39.73,-6.63,0.09,3.82,4.28,0.64,4.84
8,0,-485,-104,-431,3982,0.24,-0.56,-23.70,-1.04,-4.31,39.82,-6.62,0.09,3.91,4.14,0.09,4.45
9,-13,-410,165,-398,3946,0.27,-0.58,-23.83,1.65,-3.98,39.46,-6.62,0.06,4.00,4.11,0.38,2.89
4,-30,-398,-39,-197,3986,0.27,-0.71,-23.88,-0.39,-1.97,39.86,-6.60,0.05,4.10,4.20,0.77,2.64
7,-21,-376,128,-441,3807,0.28,-0.76,-23.78,1.28,-4.41,38.07,-6.60,0.02,4.19,4.13,0.62,2.21
3,10,-383,-110,-629,3945,0.27,-0.63,-23.74,-1.10,-6.29,39.45,-6.61,0.02,4.29,4.23,-0.04,2.36
-1,-9,-358,-27,-516,4011,0.24,-0.62,-23.55,-0.27,-5.16,40.11,-6.63,0.01,4.38,4.33,0.35,1.89
-3,-13,-366,-32,-512,3859,0.20,-0.64,-23.43,-0.32,-5.12,38.59,-6.64,0.00,4.47,4.39,0.43,2.08
-3,-15,-403,-114,-565,3886,0.16,-0.66,-23.54,-1.14,-5.65,38.86,-6.65,0.00,4.57,4.41,0.48,2.80
1,-2,-413,-131,-580,3897,0.15,-0.61,-23.71,-1.31,-5.80,38.97,-6.67,0.00,4.66,4.34,0.20,2.96
11,-13,-455,-1,-478,3882,0.20,-0.63,-24.11,-0.01,-4.78,38.82,-6.68,-0.01,4.76,4.13,0.44,3.72
8,-19,-471,0,-444,3898,0.23,-0.68,-24.58,0.00,-4.44,38.98,-6.66,-0.02,4.85,4.17,0.59,3.94
7,17,-437,14,-662,3856,0.25,-0.51,-24.78,0.14,-6.62,38.56,-6.68,-0.04,4.95,4.20,-0.18,3.20
4,-6,-402,47,-397,4070,0.25,-0.50,-24.76,0.47,-3.97,40.70,-6.66,-0.06,5.05,4.25,0.30,2.49
5,-10,-416,-64,-574,3832,0.25,-0.51,-24.82,-0.64,-5.74,38.32,-6.68,-0.06,5.15,4.24,0.38,2.76
1,6,-383,-82,-561,3961,0.24,-0.42,-24.67,-0.82,-5.61,39.61,-6.69,-0.07,5.25,4.33,0.04,2.12
12,-10,-446,-46,-448,3907,0.28,-0.44,-24.93,-0.46,-4.48,39.07,-6.69,-0.06,5.34,4.09,0.36,3.34
9,11,-424,-98,-578,3832,0.31,-0.33,-25.02,-0.98,-5.78,38.32,-6.70,-0.06,5.44,4.15,-0.09,2.87
11,-19,-364,70,-358,3906,0.35,-0.41,-24.74,0.70,-3.58,39.06,-6.68,-0.09,5.54,4.09,0.55,1.71
4,-15,-366,-20,-535,3904,0.34,-0.46,-24.50,-0.20,-5.35,39.04,-6.70,-0.09,5.64,4.25,0.49,1.80
-4,-7,-374,-98,-531,3865,0.28,-0.46,-24.33,-0.98,-5.31,38.65,-6.71,-0.09,5.74,4.43,0.33,2.00
-1,-9,-379,-79,-591,3937,0.24,-0.47,-24.21,-0.79,-5.91,39.37,-6.72,-0.09,5.83,4.39,0.37,2.12
4,-4,-401,-70,-506,3830,0.24,-0.44,-24.23,-0.70,-5.06,38.30,-6.73,-0.09,5.93,4.29,0.26,2.56
9,-9,-434,-38,-480,3905,0.28,-0.46,-24.46,-0.38,-4.80,39.05,-6.74,-0.09,6.02,4.19,0.37,3.18
21,-2,-411,64,-431,3965,0.38,-0.42,-24.52,0.64,-4.31,39.65,-6.73,-0.12,6.12,3.91,0.23,2.70
5,-20,-389,58,-417,3865,0.37,-0.50,-24.44,0.58,-4.17,38.65,-6.71,-0.15,6.22,4.23,0.64,2.26
7,-8,-365,18,-458,4007,0.37,-0.50,-24.22,0.18,-4.58,40.07,-6.70,-0.17,6.31,4.17,0.41,1.82
9,-8,-358,32,-407,3881,0.39,-0.50,-23.98,0.32,-4.07,38.81,-6.68,-0.19,6.41,4.12,0.42,1.73
2,-6,-336,1,-442,3918,0.36,-0.49,-23.64,0.01,-4.42,39.18,-6.66,-0.19,6.50,4.26,0.38,1.36
0,-3,-321,-2,-498,3932,0.33,-0.46,-23.23,-0.02,-4.98,39.32,-6.68,-0.20,6.59,4.32,0.31,1.14
-2,-11,-342,-106,-523,3915,0.28,-0.48,-22.99,-1.06,-5.23,39.15,-6.68,-0.19,6.69,4.37,0.48,1.62
0,0,-348,-85,-554,3895,0.26,-0.43,-22.82,-0.85,-5.54,38.95,-6.69,-0.19,6.78,4.35,0.24,1.78
8,-20,-396,-45,-522,3892,0.28,-0.51,-22.95,-0.45,-5.22,38.92,-6.71,-0.19,6.87,4.19,0.67,2.72
7,-12,-432,-39,-476,3987,0.29,-0.53,-23.29,-0.39,-4.76,39.87,-6.71,-0.19,6.96,4.20,0.51,3.37
-1,-9,-464,-11,-515,3878,0.26,-0.53,-23.79,-0.11,-5.15,38.78,-6.72,-0.19,7.05,4.39,0.46,3.91
5,-8,-485,-49,-449,3973,0.26,-0.53,-24.37,-0.49,-4.49,39.73,-6.72,-0.19,7.15,4.26,0.43,4.20
10,-20,-507,50,-300,3991,0.30,-0.60,-25.03,0.50,-3.00,39.91,-6.70,-0.21,7.25,4.14,0.71,4.50
3,-11,-540,-35,-397,3829,0.29,-0.60,-25.82,-0.35,-3.97,38.29,-6.68,-0.21,7.35,4.27,0.53,4.99
-8,-9,-505,1,-483,3860,0.21,-0.60,-26.32,0.01,-4.83,38.60,-6.70,-0.22,7.46,4.53,0.49,4.17
-2,-27,-523,34,-345,3935,0.18,-0.70,-26.88,0.34,-3.45,39.35,-6.68,-0.24,7.56,4.40,0.90,4.41
5,6,-521,-39,-390,3880,0.19,-0.60,-27.37,-0.39,-3.90,38.80,-6.66,-0.24,7.67,4.25,0.20,4.25
-5,-33,-496,62,-403,4051,0.14,-0.74,-27.65,0.62,-4.03,40.51,-6.65,-0.26,7.78,4.45,1.05,3.68
0,-11,-516,-193,-443,3866,0.13,-0.73,-28.04,-1.93,-4.43,38.66,-6.65,-0.26,7.89,4.35,0.60,3.99
4,-14,-511,-95,-441,3961,0.14,-0.74,-28.35,-0.95,-4.41,39.61,-6.64,-0.26,8.00,4.26,0.66,3.82
10,-15,-580,-110,-417,3993,0.18,-0.76,-29.05,-1.10,-4.17,39.93,-6.63,-0.26,8.12,4.12,0.68,5.06
5,-4,-595,-214,-389,3847,0.20,-0.71,-29.78,-2.14,-3.89,38.47,-6.63,-0.26,8.24,4.22,0.44,5.20
-1,-22,-662,-78,-371,3988,0.17,-0.77,-30.84,-0.78,-3.71,39.88,-6.61,-0.26,8.36,4.34,0.83,6.32
17,-12,-693,-149,-246,4022,0.26,-0.77,-31.98,-1.49,-2.46,40.22,-6.60,-0.27,8.49,3.94,0.63,6.69
16,-24,-725,-94,-322,3999,0.33,-0.84,-33.21,-0.94,-3.22,39.99,-6.58,-0.28,8.62,3.93,0.90,7.07
13,-30,-730,-117,-388,3927,0.38,-0.94,-34.34,-1.17,-3.88,39.27,-6.57,-0.28,8.75,3.97,1.05,6.91
13,-12,-745,40,-399,3861,0.42,-0.92,-35.45,0.40,-3.99,38.61,-6.55,-0.31,8.89,3.95,0.70,6.96
1,-29,-753,-3,-446,3989,0.38,-1.00,-36.50,-0.03,-4.46,39.89,-6.54,-0.31,9.04,4.19,1.07,6.89
4,-16,-715,-167,-461,3765,0.37,-1.00,-37.21,-1.67,-4.61,37.65,-6.54,-0.31,9.19,4.14,0.80,5.95
19,-20,-705,-67,-535,3877,0.45,-1.02,-37.79,-0.67,-5.35,38.77,-6.55,-0.32,9.34,3.82,0.90,5.62
6,-24,-646,-5,-314,4014,0.44,-1.07,-37.95,-0.05,-3.14,40.14,-6.53,-0.34,9.49,4.07,1.00,4.38
20,-4,-639,174,-354,3909,0.52,-0.98,-38.05,1.74,-3.54,39.09,-6.52,-0.38,9.64,3.76,0.60,4.21
16,-3,-576,16,-405,3892,0.56,-0.90,-37.76,0.16,-4.05,38.92,-6.50,-0.39,9.79,3.81,0.57,2.98
4,-10,-581,-62,-595,3858,0.53,-0.87,-37.53,-0.62,-5.95,38.58,-6.51,-0.40,9.94,4.07,0.71,3.13
7,-13,-537,-114,-503,3993,0.52,-0.87,-37.05,-1.14,-5.03,39.93,-6.51,-0.41,10.08,4.02,0.77,2.34
12,-11,-555,12,-495,3885,0.54,-0.85,-36.73,0.12,-4.95,38.85,-6.53,-0.42,10.23,3.92,0.73,2.77
9,-13,-544,-26,-524,3912,0.54,-0.84,-36.38,-0.26,-5.24,39.12,-6.54,-0.43,10.37,3.99,0.78,2.63
6,-8,-546,-21,-487,3954,0.52,-0.81,-36.07,-0.21,-4.87,39.54,-6.55,-0.44,10.52,4.06,0.67,2.73
9,-7,-507,56,-532,3878,0.53,-0.77,-35.56,0.56,-5.32,38.78,-6.56,-0.46,10.66,4.00,0.66,2.05
23,-11,-510,-15,-362,4024,0.61,-0.76,-35.11,-0.15,-3.62,40.24,-6.54,-0.47,10.80,3.68,0.74,2.20
8,-33,-536,-123,-376,3942,0.60,-0.88,-34.87,-1.23,-3.76,39.42,-6.53,-0.47,10.93,3.98,1.22,2.78
11,-5,-508,-93,-484,3842,0.61,-0.83,-34.48,-0.93,-4.84,38.42,-6.53,-0.48,11.07,3.92,0.64,2.30
3,-13,-381,89,-577,3830,0.57,-0.82,-33.36,0.89,-5.77,38.30,-6.55,-0.50,11.20,4.10,0.82,-0.04
2,-8,-361,184,-671,3842,0.52,-0.79,-32.22,1.84,-6.71,38.42,-6.56,-0.53,11.33,4.15,0.73,-0.20
8,-11,-330,-222,-373,3915,0.52,-0.78,-31.01,-2.22,-3.73,39.15,-6.55,-0.53,11.45,4.02,0.78,-0.56
2,-14,-336,-102,-456,3925,0.48,-0.78,-29.96,-1.02,-4.56,39.25,-6.55,-0.53,11.57,4.15,0.85,-0.21
2,-14,-318,21,-476,3917,0.44,-0.79,-28.91,0.21,-4.76,39.17,-6.56,-0.53,11.69,4.17,0.85,-0.34
3,4,-302,-103,-521,3890,0.42,-0.69,-27.86,-1.03,-5.21,38.90,-6.57,-0.53,11.80,4.16,0.46,-0.43
2,2,-268,-150,-427,3909,0.39,-0.61,-26.71,-1.50,-4.27,39.09,-6.56,-0.53,11.90,4.18,0.47,-0.87
3,6,-242,32,-580,3792,0.37,-0.51,-25.51,0.32,-5.80,37.92,-6.58,-0.54,12.00,4.18,0.38,-1.14
-4,-15,-266,-52,-486,3877,0.31,-0.55,-24.58,-0.52,-4.86,38.77,-6.58,-0.54,12.10,4.34,0.81,-0.44
12,2,-288,-78,-416,3968,0.35,-0.48,-23.88,-0.78,-4.16,39.68,-6.57,-0.54,12.20,4.00,0.44,0.16
5,2,-318,-16,-494,3926,0.34,-0.42,-23.43,-0.16,-4.94,39.26,-6.58,-0.53,12.29,4.15,0.43,0.86
3,-5,-311,-44,-413,3889,0.33,-0.41,-22.99,-0.44,-4.13,38.89,-6.57,-0.53,12.38,4.19,0.56,0.82
6,-10,-314,-49,-392,3860,0.33,-0.43,-22.60,-0.49,-3.92,38.60,-6.56,-0.53,12.47,4.12,0.67,0.96
10,-8,-318,-40,-433,3922,0.36,-0.44,-22.28,-0.40,-4.33,39.22,-6.55,-0.52,12.56,4.02,0.62,1.11
-1,-3,-291,-39,-606,3869,0.32,-0.41,-21.83,-0.39,-6.06,38.69,-6.57,-0.52,12.64,4.27,0.52,0.66
4,13,-260,-10,-466,3922,0.31,-0.29,-21.23,-0.10,-4.66,39.22,-6.57,-0.52,12.73,4.17,0.16,0.16
