gyroADC_X,gyroADC_Y,gyroADC_Z,accADC_X,accADC_Y,accADC_Z,GyroX,GyroY,GyroZ,AccX,AccY,AccZ,roll_IMU,pitch_IMU,yaw_IMU,roll_PID,pitch_PID,yaw_PID
-5,-4,4,1,-336,3902,-0.12,-0.20,0.27,0.01,-3.36,39.02,-5.08,0.11,43.62,3.49,0.07,-8.01
-3,-2,8,14,-343,3911,-0.13,-0.19,0.29,0.14,-3.43,39.11,-5.08,0.09,43.62,3.45,0.03,-8.21
1,-1,6,-19,-345,3901,-0.11,-0.18,0.30,-0.19,-3.45,39.01,-5.07,0.11,43.62,3.36,-0.00,-8.10
0,0,7,-30,-342,3901,-0.10,-0.16,0.31,-0.30,-3.42,39.01,-5.07,0.12,43.62,3.37,-0.04,-8.15
-1,0,3,-34,-345,3902,-0.09,-0.15,0.30,-0.34,-3.45,39.02,-5.07,0.14,43.62,3.39,-0.05,-7.95
0,1,3,-23,-345,3913,-0.09,-0.13,0.29,-0.23,-3.45,39.13,-5.07,0.16,43.62,3.37,-0.09,-7.95
-2,-5,4,-24,-347,3916,-0.09,-0.14,0.28,-0.24,-3.47,39.16,-5.07,0.18,43.61,3.41,0.02,-8.00
-4,-5,6,-7,-344,3916,-0.10,-0.16,0.29,-0.07,-3.44,39.16,-5.06,0.16,43.61,3.45,0.04,-8.10
-6,-7,21,-17,-365,3894,-0.13,-0.19,0.39,-0.17,-3.65,38.94,-5.08,0.17,43.61,3.51,0.08,-8.85
-3,-5,23,-6,-349,3881,-0.14,-0.20,0.49,-0.06,-3.49,38.81,-5.09,0.15,43.61,3.46,0.06,-8.93
-1,-4,15,9,-332,3917,-0.13,-0.20,0.53,0.09,-3.32,39.17,-5.08,0.14,43.61,3.41,0.05,-8.52
0,-2,14,-13,-335,3918,-0.12,-0.19,0.57,-0.13,-3.35,39.18,-5.06,0.14,43.60,3.37,0.00,-8.46
1,2,18,-19,-342,3911,-0.10,-0.16,0.62,-0.19,-3.42,39.11,-5.05,0.16,43.60,3.34,-0.10,-8.66
2,3,20,-25,-335,3914,-0.08,-0.13,0.68,-0.25,-3.35,39.14,-5.04,0.17,43.60,3.31,-0.14,-8.75
6,11,27,-41,-348,3923,-0.03,-0.05,0.78,-0.41,-3.48,39.23,-5.04,0.19,43.60,3.22,-0.34,-9.09
5,11,33,-29,-348,3909,0.00,0.02,0.90,-0.29,-3.48,39.09,-5.05,0.21,43.59,3.23,-0.37,-9.37
8,11,33,15,-314,3953,0.05,0.09,1.01,0.15,-3.14,39.53,-5.03,0.20,43.59,3.14,-0.38,-9.35
6,10,25,42,-348,3889,0.08,0.14,1.06,0.42,-3.48,38.89,-5.03,0.18,43.58,3.18,-0.36,-8.93
3,6,10,26,-359,3879,0.09,0.16,1.02,0.26,-3.59,38.79,-5.04,0.16,43.58,3.24,-0.27,-8.18
4,6,7,24,-364,3894,0.11,0.18,0.96,0.24,-3.64,38.94,-5.05,0.15,43.58,3.22,-0.27,-8.03
2,4,2,7,-359,3895,0.11,0.19,0.87,0.07,-3.59,38.95,-5.06,0.14,43.57,3.27,-0.22,-7.79
1,4,-2,-1,-363,3902,0.10,0.19,0.77,-0.01,-3.63,39.02,-5.08,0.13,43.57,3.30,-0.22,-7.61
-1,0,-6,-22,-374,3919,0.09,0.18,0.66,-0.22,-3.74,39.19,-5.09,0.14,43.57,3.36,-0.14,-7.42
-1,-1,-7,-15,-345,3900,0.07,0.15,0.55,-0.15,-3.45,39.00,-5.09,0.16,43.57,3.36,-0.12,-7.39
-3,-4,-15,-13,-311,3898,0.05,0.11,0.41,-0.13,-3.11,38.98,-5.07,0.16,43.56,3.39,-0.05,-7.01
-2,-2,-16,-19,-321,3903,0.03,0.09,0.27,-0.19,-3.21,39.03,-5.05,0.16,43.56,3.36,-0.09,-6.98
3,4,1,-18,-301,3902,0.05,0.10,0.25,-0.18,-3.01,39.02,-5.03,0.17,43.56,3.25,-0.22,-7.85
7,11,8,-65,-223,3913,0.08,0.16,0.27,-0.65,-2.23,39.13,-5.01,0.18,43.56,3.14,-0.38,-8.20
4,8,2,-12,-343,3926,0.10,0.19,0.26,-0.12,-3.43,39.26,-5.00,0.18,43.56,3.19,-0.33,-7.90
3,7,1,-14,-378,3912,0.11,0.22,0.24,-0.14,-3.78,39.12,-5.01,0.18,43.56,3.22,-0.32,-7.85
1,4,6,-82,-416,3890,0.10,0.22,0.25,-0.82,-4.16,38.90,-5.03,0.19,43.56,3.27,-0.27,-8.10
-7,-2,17,-209,-326,3898,0.05,0.19,0.33,-2.09,-3.26,38.98,-5.02,0.21,43.56,3.44,-0.15,-8.65
-3,-4,2,-9,-347,3896,0.03,0.14,0.31,-0.09,-3.47,38.96,-5.04,0.20,43.56,3.38,-0.09,-7.89
0,-1,-5,-13,-367,3912,0.02,0.12,0.25,-0.13,-3.67,39.12,-5.05,0.20,43.56,3.33,-0.14,-7.54
2,-1,2,5,-321,3915,0.03,0.10,0.23,0.05,-3.21,39.15,-5.04,0.19,43.55,3.28,-0.13,-7.90
0,-4,5,-10,-312,3904,0.03,0.07,0.24,-0.10,-3.12,39.04,-5.02,0.19,43.55,3.31,-0.06,-8.05
-1,-2,5,4,-354,3885,0.02,0.05,0.25,0.04,-3.54,38.85,-5.03,0.17,43.55,3.34,-0.09,-8.05
-1,-1,5,6,-355,3899,0.01,0.04,0.25,0.06,-3.55,38.99,-5.04,0.16,43.55,3.34,-0.09,-8.05
-2,-4,1,18,-345,3904,-0.00,0.01,0.23,0.18,-3.45,39.04,-5.04,0.14,43.55,3.37,-0.01,-7.85
-1,-4,0,10,-344,3893,-0.01,-0.01,0.21,0.10,-3.44,38.93,-5.04,0.12,43.55,3.35,0.01,-7.80
0,-4,-2,12,-341,3905,-0.01,-0.04,0.18,0.12,-3.41,39.05,-5.04,0.10,43.55,3.33,0.02,-7.71
2,-2,0,11,-337,3892,0.01,-0.05,0.16,0.11,-3.37,38.92,-5.03,0.08,43.55,3.28,-0.00,-7.81
0,0,-10,-28,-330,3897,0.01,-0.04,0.08,-0.28,-3.30,38.97,-5.02,0.10,43.55,3.31,-0.05,-7.32
2,1,-19,-25,-333,3902,0.02,-0.03,-0.04,-0.25,-3.33,39.02,-5.02,0.12,43.55,3.26,-0.09,-6.88
4,0,-16,13,-371,3902,0.04,-0.03,-0.14,0.13,-3.71,39.02,-5.03,0.10,43.55,3.23,-0.06,-7.05
3,1,-11,12,-364,3896,0.05,-0.02,-0.19,0.12,-3.64,38.96,-5.04,0.09,43.55,3.25,-0.08,-7.31
3,0,-4,5,-338,3902,0.07,-0.02,-0.19,0.05,-3.38,39.02,-5.03,0.08,43.55,3.24,-0.05,-7.67
3,-2,-6,-2,-348,3905,0.08,-0.03,-0.21,-0.02,-3.48,39.05,-5.05,0.06,43.55,3.25,0.01,-7.57
1,0,-5,20,-332,3891,0.08,-0.03,-0.22,0.20,-3.32,38.91,-5.04,0.05,43.55,3.28,-0.02,-7.62
-9,5,-5,43,-264,3981,0.01,0.01,-0.23,0.43,-2.64,39.81,-5.02,0.04,43.55,3.49,-0.13,-7.63
5,14,-32,43,-233,3923,0.04,0.09,-0.40,0.43,-2.33,39.23,-5.01,0.03,43.55,3.19,-0.33,-6.28
9,18,-41,41,-277,3906,0.09,0.19,-0.61,0.41,-2.77,39.06,-4.99,0.02,43.56,3.09,-0.43,-5.86
-7,6,-75,45,-120,3927,0.04,0.21,-1.01,0.45,-1.20,39.27,-4.97,0.02,43.56,3.41,-0.19,-4.20
2,10,-100,53,-122,3923,0.05,0.25,-1.52,0.53,-1.22,39.23,-4.95,0.02,43.57,3.22,-0.28,-3.02
1,8,-111,-55,-346,3940,0.05,0.27,-2.04,-0.55,-3.46,39.40,-4.96,0.03,43.58,3.24,-0.26,-2.56
4,7,-86,-73,-400,3875,0.07,0.29,-2.36,-0.73,-4.00,38.75,-4.97,0.05,43.58,3.18,-0.25,-3.88
7,5,-45,-95,-474,3906,0.11,0.29,-2.40,-0.95,-4.74,39.06,-4.98,0.06,43.59,3.12,-0.22,-5.98
8,2,-29,-72,-501,3874,0.14,0.27,-2.34,-0.72,-5.01,38.74,-5.00,0.07,43.60,3.10,-0.16,-6.78
4,9,9,-25,-414,3898,0.15,0.30,-2.05,-0.25,-4.14,38.98,-5.02,0.07,43.61,3.19,-0.31,-8.66
8,12,-5,-13,-396,3898,0.19,0.34,-1.87,-0.13,-3.96,38.98,-5.03,0.07,43.62,3.11,-0.39,-7.92
3,13,-4,10,-403,3886,0.19,0.39,-1.71,0.10,-4.03,38.86,-5.05,0.07,43.63,3.22,-0.42,-7.95
3,10,0,2,-388,3920,0.19,0.41,-1.54,0.02,-3.88,39.20,-5.07,0.07,43.63,3.23,-0.36,-8.12
3,2,4,-31,-400,3893,0.19,0.38,-1.36,-0.31,-4.00,38.93,-5.08,0.08,43.64,3.24,-0.20,-8.29
0,-1,15,-31,-362,3895,0.17,0.34,-1.13,-0.31,-3.62,38.95,-5.09,0.10,43.64,3.32,-0.13,-8.81
1,0,30,-15,-318,3893,0.16,0.30,-0.84,-0.15,-3.18,38.93,-5.07,0.10,43.65,3.29,-0.15,-9.53
2,0,33,-28,-345,3897,0.15,0.27,-0.55,-0.28,-3.45,38.97,-5.07,0.12,43.65,3.27,-0.15,-9.63
2,1,57,-23,-348,3912,0.15,0.25,-0.15,-0.23,-3.48,39.12,-5.07,0.14,43.65,3.27,-0.18,-10.78
1,1,61,-21,-372,3909,0.14,0.23,0.24,-0.21,-3.72,39.09,-5.09,0.15,43.65,3.30,-0.18,-10.92
0,-3,70,-17,-386,3903,0.13,0.19,0.64,-0.17,-3.86,39.03,-5.11,0.15,43.65,3.34,-0.09,-11.30
-2,-3,72,-12,-385,3894,0.10,0.15,1.02,-0.12,-3.85,38.94,-5.12,0.15,43.64,3.39,-0.08,-11.34
-1,2,75,-36,-354,3910,0.09,0.15,1.37,-0.36,-3.54,39.10,-5.13,0.17,43.64,3.38,-0.20,-11.43
-1,1,65,-23,-358,3906,0.07,0.14,1.63,-0.23,-3.58,39.06,-5.14,0.19,43.63,3.39,-0.18,-10.88
1,5,51,-50,-329,3917,0.07,0.16,1.78,-0.50,-3.29,39.17,-5.13,0.21,43.62,3.34,-0.28,-10.14
1,6,67,-56,-333,3914,0.07,0.18,2.01,-0.56,-3.33,39.14,-5.12,0.22,43.62,3.34,-0.32,-10.91
-3,2,82,-38,-373,3887,0.04,0.17,2.31,-0.38,-3.73,38.87,-5.13,0.24,43.61,3.44,-0.25,-11.62
-1,3,82,-41,-360,3908,0.03,0.17,2.58,-0.41,-3.60,39.08,-5.14,0.26,43.60,3.40,-0.28,-11.57
-3,-3,68,18,-318,3907,0.01,0.14,2.74,0.18,-3.18,39.07,-5.13,0.25,43.59,3.44,-0.14,-10.83
0,-2,57,11,-329,3906,0.01,0.11,2.81,0.11,-3.29,39.06,-5.11,0.23,43.57,3.37,-0.14,-10.25
-3,-3,43,0,-393,3900,-0.01,0.08,2.79,0.00,-3.93,39.00,-5.13,0.23,43.56,3.45,-0.11,-9.54
-3,-4,42,-3,-388,3896,-0.03,0.05,2.77,-0.03,-3.88,38.96,-5.15,0.22,43.55,3.47,-0.08,-9.49
-4,-3,35,-8,-361,3904,-0.05,0.03,2.70,-0.08,-3.61,39.04,-5.16,0.21,43.54,3.50,-0.09,-9.15
-4,-2,34,1,-353,3906,-0.07,0.01,2.64,0.01,-3.53,39.06,-5.16,0.20,43.53,3.51,-0.09,-9.11
-1,-1,16,8,-314,3916,-0.07,0.00,2.48,0.08,-3.14,39.16,-5.15,0.19,43.52,3.44,-0.10,-8.22
0,0,8,4,-326,3914,-0.06,0.00,2.28,0.04,-3.26,39.14,-5.13,0.18,43.51,3.40,-0.12,-7.84
1,2,3,-18,-347,3911,-0.05,0.02,2.07,-0.18,-3.47,39.11,-5.12,0.19,43.50,3.37,-0.17,-7.62
0,2,2,-21,-357,3914,-0.04,0.03,1.87,-0.21,-3.57,39.14,-5.13,0.21,43.50,3.40,-0.19,-7.61
0,4,4,-38,-341,3924,-0.04,0.05,1.71,-0.38,-3.41,39.24,-5.13,0.23,43.49,3.39,-0.24,-7.74
2,4,4,-26,-317,3900,-0.02,0.07,1.56,-0.26,-3.17,39.00,-5.11,0.23,43.48,3.34,-0.25,-7.76
0,-3,10,-2,-335,3906,-0.02,0.04,1.47,-0.02,-3.35,39.06,-5.10,0.22,43.48,3.37,-0.10,-8.08
1,-1,13,-5,-328,3893,-0.01,0.03,1.40,-0.05,-3.28,38.93,-5.08,0.21,43.47,3.34,-0.13,-8.24
1,-1,25,13,-310,3901,-0.01,0.02,1.41,0.13,-3.10,39.01,-5.06,0.20,43.47,3.32,-0.12,-8.85
1,0,26,12,-322,3907,0.00,0.02,1.43,0.12,-3.22,39.07,-5.05,0.19,43.46,3.31,-0.13,-8.90
1,-3,31,-13,-360,3918,0.01,0.00,1.48,-0.13,-3.60,39.18,-5.07,0.19,43.45,3.32,-0.06,-9.14
1,-1,27,3,-398,3885,0.01,-0.01,1.49,0.03,-3.98,38.85,-5.09,0.19,43.45,3.33,-0.10,-8.93
-3,-5,29,-18,-354,3879,-0.01,-0.04,1.52,-0.18,-3.54,38.79,-5.10,0.20,43.44,3.43,-0.02,-9.03
0,-1,28,-24,-342,3896,-0.01,-0.04,1.54,-0.24,-3.42,38.96,-5.09,0.21,43.44,3.36,-0.11,-8.98
0,0,12,-37,-355,3921,-0.01,-0.03,1.46,-0.37,-3.55,39.21,-5.10,0.23,43.43,3.37,-0.14,-8.17
0,-1,10,-38,-360,3905,-0.00,-0.04,1.37,-0.38,-3.60,39.05,-5.11,0.25,43.43,3.37,-0.13,-8.09
1,0,7,-13,-350,3895,0.00,-0.03,1.28,-0.13,-3.50,38.95,-5.12,0.23,43.42,3.36,-0.14,-7.95
1,-1,6,-10,-342,3909,0.01,-0.04,1.19,-0.10,-3.42,39.09,-5.10,0.22,43.42,3.34,-0.12,-7.91
0,-3,1,-16,-343,3905,0.01,-0.05,1.08,-0.16,-3.43,39.05,-5.08,0.22,43.41,3.35,-0.07,-7.68
-3,-5,-1,-12,-307,3886,-0.01,-0.08,0.96,-0.12,-3.07,38.86,-5.06,0.22,43.41,3.41,-0.02,-7.60
-3,-5,-18,-32,-349,3895,-0.03,-0.10,0.76,-0.32,-3.49,38.95,-5.07,0.24,43.40,3.41,-0.03,-6.77
-3,-5,-25,-28,-352,3903,-0.04,-0.12,0.53,-0.28,-3.52,39.03,-5.08,0.26,43.40,3.42,-0.03,-6.45
-4,-6,-35,-15,-346,3903,-0.06,-0.14,0.26,-0.15,-3.46,39.03,-5.07,0.24,43.40,3.45,0.00,-5.99
-3,-6,-41,-6,-356,3915,-0.08,-0.17,-0.01,-0.06,-3.56,39.15,-5.08,0.22,43.40,3.44,0.02,-5.73
-5,-11,-55,-4,-373,3904,-0.10,-0.22,-0.35,-0.04,-3.73,39.04,-5.10,0.21,43.40,3.50,0.14,-5.08
-7,-13,-62,9,-381,3898,-0.13,-0.27,-0.69,0.09,-3.81,38.98,-5.12,0.20,43.40,3.56,0.21,-4.78
-9,-20,-86,-8,-382,3884,-0.17,-0.37,-1.15,-0.08,-3.82,38.84,-5.13,0.20,43.41,3.62,0.38,-3.64
-10,-20,-88,-19,-402,3901,-0.22,-0.45,-1.57,-0.19,-4.02,39.01,-5.15,0.20,43.42,3.66,0.40,-3.61
-5,-15,-100,21,-334,3910,-0.23,-0.50,-2.02,0.21,-3.34,39.10,-5.15,0.18,43.42,3.56,0.32,-3.08
-5,-14,-99,5,-322,3900,-0.23,-0.54,-2.42,0.05,-3.22,39.00,-5.13,0.17,43.43,3.55,0.32,-3.21
-3,-8,-98,-26,-353,3896,-0.23,-0.53,-2.78,-0.26,-3.53,38.96,-5.14,0.18,43.44,3.51,0.19,-3.32
-1,-5,-97,-41,-338,3903,-0.21,-0.51,-3.09,-0.41,-3.38,39.03,-5.13,0.19,43.46,3.46,0.11,-3.43
0,2,-79,-19,-341,3904,-0.19,-0.45,-3.27,-0.19,-3.41,39.04,-5.11,0.20,43.47,3.43,-0.05,-4.37
0,6,-71,-26,-359,3903,-0.17,-0.36,-3.37,-0.26,-3.59,39.03,-5.13,0.21,43.48,3.43,-0.16,-4.80
4,11,-39,-8,-387,3883,-0.13,-0.26,-3.27,-0.08,-3.87,38.83,-5.15,0.21,43.50,3.35,-0.29,-6.41
5,9,-36,21,-391,3914,-0.09,-0.18,-3.17,0.21,-3.91,39.14,-5.16,0.19,43.51,3.33,-0.26,-6.55
0,4,-23,40,-318,3880,-0.08,-0.14,-2.99,0.40,-3.18,38.80,-5.15,0.18,43.52,3.42,-0.16,-7.18
0,4,-22,18,-321,3912,-0.07,-0.10,-2.82,0.18,-3.21,39.12,-5.14,0.16,43.53,3.41,-0.16,-7.21
-2,-1,-14,2,-296,3902,-0.08,-0.10,-2.63,0.02,-2.96,39.02,-5.12,0.16,43.54,3.44,-0.06,-7.58
-2,-1,-13,-4,-294,3891,-0.08,-0.09,-2.44,-0.04,-2.94,38.91,-5.10,0.15,43.55,3.43,-0.06,-7.60
-2,0,-12,-11,-377,3914,-0.08,-0.08,-2.27,-0.11,-3.77,39.14,-5.12,0.15,43.56,3.44,-0.08,-7.62
-1,0,-10,-8,-376,3917,-0.08,-0.07,-2.11,-0.08,-3.76,39.17,-5.14,0.15,43.57,3.43,-0.08,-7.70
2,4,-2,-4,-315,3906,-0.06,-0.04,-1.91,-0.04,-3.15,39.06,-5.12,0.15,43.58,3.36,-0.17,-8.07
1,3,-2,-5,-315,3891,-0.05,-0.02,-1.73,-0.05,-3.15,38.91,-5.10,0.14,43.58,3.36,-0.15,-8.04
0,3,-9,-9,-332,3900,-0.04,0.00,-1.61,-0.09,-3.32,39.00,-5.09,0.14,43.59,3.37,-0.15,-7.67
1,4,-10,-21,-335,3905,-0.03,0.02,-1.51,-0.21,-3.35,39.05,-5.07,0.15,43.59,3.34,-0.19,-7.60
1,3,-9,-34,-360,3897,-0.02,0.04,-1.42,-0.34,-3.60,38.97,-5.08,0.17,43.60,3.34,-0.18,-7.64
-1,3,-7,-30,-358,3899,-0.03,0.05,-1.32,-0.30,-3.58,38.99,-5.09,0.18,43.61,3.39,-0.20,-7.72
0,3,-2,-24,-327,3907,-0.03,0.07,-1.20,-0.24,-3.27,39.07,-5.08,0.19,43.61,3.36,-0.21,-7.96
0,2,0,-23,-317,3905,-0.02,0.07,-1.08,-0.23,-3.17,39.05,-5.06,0.20,43.61,3.34,-0.19,-8.04
0,1,2,-1,-320,3907,-0.02,0.07,-0.96,-0.01,-3.20,39.07,-5.04,0.19,43.62,3.33,-0.17,-8.12
0,0,-1,-13,-328,3908,-0.02,0.06,-0.87,-0.13,-3.28,39.08,-5.02,0.19,43.62,3.32,-0.14,-7.95
2,3,-5,-17,-341,3897,-0.00,0.08,-0.81,-0.17,-3.41,38.97,-5.02,0.21,43.63,3.27,-0.22,-7.74
1,3,-3,-22,-340,3898,0.00,0.09,-0.75,-0.22,-3.40,38.98,-5.01,0.22,43.63,3.29,-0.23,-7.83
-2,-1,1,-28,-362,3905,-0.01,0.07,-0.67,-0.28,-3.62,39.05,-5.03,0.23,43.63,3.36,-0.15,-8.02
-3,-2,3,-35,-363,3898,-0.03,0.05,-0.58,-0.35,-3.63,38.98,-5.04,0.25,43.63,3.40,-0.14,-8.11
-2,2,9,-19,-347,3916,-0.04,0.06,-0.47,-0.19,-3.47,39.16,-5.05,0.26,43.64,3.39,-0.23,-8.39
-3,-2,9,-5,-312,3937,-0.05,0.04,-0.37,-0.05,-3.12,39.37,-5.04,0.26,43.64,3.40,-0.14,-8.38
-1,1,0,4,-304,3904,-0.05,0.04,-0.33,0.04,-3.04,39.04,-5.02,0.25,43.64,3.35,-0.20,-7.91
-1,2,1,8,-300,3889,-0.05,0.05,-0.29,0.08,-3.00,38.89,-5.00,0.24,43.64,3.34,-0.21,-7.96
-1,3,1,-11,-339,3925,-0.05,0.06,-0.26,-0.11,-3.39,39.25,-4.99,0.22,43.64,3.33,-0.23,-7.95
1,5,0,-23,-347,3915,-0.04,0.09,-0.23,-0.23,-3.47,39.15,-5.00,0.24,43.64,3.29,-0.28,-7.90
-1,4,3,-43,-394,3902,-0.04,0.10,-0.19,-0.43,-3.94,39.02,-5.02,0.25,43.64,3.34,-0.27,-8.04
2,6,6,-36,-426,3876,-0.03,0.13,-0.13,-0.36,-4.26,38.76,-5.04,0.25,43.64,3.29,-0.32,-8.18
0,8,15,-5,-415,3887,-0.03,0.17,-0.03,-0.05,-4.15,38.87,-5.05,0.25,43.64,3.34,-0.37,-8.62
-1,8,19,-2,-403,3902,-0.03,0.20,0.09,-0.02,-4.03,39.02,-5.07,0.25,43.64,3.38,-0.38,-8.81
-1,9,33,37,-285,3908,-0.03,0.23,0.28,0.37,-2.85,39.08,-5.06,0.24,43.64,3.37,-0.40,-9.48
-1,8,33,17,-265,3911,-0.03,0.26,0.46,0.17,-2.65,39.11,-5.04,0.23,43.64,3.36,-0.38,-9.45
0,8,22,-22,-294,3907,-0.03,0.28,0.54,-0.22,-2.94,39.07,-5.02,0.23,43.64,3.32,-0.39,-8.88
0,10,25,2,-302,3893,-0.03,0.31,0.64,0.02,-3.02,38.93,-5.01,0.23,43.64,3.31,-0.44,-9.01
-8,-6,70,-85,-360,3797,-0.07,0.25,1.00,-0.85,-3.60,37.97,-5.01,0.25,43.63,3.49,-0.11,-11.24
-1,-2,102,-119,-343,3988,-0.07,0.21,1.53,-1.19,-3.43,39.88,-5.01,0.27,43.63,3.35,-0.19,-12.77
-3,-6,142,-73,-305,3968,-0.08,0.15,2.24,-0.73,-3.05,39.68,-5.00,0.28,43.62,3.39,-0.11,-14.68
-3,-5,143,-59,-319,3885,-0.09,0.11,2.89,-0.59,-3.19,38.85,-4.99,0.30,43.60,3.38,-0.12,-14.62
-6,-2,125,30,-397,3893,-0.12,0.08,3.36,0.30,-3.97,38.93,-5.01,0.29,43.59,3.46,-0.17,-13.62
-4,-1,116,31,-385,3905,-0.13,0.07,3.73,0.31,-3.85,39.05,-5.02,0.28,43.58,3.43,-0.18,-13.09
-1,-1,82,31,-349,3903,-0.13,0.06,3.86,0.31,-3.49,39.03,-5.02,0.26,43.56,3.37,-0.17,-11.34
-1,-1,74,29,-366,3896,-0.12,0.04,3.93,0.29,-3.66,38.96,-5.03,0.24,43.55,3.37,-0.15,-10.92
-4,0,64,-16,-383,3904,-0.13,0.04,3.92,-0.16,-3.83,39.04,-5.05,0.25,43.53,3.45,-0.17,-10.41
-6,-6,63,-5,-349,3919,-0.16,-0.00,3.92,-0.05,-3.49,39.19,-5.06,0.23,43.51,3.50,-0.03,-10.36
-6,-2,58,-46,-367,3897,-0.18,-0.01,3.88,-0.46,-3.67,38.97,-5.07,0.24,43.50,3.51,-0.12,-10.11
-1,2,72,-35,-435,3899,-0.16,0.00,3.93,-0.35,-4.35,38.99,-5.09,0.25,43.48,3.42,-0.21,-10.81
3,12,117,68,-350,3929,-0.13,0.07,4.25,0.68,-3.50,39.29,-5.09,0.23,43.47,3.33,-0.42,-13.03
3,2,121,123,-282,3957,-0.10,0.08,4.56,1.23,-2.82,39.57,-5.08,0.22,43.45,3.32,-0.21,-13.18
0,-1,93,-153,-286,3922,-0.09,0.06,4.67,-1.53,-2.86,39.22,-5.07,0.24,43.43,3.37,-0.15,-11.73
4,1,96,-128,-350,3898,-0.06,0.06,4.79,-1.28,-3.50,38.98,-5.07,0.26,43.41,3.28,-0.21,-11.86
1,16,118,-61,-369,3904,-0.04,0.16,5.03,-0.61,-3.69,39.04,-5.08,0.28,43.39,3.34,-0.55,-12.94
3,7,122,-64,-358,3902,-0.02,0.18,5.27,-0.64,-3.58,39.02,-5.08,0.30,43.37,3.30,-0.39,-13.09
1,2,125,-6,-350,3924,-0.01,0.18,5.51,-0.06,-3.50,39.24,-5.09,0.28,43.35,3.34,-0.27,-13.20
1,2,122,0,-371,3855,-0.01,0.17,5.70,0.00,-3.71,38.55,-5.10,0.27,43.33,3.35,-0.27,-13.01
0,2,121,-46,-344,3847,-0.01,0.17,5.87,-0.46,-3.44,38.47,-5.10,0.29,43.30,3.37,-0.28,-12.93
-4,0,117,-75,-391,3943,-0.03,0.15,6.00,-0.75,-3.91,39.43,-5.11,0.31,43.28,3.46,-0.25,-12.70
-6,-6,120,5,-368,3918,-0.06,0.10,6.13,0.05,-3.68,39.18,-5.12,0.30,43.25,3.52,-0.10,-12.82
-6,-1,134,24,-392,3915,-0.09,0.08,6.33,0.24,-3.92,39.15,-5.13,0.29,43.23,3.54,-0.19,-13.50
-3,7,155,17,-435,3924,-0.10,0.12,6.65,0.17,-4.35,39.24,-5.15,0.28,43.20,3.49,-0.36,-14.50
-8,4,159,62,-393,3969,-0.14,0.13,6.95,0.62,-3.93,39.69,-5.16,0.27,43.18,3.61,-0.30,-14.65
1,2,152,10,-291,3909,-0.12,0.13,7.18,0.10,-2.91,39.09,-5.14,0.27,43.15,3.41,-0.25,-14.25
2,8,141,18,-306,3873,-0.10,0.16,7.32,0.18,-3.06,38.73,-5.13,0.26,43.12,3.37,-0.38,-13.66
-3,5,119,38,-334,3856,-0.10,0.18,7.32,0.38,-3.34,38.56,-5.13,0.24,43.09,3.47,-0.31,-12.54
-1,4,115,34,-338,3961,-0.10,0.19,7.29,0.34,-3.38,39.61,-5.12,0.23,43.06,3.43,-0.28,-12.33
-3,3,114,10,-396,3938,-0.11,0.18,7.25,0.10,-3.96,39.38,-5.14,0.22,43.03,3.48,-0.26,-12.28
-1,5,123,16,-443,3867,-0.10,0.20,7.28,0.16,-4.43,38.67,-5.15,0.22,43.00,3.45,-0.30,-12.73
-7,-2,163,143,-418,3837,-0.14,0.17,7.55,1.43,-4.18,38.37,-5.16,0.21,42.97,3.59,-0.14,-14.71
1,6,182,177,-378,3860,-0.12,0.19,7.90,1.77,-3.78,38.60,-5.16,0.19,42.94,3.42,-0.30,-15.61
-4,1,208,24,-180,3951,-0.13,0.17,8.38,0.24,-1.80,39.51,-5.15,0.19,42.91,3.51,-0.19,-16.84
1,-4,205,65,-131,3969,-0.11,0.13,8.79,0.65,-1.31,39.69,-5.13,0.19,42.87,3.40,-0.08,-16.61
-2,-10,162,56,-74,3918,-0.11,0.06,8.90,0.56,-0.74,39.18,-5.11,0.19,42.84,3.45,0.06,-14.40
-2,0,153,22,-70,3809,-0.11,0.05,8.94,0.22,-0.70,38.09,-5.09,0.19,42.80,3.43,-0.14,-13.93
-2,-1,79,-68,-333,3876,-0.11,0.04,8.53,-0.68,-3.33,38.76,-5.09,0.21,42.77,3.43,-0.13,-10.23
-4,-5,68,-91,-353,3959,-0.13,0.01,8.09,-0.91,-3.53,39.59,-5.09,0.23,42.73,3.48,-0.05,-9.75
-6,-10,44,-107,-468,3938,-0.15,-0.06,7.55,-1.07,-4.68,39.38,-5.11,0.25,42.70,3.53,0.06,-8.61
-6,-10,40,-54,-474,3918,-0.17,-0.11,7.04,-0.54,-4.74,39.18,-5.12,0.25,42.68,3.55,0.07,-8.49
-8,-14,65,-42,-544,3922,-0.20,-0.19,6.73,-0.42,-5.44,39.22,-5.14,0.26,42.65,3.61,0.17,-9.81
-8,-9,78,-35,-588,3821,-0.23,-0.22,6.54,-0.35,-5.88,38.21,-5.16,0.26,42.62,3.63,0.07,-10.50
-7,-4,131,-9,-415,3833,-0.25,-0.22,6.68,-0.09,-4.15,38.33,-5.18,0.26,42.60,3.63,-0.03,-13.17
-4,9,146,-12,-390,3929,-0.25,-0.15,6.90,-0.12,-3.90,39.29,-5.20,0.26,42.57,3.58,-0.31,-13.89
-2,0,153,-1,-167,3917,-0.24,-0.13,7.15,-0.01,-1.67,39.17,-5.18,0.26,42.54,3.53,-0.13,-14.20
0,1,139,5,-148,3906,-0.21,-0.11,7.28,0.05,-1.48,39.06,-5.17,0.26,42.51,3.47,-0.16,-13.46
-4,-3,46,-24,-175,3895,-0.22,-0.12,6.83,-0.24,-1.75,38.95,-5.15,0.26,42.48,3.54,-0.08,-8.80
-4,-5,29,-34,-285,3892,-0.22,-0.14,6.33,-0.34,-2.85,38.92,-5.13,0.27,42.46,3.53,-0.04,-8.02
-7,-3,22,-31,-348,3897,-0.24,-0.14,5.83,-0.31,-3.48,38.97,-5.13,0.29,42.44,3.59,-0.09,-7.75
-4,1,25,-5,-356,3912,-0.24,-0.12,5.40,-0.05,-3.56,39.12,-5.14,0.27,42.41,3.54,-0.17,-7.97
1,5,66,44,-398,3903,-0.21,-0.08,5.26,0.44,-3.98,39.03,-5.15,0.26,42.39,3.43,-0.25,-10.07
2,5,86,35,-399,3893,-0.18,-0.04,5.26,0.35,-3.99,38.93,-5.16,0.25,42.37,3.41,-0.25,-11.09
-1,7,101,-11,-318,3871,-0.17,0.01,5.35,-0.11,-3.18,38.71,-5.14,0.25,42.35,3.46,-0.31,-11.83
-1,3,93,-5,-324,3912,-0.16,0.02,5.38,-0.05,-3.24,39.12,-5.13,0.24,42.33,3.45,-0.23,-11.41
-5,0,37,-79,-289,3911,-0.17,0.02,5.07,-0.79,-2.89,39.11,-5.11,0.25,42.31,3.52,-0.17,-8.62
-6,-1,21,-62,-317,3904,-0.19,0.01,4.69,-0.62,-3.17,39.04,-5.10,0.27,42.29,3.54,-0.16,-7.87
-2,-3,25,-31,-531,3951,-0.18,-0.01,4.37,-0.31,-5.31,39.51,-5.12,0.27,42.27,3.47,-0.12,-8.12
0,2,45,-38,-594,3894,-0.16,0.01,4.21,-0.38,-5.94,38.94,-5.14,0.28,42.26,3.44,-0.23,-9.16
4,10,158,-23,-660,3836,-0.12,0.07,4.75,-0.23,-6.60,38.36,-5.16,0.28,42.24,3.36,-0.41,-14.81
7,18,204,5,-674,3978,-0.07,0.17,5.52,0.05,-6.74,39.78,-5.18,0.28,42.22,3.29,-0.60,-17.01
2,33,298,10,-551,3938,-0.05,0.35,6.79,0.10,-5.51,39.38,-5.20,0.28,42.19,3.40,-0.95,-20.00
1,18,322,81,-416,4085,-0.04,0.43,8.07,0.81,-4.16,40.85,-5.20,0.27,42.16,3.43,-0.66,-20.00
6,14,400,56,-70,4057,0.00,0.47,9.71,0.56,-0.70,40.57,-5.19,0.27,42.12,3.30,-0.59,-20.00
5,11,403,72,-32,3845,0.03,0.49,11.19,0.72,-0.32,38.45,-5.17,0.27,42.07,3.30,-0.54,-20.00
3,16,216,-114,144,3855,0.05,0.54,11.39,-1.14,1.44,38.55,-5.15,0.28,42.03,3.33,-0.66,-16.57
2,23,143,-95,111,3896,0.05,0.63,11.13,-0.95,1.11,38.96,-5.13,0.29,41.98,3.33,-0.83,-12.90
0,17,41,-28,-281,3898,0.05,0.67,10.26,-0.28,-2.81,38.98,-5.11,0.30,41.94,3.36,-0.73,-7.86
0,15,31,-27,-291,3902,0.04,0.69,9.43,-0.27,-2.91,39.02,-5.09,0.31,41.91,3.35,-0.70,-7.49
-6,7,16,-20,-360,3890,0.00,0.67,8.58,-0.20,-3.60,38.90,-5.11,0.31,41.87,3.50,-0.53,-6.86
-6,2,14,-12,-354,3894,-0.03,0.61,7.81,-0.12,-3.54,38.94,-5.12,0.30,41.84,3.51,-0.41,-6.89
-5,0,17,-35,-363,3918,-0.06,0.55,7.13,-0.35,-3.63,39.18,-5.13,0.32,41.81,3.51,-0.36,-7.15
-7,0,23,36,-349,3919,-0.10,0.49,6.56,0.36,-3.49,39.19,-5.13,0.31,41.79,3.56,-0.34,-7.55
0,-4,80,15,-360,3922,-0.09,0.42,6.39,0.15,-3.60,39.22,-5.14,0.29,41.76,3.41,-0.23,-10.48
0,0,97,-31,-329,3913,-0.08,0.38,6.34,-0.31,-3.29,39.13,-5.12,0.30,41.74,3.40,-0.30,-11.34
-1,6,88,-42,-316,3898,-0.08,0.38,6.25,-0.42,-3.16,38.98,-5.11,0.32,41.71,3.41,-0.43,-10.90
-4,6,74,-46,-327,3899,-0.09,0.38,6.07,-0.46,-3.27,38.99,-5.09,0.34,41.69,3.47,-0.45,-10.21
-5,4,54,-26,-376,3902,-0.11,0.36,5.79,-0.26,-3.76,39.02,-5.11,0.34,41.67,3.51,-0.41,-9.24
-4,3,58,-38,-399,3903,-0.13,0.35,5.57,-0.38,-3.99,39.03,-5.13,0.35,41.64,3.50,-0.39,-9.48
-3,2,86,-43,-403,3921,-0.13,0.32,5.54,-0.43,-4.03,39.21,-5.15,0.36,41.62,3.49,-0.37,-10.90
-3,-3,86,-32,-393,3921,-0.14,0.27,5.51,-0.32,-3.93,39.21,-5.17,0.37,41.60,3.51,-0.25,-10.90
-4,-6,124,-88,-453,3872,-0.15,0.21,5.71,-0.88,-4.53,38.72,-5.18,0.38,41.58,3.54,-0.18,-12.80
-4,-3,142,-85,-462,3886,-0.16,0.17,6.01,-0.85,-4.62,38.86,-5.20,0.39,41.55,3.56,-0.24,-13.66
-4,-6,189,-63,-436,3945,-0.17,0.12,6.56,-0.63,-4.36,39.45,-5.22,0.40,41.53,3.57,-0.17,-15.95
0,-4,204,-57,-392,3938,-0.15,0.08,7.15,-0.57,-3.92,39.38,-5.23,0.41,41.50,3.49,-0.21,-16.60
-5,5,242,2,-341,3997,-0.17,0.10,7.91,0.02,-3.41,39.97,-5.22,0.40,41.47,3.59,-0.40,-18.39
-4,0,243,-56,-242,3827,-0.17,0.09,8.60,-0.56,-2.42,38.27,-5.20,0.41,41.43,3.56,-0.30,-18.32
-4,2,195,-19,-218,3787,-0.18,0.10,8.93,-0.19,-2.18,37.87,-5.18,0.41,41.40,3.55,-0.34,-15.82
-4,9,183,-53,-267,3940,-0.19,0.14,9.15,-0.53,-2.67,39.40,-5.17,0.42,41.36,3.54,-0.50,-15.16
-8,3,164,-38,-362,3911,-0.22,0.14,9.24,-0.38,-3.62,39.11,-5.18,0.44,41.32,3.64,-0.39,-14.17
-6,-1,168,-51,-402,3879,-0.23,0.12,9.34,-0.51,-4.02,38.79,-5.20,0.45,41.29,3.62,-0.31,-14.35
2,11,221,104,-452,3929,-0.20,0.18,9.75,1.04,-4.52,39.29,-5.21,0.44,41.25,3.45,-0.56,-16.97
3,11,236,103,-457,3933,-0.16,0.23,10.22,1.03,-4.57,39.33,-5.22,0.43,41.21,3.43,-0.57,-17.64
2,20,245,-61,-283,3875,-0.13,0.33,10.69,-0.61,-2.83,38.75,-5.20,0.44,41.17,3.43,-0.79,-18.01
4,15,224,-14,-291,3938,-0.09,0.39,10.99,-0.14,-2.91,39.38,-5.19,0.44,41.12,3.37,-0.70,-16.88
-3,12,172,-127,-298,3899,-0.10,0.42,10.94,-1.27,-2.98,38.99,-5.18,0.47,41.08,3.51,-0.67,-14.24
-5,3,170,-167,-318,3914,-0.12,0.40,10.88,-1.67,-3.18,39.14,-5.17,0.49,41.03,3.55,-0.49,-14.14
-5,-5,206,-22,-510,3945,-0.14,0.33,11.05,-0.22,-5.10,39.45,-5.19,0.49,40.99,3.57,-0.31,-15.93
-12,5,233,-59,-551,3804,-0.20,0.32,11.37,-0.59,-5.51,38.04,-5.21,0.50,40.95,3.74,-0.52,-17.24
0,-11,299,-7,-332,3755,-0.18,0.22,12.05,-0.07,-3.32,37.55,-5.20,0.49,40.90,3.48,-0.16,-20.00
-5,0,298,-18,-310,4001,-0.19,0.20,12.67,-0.18,-3.10,40.01,-5.18,0.49,40.85,3.58,-0.38,-20.00
-4,3,288,35,-343,3898,-0.20,0.20,13.16,0.35,-3.43,38.98,-5.18,0.48,40.79,3.56,-0.43,-19.70
-4,4,282,30,-345,3885,-0.20,0.20,13.56,0.30,-3.45,38.85,-5.18,0.46,40.74,3.56,-0.44,-19.32
-5,0,245,79,-268,3829,-0.21,0.18,13.70,0.79,-2.68,38.29,-5.17,0.45,40.69,3.57,-0.35,-17.40
-15,-7,218,27,-200,3885,-0.28,0.12,13.66,0.27,-2.00,38.85,-5.15,0.45,40.63,3.78,-0.19,-16.03
-6,-13,127,22,-309,3922,-0.29,0.03,13.07,0.22,-3.09,39.22,-5.14,0.44,40.58,3.60,-0.04,-11.50
-9,-3,119,4,-415,3892,-0.32,0.01,12.49,0.04,-4.15,38.92,-5.16,0.44,40.53,3.67,-0.23,-11.18
-3,2,136,30,-454,3943,-0.30,0.02,12.07,0.30,-4.54,39.43,-5.18,0.44,40.48,3.56,-0.33,-12.11
-2,1,153,4,-409,3868,-0.29,0.03,11.79,0.04,-4.09,38.68,-5.19,0.43,40.44,3.55,-0.31,-13.01
1,2,194,-58,-346,3884,-0.25,0.03,11.80,-0.58,-3.46,38.84,-5.19,0.45,40.39,3.47,-0.35,-15.09
-4,-7,187,-50,-392,3892,-0.25,-0.01,11.76,-0.50,-3.92,38.92,-5.21,0.47,40.34,3.59,-0.16,-14.73
-6,-9,193,-44,-426,3905,-0.26,-0.07,11.76,-0.44,-4.26,39.05,-5.22,0.47,40.29,3.64,-0.11,-15.03
-3,-1,197,-36,-431,3821,-0.25,-0.06,11.79,-0.36,-4.31,38.21,-5.24,0.48,40.25,3.59,-0.28,-15.22
-2,-2,210,31,-337,3843,-0.24,-0.07,11.89,0.31,-3.37,38.43,-5.24,0.46,40.20,3.56,-0.25,-15.85
-9,1,210,21,-260,3999,-0.27,-0.06,11.98,0.21,-2.60,39.99,-5.22,0.46,40.15,3.71,-0.31,-15.83
-5,1,188,-37,-234,3916,-0.27,-0.05,11.93,-0.37,-2.34,39.16,-5.21,0.46,40.11,3.61,-0.31,-14.71
-5,-4,183,-22,-211,3901,-0.28,-0.07,11.85,-0.22,-2.11,39.01,-5.19,0.47,40.06,3.60,-0.21,-14.46
-4,-4,143,20,-189,3928,-0.27,-0.08,11.54,0.20,-1.89,39.28,-5.17,0.47,40.01,3.57,-0.20,-12.47
-3,3,128,18,-181,3859,-0.27,-0.06,11.17,0.18,-1.81,38.59,-5.16,0.46,39.97,3.54,-0.35,-11.77
-4,3,78,43,-243,3869,-0.26,-0.03,10.53,0.43,-2.43,38.69,-5.14,0.46,39.92,3.55,-0.35,-9.33
-5,-2,61,41,-276,3912,-0.27,-0.04,9.85,0.41,-2.76,39.12,-5.13,0.45,39.89,3.56,-0.24,-8.57
0,1,39,40,-377,3900,-0.24,-0.03,9.10,0.40,-3.77,39.00,-5.14,0.43,39.85,3.46,-0.30,-7.58
-2,4,44,19,-387,3907,-0.23,-0.00,8.46,0.19,-3.87,39.07,-5.15,0.42,39.82,3.50,-0.36,-7.94
1,6,67,-51,-426,3908,-0.20,0.03,8.02,-0.51,-4.26,39.08,-5.17,0.43,39.78,3.44,-0.42,-9.18
-1,0,74,-56,-432,3935,-0.19,0.03,7.67,-0.56,-4.32,39.35,-5.18,0.44,39.75,3.49,-0.30,-9.59
-3,2,75,-17,-356,3930,-0.19,0.04,7.36,-0.17,-3.56,39.30,-5.18,0.42,39.72,3.53,-0.33,-9.69
0,4,73,-8,-353,3883,-0.17,0.06,7.07,-0.08,-3.53,38.83,-5.18,0.41,39.70,3.47,-0.37,-9.63
0,-1,52,-31,-391,3877,-0.15,0.05,6.68,-0.31,-3.91,38.77,-5.20,0.41,39.67,3.48,-0.26,-8.63
-1,-1,48,-22,-422,3903,-0.14,0.04,6.30,-0.22,-4.22,39.03,-5.22,0.41,39.64,3.51,-0.26,-8.48
3,6,57,-42,-451,3924,-0.11,0.07,6.02,-0.42,-4.51,39.24,-5.24,0.42,39.62,3.43,-0.42,-8.99
1,-1,66,-55,-401,3918,-0.09,0.06,5.82,-0.55,-4.01,39.18,-5.26,0.43,39.60,3.47,-0.28,-9.47
1,-6,75,-40,-358,3873,-0.08,0.01,5.70,-0.40,-3.58,38.73,-5.26,0.45,39.58,3.47,-0.18,-9.95
2,-2,74,-18,-316,3888,-0.06,0.00,5.58,-0.18,-3.16,38.88,-5.24,0.45,39.55,3.43,-0.25,-9.91
1,4,64,20,-263,3920,-0.05,0.03,5.41,0.20,-2.63,39.20,-5.23,0.44,39.53,3.44,-0.38,-9.43
-1,2,65,7,-254,3943,-0.05,0.03,5.27,0.07,-2.54,39.43,-5.21,0.44,39.51,3.47,-0.34,-9.50
-4,1,45,-14,-182,3894,-0.07,0.04,5.01,-0.14,-1.82,38.94,-5.19,0.44,39.49,3.52,-0.32,-8.53
-1,3,28,-11,-208,3904,-0.07,0.05,4.68,-0.11,-2.08,39.04,-5.17,0.44,39.47,3.45,-0.36,-7.72
0,5,12,1,-331,3899,-0.06,0.08,4.29,0.01,-3.31,38.99,-5.16,0.42,39.45,3.42,-0.40,-6.97
0,4,9,-4,-341,3900,-0.05,0.09,3.91,-0.04,-3.41,39.00,-5.15,0.41,39.44,3.42,-0.38,-6.88
3,2,22,28,-429,3915,-0.03,0.10,3.66,0.28,-4.29,39.15,-5.17,0.40,39.42,3.36,-0.33,-7.58
-5,1,51,-14,-447,3897,-0.06,0.09,3.60,-0.14,-4.47,38.97,-5.19,0.40,39.41,3.54,-0.31,-9.06
-4,-1,33,-88,-296,3909,-0.08,0.08,3.44,-0.88,-2.96,39.09,-5.17,0.41,39.40,3.52,-0.27,-8.17
-4,-5,16,-60,-310,3900,-0.09,0.04,3.20,-0.60,-3.10,39.00,-5.16,0.43,39.38,3.51,-0.19,-7.35
1,-4,20,-19,-489,3924,-0.08,0.01,3.00,-0.19,-4.89,39.24,-5.18,0.43,39.37,3.42,-0.20,-7.58
2,-6,37,-15,-523,3892,-0.06,-0.03,2.93,-0.15,-5.23,38.92,-5.20,0.42,39.36,3.40,-0.15,-8.46
4,4,118,-1,-483,3886,-0.03,0.00,3.35,-0.01,-4.83,38.86,-5.21,0.42,39.35,3.37,-0.36,-12.50
1,3,133,7,-399,3910,-0.02,0.02,3.83,0.07,-3.99,39.10,-5.23,0.41,39.33,3.44,-0.34,-13.18
-3,-4,119,-28,-256,3828,-0.03,-0.01,4.17,-0.28,-2.56,38.28,-5.21,0.41,39.31,3.51,-0.19,-12.40
-1,-1,103,-36,-256,3862,-0.04,-0.01,4.38,-0.36,-2.56,38.62,-5.19,0.42,39.30,3.46,-0.25,-11.55
-2,-4,79,-28,-349,3925,-0.05,-0.04,4.43,-0.28,-3.49,39.25,-5.17,0.42,39.28,3.47,-0.18,-10.32
-5,-11,80,-12,-363,3889,-0.07,-0.10,4.47,-0.12,-3.63,38.89,-5.18,0.40,39.26,3.54,-0.01,-10.36
-2,1,96,-12,-336,3904,-0.08,-0.08,4.61,-0.12,-3.36,39.04,-5.17,0.39,39.24,3.47,-0.26,-11.14
-1,0,95,-5,-329,3948,-0.08,-0.08,4.73,-0.05,-3.29,39.48,-5.16,0.38,39.22,3.44,-0.23,-11.07
-3,-4,78,-39,-335,3880,-0.09,-0.09,4.73,-0.39,-3.35,38.80,-5.14,0.40,39.20,3.48,-0.15,-10.20
0,1,73,-33,-349,3875,-0.08,-0.08,4.70,-0.33,-3.49,38.75,-5.14,0.41,39.19,3.42,-0.27,-9.95
2,4,78,-16,-422,3950,-0.06,-0.04,4.71,-0.16,-4.22,39.50,-5.16,0.41,39.17,3.38,-0.34,-10.20
-1,1,85,-11,-398,3952,-0.06,-0.03,4.76,-0.11,-3.98,39.52,-5.18,0.41,39.15,3.45,-0.28,-10.54
-5,-5,93,-27,-264,3884,-0.08,-0.06,4.85,-0.27,-2.64,38.84,-5.16,0.41,39.13,3.53,-0.15,-10.93
-5,-3,93,-17,-258,3885,-0.10,-0.07,4.93,-0.17,-2.58,38.85,-5.14,0.41,39.11,3.52,-0.19,-10.91
-4,1,66,-7,-270,3904,-0.12,-0.06,4.84,-0.07,-2.70,39.04,-5.13,0.40,39.09,3.50,-0.27,-9.55
-2,-1,53,-14,-299,3899,-0.12,-0.06,4.68,-0.14,-2.99,38.99,-5.11,0.40,39.07,3.44,-0.23,-8.92
-2,2,62,-30,-385,3883,-0.12,-0.04,4.59,-0.30,-3.85,38.83,-5.13,0.40,39.05,3.46,-0.30,-9.39
1,4,68,-6,-401,3964,-0.10,-0.01,4.55,-0.06,-4.01,39.64,-5.14,0.40,39.04,3.40,-0.34,-9.70
3,10,92,-2,-417,3918,-0.07,0.05,4.65,-0.02,-4.17,39.18,-5.16,0.39,39.02,3.36,-0.48,-10.89
2,4,92,8,-381,3928,-0.05,0.07,4.75,0.08,-3.81,39.28,-5.17,0.38,39.00,3.39,-0.35,-10.87
-2,6,88,37,-378,3918,-0.06,0.10,4.81,0.37,-3.78,39.18,-5.18,0.37,38.98,3.47,-0.39,-10.66
1,5,89,38,-374,3874,-0.05,0.12,4.87,0.38,-3.74,38.74,-5.18,0.35,38.96,3.41,-0.37,-10.69
-3,13,23,-82,-154,3915,-0.06,0.19,4.53,-0.82,-1.54,39.15,-5.17,0.36,38.94,3.49,-0.55,-7.39
-5,-2,30,-97,-375,4003,-0.09,0.16,4.26,-0.97,-3.75,40.03,-5.17,0.38,38.92,3.54,-0.25,-7.79
3,-10,154,29,-770,3936,-0.06,0.08,4.77,0.29,-7.70,39.36,-5.19,0.38,38.91,3.38,-0.07,-14.00
1,11,244,-28,-654,3834,-0.05,0.14,5.78,-0.28,-6.54,38.34,-5.21,0.38,38.88,3.43,-0.51,-18.40
5,10,271,-87,-201,3886,-0.01,0.19,6.86,-0.87,-2.01,38.86,-5.19,0.39,38.86,3.33,-0.51,-19.58
-10,-4,254,-102,-161,4039,-0.07,0.14,7.72,-1.02,-1.61,40.39,-5.17,0.40,38.82,3.64,-0.22,-18.56
-1,-2,201,56,-234,3992,-0.07,0.12,8.17,0.56,-2.34,39.92,-5.16,0.39,38.79,3.44,-0.25,-15.78
-3,-1,201,22,-328,3809,-0.08,0.10,8.58,0.22,-3.28,38.09,-5.15,0.38,38.76,3.48,-0.26,-15.71
-4,-9,259,86,-547,3861,-0.10,0.03,9.30,0.86,-5.47,38.61,-5.17,0.37,38.72,3.52,-0.07,-18.52
-5,-10,285,80,-527,3909,-0.12,-0.03,10.11,0.80,-5.27,39.09,-5.18,0.37,38.68,3.56,-0.03,-19.70
2,14,384,144,-389,3897,-0.09,0.06,11.44,1.44,-3.89,38.97,-5.19,0.35,38.64,3.41,-0.53,-20.00
-13,13,379,126,-238,3938,-0.16,0.13,12.61,1.26,-2.38,39.38,-5.18,0.34,38.58,3.73,-0.53,-20.00
-5,-5,306,-68,-193,3944,-0.18,0.09,13.22,-0.68,-1.93,39.44,-5.16,0.35,38.53,3.56,-0.16,-20.00
-5,4,257,-41,-208,3844,-0.19,0.10,13.46,-0.41,-2.08,38.44,-5.14,0.36,38.48,3.55,-0.35,-17.66
-2,10,186,-36,-186,3873,-0.18,0.15,13.25,-0.36,-1.86,38.73,-5.12,0.37,38.43,3.47,-0.49,-14.07
1,13,167,-40,-233,3962,-0.16,0.22,12.94,-0.40,-2.33,39.62,-5.11,0.38,38.37,3.39,-0.57,-13.15
-5,19,151,-97,-289,3998,-0.17,0.31,12.57,-0.97,-2.89,39.98,-5.09,0.40,38.32,3.51,-0.73,-12.40
3,2,134,-117,-207,3980,-0.14,0.29,12.13,-1.17,-2.07,39.80,-5.08,0.41,38.28,3.33,-0.39,-11.60
-2,1,80,-16,-373,3893,-0.14,0.27,11.41,-0.16,-3.73,38.93,-5.10,0.41,38.23,3.44,-0.36,-8.97
-2,8,102,4,-455,3861,-0.14,0.29,10.89,0.04,-4.55,38.61,-5.11,0.41,38.19,3.45,-0.51,-10.17
-3,-5,198,-2,-472,3891,-0.14,0.23,11.01,-0.02,-4.72,38.91,-5.13,0.41,38.14,3.49,-0.23,-15.02
-9,5,226,-29,-499,3795,-0.18,0.24,11.28,-0.29,-4.99,37.95,-5.15,0.41,38.10,3.63,-0.44,-16.39
-10,3,286,-41,-425,3919,-0.22,0.23,11.90,-0.41,-4.25,39.19,-5.17,0.42,38.05,3.68,-0.40,-19.32
-12,-16,298,-10,-341,3894,-0.27,0.11,12.53,-0.10,-3.41,38.94,-5.16,0.41,38.00,3.72,0.02,-19.82
4,10,404,52,-459,3880,-0.22,0.16,13.74,0.52,-4.59,38.80,-5.17,0.41,37.95,3.39,-0.52,-20.00
-18,11,417,42,-337,3790,-0.31,0.21,14.91,0.42,-3.37,37.90,-5.17,0.39,37.89,3.87,-0.54,-20.00
-8,17,398,24,-426,3847,-0.33,0.30,15.85,0.24,-4.26,38.47,-5.19,0.39,37.82,3.68,-0.68,-20.00
3,10,401,-6,-457,3992,-0.28,0.33,16.71,-0.06,-4.57,39.92,-5.21,0.39,37.76,3.45,-0.55,-20.00
-7,3,477,18,-274,4146,-0.29,0.31,17.95,0.18,-2.74,41.46,-5.19,0.40,37.69,3.65,-0.41,-20.00
-17,17,479,-294,-198,3832,-0.37,0.39,19.07,-2.94,-1.98,38.32,-5.18,0.42,37.61,3.87,-0.73,-20.00
-13,1,448,36,-376,3867,-0.41,0.35,19.90,0.36,-3.76,38.67,-5.19,0.41,37.53,3.80,-0.39,-20.00
-2,22,459,-81,-421,3914,-0.38,0.45,20.71,-0.81,-4.21,39.14,-5.21,0.43,37.45,3.58,-0.86,-20.00
-13,5,507,-58,-247,3837,-0.42,0.44,21.73,-0.58,-2.47,38.37,-5.19,0.45,37.36,3.81,-0.52,-20.00
-8,39,527,-17,-283,4039,-0.43,0.63,22.77,-0.17,-2.83,40.39,-5.17,0.45,37.27,3.69,-1.26,-20.00
1,30,537,-98,-152,4114,-0.38,0.75,23.77,-0.98,-1.52,41.14,-5.16,0.47,37.18,3.49,-1.13,-20.00
6,14,520,-98,-247,3991,-0.30,0.76,24.57,-0.98,-2.47,39.91,-5.14,0.49,37.08,3.35,-0.82,-20.00
6,6,500,-32,-252,3972,-0.24,0.72,25.16,-0.32,-2.52,39.72,-5.12,0.50,36.98,3.32,-0.65,-20.00
-1,11,488,-92,-222,3884,-0.22,0.72,25.62,-0.92,-2.22,38.84,-5.11,0.52,36.88,3.45,-0.76,-20.00
-11,22,495,-43,-447,3865,-0.27,0.78,26.08,-0.43,-4.47,38.65,-5.13,0.54,36.77,3.68,-1.01,-20.00
12,27,520,2,-573,3928,-0.17,0.87,26.64,0.02,-5.73,39.28,-5.14,0.55,36.67,3.20,-1.15,-20.00
-29,10,603,-18,-444,3958,-0.33,0.84,27.66,-0.18,-4.44,39.58,-5.16,0.56,36.56,4.08,-0.80,-20.00
-9,19,613,-35,-441,3816,-0.35,0.87,28.63,-0.35,-4.41,38.16,-5.18,0.57,36.45,3.70,-1.00,-20.00
-7,15,586,-16,-432,3889,-0.36,0.88,29.34,-0.16,-4.32,38.89,-5.20,0.58,36.33,3.67,-0.93,-20.00
-8,12,595,-6,-405,3923,-0.37,0.86,30.04,-0.06,-4.05,39.23,-5.21,0.58,36.21,3.70,-0.86,-20.00
-2,12,624,-75,-345,3863,-0.34,0.85,30.84,-0.75,-3.45,38.63,-5.21,0.61,36.09,3.57,-0.88,-20.00
8,12,636,22,-280,3953,-0.26,0.84,31.64,0.22,-2.80,39.53,-5.19,0.62,35.96,3.34,-0.88,-20.00
-15,3,622,7,-348,3888,-0.33,0.77,32.27,0.07,-3.48,38.88,-5.19,0.61,35.83,3.82,-0.68,-20.00
-3,17,651,-2,-413,3840,-0.31,0.80,33.01,-0.02,-4.13,38.40,-5.21,0.62,35.70,3.58,-0.97,-20.00
-30,10,705,-47,-391,3804,-0.46,0.78,34.01,-0.47,-3.91,38.04,-5.23,0.64,35.57,4.19,-0.84,-20.00
-6,15,706,-57,-340,4026,-0.45,0.79,34.92,-0.57,-3.40,40.26,-5.21,0.66,35.43,3.68,-0.96,-20.00
1,16,656,-113,-256,3916,-0.40,0.81,35.43,-1.13,-2.56,39.16,-5.19,0.69,35.29,3.52,-1.00,-20.00
-3,12,631,-128,-188,3897,-0.38,0.80,35.73,-1.28,-1.88,38.97,-5.18,0.71,35.15,3.58,-0.93,-20.00
3,10,597,-43,-387,3801,-0.32,0.78,35.80,-0.43,-3.87,38.01,-5.20,0.73,35.00,3.46,-0.90,-20.00
0,23,598,-92,-444,3879,-0.29,0.85,35.87,-0.92,-4.44,38.79,-5.21,0.75,34.86,3.52,-1.19,-20.00
-6,19,605,23,-407,3849,-0.30,0.88,35.97,0.23,-4.07,38.49,-5.22,0.75,34.72,3.65,-1.12,-20.00
-7,15,625,-56,-427,4055,-0.31,0.88,36.19,-0.56,-4.27,40.55,-5.24,0.77,34.57,3.69,-1.05,-20.00
-6,31,677,-69,-411,3918,-0.32,0.98,36.70,-0.69,-4.11,39.18,-5.26,0.79,34.43,3.68,-1.42,-20.00
-6,19,713,28,-359,4132,-0.32,1.00,37.38,0.28,-3.59,41.32,-5.25,0.79,34.28,3.68,-1.18,-20.00
-6,30,790,119,-360,3953,-0.33,1.08,38.46,1.19,-3.60,39.53,-5.25,0.79,34.13,3.68,-1.43,-20.00
-25,-5,797,13,-234,3993,-0.45,0.94,39.47,0.13,-2.34,39.93,-5.23,0.80,33.97,4.08,-0.68,-20.00
-11,12,806,-7,-438,4045,-0.47,0.92,40.44,-0.07,-4.38,40.45,-5.25,0.81,33.81,3.81,-1.03,-20.00
-8,5,805,64,-486,3811,-0.47,0.86,41.31,0.64,-4.86,38.11,-5.26,0.82,33.65,3.76,-0.87,-20.00
-16,-8,816,-69,-361,3831,-0.52,0.73,42.16,-0.69,-3.61,38.31,-5.27,0.85,33.48,3.95,-0.60,-20.00
-13,17,814,55,-418,3912,-0.55,0.76,42.91,0.55,-4.18,39.12,-5.28,0.85,33.31,3.90,-1.11,-20.00
-21,13,766,-74,-366,3792,-0.62,0.76,43.29,-0.74,-3.66,37.92,-5.29,0.88,33.14,4.09,-1.06,-20.00
-15,21,740,-119,-256,3993,-0.65,0.81,43.47,-1.19,-2.56,39.93,-5.27,0.91,32.96,3.96,-1.25,-20.00
-16,2,641,-14,-201,3963,-0.68,0.74,43.04,-0.14,-2.01,39.63,-5.26,0.93,32.79,3.98,-0.85,-20.00
-12,12,625,-167,-195,3969,-0.69,0.74,42.55,-1.67,-1.95,39.69,-5.24,0.95,32.62,3.89,-1.08,-20.00
-8,-1,603,-31,-314,3925,-0.67,0.66,41.97,-0.31,-3.14,39.25,-5.23,0.96,32.45,3.79,-0.79,-20.00
-19,3,590,-4,-265,3807,-0.72,0.61,41.37,-0.04,-2.65,38.07,-5.21,0.97,32.29,4.02,-0.87,-20.00
-11,14,607,-93,-405,3794,-0.71,0.64,40.94,-0.93,-4.05,37.94,-5.23,0.99,32.13,3.87,-1.11,-20.00
-13,19,597,5,-306,3771,-0.72,0.69,40.48,0.05,-3.06,37.71,-5.22,0.99,31.97,3.90,-1.23,-20.00
-12,23,535,-45,-228,3890,-0.72,0.76,39.70,-0.45,-2.28,38.90,-5.20,1.01,31.81,3.87,-1.34,-20.00
-8,5,500,-29,-217,3978,-0.70,0.72,38.78,-0.29,-2.17,39.78,-5.18,1.02,31.65,3.77,-0.97,-20.00
7,-6,436,-95,-389,3811,-0.59,0.61,37.56,-0.95,-3.89,38.11,-5.20,1.05,31.50,3.45,-0.73,-20.00
-3,-6,424,-130,-286,3860,-0.55,0.51,36.39,-1.30,-2.86,38.60,-5.18,1.07,31.36,3.63,-0.73,-20.00
-13,8,431,-59,-386,3725,-0.57,0.51,35.38,-0.59,-3.86,37.25,-5.20,1.08,31.22,3.85,-1.02,-20.00
-6,14,420,56,-301,3868,-0.55,0.54,34.41,0.56,-3.01,38.68,-5.19,1.08,31.08,3.70,-1.15,-20.00
-2,0,409,-29,-220,3936,-0.51,0.49,33.46,-0.29,-2.20,39.36,-5.18,1.09,30.95,3.60,-0.85,-20.00
-20,-6,403,-132,-205,4002,-0.58,0.40,32.57,-1.32,-2.05,40.02,-5.16,1.11,30.82,3.97,-0.72,-20.00
-19,9,407,-52,-277,4043,-0.64,0.42,31.80,-0.52,-2.77,40.43,-5.14,1.12,30.69,3.95,-1.03,-20.00
-6,5,419,-8,-285,3880,-0.61,0.41,31.17,-0.08,-2.85,38.80,-5.13,1.12,30.57,3.67,-0.95,-20.00
-8,9,381,-101,-270,3866,-0.60,0.42,30.38,-1.01,-2.70,38.66,-5.11,1.14,30.45,3.70,-1.05,-19.58
3,25,387,-8,-406,3928,-0.52,0.53,29.70,-0.08,-4.06,39.28,-5.12,1.13,30.33,3.46,-1.40,-19.98
-5,11,286,-141,-345,3894,-0.50,0.55,28.48,-1.41,-3.45,38.94,-5.12,1.16,30.21,3.62,-1.14,-15.04
0,21,336,-1,-594,3874,-0.45,0.62,27.68,-0.01,-5.94,38.74,-5.14,1.17,30.10,3.51,-1.37,-17.70
-6,-1,327,110,-188,3902,-0.44,0.55,26.91,1.10,-1.88,39.02,-5.13,1.17,30.00,3.63,-0.90,-17.36
-5,3,271,-81,-227,3817,-0.43,0.51,25.87,-0.81,-2.27,38.17,-5.11,1.18,29.89,3.59,-0.98,-14.67
-4,12,264,-111,-301,3821,-0.41,0.54,24.89,-1.11,-3.01,38.21,-5.09,1.20,29.79,3.55,-1.18,-14.47
5,20,290,-110,-390,4032,-0.34,0.60,24.17,-1.10,-3.90,40.32,-5.11,1.23,29.70,3.36,-1.38,-15.90
-4,7,289,21,-348,3990,-0.33,0.59,23.52,0.21,-3.48,39.90,-5.10,1.22,29.60,3.54,-1.11,-15.94
9,10,284,-130,-358,3875,-0.24,0.59,22.90,-1.30,-3.58,38.75,-5.11,1.25,29.51,3.25,-1.19,-15.78
0,-3,172,-89,-338,3904,-0.22,0.51,21.66,-0.89,-3.38,39.04,-5.09,1.26,29.43,3.42,-0.91,-10.29
-5,6,186,-77,-473,3974,-0.22,0.50,20.63,-0.77,-4.73,39.74,-5.11,1.27,29.35,3.53,-1.10,-11.16
-6,12,250,81,-447,4087,-0.24,0.52,20.09,0.81,-4.47,40.87,-5.11,1.26,29.27,3.56,-1.22,-14.49
-16,1,249,-60,-446,3846,-0.31,0.47,19.60,-0.60,-4.46,38.46,-5.13,1.27,29.19,3.80,-0.99,-14.51
-1,-5,173,-76,-294,3877,-0.29,0.40,18.69,-0.76,-2.94,38.77,-5.11,1.27,29.11,3.47,-0.85,-10.79
3,7,192,-35,-436,3890,-0.24,0.40,18.00,-0.35,-4.36,38.90,-5.13,1.27,29.04,3.39,-1.09,-11.87
-5,3,233,-66,-373,3887,-0.25,0.38,17.62,-0.66,-3.73,38.87,-5.14,1.27,28.97,3.56,-1.00,-14.01
-13,1,232,-69,-329,3949,-0.30,0.35,17.27,-0.69,-3.29,39.49,-5.13,1.26,28.90,3.73,-0.95,-14.00
-2,-3,241,55,-389,3843,-0.28,0.29,17.01,0.55,-3.89,38.43,-5.13,1.25,28.84,3.50,-0.85,-14.49
-11,18,246,13,-355,3794,-0.32,0.37,16.81,0.13,-3.55,37.94,-5.13,1.24,28.77,3.70,-1.29,-14.77
-14,16,308,-80,-323,3909,-0.38,0.43,17.01,-0.80,-3.23,39.09,-5.12,1.25,28.70,3.76,-1.27,-17.87
-6,8,290,8,-267,3847,-0.37,0.44,17.08,0.08,-2.67,38.47,-5.10,1.24,28.63,3.59,-1.10,-16.94
6,11,280,18,-414,3867,-0.30,0.46,17.08,0.18,-4.14,38.67,-5.11,1.23,28.57,3.33,-1.16,-16.41
-1,11,284,-24,-444,3962,-0.28,0.48,17.10,-0.24,-4.44,39.62,-5.13,1.23,28.50,3.48,-1.17,-16.60
-4,15,331,18,-361,3984,-0.27,0.53,17.41,0.18,-3.61,39.84,-5.13,1.22,28.43,3.54,-1.25,-18.92
-10,-10,312,-39,-199,3970,-0.31,0.41,17.57,-0.39,-1.99,39.70,-5.11,1.22,28.36,3.66,-0.72,-17.92
-1,-9,237,-80,-373,3880,-0.28,0.32,17.26,-0.80,-3.73,38.80,-5.13,1.23,28.29,3.48,-0.71,-14.15
-6,6,264,-114,-576,3826,-0.29,0.32,17.15,-1.14,-5.76,38.26,-5.15,1.24,28.22,3.60,-1.03,-15.53
-16,22,333,-204,-280,3838,-0.36,0.42,17.46,-2.04,-2.80,38.38,-5.14,1.26,28.15,3.81,-1.40,-18.97
-9,8,318,-166,-287,4038,-0.38,0.43,17.66,-1.66,-2.87,40.38,-5.12,1.28,28.08,3.67,-1.13,-18.16
-3,9,298,-45,-313,3990,-0.36,0.44,17.71,-0.45,-3.13,39.90,-5.11,1.28,28.01,3.53,-1.15,-17.12
-7,13,242,-51,-178,3838,-0.37,0.48,17.41,-0.51,-1.78,38.38,-5.09,1.28,27.94,3.60,-1.24,-14.31
-3,9,222,-82,-303,3862,-0.35,0.48,17.03,-0.82,-3.03,38.62,-5.08,1.29,27.87,3.51,-1.17,-13.35
8,6,217,-79,-316,3902,-0.26,0.47,16.65,-0.79,-3.16,39.02,-5.06,1.29,27.81,3.25,-1.10,-13.15
2,15,253,-49,-490,3919,-0.23,0.52,16.53,-0.49,-4.90,39.19,-5.07,1.29,27.74,3.37,-1.30,-14.99
4,12,277,29,-404,3887,-0.18,0.54,16.56,0.29,-4.04,38.87,-5.08,1.29,27.68,3.32,-1.24,-16.19
-6,14,290,-175,-327,3931,-0.20,0.57,16.68,-1.75,-3.27,39.31,-5.08,1.31,27.61,3.53,-1.31,-16.82
-7,21,315,-247,-355,3932,-0.22,0.64,16.93,-2.47,-3.55,39.32,-5.08,1.34,27.54,3.55,-1.49,-18.04
2,17,335,-120,-363,3996,-0.19,0.68,17.28,-1.20,-3.63,39.96,-5.08,1.37,27.47,3.36,-1.43,-18.98
-4,3,322,-116,-340,3976,-0.19,0.63,17.52,-1.16,-3.40,39.76,-5.07,1.39,27.40,3.48,-1.15,-18.26
5,38,410,-140,-467,4101,-0.14,0.80,18.27,-1.40,-4.67,41.01,-5.09,1.41,27.33,3.29,-1.92,-20.00
-3,24,489,237,-270,3769,-0.15,0.87,19.42,2.37,-2.70,37.69,-5.08,1.40,27.26,3.45,-1.65,-20.00
-15,23,535,188,-626,3905,-0.22,0.92,20.74,1.88,-6.26,39.05,-5.09,1.40,27.17,3.73,-1.64,-20.00
-20,12,553,274,-478,3823,-0.32,0.90,22.04,2.74,-4.78,38.23,-5.10,1.39,27.09,3.86,-1.41,-20.00
-21,4,634,-15,-374,3928,-0.42,0.84,23.71,-0.15,-3.74,39.28,-5.10,1.38,26.99,3.91,-1.22,-20.00
-29,18,651,63,-285,4040,-0.55,0.86,25.31,0.63,-2.85,40.40,-5.09,1.38,26.89,4.10,-1.51,-20.00
-33,30,652,-109,-474,3858,-0.70,0.96,26.75,-1.09,-4.74,38.58,-5.11,1.40,26.79,4.24,-1.79,-20.00
-46,38,703,-5,-513,4087,-0.91,1.09,28.37,-0.05,-5.13,40.87,-5.13,1.40,26.67,4.57,-2.00,-20.00
-68,22,644,121,-299,3864,-1.23,1.12,29.46,1.21,-2.99,38.64,-5.13,1.40,26.56,5.10,-1.67,-20.00
-10,34,606,-169,-392,3573,-1.17,1.21,30.21,-1.69,-3.92,35.73,-5.14,1.43,26.44,3.92,-1.96,-20.00
-10,34,599,-271,-562,3885,-1.12,1.30,30.84,-2.71,-5.62,38.85,-5.16,1.45,26.31,3.91,-2.01,-20.00
-88,4,675,-46,-510,4296,-1.54,1.19,31.87,-0.46,-5.10,42.96,-5.18,1.46,26.19,5.63,-1.37,-20.00
84,65,493,-269,-403,3716,-0.87,1.47,31.69,-2.69,-4.03,37.16,-5.18,1.50,26.06,1.95,-2.71,-20.00
79,60,485,-134,-433,3887,-0.30,1.69,31.48,-1.34,-4.33,38.87,-5.20,1.52,25.94,1.91,-2.69,-20.00
-111,14,531,-200,-430,4002,-0.95,1.61,31.57,-2.00,-4.30,40.02,-5.21,1.55,25.81,5.95,-1.75,-20.00
-80,26,527,-69,-297,3922,-1.34,1.60,31.63,-0.69,-2.97,39.22,-5.20,1.56,25.69,5.42,-2.00,-20.00
54,25,473,0,-192,3989,-0.88,1.60,31.35,0.00,-1.92,39.89,-5.18,1.57,25.56,2.56,-1.98,-20.00
4,27,456,28,-325,3678,-0.77,1.60,31.00,0.28,-3.25,36.78,-5.18,1.57,25.44,3.55,-2.02,-20.00
10,-4,490,-183,-636,3937,-0.63,1.42,30.89,-1.83,-6.36,39.37,-5.20,1.59,25.32,3.40,-1.36,-20.00
3,-19,541,-180,-529,4150,-0.55,1.16,31.10,-1.80,-5.29,41.50,-5.21,1.61,25.19,3.53,-1.00,-20.00
-35,-26,457,-104,-356,3794,-0.71,0.89,30.78,-1.04,-3.56,37.94,-5.23,1.62,25.07,4.35,-0.78,-20.00
9,-16,432,-39,-421,3991,-0.58,0.70,30.34,-0.39,-4.21,39.91,-5.24,1.62,24.95,3.43,-0.94,-20.00
-26,-7,463,-48,-431,3910,-0.68,0.59,30.13,-0.48,-4.31,39.10,-5.25,1.62,24.83,4.18,-1.09,-20.00
-37,-9,451,4,-412,3746,-0.84,0.47,29.86,0.04,-4.12,37.46,-5.26,1.62,24.71,4.45,-1.02,-20.00
11,-18,421,-98,-363,3818,-0.69,0.32,29.45,-0.98,-3.63,38.18,-5.27,1.62,24.60,3.44,-0.79,-20.00
14,-24,424,-97,-411,3937,-0.53,0.14,29.09,-0.97,-4.11,39.37,-5.29,1.63,24.48,3.35,-0.62,-20.00
13,-18,437,-51,-225,4002,-0.40,0.01,28.84,-0.51,-2.25,40.02,-5.27,1.63,24.37,3.32,-0.71,-20.00
7,-16,401,-43,-183,3839,-0.32,-0.08,28.41,-0.43,-1.83,38.39,-5.25,1.63,24.25,3.41,-0.73,-19.83
32,-23,362,-99,-205,3830,-0.09,-0.22,27.77,-0.99,-2.05,38.30,-5.23,1.64,24.14,2.83,-0.56,-17.93
22,0,387,-83,-382,3917,0.05,-0.19,27.36,-0.83,-3.82,39.17,-5.24,1.64,24.03,3.00,-1.03,-19.26
-4,-13,427,-38,-281,4065,0.02,-0.25,27.23,-0.38,-2.81,40.65,-5.22,1.63,23.92,3.52,-0.74,-20.00
-5,2,385,-274,-321,3767,-0.01,-0.22,26.85,-2.74,-3.21,37.67,-5.22,1.66,23.82,3.55,-1.08,-19.20
0,17,484,54,-404,3881,-0.01,-0.09,27.12,0.54,-4.04,38.81,-5.22,1.65,23.71,3.45,-1.41,-20.00
7,6,454,95,-346,3963,0.03,-0.05,27.18,0.95,-3.46,39.63,-5.21,1.64,23.60,3.29,-1.19,-20.00
-7,13,458,66,-637,3843,-0.01,0.04,27.25,0.66,-6.37,38.43,-5.23,1.64,23.49,3.59,-1.36,-20.00
-9,-4,484,81,-645,4020,-0.07,0.01,27.48,0.81,-6.45,40.20,-5.24,1.64,23.38,3.66,-1.01,-20.00
-11,12,554,-109,-325,3927,-0.13,0.08,28.11,-1.09,-3.25,39.27,-5.22,1.65,23.27,3.70,-1.36,-20.00
-15,5,519,-8,-251,3874,-0.21,0.10,28.47,-0.08,-2.51,38.74,-5.20,1.65,23.16,3.79,-1.22,-20.00
17,-14,337,-127,-182,3793,-0.08,0.01,27.68,-1.27,-1.82,37.93,-5.18,1.66,23.05,3.10,-0.81,-16.48
10,-5,340,2,-638,3818,-0.01,-0.02,26.98,0.02,-6.38,38.18,-5.19,1.66,22.94,3.23,-0.99,-16.74
2,48,645,289,-412,3647,0.00,0.27,28.22,2.89,-4.12,36.47,-5.20,1.66,22.83,3.39,-2.14,-20.00
-5,4,501,-125,100,4208,-0.03,0.27,28.45,-1.25,1.00,42.08,-5.17,1.67,22.71,3.52,-1.26,-20.00
-24,6,537,-164,-686,4019,-0.17,0.28,28.88,-1.64,-6.86,40.19,-5.19,1.68,22.60,3.96,-1.31,-20.00
-14,20,614,88,-569,3783,-0.24,0.37,29.74,0.88,-5.69,37.83,-5.20,1.68,22.48,3.78,-1.62,-20.00
-23,-4,587,-135,-100,4044,-0.36,0.31,30.35,-1.35,-1.00,40.44,-5.18,1.70,22.36,3.98,-1.12,-20.00
-13,3,557,-240,-390,3842,-0.40,0.30,30.71,-2.40,-3.90,38.42,-5.18,1.73,22.24,3.79,-1.28,-20.00
-44,39,673,-50,-493,3889,-0.63,0.51,31.74,-0.50,-4.93,38.89,-5.20,1.73,22.11,4.50,-2.07,-20.00
-16,39,709,103,-405,3940,-0.66,0.69,32.89,1.03,-4.05,39.40,-5.20,1.73,21.98,3.94,-2.12,-20.00
-10,-8,597,137,-368,3842,-0.66,0.58,33.25,1.37,-3.68,38.42,-5.20,1.72,21.85,3.82,-1.13,-20.00
34,24,596,113,-380,3742,-0.39,0.66,33.56,1.13,-3.80,37.42,-5.20,1.72,21.71,2.85,-1.81,-20.00
-59,37,722,43,-221,4054,-0.71,0.82,34.61,0.43,-2.21,40.54,-5.19,1.72,21.58,4.82,-2.11,-20.00
-69,38,718,-166,-272,3847,-1.06,0.97,35.53,-1.66,-2.72,38.47,-5.17,1.75,21.43,5.11,-2.19,-20.00
-42,42,698,98,-477,3859,-1.21,1.13,36.23,0.98,-4.77,38.59,-5.18,1.75,21.29,4.60,-2.32,-20.00
-9,30,698,-255,-350,3878,-1.14,1.20,36.87,-2.55,-3.50,38.78,-5.18,1.79,21.14,3.91,-2.12,-20.00
-54,15,706,-163,-296,3856,-1.36,1.17,37.49,-1.63,-2.96,38.56,-5.17,1.82,21.00,4.88,-1.82,-20.00
-30,22,679,-147,-366,3799,-1.40,1.19,37.88,-1.47,-3.66,37.99,-5.18,1.85,20.85,4.41,-1.99,-20.00
-1,36,636,-151,-447,3850,-1.27,1.29,37.97,-1.51,-4.47,38.50,-5.20,1.87,20.69,3.80,-2.32,-20.00
-16,20,629,-18,-522,3759,-1.24,1.28,38.01,-0.18,-5.22,37.59,-5.22,1.88,20.54,4.11,-2.00,-20.00
-3,14,650,-13,-511,3837,-1.13,1.24,38.17,-0.13,-5.11,38.37,-5.23,1.89,20.39,3.82,-1.87,-20.00
-5,-6,634,37,-398,3911,-1.05,1.08,38.22,0.37,-3.98,39.11,-5.23,1.89,20.24,3.84,-1.42,-20.00
30,0,602,-211,-443,3880,-0.76,0.97,38.07,-2.11,-4.43,38.80,-5.24,1.92,20.09,3.06,-1.53,-20.00
19,14,595,-84,-411,3929,-0.57,0.96,37.90,-0.84,-4.11,39.29,-5.25,1.93,19.94,3.24,-1.82,-20.00
29,-15,503,-169,-429,3828,-0.34,0.77,37.17,-1.69,-4.29,38.28,-5.27,1.95,19.79,2.98,-1.19,-20.00
45,-9,485,-73,-475,3745,-0.03,0.64,36.42,-0.73,-4.75,37.45,-5.28,1.96,19.65,2.58,-1.29,-20.00
34,-17,457,-37,-413,4142,0.18,0.47,35.56,-0.37,-4.13,41.42,-5.28,1.96,19.51,2.74,-1.08,-20.00
29,-5,457,-117,-282,4023,0.34,0.39,34.79,-1.17,-2.82,40.23,-5.25,1.97,19.37,2.79,-1.31,-20.00
-9,7,433,-23,-398,3960,0.25,0.40,33.96,-0.23,-3.98,39.60,-5.25,1.97,19.23,3.58,-1.55,-19.59
0,16,448,-162,-405,3913,0.23,0.46,33.29,-1.62,-4.05,39.13,-5.26,1.99,19.10,3.41,-1.76,-20.00
6,-17,388,129,-147,3840,0.24,0.31,32.33,1.29,-1.47,38.40,-5.25,1.99,18.97,3.28,-1.05,-17.53
4,-4,361,-29,-257,3853,0.24,0.25,31.30,-0.29,-2.57,38.53,-5.23,1.99,18.85,3.31,-1.30,-16.32
-15,15,435,-183,-678,3874,0.12,0.32,30.82,-1.83,-6.78,38.74,-5.24,2.00,18.72,3.73,-1.71,-20.00
-18,18,560,112,-641,3883,0.00,0.40,31.16,1.12,-6.41,38.83,-5.25,2.00,18.60,3.83,-1.80,-20.00
-20,-14,473,-362,-296,3949,-0.12,0.27,30.93,-3.62,-2.96,39.49,-5.24,2.03,18.48,3.90,-1.13,-20.00
-7,13,484,-231,-356,3771,-0.15,0.32,30.79,-2.31,-3.56,37.71,-5.24,2.06,18.36,3.64,-1.71,-20.00
6,21,475,-38,-420,3841,-0.10,0.42,30.60,-0.38,-4.20,38.41,-5.25,2.06,18.23,3.37,-1.90,-20.00
-13,3,468,-180,-346,4043,-0.17,0.40,30.40,-1.80,-3.46,40.43,-5.23,2.09,18.11,3.76,-1.55,-20.00
4,9,443,-103,-389,3976,-0.13,0.41,30.06,-1.03,-3.89,39.76,-5.24,2.08,17.99,3.41,-1.67,-20.00
7,15,431,-62,-452,3733,-0.07,0.46,29.68,-0.62,-4.52,37.33,-5.25,2.09,17.88,3.34,-1.81,-19.98
-6,8,406,-108,-460,3827,-0.10,0.46,29.19,-1.08,-4.60,38.27,-5.26,2.09,17.76,3.62,-1.67,-18.78
-6,5,398,-117,-471,3908,-0.13,0.45,28.70,-1.17,-4.71,39.08,-5.28,2.10,17.65,3.64,-1.61,-18.43
-6,4,368,-165,-442,3893,-0.15,0.43,28.08,-1.65,-4.42,38.93,-5.29,2.12,17.54,3.66,-1.60,-17.00
10,-2,337,48,-252,3862,-0.08,0.37,27.32,0.48,-2.52,38.62,-5.28,2.11,17.43,3.30,-1.46,-15.53
-12,-2,211,-276,-755,3728,-0.14,0.32,25.88,-2.76,-7.55,37.28,-5.29,2.13,17.32,3.78,-1.45,-9.36
-19,11,303,14,-909,3990,-0.24,0.36,25.14,0.14,-9.09,39.90,-5.31,2.14,17.22,3.96,-1.73,-14.15
-5,11,427,-116,-221,4108,-0.25,0.39,25.23,-1.16,-2.21,41.08,-5.29,2.14,17.12,3.66,-1.74,-20.00
-7,-18,393,7,-68,3862,-0.27,0.24,25.10,0.07,-0.68,38.62,-5.27,2.15,17.02,3.69,-1.12,-18.69
-26,-30,331,-189,-420,3967,-0.40,0.03,24.61,-1.89,-4.20,39.67,-5.28,2.17,16.92,4.12,-0.83,-15.61
-18,0,376,-66,-492,3661,-0.47,0.03,24.45,-0.66,-4.92,36.61,-5.30,2.17,16.83,3.99,-1.44,-17.91
-4,22,456,3,-362,3695,-0.45,0.16,24.78,0.03,-3.62,36.95,-5.30,2.16,16.73,3.70,-1.92,-20.00
1,26,457,-57,-345,4034,-0.40,0.30,25.09,-0.57,-3.45,40.34,-5.29,2.15,16.63,3.58,-2.03,-20.00
-3,11,421,-17,-366,3881,-0.37,0.34,25.15,-0.17,-3.66,38.81,-5.29,2.14,16.53,3.65,-1.73,-20.00
-7,-6,386,-7,-302,3948,-0.38,0.27,24.99,-0.07,-3.02,39.48,-5.28,2.14,16.43,3.73,-1.36,-18.25
-17,-6,393,-2,-416,3936,-0.45,0.21,24.89,-0.02,-4.16,39.36,-5.28,2.13,16.33,3.95,-1.34,-18.60
1,11,387,-141,-442,3745,-0.39,0.25,24.76,-1.41,-4.42,37.45,-5.30,2.14,16.23,3.58,-1.70,-18.30
12,7,356,47,-262,3801,-0.28,0.27,24.46,0.47,-2.62,38.01,-5.29,2.13,16.14,3.32,-1.62,-16.76
-4,-11,308,-111,-217,4041,-0.28,0.18,23.89,-1.11,-2.17,40.41,-5.27,2.14,16.04,3.63,-1.24,-14.40
-11,7,384,21,-671,3859,-0.32,0.20,23.84,0.21,-6.71,38.59,-5.28,2.14,15.94,3.80,-1.61,-18.26
13,7,395,202,-507,3835,-0.21,0.22,23.87,2.02,-5.07,38.35,-5.29,2.13,15.85,3.28,-1.61,-18.80
-7,6,478,298,-579,3783,-0.23,0.24,24.40,2.98,-5.79,37.83,-5.29,2.13,15.75,3.70,-1.59,-20.00
-10,-4,442,198,-495,3729,-0.27,0.19,24.65,1.98,-4.95,37.29,-5.30,2.12,15.66,3.77,-1.37,-20.00
-12,19,488,-25,-469,3817,-0.31,0.29,25.16,-0.25,-4.69,38.17,-5.31,2.12,15.56,3.83,-1.86,-20.00
-9,5,498,-10,-379,3973,-0.34,0.29,25.69,-0.10,-3.79,39.73,-5.31,2.11,15.45,3.78,-1.57,-20.00
-5,7,492,-33,-328,3973,-0.33,0.30,26.12,-0.33,-3.28,39.73,-5.30,2.10,15.35,3.69,-1.61,-20.00
-9,3,490,-161,-322,3914,-0.36,0.29,26.50,-1.61,-3.22,39.14,-5.28,2.12,15.24,3.76,-1.54,-20.00
-6,24,513,-227,-500,3818,-0.36,0.41,26.98,-2.27,-5.00,38.18,-5.29,2.14,15.14,3.71,-2.01,-20.00
-3,13,557,46,-520,4031,-0.34,0.45,27.68,0.46,-5.20,40.31,-5.30,2.14,15.03,3.65,-1.80,-20.00
-4,22,523,-415,-589,3968,-0.33,0.54,28.10,-4.15,-5.89,39.68,-5.31,2.16,14.92,3.67,-2.02,-20.00
-15,11,586,-16,-650,3840,-0.39,0.55,28.86,-0.16,-6.50,38.40,-5.32,2.17,14.80,3.92,-1.81,-20.00
-12,24,589,-366,-653,3938,-0.42,0.64,29.57,-3.66,-6.53,39.38,-5.33,2.19,14.68,3.88,-2.11,-20.00
-9,17,617,126,-556,3747,-0.44,0.68,30.38,1.26,-5.56,37.47,-5.34,2.19,14.56,3.83,-1.98,-20.00
-15,26,608,-158,-492,3674,-0.48,0.77,31.05,-1.58,-4.92,36.74,-5.36,2.21,14.44,3.97,-2.20,-20.00
-8,18,563,140,-303,3994,-0.48,0.80,31.38,1.40,-3.03,39.94,-5.35,2.21,14.32,3.83,-2.04,-20.00
-11,15,585,-36,-480,3991,-0.50,0.81,31.81,-0.36,-4.80,39.91,-5.36,2.21,14.19,3.90,-1.99,-20.00
-12,8,579,-47,-447,3935,-0.53,0.78,32.16,-0.47,-4.47,39.35,-5.37,2.21,14.06,3.93,-1.83,-20.00
-6,17,539,15,-452,4001,-0.51,0.81,32.23,0.15,-4.52,40.01,-5.37,2.21,13.93,3.81,-2.02,-20.00
-16,0,522,-88,-385,4011,-0.56,0.73,32.19,-0.88,-3.85,40.11,-5.37,2.20,13.81,4.02,-1.65,-20.00
-18,-19,433,18,-440,3974,-0.61,0.54,31.61,0.18,-4.40,39.74,-5.38,2.20,13.68,4.08,-1.21,-18.99
-16,1,414,-125,-558,3791,-0.65,0.49,30.98,-1.25,-5.58,37.91,-5.39,2.21,13.56,4.06,-1.61,-18.12
-14,-2,369,-40,-447,3765,-0.67,0.43,30.13,-0.40,-4.47,37.65,-5.40,2.21,13.44,4.03,-1.54,-15.95
-9,7,379,192,-448,3949,-0.66,0.43,29.43,1.92,-4.48,39.49,-5.40,2.21,13.32,3.93,-1.72,-16.56
-15,0,415,161,-278,4037,-0.68,0.39,29.02,1.61,-2.78,40.37,-5.40,2.20,13.21,4.05,-1.56,-18.44
-6,8,390,208,-234,3687,-0.65,0.40,28.50,2.08,-2.34,36.87,-5.39,2.20,13.09,3.86,-1.72,-17.24
-27,18,415,-212,-655,3797,-0.75,0.47,28.18,-2.12,-6.55,37.97,-5.41,2.21,12.98,4.32,-1.95,-18.55
-3,15,451,134,-514,3926,-0.69,0.51,28.11,1.34,-5.14,39.26,-5.41,2.21,12.87,3.82,-1.90,-20.00
9,-4,442,-29,-77,3744,-0.57,0.44,28.00,-0.29,-0.77,37.44,-5.39,2.22,12.76,3.53,-1.50,-19.91
0,-3,356,-212,2,3849,-0.51,0.37,27.37,-2.12,0.02,38.49,-5.37,2.23,12.65,3.69,-1.51,-15.63
-13,-16,305,-171,-556,3881,-0.54,0.24,26.49,-1.71,-5.56,38.81,-5.39,2.24,12.54,3.97,-1.22,-13.17
-19,28,387,-107,-836,3587,-0.60,0.39,26.20,-1.07,-8.36,35.87,-5.41,2.25,12.44,4.12,-2.16,-17.37
-17,29,546,-71,-403,3695,-0.65,0.52,26.91,-0.71,-4.03,36.95,-5.42,2.25,12.33,4.10,-2.22,-20.00
-25,17,539,-147,-255,4097,-0.73,0.58,27.51,-1.47,-2.55,40.97,-5.40,2.26,12.22,4.27,-1.99,-20.00
-4,26,532,-81,-610,3974,-0.68,0.68,28.00,-0.81,-6.10,39.74,-5.41,2.27,12.11,3.84,-2.21,-20.00
-1,22,581,112,-590,3857,-0.62,0.74,28.75,1.12,-5.90,38.57,-5.42,2.27,12.00,3.77,-2.15,-20.00
-16,18,622,-145,-470,3860,-0.66,0.78,29.67,-1.45,-4.70,38.60,-5.44,2.28,11.88,4.09,-2.08,-20.00
-12,2,628,-5,-316,4027,-0.66,0.71,30.53,-0.05,-3.16,40.27,-5.43,2.28,11.76,4.01,-1.74,-20.00
-14,14,589,-71,-687,3939,-0.68,0.73,31.07,-0.71,-6.87,39.39,-5.44,2.29,11.64,4.06,-1.99,-20.00
-12,24,618,-137,-579,3791,-0.69,0.80,31.73,-1.37,-5.79,37.91,-5.46,2.30,11.51,4.03,-2.23,-20.00
-26,-10,517,-331,-323,4010,-0.78,0.66,31.71,-3.31,-3.23,40.10,-5.45,2.33,11.38,4.34,-1.52,-20.00
-9,7,541,-131,-523,3779,-0.76,0.64,31.84,-1.31,-5.23,37.79,-5.47,2.35,11.26,4.00,-1.86,-20.00
-5,30,595,-126,-313,3865,-0.71,0.76,32.29,-1.26,-3.13,38.65,-5.45,2.35,11.13,3.89,-2.37,-20.00
-17,0,555,167,-201,3973,-0.74,0.68,32.44,1.67,-2.01,39.73,-5.44,2.35,11.00,4.14,-1.74,-20.00
-4,29,568,-78,-551,3891,-0.69,0.79,32.67,-0.78,-5.51,38.91,-5.45,2.36,10.87,3.87,-2.36,-20.00
-23,9,600,80,-409,3904,-0.76,0.77,33.06,0.80,-4.09,39.04,-5.45,2.36,10.74,4.27,-1.95,-20.00
-12,7,547,-232,-379,3965,-0.76,0.73,33.09,-2.32,-3.79,39.65,-5.45,2.39,10.61,4.05,-1.92,-20.00
-7,1,543,-113,-280,3901,-0.73,0.66,33.09,-1.13,-2.80,39.01,-5.43,2.40,10.48,3.93,-1.78,-20.00
-13,5,577,-37,-474,3893,-0.73,0.63,33.30,-0.37,-4.74,38.93,-5.44,2.40,10.34,4.06,-1.86,-20.00
-10,11,569,-29,-406,3803,-0.72,0.63,33.44,-0.29,-4.06,38.03,-5.44,2.40,10.21,3.99,-1.98,-20.00
-6,9,549,31,-382,3859,-0.69,0.62,33.45,0.31,-3.82,38.59,-5.44,2.39,10.08,3.90,-1.93,-20.00
8,26,565,-213,-458,3944,-0.57,0.72,33.55,-2.13,-4.58,39.44,-5.45,2.42,9.95,3.59,-2.32,-20.00
-10,8,603,-32,-322,4010,-0.57,0.70,33.87,-0.32,-3.22,40.10,-5.44,2.42,9.81,3.95,-1.95,-20.00
2,17,586,-64,-282,3853,-0.50,0.73,34.06,-0.64,-2.82,38.53,-5.43,2.42,9.67,3.68,-2.14,-20.00
-9,-1,522,-9,-287,3863,-0.51,0.65,33.84,-0.09,-2.87,38.63,-5.42,2.42,9.54,3.90,-1.75,-20.00
8,26,559,-208,-585,3995,-0.41,0.75,33.86,-2.08,-5.85,39.95,-5.43,2.44,9.41,3.53,-2.34,-20.00
-18,15,550,-59,-411,3888,-0.48,0.76,33.83,-0.59,-4.11,38.88,-5.43,2.43,9.27,4.08,-2.12,-20.00
1,11,517,-32,-291,3857,-0.42,0.75,33.60,-0.32,-2.91,38.57,-5.42,2.43,9.14,3.67,-2.04,-20.00
-3,31,550,22,-529,3768,-0.40,0.87,33.60,0.22,-5.29,37.68,-5.43,2.44,9.00,3.75,-2.48,-20.00
-1,11,531,173,-274,4016,-0.37,0.85,33.48,1.73,-2.74,40.16,-5.42,2.44,8.87,3.70,-2.06,-20.00
-9,30,571,-170,-747,3910,-0.38,0.95,33.61,-1.70,-7.47,39.10,-5.43,2.45,8.74,3.87,-2.49,-20.00
-2,24,622,59,-519,3896,-0.36,1.00,34.05,0.59,-5.19,38.96,-5.44,2.45,8.60,3.73,-2.38,-20.00
-11,8,641,-22,-293,3846,-0.39,0.95,34.55,-0.22,-2.93,38.46,-5.43,2.45,8.47,3.91,-2.04,-20.00
-9,25,622,-116,-296,3925,-0.41,1.00,34.89,-1.16,-2.96,39.25,-5.41,2.46,8.33,3.86,-2.41,-20.00
-8,21,594,-129,-551,4031,-0.41,1.03,35.02,-1.29,-5.51,40.31,-5.42,2.47,8.19,3.85,-2.34,-20.00
-8,9,605,-14,-433,3803,-0.42,0.98,35.21,-0.14,-4.33,38.03,-5.42,2.47,8.05,3.86,-2.08,-20.00
-6,12,532,-40,-407,3764,-0.42,0.96,34.94,-0.40,-4.07,37.64,-5.43,2.47,7.91,3.82,-2.14,-20.00
-21,16,523,-127,-463,3940,-0.50,0.96,34.63,-1.27,-4.63,39.40,-5.44,2.48,7.77,4.15,-2.23,-20.00
3,27,498,-125,-390,3906,-0.43,1.03,34.21,-1.25,-3.90,39.06,-5.44,2.48,7.64,3.65,-2.47,-20.00
0,-24,435,134,-10,4176,-0.39,0.78,33.44,1.34,-0.10,41.76,-5.42,2.49,7.50,3.69,-1.37,-17.67
-12,41,412,-204,-940,4011,-0.42,0.95,32.61,-2.04,-9.40,40.11,-5.44,2.50,7.37,3.95,-2.75,-16.62
-7,12,474,295,-750,3885,-0.42,0.93,32.24,2.95,-7.50,38.85,-5.44,2.51,7.25,3.85,-2.15,-19.81
-15,16,556,-56,-334,3778,-0.47,0.93,32.41,-0.56,-3.34,37.78,-5.44,2.50,7.12,4.02,-2.23,-20.00
-4,10,492,18,-39,3954,-0.45,0.90,32.17,0.18,-0.39,39.54,-5.42,2.51,6.99,3.78,-2.11,-20.00
-9,0,416,-114,-534,3833,-0.46,0.81,31.49,-1.14,-5.34,38.33,-5.43,2.52,6.86,3.89,-1.89,-16.92
-6,-13,442,24,-520,3991,-0.45,0.65,31.04,0.24,-5.20,39.91,-5.44,2.52,6.74,3.83,-1.58,-18.30
-4,-3,447,-64,-325,3869,-0.43,0.57,30.66,-0.64,-3.25,38.69,-5.43,2.52,6.62,3.78,-1.76,-18.60
-6,19,419,-105,-350,3809,-0.42,0.63,30.15,-1.05,-3.50,38.09,-5.42,2.51,6.50,3.81,-2.22,-17.24
-13,18,443,-31,-578,3764,-0.46,0.67,29.84,-0.31,-5.78,37.64,-5.43,2.52,6.38,3.98,-2.21,-18.50
-9,16,464,-126,-389,4111,-0.47,0.70,29.68,-1.26,-3.89,41.11,-5.43,2.51,6.26,3.89,-2.18,-19.57
-3,-5,423,-77,-355,4185,-0.44,0.60,29.30,-0.77,-3.55,41.85,-5.42,2.51,6.15,3.76,-1.72,-17.53
-6,-8,400,-44,-353,3691,-0.43,0.49,28.81,-0.44,-3.53,36.91,-5.42,2.50,6.03,3.81,-1.62,-16.43
-5,-15,392,-13,-208,3726,-0.42,0.35,28.32,-0.13,-2.08,37.26,-5.40,2.50,5.92,3.78,-1.44,-16.08
5,15,352,-176,-341,3895,-0.35,0.41,27.63,-1.76,-3.41,38.95,-5.38,2.52,5.81,3.54,-2.08,-14.15
-3,33,455,-7,-554,3973,-0.33,0.57,27.64,-0.07,-5.54,39.73,-5.39,2.52,5.70,3.71,-2.49,-19.36
-10,9,460,-17,-253,3815,-0.36,0.57,27.69,-0.17,-2.53,38.15,-5.37,2.52,5.59,3.85,-2.00,-19.59
1,-20,221,-113,-319,3796,-0.32,0.39,26.27,-1.13,-3.19,37.96,-5.36,2.51,5.48,3.60,-1.36,-7.67
-6,16,244,-67,-778,3850,-0.32,0.45,25.13,-0.67,-7.78,38.50,-5.37,2.52,5.38,3.76,-2.11,-9.02
0,41,443,-279,-351,3968,-0.29,0.65,25.32,-2.79,-3.51,39.68,-5.37,2.55,5.28,3.62,-2.69,-19.08
-6,-3,415,-99,-147,4053,-0.30,0.57,25.32,-0.99,-1.47,40.53,-5.35,2.55,5.18,3.73,-1.78,-17.64
-4,-3,291,29,-568,3872,-0.29,0.49,24.56,0.29,-5.68,38.72,-5.36,2.55,5.08,3.70,-1.76,-11.45
-5,16,332,15,-753,3707,-0.29,0.54,24.13,0.15,-7.53,37.07,-5.37,2.56,4.99,3.73,-2.16,-13.59
-18,23,393,-96,-374,4128,-0.37,0.63,24.11,-0.96,-3.74,41.28,-5.36,2.55,4.89,4.01,-2.32,-16.68
-3,-5,359,-60,-291,3941,-0.35,0.54,23.89,-0.60,-2.91,39.41,-5.35,2.55,4.80,3.69,-1.72,-14.97
-10,-1,310,13,-511,3838,-0.38,0.48,23.39,0.13,-5.11,38.38,-5.36,2.54,4.70,3.85,-1.79,-12.55
-12,-3,288,-61,-252,4029,-0.42,0.41,22.81,-0.61,-2.52,40.29,-5.34,2.54,4.61,3.88,-1.73,-11.52
-3,14,327,26,-588,4093,-0.39,0.45,22.52,0.26,-5.88,40.93,-5.36,2.54,4.52,3.70,-2.08,-13.53
-13,-1,340,-105,-421,3840,-0.43,0.40,22.35,-1.05,-4.21,38.40,-5.37,2.53,4.44,3.92,-1.76,-14.21
-9,2,361,-108,-364,3944,-0.44,0.37,22.31,-1.08,-3.64,39.44,-5.36,2.53,4.35,3.84,-1.81,-15.27
-7,1,344,-73,-238,3936,-0.44,0.34,22.18,-0.73,-2.38,39.36,-5.35,2.52,4.26,3.79,-1.78,-14.41
-6,2,348,-18,-399,3919,-0.43,0.32,22.09,-0.18,-3.99,39.19,-5.35,2.52,4.17,3.77,-1.79,-14.61
-3,1,345,-74,-371,3853,-0.41,0.30,21.98,-0.74,-3.71,38.53,-5.35,2.51,4.08,3.70,-1.76,-14.46
-3,9,350,-25,-327,3950,-0.39,0.32,21.92,-0.25,-3.27,39.50,-5.34,2.50,4.00,3.69,-1.92,-14.71
-10,8,350,-88,-476,3846,-0.41,0.34,21.86,-0.88,-4.76,38.46,-5.35,2.50,3.91,3.85,-1.90,-14.71
1,-18,313,8,-106,3859,-0.36,0.19,21.58,0.08,-1.06,38.59,-5.33,2.50,3.82,3.60,-1.33,-12.86
-9,20,325,-166,-601,3914,-0.38,0.30,21.41,-1.66,-6.01,39.14,-5.35,2.50,3.74,3.82,-2.14,-13.48
-5,15,373,-213,-389,3910,-0.37,0.36,21.54,-2.13,-3.89,39.10,-5.36,2.53,3.65,3.74,-2.07,-15.88
-4,22,392,-235,-364,3918,-0.36,0.46,21.78,-2.35,-3.64,39.18,-5.35,2.56,3.57,3.71,-2.26,-16.79
-5,-10,253,-45,-474,3959,-0.35,0.35,21.15,-0.45,-4.74,39.59,-5.36,2.55,3.48,3.74,-1.58,-9.82
-16,0,282,-95,-647,3854,-0.42,0.31,20.75,-0.95,-6.47,38.54,-5.38,2.56,3.40,3.99,-1.77,-11.35
1,37,457,-101,-532,3848,-0.37,0.51,21.46,-1.01,-5.32,38.48,-5.39,2.56,3.32,3.64,-2.58,-20.00
-6,26,452,-106,-379,3946,-0.37,0.62,22.07,-1.06,-3.79,39.46,-5.39,2.55,3.23,3.78,-2.38,-19.73
-8,5,349,-52,-470,3892,-0.38,0.59,22.00,-0.52,-4.70,38.92,-5.40,2.55,3.14,3.83,-1.94,-14.49
3,27,362,-31,-640,3803,-0.32,0.69,22.00,-0.31,-6.40,38.03,-5.42,2.55,3.05,3.60,-2.42,-15.14
-1,38,426,-174,-536,3841,-0.30,0.85,22.40,-1.74,-5.36,38.41,-5.43,2.56,2.97,3.69,-2.70,-18.31
-5,0,433,0,-211,3956,-0.30,0.77,22.80,0.00,-2.11,39.56,-5.42,2.56,2.88,3.76,-1.90,-18.58
-6,-20,409,50,-259,3783,-0.31,0.57,23.02,0.50,-2.59,37.83,-5.41,2.56,2.78,3.77,-1.44,-17.30
3,23,408,-110,-581,3714,-0.26,0.65,23.21,-1.10,-5.81,37.14,-5.42,2.56,2.69,3.59,-2.34,-17.20
-17,8,502,-129,-366,3818,-0.33,0.64,23.95,-1.29,-3.66,38.18,-5.42,2.56,2.60,4.01,-2.02,-20.00
-5,11,492,-148,-397,3950,-0.33,0.64,24.55,-1.48,-3.97,39.50,-5.43,2.55,2.50,3.77,-2.08,-20.00
-8,6,519,-32,-326,3896,-0.35,0.61,25.26,-0.32,-3.26,38.96,-5.42,2.55,2.40,3.83,-1.97,-20.00
-14,8,519,-104,-426,3930,-0.40,0.60,25.90,-1.04,-4.26,39.30,-5.43,2.55,2.30,3.97,-2.01,-20.00
3,17,542,-30,-377,3741,-0.34,0.64,26.62,-0.30,-3.77,37.41,-5.43,2.54,2.19,3.61,-2.20,-20.00
-17,-2,544,-50,-446,4019,-0.41,0.57,27.28,-0.50,-4.46,40.19,-5.43,2.54,2.08,4.04,-1.79,-20.00
-7,27,566,-37,-632,3943,-0.41,0.68,28.00,-0.37,-6.32,39.43,-5.44,2.54,1.97,3.85,-2.41,-20.00
-3,19,609,-55,-504,3954,-0.39,0.72,28.92,-0.55,-5.04,39.54,-5.45,2.54,1.86,3.77,-2.26,-20.00
-11,7,558,-202,-455,3852,-0.42,0.69,29.43,-2.02,-4.55,38.52,-5.47,2.56,1.74,3.95,-2.02,-20.00
2,2,537,20,-364,3986,-0.36,0.64,29.76,0.20,-3.64,39.86,-5.46,2.56,1.62,3.66,-1.90,-20.00
-6,11,551,-15,-472,3773,-0.36,0.64,30.15,-0.15,-4.72,37.73,-5.47,2.56,1.50,3.83,-2.09,-20.00
-18,9,574,28,-592,3939,-0.44,0.63,30.63,0.28,-5.92,39.39,-5.48,2.56,1.38,4.10,-2.04,-20.00
-15,7,601,-81,-406,3988,-0.48,0.61,31.24,-0.81,-4.06,39.88,-5.48,2.56,1.26,4.05,-2.00,-20.00
-16,6,615,-137,-459,3962,-0.53,0.59,31.86,-1.37,-4.59,39.62,-5.49,2.56,1.13,4.09,-1.97,-20.00
-13,23,559,-30,-745,3919,-0.56,0.67,32.09,-0.30,-7.45,39.19,-5.50,2.57,1.01,4.05,-2.35,-20.00
-10,17,617,104,-717,3917,-0.56,0.70,32.64,1.04,-7.17,39.17,-5.51,2.57,0.88,4.00,-2.24,-20.00
5,1,655,-56,-194,3976,-0.48,0.64,33.37,-0.56,-1.94,39.76,-5.50,2.58,0.74,3.66,-1.90,-20.00
-15,17,621,-191,-384,3923,-0.52,0.68,33.82,-1.91,-3.84,39.23,-5.50,2.61,0.61,4.08,-2.25,-20.00
-4,29,573,-136,-663,3763,-0.49,0.79,33.94,-1.36,-6.63,37.63,-5.51,2.62,0.47,3.85,-2.54,-20.00
-22,14,628,-15,-567,4147,-0.58,0.80,34.37,-0.15,-5.67,41.47,-5.52,2.63,0.34,4.25,-2.24,-20.00
-29,11,570,-461,-551,3970,-0.70,0.78,34.41,-4.61,-5.51,39.70,-5.53,2.66,0.20,4.43,-2.19,-20.00
-12,9,610,-6,-539,3915,-0.70,0.76,34.69,-0.06,-5.39,39.15,-5.54,2.66,0.06,4.09,-2.15,-20.00
-10,16,619,-135,-599,3896,-0.69,0.78,35.00,-1.35,-5.99,38.96,-5.55,2.67,-0.07,4.06,-2.30,-20.00
-17,9,642,24,-511,3859,-0.73,0.76,35.42,0.24,-5.11,38.59,-5.56,2.68,-0.21,4.21,-2.16,-20.00
0,7,659,-13,-266,3906,-0.65,0.72,35.89,-0.13,-2.66,39.06,-5.54,2.68,-0.36,3.84,-2.11,-20.00
-7,16,648,-73,-438,3812,-0.63,0.75,36.26,-0.73,-4.38,38.12,-5.55,2.68,-0.50,3.98,-2.30,-20.00
-23,12,651,-21,-472,3883,-0.71,0.75,36.60,-0.21,-4.72,38.83,-5.55,2.68,-0.65,4.33,-2.22,-20.00
-15,-17,636,80,-246,4025,-0.73,0.57,36.82,0.80,-2.46,40.25,-5.54,2.68,-0.79,4.16,-1.58,-20.00
-18,-12,615,-139,-343,3886,-0.77,0.44,36.89,-1.39,-3.43,38.86,-5.53,2.68,-0.94,4.22,-1.65,-20.00
0,11,613,-69,-69,3963,-0.69,0.46,36.94,-0.69,-0.69,39.63,-5.51,2.69,-1.09,3.82,-2.13,-20.00
-14,16,587,-106,-562,3797,-0.71,0.51,36.83,-1.06,-5.62,37.97,-5.52,2.70,-1.23,4.12,-2.25,-20.00
2,27,615,-48,-592,3968,-0.62,0.63,36.90,-0.48,-5.92,39.68,-5.53,2.71,-1.38,3.78,-2.51,-20.00
-21,21,635,-88,-432,4054,-0.69,0.69,37.08,-0.88,-4.32,40.54,-5.53,2.71,-1.53,4.27,-2.40,-20.00
-8,4,610,0,-276,3905,-0.67,0.65,37.09,0.00,-2.76,39.05,-5.52,2.71,-1.68,3.99,-2.05,-20.00
-4,3,513,-66,-362,3771,-0.63,0.60,36.51,-0.66,-3.62,37.71,-5.51,2.71,-1.82,3.89,-2.01,-19.42
-17,9,505,-47,-401,3897,-0.67,0.60,35.94,-0.47,-4.01,38.97,-5.51,2.71,-1.96,4.17,-2.13,-19.09
-6,7,455,4,-388,3856,-0.64,0.58,35.12,0.04,-3.88,38.56,-5.51,2.70,-2.10,3.93,-2.08,-16.66
-7,2,465,-76,-470,3950,-0.62,0.53,34.45,-0.76,-4.70,39.50,-5.52,2.70,-2.24,3.95,-1.97,-17.26
-2,8,435,-119,-372,3786,-0.57,0.53,33.66,-1.19,-3.72,37.86,-5.52,2.70,-2.37,3.84,-2.09,-15.85
-14,7,442,-58,-462,3882,-0.60,0.52,32.99,-0.58,-4.62,38.82,-5.52,2.70,-2.51,4.09,-2.07,-16.30
-22,4,480,-60,-338,3963,-0.67,0.49,32.62,-0.60,-3.38,39.63,-5.51,2.70,-2.64,4.27,-2.00,-18.27
-1,5,461,-74,-451,3862,-0.61,0.47,32.17,-0.74,-4.51,38.62,-5.52,2.70,-2.76,3.83,-2.01,-17.36
-14,15,433,-43,-553,3893,-0.63,0.52,31.59,-0.43,-5.53,38.93,-5.53,2.70,-2.89,4.11,-2.23,-16.02
1,17,423,-42,-510,3876,-0.56,0.57,31.01,-0.42,-5.10,38.76,-5.54,2.70,-3.01,3.79,-2.28,-15.59
1,10,437,-123,-396,3888,-0.50,0.57,30.58,-1.23,-3.96,38.88,-5.54,2.70,-3.13,3.77,-2.14,-16.35
-7,4,426,-80,-392,3862,-0.49,0.54,30.12,-0.80,-3.92,38.62,-5.54,2.69,-3.25,3.93,-2.01,-15.85
2,-5,382,-22,-373,3781,-0.43,0.46,29.44,-0.22,-3.73,37.81,-5.54,2.69,-3.37,3.73,-1.80,-13.71
-4,2,401,8,-414,4112,-0.41,0.42,28.94,0.08,-4.14,41.12,-5.53,2.68,-3.48,3.85,-1.93,-14.74
-4,9,441,3,-353,4045,-0.40,0.43,28.74,0.03,-3.53,40.45,-5.53,2.68,-3.60,3.84,-2.07,-16.79
-5,1,445,-74,-142,4041,-0.39,0.40,28.58,-0.74,-1.42,40.41,-5.51,2.68,-3.71,3.84,-1.90,-17.00
-3,10,390,-135,-413,3898,-0.37,0.42,28.10,-1.35,-4.13,38.98,-5.51,2.68,-3.82,3.80,-2.09,-14.27
-1,6,375,58,-443,3824,-0.34,0.41,27.58,0.58,-4.43,38.24,-5.52,2.68,-3.93,3.75,-2.00,-13.57
-7,-1,329,-3,-272,3937,-0.35,0.37,26.82,-0.03,-2.72,39.37,-5.50,2.67,-4.04,3.87,-1.84,-11.35
-8,3,291,-106,-392,3886,-0.36,0.35,25.92,-1.06,-3.92,38.86,-5.50,2.66,-4.14,3.89,-1.91,-9.55
-8,17,246,-112,-500,3920,-0.37,0.42,24.83,-1.12,-5.00,39.20,-5.52,2.67,-4.24,3.91,-2.22,-7.44
0,-1,238,-13,-420,3994,-0.34,0.37,23.80,-0.13,-4.20,39.94,-5.52,2.66,-4.34,3.73,-1.84,-7.19
-1,3,196,-29,-374,3935,-0.31,0.35,22.61,-0.29,-3.74,39.35,-5.51,2.65,-4.43,3.74,-1.91,-5.25
-7,12,160,-118,-484,3871,-0.32,0.39,21.33,-1.18,-4.84,38.71,-5.53,2.65,-4.51,3.88,-2.10,-3.62
8,-11,172,-72,-264,3864,-0.24,0.28,20.24,-0.72,-2.64,38.64,-5.51,2.65,-4.59,3.54,-1.60,-4.41
-4,4,145,-97,-441,3866,-0.24,0.28,19.10,-0.97,-4.41,38.66,-5.52,2.64,-4.67,3.79,-1.90,-3.22
1,8,210,7,-348,4035,-0.21,0.30,18.47,0.07,-3.48,40.35,-5.51,2.63,-4.74,3.68,-1.98,-6.62
0,-11,176,-193,-209,3932,-0.19,0.20,17.70,-1.93,-2.09,39.32,-5.49,2.64,-4.81,3.68,-1.57,-5.01
3,-8,60,-48,-399,3894,-0.15,0.13,16.30,-0.48,-3.99,38.94,-5.49,2.63,-4.88,3.61,-1.61,0.65
-1,-8,58,-30,-434,3903,-0.14,0.07,15.02,-0.30,-4.34,39.03,-5.50,2.62,-4.94,3.69,-1.59,0.54
-7,29,175,-101,-772,3856,-0.17,0.24,14.59,-1.01,-7.72,38.56,-5.51,2.62,-4.99,3.83,-2.39,-5.47
-5,25,241,92,-733,3973,-0.18,0.37,14.60,0.92,-7.33,39.73,-5.53,2.62,-5.05,3.80,-2.34,-8.81
-5,8,319,-27,-286,3967,-0.20,0.38,15.08,-0.27,-2.86,39.67,-5.52,2.61,-5.11,3.80,-1.99,-12.68
-2,1,223,-132,-158,3865,-0.19,0.35,14.94,-1.32,-1.58,38.65,-5.50,2.61,-5.17,3.72,-1.84,-7.82
0,27,232,-36,-646,3920,-0.17,0.48,14.86,-0.36,-6.46,39.20,-5.51,2.61,-5.23,3.68,-2.40,-8.28
-2,-12,239,-77,-180,4152,-0.17,0.36,14.83,-0.77,-1.80,41.52,-5.49,2.61,-5.29,3.71,-1.58,-8.63
1,-9,105,-36,-388,3928,-0.14,0.27,13.99,-0.36,-3.88,39.28,-5.49,2.60,-5.35,3.64,-1.61,-1.95
0,-4,97,-34,-456,3861,-0.13,0.22,13.18,-0.34,-4.56,38.61,-5.50,2.59,-5.40,3.66,-1.69,-1.67
-7,22,343,89,-862,4021,-0.16,0.33,13.95,0.89,-8.62,40.21,-5.51,2.59,-5.45,3.82,-2.24,-14.04
-7,26,409,16,-718,3796,-0.19,0.45,15.05,0.16,-7.18,37.96,-5.53,2.59,-5.51,3.84,-2.36,-17.19
1,21,426,-130,-284,3867,-0.16,0.54,16.15,-1.30,-2.84,38.67,-5.51,2.59,-5.58,3.66,-2.28,-17.85
-4,5,392,-120,-212,4001,-0.17,0.51,16.92,-1.20,-2.12,40.01,-5.49,2.59,-5.64,3.75,-1.95,-15.98
-5,-14,272,-13,-307,3991,-0.18,0.38,16.89,-0.13,-3.07,39.91,-5.48,2.58,-5.71,3.77,-1.52,-9.87
-1,24,277,-110,-701,3800,-0.17,0.49,16.89,-1.10,-7.01,38.00,-5.49,2.58,-5.78,3.69,-2.33,-10.11
-7,1,350,-40,-395,3841,-0.20,0.44,17.34,-0.40,-3.95,38.41,-5.49,2.57,-5.85,3.82,-1.84,-13.73
-9,25,362,-206,-563,3857,-0.23,0.55,17.81,-2.06,-5.63,38.57,-5.51,2.59,-5.92,3.88,-2.37,-14.25
-7,-7,330,-111,-379,3735,-0.25,0.45,18.04,-1.11,-3.79,37.35,-5.51,2.58,-5.99,3.85,-1.68,-12.57
-1,21,356,-96,-588,3891,-0.23,0.54,18.41,-0.96,-5.88,38.91,-5.53,2.58,-6.06,3.73,-2.28,-13.81
-9,8,422,-27,-539,4008,-0.26,0.53,19.14,-0.27,-5.39,40.08,-5.54,2.58,-6.14,3.91,-2.01,-17.03
-12,-1,424,-38,-457,3908,-0.31,0.47,19.82,-0.38,-4.57,39.08,-5.55,2.57,-6.21,3.99,-1.81,-17.00
-14,-5,407,-91,-445,3872,-0.36,0.39,20.32,-0.91,-4.45,38.72,-5.56,2.57,-6.30,4.05,-1.70,-16.03
-3,9,411,-95,-420,3900,-0.35,0.41,20.79,-0.95,-4.20,39.00,-5.56,2.56,-6.38,3.83,-1.98,-16.14
-6,19,424,39,-495,3896,-0.35,0.48,21.30,0.39,-4.95,38.96,-5.57,2.55,-6.46,3.89,-2.20,-16.70
9,10,419,39,-333,4024,-0.26,0.50,21.73,0.39,-3.33,40.24,-5.56,2.55,-6.55,3.56,-2.02,-16.35
1,-32,255,-73,-216,4035,-0.23,0.25,21.11,-0.73,-2.16,40.35,-5.54,2.55,-6.63,3.70,-1.10,-8.11
-8,-1,255,-175,-662,3624,-0.25,0.22,20.55,-1.75,-6.62,36.24,-5.56,2.56,-6.71,3.90,-1.73,-8.19
-7,25,468,65,-719,3738,-0.27,0.35,21.35,0.65,-7.19,37.38,-5.57,2.55,-6.80,3.89,-2.29,-18.87
-6,30,518,46,-614,3991,-0.28,0.50,22.38,0.46,-6.14,39.91,-5.58,2.55,-6.89,3.88,-2.43,-20.00
-13,12,450,8,-290,3970,-0.33,0.52,22.88,0.08,-2.90,39.70,-5.57,2.55,-6.98,4.03,-2.07,-17.65
-3,1,411,-185,-334,4089,-0.32,0.48,23.10,-1.85,-3.34,40.89,-5.55,2.56,-7.07,3.81,-1.84,-15.62
-10,7,380,-152,-473,3915,-0.35,0.47,23.11,-1.52,-4.73,39.15,-5.56,2.57,-7.16,3.97,-1.96,-14.02
-8,7,396,-69,-482,3839,-0.36,0.47,23.22,-0.69,-4.82,38.39,-5.57,2.56,-7.25,3.94,-1.96,-14.80
-2,0,385,24,-367,3901,-0.34,0.42,23.24,0.24,-3.67,39.01,-5.57,2.56,-7.35,3.81,-1.80,-14.22
-8,4,366,-71,-398,3982,-0.35,0.40,23.15,-0.71,-3.98,39.82,-5.57,2.55,-7.44,3.93,-1.87,-13.25
1,11,356,71,-547,3827,-0.31,0.43,23.01,0.71,-5.47,38.27,-5.58,2.54,-7.53,3.74,-2.02,-12.75
-4,8,376,73,-479,3920,-0.30,0.44,23.00,0.73,-4.79,39.20,-5.58,2.54,-7.62,3.85,-1.96,-13.75
7,13,371,65,-311,4174,-0.23,0.47,22.96,0.65,-3.11,41.74,-5.57,2.53,-7.71,3.60,-2.06,-13.49
-5,-23,337,-93,-62,4074,-0.24,0.28,22.72,-0.93,-0.62,40.74,-5.55,2.54,-7.80,3.83,-1.28,-11.79
1,1,310,3,-495,4003,-0.21,0.26,22.34,0.03,-4.95,40.03,-5.55,2.53,-7.89,3.70,-1.76,-10.47
-4,18,342,-9,-560,3699,-0.21,0.35,22.19,-0.09,-5.60,36.99,-5.57,2.53,-7.98,3.81,-2.13,-12.10
-5,6,379,22,-428,3982,-0.22,0.35,22.29,0.22,-4.28,39.82,-5.57,2.52,-8.07,3.84,-1.88,-13.95
-3,-1,336,-156,-324,3900,-0.22,0.31,22.11,-1.56,-3.24,39.00,-5.55,2.53,-8.16,3.78,-1.73,-11.78
1,1,275,-83,-297,3951,-0.19,0.28,21.57,-0.83,-2.97,39.51,-5.53,2.52,-8.24,3.68,-1.76,-8.76
2,20,245,-112,-363,3888,-0.16,0.38,20.91,-1.12,-3.63,38.88,-5.52,2.51,-8.33,3.65,-2.17,-7.33
-3,15,295,32,-524,3928,-0.16,0.43,20.62,0.32,-5.24,39.28,-5.53,2.51,-8.41,3.76,-2.08,-9.91
-11,20,313,-52,-538,3851,-0.21,0.51,20.47,-0.52,-5.38,38.51,-5.54,2.51,-8.49,3.94,-2.20,-10.84
-12,10,306,-218,-367,3878,-0.26,0.52,20.29,-2.18,-3.67,38.78,-5.54,2.54,-8.57,3.97,-2.02,-10.50
-9,16,302,-127,-429,3903,-0.29,0.56,20.10,-1.27,-4.29,39.03,-5.55,2.53,-8.65,3.92,-2.15,-10.31
3,14,224,-90,-411,3921,-0.24,0.59,19.46,-0.90,-4.11,39.21,-5.55,2.53,-8.73,3.67,-2.11,-6.44
0,9,218,-58,-487,3919,-0.22,0.59,18.84,-0.58,-4.87,39.19,-5.56,2.52,-8.80,3.73,-2.01,-6.23
-6,13,241,-56,-621,3894,-0.23,0.61,18.43,-0.56,-6.21,38.94,-5.58,2.52,-8.87,3.87,-2.10,-7.46
-3,-2,251,46,-498,3970,-0.23,0.54,18.12,0.46,-4.98,39.70,-5.58,2.52,-8.94,3.81,-1.77,-8.01
-15,11,275,98,-621,3811,-0.30,0.55,17.98,0.98,-6.21,38.11,-5.59,2.51,-9.02,4.08,-2.03,-9.24
-9,-10,270,-12,-461,4055,-0.32,0.43,17.83,-0.12,-4.61,40.55,-5.60,2.50,-9.09,3.97,-1.57,-9.00
-1,-15,272,-72,-359,3924,-0.30,0.30,17.71,-0.72,-3.59,39.24,-5.59,2.49,-9.16,3.79,-1.42,-9.11
6,11,270,-77,-523,3726,-0.23,0.34,17.58,-0.77,-5.23,37.26,-5.61,2.49,-9.23,3.64,-1.96,-9.02
6,33,346,155,-693,3836,-0.17,0.50,17.93,1.55,-6.93,38.36,-5.62,2.49,-9.30,3.63,-2.45,-12.81
-7,-8,345,141,-244,4132,-0.20,0.40,18.25,1.41,-2.44,41.32,-5.60,2.48,-9.37,3.90,-1.59,-12.69
-12,4,388,293,-438,4166,-0.25,0.39,18.79,2.93,-4.38,41.66,-5.60,2.47,-9.44,4.01,-1.82,-14.77
-9,-19,373,-98,-164,3867,-0.28,0.23,19.18,-0.98,-1.64,38.67,-5.58,2.47,-9.52,3.94,-1.31,-13.92
-11,12,452,266,-447,3946,-0.32,0.28,20.02,2.66,-4.47,39.46,-5.58,2.47,-9.60,4.00,-1.95,-17.78
-4,21,482,120,-572,3803,-0.31,0.38,20.96,1.20,-5.72,38.03,-5.59,2.46,-9.68,3.86,-2.16,-19.13
-8,19,502,-115,-376,3929,-0.33,0.46,21.93,-1.15,-3.76,39.29,-5.59,2.45,-9.77,3.94,-2.13,-19.96
-4,5,460,-171,-385,3948,-0.32,0.45,22.54,-1.71,-3.85,39.48,-5.57,2.48,-9.86,3.85,-1.86,-17.70
-3,-6,399,-153,-367,3969,-0.31,0.36,22.72,-1.53,-3.67,39.69,-5.56,2.47,-9.95,3.81,-1.61,-14.55
-3,1,383,-168,-423,3834,-0.29,0.33,22.78,-1.68,-4.23,38.34,-5.57,2.48,-10.04,3.82,-1.75,-13.71
1,4,377,-19,-440,3893,-0.26,0.32,22.81,-0.19,-4.40,38.93,-5.57,2.48,-10.13,3.73,-1.80,-13.39
-10,9,380,-55,-501,3856,-0.29,0.35,22.84,-0.55,-5.01,38.56,-5.59,2.47,-10.22,3.97,-1.91,-13.52
-5,5,380,-66,-447,3843,-0.30,0.34,22.88,-0.66,-4.47,38.43,-5.59,2.47,-10.31,3.87,-1.83,-13.49
-9,1,379,-51,-454,3946,-0.32,0.31,22.90,-0.51,-4.54,39.46,-5.60,2.46,-10.40,3.97,-1.73,-13.42
-2,25,379,-75,-540,3887,-0.30,0.44,22.92,-0.75,-5.40,38.87,-5.61,2.47,-10.49,3.83,-2.25,-13.40
0,3,371,-75,-388,4041,-0.27,0.41,22.89,-0.75,-3.88,40.41,-5.61,2.46,-10.59,3.78,-1.80,-12.99
-2,-8,361,-75,-273,3938,-0.26,0.32,22.81,-0.75,-2.73,39.38,-5.59,2.46,-10.68,3.80,-1.55,-12.48
-12,10,318,-237,-440,3892,-0.30,0.35,22.47,-2.37,-4.40,38.92,-5.60,2.48,-10.77,4.02,-1.94,-10.33
-7,15,292,-63,-417,3920,-0.32,0.41,22.00,-0.63,-4.17,39.20,-5.60,2.47,-10.85,3.93,-2.05,-9.08
-10,-11,274,-29,-362,4018,-0.35,0.30,21.47,-0.29,-3.62,40.18,-5.60,2.46,-10.94,3.99,-1.48,-8.24
-6,11,255,42,-427,3863,-0.35,0.34,20.88,0.42,-4.27,38.63,-5.60,2.46,-11.02,3.91,-1.94,-7.36
-9,11,256,-32,-433,3933,-0.37,0.37,20.35,-0.32,-4.33,39.33,-5.60,2.45,-11.10,3.98,-1.94,-7.49
-7,-5,217,8,-394,3884,-0.37,0.30,19.64,0.08,-3.94,38.84,-5.60,2.44,-11.18,3.94,-1.59,-5.61
2,4,212,5,-469,3909,-0.32,0.30,18.97,0.05,-4.69,39.09,-5.61,2.43,-11.26,3.75,-1.77,-5.46
6,1,240,-85,-407,4046,-0.25,0.27,18.54,-0.85,-4.07,40.46,-5.61,2.42,-11.33,3.65,-1.69,-6.95
3,10,234,-169,-441,3825,-0.21,0.31,18.11,-1.69,-4.41,38.25,-5.62,2.43,-11.40,3.71,-1.89,-6.70
0,12,255,-64,-463,3858,-0.19,0.35,17.86,-0.64,-4.63,38.58,-5.63,2.43,-11.47,3.77,-1.94,-7.80
0,15,263,-55,-491,3908,-0.17,0.41,17.67,-0.55,-4.91,39.08,-5.64,2.42,-11.54,3.77,-2.01,-8.23
4,22,285,-80,-473,3856,-0.13,0.50,17.65,-0.80,-4.73,38.56,-5.66,2.42,-11.61,3.69,-2.18,-9.34
-13,6,282,-94,-446,3928,-0.20,0.49,17.60,-0.94,-4.46,39.28,-5.66,2.41,-11.68,4.06,-1.85,-9.18
-3,10,247,-98,-422,3891,-0.19,0.50,17.35,-0.98,-4.22,38.91,-5.67,2.40,-11.75,3.86,-1.93,-7.43
-3,10,237,-22,-447,3891,-0.19,0.51,17.06,-0.22,-4.47,38.91,-5.68,2.40,-11.82,3.86,-1.92,-6.96
-2,5,206,-131,-383,3876,-0.19,0.49,16.61,-1.31,-3.83,38.76,-5.67,2.39,-11.88,3.84,-1.81,-5.45
-9,-7,195,-134,-409,3965,-0.22,0.40,16.14,-1.34,-4.09,39.65,-5.68,2.38,-11.95,3.99,-1.54,-4.97
-6,5,224,14,-480,3981,-0.24,0.39,15.89,0.14,-4.80,39.81,-5.68,2.37,-12.01,3.94,-1.77,-6.47
1,5,229,-46,-403,3948,-0.21,0.38,15.70,-0.46,-4.03,39.48,-5.68,2.36,-12.07,3.79,-1.76,-6.75
-1,8,260,-1,-215,4109,-0.19,0.39,15.71,-0.01,-2.15,41.09,-5.67,2.35,-12.13,3.81,-1.82,-8.31
-5,-15,179,-196,-302,3760,-0.20,0.26,15.24,-1.96,-3.02,37.60,-5.65,2.37,-12.20,3.89,-1.33,-4.26
-1,34,270,96,-582,3914,-0.19,0.44,15.36,0.96,-5.82,39.14,-5.66,2.36,-12.26,3.81,-2.37,-8.86
-10,26,296,-8,-558,3902,-0.23,0.56,15.63,-0.08,-5.58,39.02,-5.67,2.36,-12.32,4.01,-2.24,-10.12
-3,8,300,-16,-350,3865,-0.23,0.55,15.90,-0.16,-3.50,38.65,-5.67,2.35,-12.38,3.86,-1.86,-10.27
-7,13,279,-76,-366,3867,-0.25,0.57,16.01,-0.76,-3.66,38.67,-5.66,2.34,-12.44,3.95,-1.97,-9.17
-19,7,250,-58,-637,3709,-0.34,0.56,15.93,-0.58,-6.37,37.09,-5.68,2.34,-12.51,4.23,-1.84,-7.70
-3,7,253,-44,-484,3861,-0.32,0.55,15.88,-0.44,-4.84,38.61,-5.69,2.34,-12.57,3.90,-1.83,-7.85
-2,-5,235,2,-456,3987,-0.30,0.46,15.73,0.02,-4.56,39.87,-5.69,2.33,-12.63,3.88,-1.56,-6.95
6,-5,229,-31,-360,3956,-0.24,0.38,15.55,-0.31,-3.60,39.56,-5.69,2.32,-12.69,3.70,-1.53,-6.66
-4,1,256,46,-486,3900,-0.24,0.35,15.56,0.46,-4.86,39.00,-5.69,2.31,-12.75,3.90,-1.64,-8.02
-6,3,275,15,-538,3887,-0.25,0.33,15.68,0.15,-5.38,38.87,-5.70,2.30,-12.82,3.95,-1.67,-8.95
-3,-2,305,-106,-419,3939,-0.24,0.29,15.97,-1.06,-4.19,39.39,-5.71,2.29,-12.88,3.90,-1.55,-10.42
-9,-3,301,-112,-483,3887,-0.27,0.24,16.21,-1.12,-4.83,38.87,-5.72,2.29,-12.94,4.04,-1.52,-10.16
-3,2,318,40,-520,3984,-0.26,0.23,16.53,0.40,-5.20,39.84,-5.73,2.29,-13.01,3.92,-1.61,-10.96
-8,-8,313,-123,-330,3941,-0.29,0.16,16.79,-1.23,-3.30,39.41,-5.72,2.28,-13.08,4.01,-1.39,-10.65
-14,5,361,96,-600,3908,-0.34,0.17,17.31,0.96,-6.00,39.08,-5.73,2.28,-13.14,4.16,-1.65,-12.98
-5,18,382,90,-616,3881,-0.34,0.27,17.91,0.90,-6.16,38.81,-5.74,2.27,-13.22,3.98,-1.94,-13.94
-17,12,430,43,-573,3880,-0.41,0.31,18.74,0.43,-5.73,38.80,-5.75,2.27,-13.29,4.25,-1.83,-16.22
-7,18,445,26,-592,3957,-0.41,0.39,19.58,0.26,-5.92,39.57,-5.76,2.26,-13.37,4.06,-1.97,-16.82
-26,17,541,117,-686,4042,-0.53,0.46,20.92,1.17,-6.86,40.42,-5.77,2.26,-13.45,4.48,-1.96,-20.00
-14,20,600,-61,-455,3989,-0.56,0.53,22.49,-0.61,-4.55,39.89,-5.78,2.26,-13.54,4.25,-2.04,-20.00
-18,15,653,29,-454,3988,-0.61,0.57,24.23,0.29,-4.54,39.88,-5.78,2.25,-13.63,4.35,-1.95,-20.00
-12,11,649,-81,-385,3866,-0.63,0.58,25.76,-0.81,-3.85,38.66,-5.78,2.25,-13.74,4.23,-1.86,-20.00
-5,8,605,-119,-297,3860,-0.59,0.57,26.88,-1.19,-2.97,38.60,-5.76,2.25,-13.84,4.07,-1.81,-20.00
-25,6,568,-259,-463,3790,-0.69,0.55,27.65,-2.59,-4.63,37.90,-5.77,2.28,-13.95,4.50,-1.78,-20.00
-16,-9,480,-138,-274,3975,-0.72,0.44,27.82,-1.38,-2.74,39.75,-5.75,2.29,-14.07,4.32,-1.45,-17.05
-7,-5,440,-147,-296,3887,-0.69,0.37,27.72,-1.47,-2.96,38.87,-5.73,2.30,-14.18,4.11,-1.52,-15.01
-7,-26,376,-128,-140,4099,-0.66,0.17,27.24,-1.28,-1.40,40.99,-5.71,2.31,-14.29,4.09,-1.04,-11.82
16,-18,312,-290,-193,3886,-0.50,0.04,26.42,-2.90,-1.93,38.86,-5.69,2.33,-14.39,3.57,-1.18,-8.69
-2,-16,254,-168,-263,3911,-0.46,-0.06,25.33,-1.68,-2.63,39.11,-5.67,2.34,-14.49,3.91,-1.20,-5.91
-1,11,225,-187,-380,3946,-0.42,0.01,24.17,-1.87,-3.80,39.46,-5.66,2.37,-14.59,3.87,-1.79,-4.62
2,3,146,-146,-347,3913,-0.37,0.03,22.64,-1.46,-3.47,39.13,-5.64,2.37,-14.68,3.78,-1.63,-0.85
-3,6,130,-136,-381,3911,-0.35,0.07,21.17,-1.36,-3.81,39.11,-5.64,2.36,-14.77,3.88,-1.70,-0.28
-5,6,113,-70,-460,3889,-0.34,0.10,19.74,-0.70,-4.60,38.89,-5.65,2.36,-14.84,3.92,-1.70,0.35
-1,2,105,-53,-426,3904,-0.32,0.10,18.41,-0.53,-4.26,39.04,-5.65,2.35,-14.92,3.84,-1.62,0.54
7,-2,71,-68,-411,3946,-0.24,0.08,17.00,-0.68,-4.11,39.46,-5.65,2.34,-14.98,3.65,-1.52,2.03
4,-3,65,-54,-408,3914,-0.19,0.05,15.70,-0.54,-4.08,39.14,-5.65,2.32,-15.05,3.70,-1.49,2.12
1,4,50,-24,-432,3895,-0.17,0.07,14.43,-0.24,-4.32,38.95,-5.66,2.31,-15.10,3.76,-1.63,2.68
1,6,46,-14,-445,3903,-0.14,0.10,13.27,-0.14,-4.45,39.03,-5.66,2.30,-15.16,3.76,-1.67,2.69
1,7,40,39,-485,3894,-0.12,0.13,12.19,0.39,-4.85,38.94,-5.67,2.29,-15.20,3.76,-1.69,2.82
1,6,45,9,-474,3900,-0.11,0.16,11.24,0.09,-4.74,39.00,-5.68,2.28,-15.25,3.76,-1.67,2.41
1,5,49,-7,-466,3897,-0.09,0.17,10.42,-0.07,-4.66,38.97,-5.69,2.27,-15.29,3.76,-1.64,2.07
1,5,51,-13,-451,3903,-0.07,0.18,9.69,-0.13,-4.51,39.03,-5.69,2.25,-15.33,3.76,-1.64,1.85
-2,2,69,-5,-490,3921,-0.08,0.18,9.14,-0.05,-4.90,39.21,-5.70,2.24,-15.36,3.82,-1.57,0.84
-2,1,80,23,-496,3909,-0.08,0.17,8.71,0.23,-4.96,39.09,-5.71,2.23,-15.40,3.83,-1.54,0.22
-10,3,104,-34,-527,3896,-0.14,0.17,8.48,-0.34,-5.27,38.96,-5.72,2.22,-15.43,4.02,-1.57,-1.04
-12,5,115,-23,-510,3913,-0.20,0.18,8.33,-0.23,-5.10,39.13,-5.73,2.21,-15.46,4.08,-1.61,-1.62
-14,3,119,-17,-497,3902,-0.26,0.18,8.22,-0.17,-4.97,39.02,-5.74,2.20,-15.50,4.15,-1.57,-1.83
-12,3,120,15,-488,3903,-0.31,0.18,8.13,0.15,-4.88,39.03,-5.75,2.19,-15.53,4.13,-1.56,-1.90
-3,6,137,50,-552,3859,-0.30,0.20,8.15,0.50,-5.52,38.59,-5.77,2.18,-15.56,3.95,-1.62,-2.75
0,4,166,62,-558,3916,-0.27,0.20,8.35,0.62,-5.58,39.16,-5.78,2.17,-15.59,3.88,-1.57,-4.18
5,2,226,45,-542,3842,-0.21,0.20,8.90,0.45,-5.42,38.42,-5.79,2.16,-15.63,3.77,-1.52,-7.13
7,0,239,10,-481,3905,-0.15,0.18,9.46,0.10,-4.81,39.05,-5.80,2.15,-15.66,3.72,-1.47,-7.69
-8,1,286,-60,-441,4048,-0.18,0.17,10.26,-0.60,-4.41,40.48,-5.80,2.14,-15.71,4.04,-1.48,-9.93
7,14,286,-161,-453,3898,-0.12,0.23,10.98,-1.61,-4.53,38.98,-5.82,2.15,-15.75,3.73,-1.77,-9.80
-4,5,289,-16,-516,3871,-0.13,0.24,11.65,-0.16,-5.16,38.71,-5.83,2.14,-15.79,3.96,-1.58,-9.83
-2,11,298,-45,-515,3901,-0.13,0.28,12.30,-0.45,-5.15,39.01,-5.84,2.13,-15.84,3.93,-1.71,-10.16
-4,6,309,48,-406,3959,-0.14,0.29,12.95,0.48,-4.06,39.59,-5.84,2.12,-15.89,3.97,-1.60,-10.60
3,15,335,-27,-416,3920,-0.11,0.35,13.70,-0.27,-4.16,39.20,-5.84,2.11,-15.95,3.82,-1.79,-11.78
1,22,305,-155,-491,3836,-0.09,0.45,14.19,-1.55,-4.91,38.36,-5.86,2.12,-16.00,3.87,-1.97,-10.16
7,2,262,-118,-295,3894,-0.04,0.42,14.37,-1.18,-2.95,38.94,-5.84,2.12,-16.06,3.72,-1.56,-7.94
6,4,277,-38,-295,4025,0.00,0.40,14.62,-0.38,-2.95,40.25,-5.82,2.12,-16.12,3.72,-1.59,-8.64
-2,-12,254,-151,-379,3893,-0.01,0.29,14.71,-1.51,-3.79,38.93,-5.80,2.13,-16.18,3.87,-1.24,-7.45
-9,-19,238,-77,-280,4111,-0.07,0.14,14.69,-0.77,-2.80,41.11,-5.78,2.13,-16.24,4.02,-1.06,-6.63
-6,-24,195,-171,-270,3841,-0.10,-0.02,14.41,-1.71,-2.70,38.41,-5.76,2.14,-16.30,3.95,-0.92,-4.48
-7,-9,176,1,-363,3947,-0.13,-0.07,14.04,0.01,-3.63,39.47,-5.76,2.13,-16.35,3.98,-1.20,-3.57
-11,2,167,-80,-462,3797,-0.18,-0.05,13.66,-0.80,-4.62,37.97,-5.77,2.12,-16.41,4.08,-1.43,-3.17
-7,-3,173,39,-507,3838,-0.21,-0.06,13.35,0.39,-5.07,38.38,-5.78,2.11,-16.46,4.01,-1.31,-3.52
-7,-1,180,-10,-445,3970,-0.23,-0.06,13.11,-0.10,-4.45,39.70,-5.79,2.10,-16.51,4.02,-1.35,-3.91
-13,78,211,-12,-485,3979,-0.29,0.42,13.09,-0.12,-4.85,39.79,-5.79,2.09,-16.56,4.17,-3.08,-5.48
6,54,138,-232,-116,3958,-0.22,0.71,12.62,-2.32,-1.16,39.58,-5.78,2.10,-16.61,3.75,-2.68,-1.84
9,17,20,-188,-424,3980,-0.14,0.74,11.48,-1.88,-4.24,39.80,-5.78,2.13,-16.66,3.67,-1.95,3.97
0,9,19,-111,-524,3960,-0.13,0.72,10.45,-1.11,-5.24,39.60,-5.80,2.13,-16.70,3.86,-1.78,3.85
0,8,24,14,-497,3912,-0.12,0.70,9.55,0.14,-4.97,39.12,-5.81,2.12,-16.74,3.86,-1.75,3.45
2,5,22,6,-510,3907,-0.09,0.66,8.73,0.06,-5.10,39.07,-5.82,2.11,-16.77,3.82,-1.67,3.41
2,0,25,-15,-493,3926,-0.07,0.59,8.01,-0.15,-4.93,39.26,-5.83,2.10,-16.80,3.82,-1.55,3.14
1,-1,25,-12,-486,3924,-0.06,0.53,7.36,-0.12,-4.86,39.24,-5.84,2.09,-16.83,3.85,-1.50,3.03
-3,-2,25,-29,-460,3913,-0.07,0.46,6.78,-0.29,-4.60,39.13,-5.84,2.08,-16.86,3.94,-1.46,2.94
-3,-1,26,-25,-458,3917,-0.08,0.41,6.26,-0.25,-4.58,39.17,-5.85,2.07,-16.88,3.95,-1.46,2.80
-2,0,39,-9,-458,3919,-0.09,0.37,5.87,-0.09,-4.58,39.19,-5.86,2.05,-16.90,3.93,-1.46,2.08
-3,9,53,-49,-495,3907,-0.10,0.39,5.61,-0.49,-4.95,39.07,-5.87,2.04,-16.93,3.96,-1.64,1.32
-4,-1,59,-16,-450,3899,-0.11,0.34,5.41,-0.16,-4.50,38.99,-5.88,2.03,-16.95,3.99,-1.41,0.99
-3,-2,58,-1,-472,3920,-0.12,0.30,5.22,-0.01,-4.72,39.20,-5.89,2.02,-16.97,3.98,-1.37,1.01
0,7,92,54,-558,3905,-0.11,0.31,5.26,0.54,-5.58,39.05,-5.90,2.01,-16.99,3.92,-1.55,-0.71
-4,0,107,34,-551,3959,-0.12,0.28,5.38,0.34,-5.51,39.59,-5.91,2.00,-17.01,4.01,-1.39,-1.44
1,-9,88,-150,-368,3904,-0.10,0.20,5.38,-1.50,-3.68,39.04,-5.89,2.01,-17.03,3.89,-1.19,-0.47
1,-6,69,-165,-348,3881,-0.09,0.14,5.27,-1.65,-3.48,38.81,-5.87,2.02,-17.05,3.88,-1.25,0.47
-2,-3,36,-52,-462,3927,-0.09,0.11,4.96,-0.52,-4.62,39.27,-5.88,2.00,-17.07,3.95,-1.29,2.10
-2,-6,40,-24,-488,3920,-0.09,0.06,4.71,-0.24,-4.88,39.20,-5.89,1.99,-17.09,3.96,-1.21,1.86
2,16,131,101,-687,3878,-0.07,0.15,5.04,1.01,-6.87,38.78,-5.91,1.98,-17.11,3.88,-1.68,-2.71
0,7,198,143,-608,3959,-0.06,0.18,5.74,1.43,-6.08,39.59,-5.92,1.97,-17.13,3.92,-1.49,-5.99
-2,18,288,1,-517,3910,-0.07,0.27,6.92,0.01,-5.17,39.10,-5.93,1.96,-17.16,3.97,-1.73,-10.35
-1,3,291,-1,-381,3947,-0.07,0.26,8.01,-0.01,-3.81,39.47,-5.92,1.95,-17.19,3.95,-1.42,-10.31
-5,2,237,-90,-417,3867,-0.09,0.25,8.65,-0.90,-4.17,38.67,-5.93,1.93,-17.23,4.04,-1.38,-7.45
-3,0,224,-90,-373,3961,-0.10,0.22,9.15,-0.90,-3.73,39.61,-5.92,1.93,-17.26,3.99,-1.33,-6.69
-9,-5,200,-7,-519,3990,-0.15,0.17,9.46,-0.07,-5.19,39.90,-5.93,1.92,-17.30,4.14,-1.21,-5.41
2,5,210,29,-547,3878,-0.12,0.18,9.79,0.29,-5.47,38.78,-5.94,1.91,-17.34,3.91,-1.41,-5.86
0,6,258,-1,-466,3827,-0.11,0.20,10.39,-0.01,-4.66,38.27,-5.95,1.90,-17.38,3.95,-1.43,-8.19
-2,-3,253,-51,-384,3974,-0.11,0.16,10.89,-0.51,-3.84,39.74,-5.94,1.88,-17.42,3.99,-1.23,-7.84
-5,4,229,-32,-509,3999,-0.13,0.17,11.20,-0.32,-5.09,39.99,-5.95,1.88,-17.47,4.06,-1.37,-6.56
-8,0,231,-48,-451,3893,-0.16,0.15,11.49,-0.48,-4.51,38.93,-5.96,1.86,-17.51,4.14,-1.27,-6.60
-5,1,175,-94,-396,3829,-0.18,0.15,11.41,-0.94,-3.96,38.29,-5.96,1.85,-17.56,4.08,-1.28,-3.76
-3,21,169,-39,-515,3776,-0.18,0.26,11.30,-0.39,-5.15,37.76,-5.97,1.85,-17.60,4.05,-1.72,-3.46
1,0,71,-152,-291,3876,-0.15,0.23,10.60,-1.52,-2.91,38.76,-5.95,1.86,-17.64,3.95,-1.29,1.40
-3,-4,46,-97,-347,3886,-0.16,0.19,9.82,-0.97,-3.47,38.86,-5.94,1.85,-17.68,4.02,-1.19,2.55
-2,-6,27,-4,-488,3906,-0.15,0.13,9.00,-0.04,-4.88,39.06,-5.94,1.84,-17.72,4.01,-1.13,3.38
-2,-7,34,7,-495,3909,-0.15,0.07,8.31,0.07,-4.95,39.09,-5.95,1.83,-17.75,4.01,-1.09,2.91
-2,-3,30,-62,-415,3884,-0.15,0.05,7.66,-0.62,-4.15,38.84,-5.96,1.82,-17.78,4.01,-1.15,3.00
-2,-2,21,-63,-411,3892,-0.15,0.03,7.02,-0.63,-4.11,38.92,-5.96,1.80,-17.81,4.01,-1.16,3.36
0,1,8,-34,-446,3896,-0.13,0.03,6.37,-0.34,-4.46,38.96,-5.97,1.79,-17.84,3.97,-1.21,3.91
2,2,6,-28,-443,3906,-0.11,0.04,5.77,-0.28,-4.43,39.06,-5.97,1.77,-17.86,3.93,-1.22,3.91
2,0,13,3,-455,3935,-0.08,0.04,5.27,0.03,-4.55,39.35,-5.98,1.76,-17.88,3.93,-1.17,3.47
0,-2,21,-11,-475,3889,-0.07,0.02,4.87,-0.11,-4.75,38.89,-5.99,1.74,-17.90,3.97,-1.12,3.00
-1,-2,30,-45,-448,3898,-0.07,0.01,4.57,-0.45,-4.48,38.98,-5.99,1.73,-17.92,4.00,-1.10,2.49
-1,0,28,-61,-458,3901,-0.07,0.01,4.28,-0.61,-4.58,39.01,-6.01,1.72,-17.93,4.00,-1.14,2.55
-3,2,15,-29,-462,3898,-0.08,0.02,3.95,-0.29,-4.62,38.98,-6.02,1.70,-17.95,4.05,-1.17,3.15
-3,1,11,-29,-461,3900,-0.09,0.02,3.62,-0.29,-4.61,39.00,-6.02,1.69,-17.96,4.06,-1.14,3.30
-2,1,0,-42,-470,3898,-0.10,0.03,3.26,-0.42,-4.70,38.98,-6.04,1.68,-17.97,4.05,-1.13,3.80
-2,1,-1,-35,-466,3915,-0.10,0.03,2.93,-0.35,-4.66,39.15,-6.05,1.66,-17.99,4.06,-1.13,3.80
-1,0,-3,-34,-455,3912,-0.09,0.03,2.61,-0.34,-4.55,39.12,-6.05,1.65,-18.00,4.04,-1.09,3.84
-1,0,-5,-47,-463,3908,-0.09,0.02,2.32,-0.47,-4.63,39.08,-6.06,1.63,-18.01,4.05,-1.08,3.90
0,1,-2,-26,-467,3897,-0.08,0.03,2.08,-0.26,-4.67,38.97,-6.07,1.62,-18.01,4.03,-1.10,3.70
-1,0,-2,-37,-460,3909,-0.08,0.03,1.86,-0.37,-4.60,39.09,-6.08,1.60,-18.02,4.06,-1.07,3.67
-1,-3,-1,-33,-458,3911,-0.08,0.00,1.67,-0.33,-4.58,39.11,-6.09,1.59,-18.03,4.06,-0.99,3.58
-1,-2,0,-37,-473,3905,-0.08,-0.01,1.50,-0.37,-4.73,39.05,-6.10,1.57,-18.03,4.07,-1.00,3.51
0,-3,6,-45,-455,3894,-0.07,-0.03,1.39,-0.45,-4.55,38.94,-6.11,1.56,-18.04,4.05,-0.96,3.18
2,-2,2,-58,-449,3891,-0.05,-0.04,1.26,-0.58,-4.49,38.91,-6.12,1.54,-18.04,4.01,-0.97,3.36
3,4,-7,-21,-453,3904,-0.03,-0.01,1.09,-0.21,-4.53,39.04,-6.13,1.53,-18.05,3.99,-1.09,3.79
4,3,-9,-18,-456,3902,0.00,0.01,0.93,-0.18,-4.56,39.02,-6.14,1.51,-18.05,3.97,-1.06,3.87
3,1,-18,-23,-450,3899,0.02,0.02,0.72,-0.23,-4.50,38.99,-6.14,1.49,-18.05,3.99,-1.01,4.29
8,7,-25,-7,-449,3917,0.07,0.06,0.50,-0.07,-4.49,39.17,-6.15,1.48,-18.05,3.88,-1.13,4.61
65,59,-18,-81,-488,3870,0.46,0.41,0.34,-0.81,-4.88,38.70,-6.16,1.47,-18.06,2.62,-2.28,4.22
87,65,-8,-66,-341,3835,0.94,0.77,0.26,-0.66,-3.41,38.35,-6.14,1.47,-18.06,2.03,-2.50,3.70
87,83,-18,-11,-405,3928,1.38,1.20,0.12,-0.11,-4.05,39.28,-6.13,1.46,-18.06,1.90,-2.98,4.19
80,79,-19,-30,-422,3903,1.73,1.56,-0.01,-0.30,-4.22,39.03,-6.13,1.44,-18.06,1.95,-2.98,4.21
59,46,-45,-83,-273,3864,1.91,1.68,-0.28,-0.83,-2.73,38.64,-6.10,1.45,-18.05,2.31,-2.35,5.49
39,46,-62,-150,-412,3739,1.96,1.80,-0.63,-1.50,-4.12,37.39,-6.10,1.47,-18.05,2.70,-2.40,6.29
10,19,-19,-45,-517,3921,1.83,1.73,-0.68,-0.45,-5.17,39.21,-6.11,1.47,-18.05,3.33,-1.83,4.10
-2,5,-12,-78,-490,3925,1.63,1.59,-0.69,-0.78,-4.90,39.25,-6.12,1.47,-18.04,3.63,-1.51,3.74
-5,2,-10,-64,-460,3899,1.44,1.44,-0.68,-0.64,-4.60,38.99,-6.13,1.46,-18.04,3.75,-1.40,3.64
-3,1,-8,-58,-462,3906,1.28,1.30,-0.66,-0.58,-4.62,39.06,-6.13,1.46,-18.04,3.76,-1.34,3.54
-4,1,-3,-55,-449,3902,1.12,1.18,-0.61,-0.55,-4.49,39.02,-6.14,1.45,-18.03,3.83,-1.30,3.29
-3,2,-1,-47,-446,3904,0.99,1.07,-0.56,-0.47,-4.46,39.04,-6.14,1.43,-18.03,3.85,-1.28,3.20
1,3,-1,-45,-445,3912,0.90,0.99,-0.51,-0.45,-4.45,39.12,-6.15,1.42,-18.03,3.79,-1.27,3.21
-1,3,-1,-51,-445,3894,0.80,0.91,-0.46,-0.51,-4.45,38.94,-6.15,1.41,-18.02,3.86,-1.24,3.21
2,5,-3,-65,-456,3938,0.74,0.85,-0.44,-0.65,-4.56,39.38,-6.16,1.40,-18.02,3.83,-1.25,3.32
4,7,-3,-47,-449,3896,0.69,0.80,-0.41,-0.47,-4.49,38.96,-6.17,1.38,-18.02,3.80,-1.28,3.33
5,7,-5,-61,-447,3895,0.65,0.77,-0.40,-0.61,-4.47,38.95,-6.18,1.37,-18.02,3.80,-1.26,3.43
5,6,-5,-47,-432,3897,0.61,0.73,-0.39,-0.47,-4.32,38.97,-6.18,1.36,-18.02,3.81,-1.22,3.43
-6,-6,-4,-31,-424,3902,0.52,0.62,-0.38,-0.31,-4.24,39.02,-6.18,1.34,-18.01,4.06,-0.93,3.38
-6,-7,-5,-50,-431,3912,0.43,0.51,-0.37,-0.50,-4.31,39.12,-6.18,1.33,-18.01,4.08,-0.87,3.43
-19,-14,-5,-59,-445,3929,0.27,0.38,-0.36,-0.59,-4.45,39.29,-6.19,1.31,-18.01,4.40,-0.68,3.43
-22,-18,-2,-49,-458,3899,0.11,0.23,-0.34,-0.49,-4.58,38.99,-6.20,1.30,-18.01,4.51,-0.55,3.28
-15,-14,-6,-91,-455,3897,0.01,0.12,-0.34,-0.91,-4.55,38.97,-6.22,1.30,-18.01,4.41,-0.61,3.49
-18,-14,-13,-81,-441,3895,-0.10,0.02,-0.39,-0.81,-4.41,38.95,-6.24,1.29,-18.01,4.51,-0.57,3.83
-12,-7,-4,-39,-455,3916,-0.17,-0.02,-0.37,-0.39,-4.55,39.16,-6.24,1.28,-18.00,4.41,-0.69,3.38
-8,-6,-4,-58,-447,3917,-0.20,-0.06,-0.36,-0.58,-4.47,39.17,-6.26,1.26,-18.00,4.35,-0.69,3.38
-15,-14,-6,-41,-433,3902,-0.27,-0.14,-0.36,-0.41,-4.33,39.02,-6.26,1.24,-18.00,4.51,-0.50,3.48
-11,-10,-7,-48,-450,3905,-0.31,-0.18,-0.37,-0.48,-4.50,39.05,-6.27,1.22,-18.00,4.45,-0.55,3.53
-9,2,-15,-66,-440,3911,-0.33,-0.15,-0.42,-0.66,-4.40,39.11,-6.28,1.21,-18.00,4.42,-0.80,3.93
-15,-4,-25,-6,-462,3887,-0.39,-0.16,-0.53,-0.06,-4.62,38.87,-6.29,1.19,-18.00,4.56,-0.66,4.42
-13,0,-37,-48,-454,3902,-0.43,-0.15,-0.70,-0.48,-4.54,39.02,-6.30,1.17,-17.99,4.54,-0.73,5.00
-11,2,-42,-48,-455,3904,-0.46,-0.12,-0.89,-0.48,-4.55,39.04,-6.31,1.16,-17.99,4.52,-0.77,5.22
-6,3,-57,-60,-398,3911,-0.45,-0.09,-1.15,-0.60,-3.98,39.11,-6.30,1.15,-17.98,4.40,-0.79,5.94
0,7,-69,-84,-379,3910,-0.40,-0.04,-1.45,-0.84,-3.79,39.10,-6.28,1.15,-17.98,4.26,-0.89,6.49
7,13,-60,11,-497,3924,-0.32,0.05,-1.68,0.11,-4.97,39.24,-6.30,1.13,-17.97,4.10,-1.02,5.99
2,8,-47,-17,-494,3899,-0.28,0.09,-1.79,-0.17,-4.94,38.99,-6.31,1.12,-17.96,4.20,-0.93,5.31
3,8,-28,-29,-425,3903,-0.23,0.13,-1.79,-0.29,-4.25,39.03,-6.31,1.10,-17.96,4.17,-0.93,4.35
-1,4,-29,-24,-416,3913,-0.21,0.14,-1.78,-0.24,-4.16,39.13,-6.30,1.08,-17.95,4.24,-0.84,4.40
-8,-2,-23,-36,-451,3901,-0.24,0.11,-1.75,-0.36,-4.51,39.01,-6.31,1.07,-17.94,4.39,-0.70,4.10
-5,0,-20,-44,-452,3935,-0.25,0.10,-1.69,-0.44,-4.52,39.35,-6.32,1.05,-17.94,4.34,-0.72,3.95
20,5,-39,26,-354,3902,-0.10,0.12,-1.76,0.26,-3.54,39.02,-6.31,1.04,-17.93,3.79,-0.82,4.90
-3,-7,-41,-118,-438,3881,-0.11,0.07,-1.84,-1.18,-4.38,38.81,-6.32,1.05,-17.92,4.26,-0.57,4.99
-23,-19,-11,-96,-504,3899,-0.24,-0.05,-1.72,-0.96,-5.04,38.99,-6.33,1.06,-17.91,4.71,-0.30,3.49
-19,-16,-6,-96,-479,3918,-0.33,-0.15,-1.58,-0.96,-4.79,39.18,-6.35,1.07,-17.91,4.67,-0.34,3.25
-20,-14,-11,-47,-460,3913,-0.42,-0.22,-1.49,-0.47,-4.60,39.13,-6.37,1.05,-17.90,4.72,-0.35,3.52
-25,-20,-14,-56,-495,3890,-0.53,-0.32,-1.43,-0.56,-4.95,38.90,-6.39,1.04,-17.90,4.87,-0.20,3.69
-46,-49,-36,-25,-453,3903,-0.76,-0.58,-1.51,-0.25,-4.53,39.03,-6.40,1.02,-17.89,5.36,0.48,4.79
-53,-54,-34,-101,-465,3948,-1.00,-0.86,-1.56,-1.01,-4.65,39.48,-6.41,1.04,-17.88,5.58,0.65,4.68
-47,-47,-39,-8,-476,3937,-1.19,-1.06,-1.64,-0.08,-4.76,39.37,-6.42,1.01,-17.88,5.52,0.57,4.92
-47,-44,-43,-43,-452,3901,-1.36,-1.22,-1.74,-0.43,-4.52,39.01,-6.44,0.99,-17.87,5.57,0.57,5.10
-27,-20,-44,-48,-431,3894,-1.39,-1.22,-1.84,-0.48,-4.31,38.94,-6.44,0.97,-17.87,5.17,0.10,5.13
-16,-12,-46,-38,-452,3939,-1.35,-1.17,-1.93,-0.38,-4.52,39.39,-6.45,0.95,-17.86,4.95,-0.06,5.22
-1,-2,-54,-58,-449,3901,-1.22,-1.07,-2.07,-0.58,-4.49,39.01,-6.47,0.93,-17.85,4.62,-0.28,5.60
-3,0,-53,-84,-435,3884,-1.11,-0.96,-2.19,-0.84,-4.35,38.84,-6.47,0.94,-17.84,4.63,-0.36,5.53
0,-2,-84,6,-448,3905,-1.00,-0.88,-2.48,0.06,-4.48,39.05,-6.47,0.92,-17.83,4.54,-0.33,7.05
2,-1,-86,-123,-479,3937,-0.89,-0.79,-2.76,-1.23,-4.79,39.37,-6.48,0.93,-17.82,4.48,-0.38,7.10
-3,-4,-44,1,-495,3894,-0.82,-0.74,-2.75,0.01,-4.95,38.94,-6.50,0.91,-17.81,4.57,-0.32,4.97
-1,0,-49,66,-477,3840,-0.74,-0.67,-2.77,0.66,-4.77,38.40,-6.51,0.89,-17.80,4.52,-0.41,5.21
-4,1,-60,-108,-454,3884,-0.69,-0.59,-2.86,-1.08,-4.54,38.84,-6.51,0.91,-17.79,4.57,-0.46,5.76
-4,1,-54,-28,-453,3906,-0.65,-0.53,-2.90,-0.28,-4.53,39.06,-6.52,0.88,-17.78,4.56,-0.46,5.44
1,-3,-83,58,-425,3892,-0.58,-0.49,-3.12,0.58,-4.25,38.92,-6.52,0.86,-17.77,4.44,-0.37,6.88
0,0,-109,36,-379,3868,-0.52,-0.44,-3.47,0.36,-3.79,38.68,-6.51,0.84,-17.75,4.44,-0.44,8.13
0,-3,-145,37,-434,3924,-0.47,-0.42,-4.01,0.37,-4.34,39.24,-6.51,0.82,-17.74,4.43,-0.37,9.87
0,-8,-157,80,-414,3892,-0.42,-0.42,-4.57,0.80,-4.14,38.92,-6.51,0.80,-17.72,4.41,-0.25,10.38
-7,-6,-105,-13,-420,3887,-0.42,-0.42,-4.75,-0.13,-4.20,38.87,-6.50,0.78,-17.70,4.55,-0.28,7.70
-1,-3,-123,25,-347,3841,-0.39,-0.40,-5.03,0.25,-3.47,38.41,-6.49,0.77,-17.68,4.41,-0.34,8.56
11,-22,-202,-78,-274,3854,-0.28,-0.49,-5.76,-0.78,-2.74,38.54,-6.47,0.76,-17.66,4.13,0.08,12.45
3,-23,-221,-134,-468,3841,-0.23,-0.58,-6.53,-1.34,-4.68,38.41,-6.48,0.78,-17.63,4.28,0.11,13.28
-2,-20,-144,-45,-530,3901,-0.22,-0.64,-6.75,-0.45,-5.30,39.01,-6.50,0.77,-17.61,4.39,0.08,9.32
-2,-15,-135,-49,-558,3892,-0.21,-0.67,-6.90,-0.49,-5.58,38.92,-6.52,0.76,-17.58,4.40,-0.01,8.83
-4,-6,-101,-27,-529,3882,-0.22,-0.64,-6.83,-0.27,-5.29,38.82,-6.54,0.75,-17.55,4.46,-0.20,7.11
-5,-7,-112,-15,-480,3905,-0.22,-0.62,-6.83,-0.15,-4.80,39.05,-6.55,0.73,-17.52,4.49,-0.17,7.66
1,-7,-190,89,-377,3919,-0.20,-0.60,-7.30,0.89,-3.77,39.19,-6.55,0.71,-17.49,4.35,-0.16,11.54
-4,-8,-228,-42,-389,3913,-0.20,-0.59,-7.96,-0.42,-3.89,39.13,-6.53,0.70,-17.46,4.44,-0.14,13.35
7,-3,-444,-267,-367,3732,-0.14,-0.55,-9.88,-2.67,-3.67,37.32,-6.52,0.71,-17.42,4.20,-0.26,20.00
-5,28,-447,-377,-779,3849,-0.15,-0.32,-11.62,-3.77,-7.79,38.49,-6.54,0.72,-17.38,4.46,-0.96,20.00
19,1,-713,-395,-292,3557,-0.02,-0.28,-14.80,-3.95,-2.92,35.57,-6.53,0.73,-17.32,3.93,-0.42,20.00
1,15,-742,-671,-508,3990,-0.01,-0.16,-17.85,-6.71,-5.08,39.90,-6.54,0.74,-17.25,4.30,-0.75,20.00
4,1,-733,-208,-464,3934,0.01,-0.14,-20.54,-2.08,-4.64,39.34,-6.54,0.75,-17.17,4.23,-0.47,20.00
3,-35,-680,76,-355,3810,0.03,-0.34,-22.63,0.76,-3.55,38.10,-6.53,0.72,-17.08,4.24,0.33,20.00
8,-8,-620,-79,-559,3863,0.07,-0.36,-24.15,-0.79,-5.59,38.63,-6.55,0.71,-16.98,4.14,-0.21,20.00
6,-19,-575,27,-461,3974,0.10,-0.44,-25.24,0.27,-4.61,39.74,-6.55,0.68,-16.88,4.17,0.06,20.00
-1,-3,-459,-59,-611,3903,0.09,-0.41,-25.52,-0.59,-6.11,39.03,-6.57,0.67,-16.78,4.33,-0.27,20.00
1,-4,-403,39,-523,3905,0.08,-0.39,-25.42,0.39,-5.23,39.05,-6.58,0.64,-16.68,4.30,-0.23,19.08
5,-9,-420,-107,-429,3972,0.11,-0.41,-25.44,-1.07,-4.29,39.72,-6.58,0.64,-16.58,4.21,-0.13,19.92
-1,-8,-400,-207,-467,3938,0.09,-0.42,-25.34,-2.07,-4.67,39.38,-6.58,0.65,-16.48,4.34,-0.15,18.91
4,6,-403,-70,-519,3701,0.11,-0.34,-25.26,-0.70,-5.19,37.01,-6.60,0.64,-16.38,4.24,-0.45,19.05
2,3,-387,-76,-573,3964,0.11,-0.29,-25.10,-0.76,-5.73,39.64,-6.61,0.63,-16.28,4.30,-0.40,18.25
-2,-2,-364,-59,-431,3819,0.08,-0.27,-24.81,-0.59,-4.31,38.19,-6.60,0.64,-16.18,4.38,-0.31,17.12
1,13,-368,-52,-501,3877,0.08,-0.16,-24.57,-0.52,-5.01,38.77,-6.62,0.63,-16.08,4.33,-0.63,17.34
13,5,-381,-73,-437,3816,0.15,-0.12,-24.44,-0.73,-4.37,38.16,-6.62,0.63,-15.98,4.06,-0.49,18.01
4,-9,-379,-9,-443,3980,0.16,-0.16,-24.31,-0.09,-4.43,39.80,-6.61,0.61,-15.89,4.24,-0.17,17.91
0,11,-386,-85,-510,3913,0.15,-0.08,-24.23,-0.85,-5.10,39.13,-6.63,0.60,-15.79,4.33,-0.60,18.26
1,-17,-383,72,-274,4049,0.14,-0.17,-24.14,0.72,-2.74,40.49,-6.61,0.58,-15.70,4.31,0.01,18.11
-3,-32,-407,-28,-227,4080,0.11,-0.35,-24.21,-0.28,-2.27,40.80,-6.59,0.57,-15.60,4.38,0.37,19.30
16,10,-448,-32,-367,3643,0.19,-0.26,-24.52,-0.32,-3.67,36.43,-6.58,0.56,-15.50,3.96,-0.50,20.00
18,6,-525,-40,-349,3698,0.28,-0.19,-25.27,-0.40,-3.49,36.98,-6.56,0.54,-15.40,3.88,-0.43,20.00
6,-8,-535,-67,-446,3999,0.29,-0.22,-26.01,-0.67,-4.46,39.99,-6.55,0.55,-15.30,4.12,-0.14,20.00
3,-11,-610,19,-410,3891,0.28,-0.27,-27.13,0.19,-4.10,38.91,-6.54,0.52,-15.19,4.18,-0.05,20.00
-15,0,-661,16,-332,3956,0.16,-0.24,-28.45,0.16,-3.32,39.56,-6.52,0.50,-15.08,4.57,-0.26,20.00
24,-21,-812,77,-139,4025,0.29,-0.34,-30.56,0.77,-1.39,40.25,-6.51,0.48,-14.96,3.73,0.21,20.00
36,0,-877,-128,-111,3842,0.48,-0.31,-32.85,-1.28,-1.11,38.42,-6.49,0.47,-14.83,3.42,-0.22,20.00
6,-5,-1121,-125,-301,3817,0.47,-0.31,-36.40,-1.25,-3.01,38.17,-6.47,0.46,-14.68,4.02,-0.12,20.00
-1,-50,-1197,22,-67,4024,0.42,-0.58,-40.07,0.22,-0.67,40.24,-6.45,0.44,-14.52,4.17,0.89,20.00
27,-44,-1359,-62,-391,4005,0.54,-0.79,-44.35,-0.62,-3.91,40.05,-6.44,0.42,-14.35,3.55,0.83,20.00
22,-37,-1397,-137,-534,3828,0.62,-0.94,-48.44,-1.37,-5.34,38.28,-6.45,0.41,-14.16,3.64,0.74,20.00
8,-33,-1445,-24,-610,3874,0.61,-1.05,-52.41,-0.24,-6.10,38.74,-6.46,0.38,-13.95,3.94,0.70,20.00
-2,-51,-1437,91,-622,3922,0.53,-1.25,-55.93,0.91,-6.22,39.22,-6.48,0.34,-13.73,4.17,1.15,20.00
24,-39,-1316,-86,-639,4033,0.63,-1.37,-58.37,-0.86,-6.39,40.33,-6.50,0.32,-13.50,3.63,0.96,20.00
12,-14,-1222,-122,-630,3853,0.64,-1.32,-59.98,-1.22,-6.30,38.53,-6.51,0.29,-13.26,3.88,0.45,20.00
-8,-29,-1015,-35,-714,3934,0.52,-1.36,-60.18,-0.35,-7.14,39.34,-6.53,0.26,-13.02,4.33,0.79,20.00
9,-11,-941,-18,-757,3792,0.53,-1.29,-59.90,-0.18,-7.57,37.92,-6.54,0.23,-12.78,3.99,0.43,20.00
12,-13,-749,-212,-495,3903,0.55,-1.24,-58.48,-2.12,-4.95,39.03,-6.55,0.21,-12.55,3.93,0.46,20.00
5,-21,-736,-103,-438,3833,0.52,-1.25,-57.12,-1.03,-4.38,38.33,-6.55,0.20,-12.32,4.08,0.63,20.00
-1,-62,-655,-190,-344,3925,0.47,-1.50,-55.40,-1.90,-3.44,39.25,-6.53,0.19,-12.10,4.21,1.55,20.00
12,-126,-654,-72,-487,4107,0.49,-2.12,-53.85,-0.72,-4.87,41.07,-6.54,0.17,-11.89,3.94,3.03,20.00
19,-44,-637,-237,-245,3923,0.56,-2.17,-52.35,-2.37,-2.45,39.23,-6.52,0.15,-11.68,3.77,1.39,20.00
2,-33,-644,-139,-295,3720,0.51,-2.16,-51.05,-1.39,-2.95,37.20,-6.51,0.13,-11.48,4.12,1.17,20.00
0,-23,-681,-105,-371,3765,0.46,-2.08,-50.10,-1.05,-3.71,37.65,-6.50,0.12,-11.28,4.16,0.96,20.00
-21,-27,-652,-196,-622,3917,0.29,-2.04,-49.06,-1.96,-6.22,39.17,-6.51,0.10,-11.09,4.65,1.04,20.00
26,-7,-463,410,-486,4381,0.42,-1.88,-46.98,4.10,-4.86,43.81,-6.51,0.05,-10.90,3.65,0.62,17.36
2,-20,-494,-315,-92,4023,0.39,-1.81,-45.30,-3.15,-0.92,40.23,-6.49,0.04,-10.72,4.14,0.88,19.19
5,-7,-539,-55,-509,3801,0.38,-1.67,-44.05,-0.55,-5.09,38.01,-6.51,0.02,-10.55,4.09,0.58,20.00
-5,-10,-469,-274,-551,4318,0.31,-1.57,-42.51,-2.74,-5.51,43.18,-6.51,0.01,-10.38,4.31,0.62,18.34
-2,-27,-584,-262,-391,4002,0.27,-1.58,-41.82,-2.62,-3.91,40.02,-6.50,0.01,-10.22,4.26,0.97,20.00
23,-29,-588,-118,-330,3830,0.38,-1.59,-41.23,-1.18,-3.30,38.30,-6.49,-0.01,-10.05,3.71,1.03,20.00
4,-16,-595,-214,-523,4026,0.37,-1.53,-40.73,-2.14,-5.23,40.26,-6.49,-0.01,-9.89,4.10,0.75,20.00
13,-26,-568,11,-379,3899,0.41,-1.54,-40.12,0.11,-3.79,38.99,-6.47,-0.04,-9.73,3.90,0.97,20.00
11,-8,-601,-153,-395,3867,0.44,-1.43,-39.78,-1.53,-3.95,38.67,-6.47,-0.05,-9.58,3.93,0.58,20.00
19,-12,-644,86,-331,3760,0.51,-1.36,-39.73,0.86,-3.31,37.60,-6.45,-0.08,-9.42,3.73,0.67,20.00
13,-12,-679,-127,-331,3465,0.54,-1.30,-39.90,-1.27,-3.31,34.65,-6.44,-0.09,-9.26,3.84,0.66,20.00
23,-30,-699,293,-413,4091,0.62,-1.35,-40.17,2.93,-4.13,40.91,-6.44,-0.13,-9.10,3.61,1.06,20.00
23,-54,-663,34,193,4009,0.70,-1.55,-40.20,0.34,1.93,40.09,-6.41,-0.15,-8.94,3.57,1.62,20.00
9,-32,-767,-203,-125,3814,0.69,-1.59,-40.86,-2.03,-1.25,38.14,-6.40,-0.17,-8.78,3.85,1.19,20.00
9,23,-795,-277,-905,3641,0.67,-1.29,-41.62,-2.77,-9.05,36.41,-6.41,-0.18,-8.62,3.86,0.00,20.00
24,-37,-735,161,-211,4393,0.75,-1.39,-41.94,1.61,-2.11,43.93,-6.39,-0.21,-8.45,3.52,1.27,20.00
12,-43,-824,-113,-284,3832,0.75,-1.51,-42.78,-1.13,-2.84,38.32,-6.37,-0.23,-8.28,3.76,1.44,20.00
17,-26,-859,-4,-414,3637,0.78,-1.52,-43.74,-0.04,-4.14,36.37,-6.38,-0.24,-8.11,3.65,1.10,20.00
37,-13,-866,-34,-428,3735,0.93,-1.44,-44.65,-0.34,-4.28,37.35,-6.37,-0.24,-7.93,3.20,0.82,20.00
21,-58,-799,65,-103,4144,0.96,-1.65,-45.06,0.65,-1.03,41.44,-6.35,-0.27,-7.75,3.50,1.81,20.00
11,-45,-824,-10,-327,4009,0.93,-1.76,-45.58,-0.10,-3.27,40.09,-6.33,-0.30,-7.57,3.70,1.59,20.00
19,-7,-852,-336,-375,3797,0.96,-1.63,-46.22,-3.36,-3.75,37.97,-6.32,-0.30,-7.39,3.53,0.79,20.00
16,-2,-871,-167,-537,3895,0.96,-1.48,-46.91,-1.67,-5.37,38.95,-6.33,-0.31,-7.20,3.59,0.65,20.00
25,-32,-869,144,-406,3929,1.01,-1.53,-47.52,1.44,-4.06,39.29,-6.32,-0.36,-7.01,3.38,1.30,20.00
3,-21,-821,106,-689,3911,0.93,-1.50,-47.77,1.06,-6.89,39.11,-6.33,-0.39,-6.82,3.86,1.10,20.00
8,-40,-833,37,-270,4019,0.89,-1.60,-48.08,0.37,-2.70,40.19,-6.31,-0.42,-6.63,3.76,1.53,20.00
4,-32,-764,137,-645,3868,0.82,-1.63,-47.93,1.37,-6.45,38.68,-6.32,-0.46,-6.44,3.86,1.40,20.00
7,-6,-733,-133,-692,3931,0.78,-1.50,-47.61,-1.33,-6.92,39.31,-6.33,-0.47,-6.26,3.82,0.84,20.00
-6,15,-538,-238,-896,4003,0.67,-1.26,-46.13,-2.38,-8.96,40.03,-6.34,-0.49,-6.07,4.12,0.36,20.00
26,-11,-616,101,-98,3705,0.76,-1.20,-45.27,1.01,-0.98,37.05,-6.32,-0.52,-5.89,3.43,0.89,20.00
8,-27,-806,-41,-348,3709,0.73,-1.25,-45.66,-0.41,-3.48,37.09,-6.30,-0.53,-5.71,3.80,1.24,20.00
-6,-16,-837,-95,-530,3941,0.62,-1.22,-46.20,-0.95,-5.30,39.41,-6.31,-0.54,-5.53,4.12,1.01,20.00
4,-16,-806,-112,-537,4070,0.58,-1.20,-46.50,-1.12,-5.37,40.70,-6.31,-0.55,-5.35,3.93,1.01,20.00
14,-29,-783,-212,-588,3701,0.61,-1.25,-46.63,-2.12,-5.88,37.01,-6.32,-0.56,-5.16,3.72,1.30,20.00
16,7,-684,53,-548,3811,0.65,-1.09,-46.14,0.53,-5.48,38.11,-6.33,-0.59,-4.98,3.68,0.54,20.00
2,-6,-636,142,-808,3859,0.60,-1.01,-45.40,1.42,-8.08,38.59,-6.35,-0.62,-4.80,3.99,0.80,20.00
14,-25,-485,-179,-280,4204,0.62,-1.06,-43.82,-1.79,-2.80,42.04,-6.33,-0.62,-4.62,3.72,1.21,17.89
14,-39,-540,6,-124,3757,0.64,-1.20,-42.73,0.06,-1.24,37.57,-6.31,-0.65,-4.45,3.70,1.55,20.00
8,-13,-558,-147,-429,3834,0.63,-1.16,-41.86,-1.47,-4.29,38.34,-6.30,-0.65,-4.29,3.83,1.01,20.00
-1,-32,-560,-96,-413,3953,0.56,-1.24,-41.09,-0.96,-4.13,39.53,-6.30,-0.66,-4.13,4.02,1.42,20.00
6,-22,-514,181,-431,3915,0.54,-1.25,-40.12,1.81,-4.31,39.15,-6.29,-0.70,-3.97,3.88,1.25,19.89
8,-26,-556,125,-446,3932,0.54,-1.28,-39.50,1.25,-4.46,39.32,-6.29,-0.74,-3.81,3.84,1.36,20.00
11,-14,-579,-43,-662,3788,0.55,-1.24,-39.08,-0.43,-6.62,37.88,-6.30,-0.75,-3.66,3.79,1.12,20.00
-1,-25,-558,-18,-540,3959,0.49,-1.27,-38.58,-0.18,-5.40,39.59,-6.32,-0.76,-3.50,4.06,1.36,20.00
-9,20,-362,-10,-802,3914,0.38,-1.02,-36.93,-0.10,-8.02,39.14,-6.33,-0.78,-3.36,4.26,0.39,12.61
2,21,-272,-24,-343,3941,0.36,-0.79,-34.89,-0.24,-3.43,39.41,-6.31,-0.79,-3.22,4.03,0.31,8.36
34,-37,-558,58,-62,4203,0.53,-0.93,-34.81,0.58,-0.62,42.03,-6.29,-0.81,-3.08,3.32,1.54,20.00
16,-13,-587,-415,-720,3677,0.57,-0.92,-34.91,-4.15,-7.20,36.77,-6.30,-0.81,-2.94,3.67,1.05,20.00
2,35,-659,-318,-1110,3561,0.53,-0.61,-35.44,-3.18,-11.10,35.61,-6.31,-0.82,-2.80,3.98,-0.00,20.00
3,27,-393,24,-602,3936,0.49,-0.39,-34.29,0.24,-6.02,39.36,-6.32,-0.83,-2.67,3.98,0.11,14.51
-10,-18,-526,-150,-51,3623,0.38,-0.46,-34.07,-1.50,-0.51,36.23,-6.30,-0.84,-2.53,4.26,1.05,20.00
9,-54,-605,64,-117,4224,0.40,-0.74,-34.35,0.64,-1.17,42.24,-6.28,-0.86,-2.39,3.85,1.87,20.00
20,0,-566,-120,-755,3949,0.48,-0.67,-34.37,-1.20,-7.55,39.49,-6.29,-0.87,-2.26,3.62,0.76,20.00
-3,-28,-528,60,-547,3859,0.42,-0.77,-34.15,0.60,-5.47,38.59,-6.31,-0.89,-2.12,4.11,1.36,20.00
6,-17,-506,-88,-438,3779,0.41,-0.80,-33.83,-0.88,-4.38,37.79,-6.31,-0.89,-1.99,3.93,1.15,20.00
13,-7,-504,122,-450,3947,0.45,-0.76,-33.52,1.22,-4.50,39.47,-6.31,-0.92,-1.86,3.78,0.96,20.00
-3,-8,-480,-181,-628,3894,0.39,-0.73,-33.09,-1.81,-6.28,38.94,-6.31,-0.92,-1.72,4.12,0.97,18.97
-4,-15,-445,-7,-388,3939,0.32,-0.75,-32.50,-0.07,-3.88,39.39,-6.30,-0.93,-1.59,4.15,1.12,17.27
10,-16,-407,16,-287,3823,0.35,-0.77,-31.73,0.16,-2.87,38.23,-6.28,-0.94,-1.47,3.85,1.16,15.45
8,-36,-491,-221,-207,4221,0.37,-0.92,-31.55,-2.21,-2.07,42.21,-6.26,-0.94,-1.34,3.87,1.60,19.73
2,-10,-449,-112,-556,3887,0.34,-0.89,-31.14,-1.12,-5.56,38.87,-6.27,-0.94,-1.22,4.01,1.07,17.65
14,-6,-437,-33,-445,3906,0.39,-0.83,-30.69,-0.33,-4.45,39.06,-6.27,-0.94,-1.10,3.75,0.97,17.09
5,2,-353,-59,-428,4070,0.38,-0.74,-29.77,-0.59,-4.28,40.70,-6.26,-0.94,-0.98,3.93,0.78,12.96
14,-11,-395,-49,-337,3705,0.43,-0.73,-29.21,-0.49,-3.37,37.05,-6.25,-0.94,-0.86,3.72,1.04,15.17
22,-8,-419,-67,-390,3778,0.52,-0.71,-28.84,-0.67,-3.90,37.78,-6.24,-0.94,-0.75,3.53,0.97,16.44
0,15,-362,-295,-771,4085,0.47,-0.55,-28.17,-2.95,-7.71,40.85,-6.25,-0.94,-0.64,4.00,0.46,13.63
-11,15,-281,-97,-727,4252,0.36,-0.40,-27.06,-0.97,-7.27,42.52,-6.26,-0.94,-0.53,4.26,0.43,9.69
-7,7,-209,-37,-509,3626,0.28,-0.32,-25.63,-0.37,-5.09,36.26,-6.28,-0.94,-0.43,4.21,0.57,6.26
24,-53,-542,48,-286,3807,0.40,-0.61,-26.37,0.48,-2.86,38.07,-6.25,-0.95,-0.32,3.53,1.87,20.00
22,-36,-549,106,-782,3817,0.49,-0.77,-27.09,1.06,-7.82,38.17,-6.27,-0.97,-0.22,3.56,1.58,20.00
8,-9,-480,9,-588,3673,0.49,-0.75,-27.31,0.09,-5.88,36.73,-6.28,-0.98,-0.11,3.85,1.03,19.69
-5,12,-446,-48,-567,3994,0.41,-0.60,-27.30,-0.48,-5.67,39.94,-6.29,-0.98,-0.00,4.14,0.57,17.94
17,-11,-492,-110,-269,4100,0.47,-0.60,-27.57,-1.10,-2.69,41.00,-6.28,-0.98,0.11,3.67,1.04,20.00
-8,-31,-512,-106,-467,3923,0.38,-0.73,-27.93,-1.06,-4.67,39.23,-6.28,-0.98,0.22,4.20,1.48,20.00
6,-19,-512,-98,-517,3729,0.38,-0.78,-28.26,-0.98,-5.17,37.29,-6.28,-0.98,0.33,3.92,1.25,20.00
14,-9,-489,-64,-513,3927,0.42,-0.75,-28.42,-0.64,-5.13,39.27,-6.29,-0.98,0.44,3.75,1.04,19.85
10,-23,-366,93,-274,3981,0.44,-0.82,-27.81,0.93,-2.74,39.81,-6.27,-1.00,0.55,3.81,1.35,13.68
2,7,-353,-276,-590,3827,0.41,-0.69,-27.18,-2.76,-5.90,38.27,-6.27,-1.00,0.66,3.99,0.71,13.11
4,16,-236,-181,-658,3938,0.39,-0.53,-25.90,-1.81,-6.58,39.38,-6.28,-1.00,0.76,3.96,0.48,7.37
7,-19,-224,27,-22,3866,0.40,-0.59,-24.68,0.27,-0.22,38.66,-6.26,-1.01,0.86,3.88,1.21,6.95
6,-16,-237,92,-380,3588,0.39,-0.63,-23.66,0.92,-3.80,35.88,-6.25,-1.04,0.96,3.89,1.18,7.77
10,15,-234,-96,-640,3885,0.42,-0.47,-22.72,-0.96,-6.40,38.85,-6.26,-1.04,1.05,3.81,0.51,7.77
-3,24,-71,-132,-464,4012,0.36,-0.28,-20.88,-1.32,-4.64,40.12,-6.26,-1.03,1.13,4.09,0.27,-0.21
-5,14,-44,-102,-487,3946,0.29,-0.17,-19.06,-1.02,-4.87,39.46,-6.26,-1.02,1.20,4.15,0.44,-1.28
-2,15,-37,-63,-418,3833,0.25,-0.06,-17.38,-0.63,-4.18,38.33,-6.26,-1.01,1.27,4.10,0.38,-1.36
-3,16,-43,-38,-402,3895,0.21,0.04,-15.90,-0.38,-4.02,38.95,-6.25,-1.00,1.34,4.13,0.32,-0.81
21,-44,-277,-38,-18,4019,0.31,-0.23,-16.00,-0.38,-0.18,40.19,-6.23,-1.00,1.40,3.60,1.62,11.05
19,-32,-307,-58,-504,3761,0.40,-0.40,-16.28,-0.58,-5.04,37.61,-6.24,-1.00,1.46,3.62,1.42,12.52
1,5,-181,-43,-546,3824,0.36,-0.33,-15.75,-0.43,-5.46,38.24,-6.25,-0.99,1.53,4.01,0.64,6.20
1,0,-168,-95,-380,3954,0.33,-0.30,-15.20,-0.95,-3.80,39.54,-6.24,-0.98,1.59,4.01,0.73,5.62
0,-8,-191,-54,-372,3966,0.30,-0.32,-14.85,-0.54,-3.72,39.66,-6.23,-0.98,1.65,4.03,0.89,6.84
2,-18,-212,-58,-280,3879,0.28,-0.39,-14.66,-0.58,-2.80,38.79,-6.22,-0.97,1.70,3.99,1.12,7.93
7,0,-191,-88,-485,3841,0.30,-0.35,-14.36,-0.88,-4.85,38.41,-6.22,-0.96,1.76,3.88,0.73,6.90
5,-7,-179,-30,-400,4010,0.30,-0.36,-14.01,-0.30,-4.00,40.10,-6.21,-0.95,1.82,3.92,0.87,6.34
-1,-3,-155,-39,-514,3935,0.26,-0.34,-13.56,-0.39,-5.14,39.35,-6.22,-0.95,1.87,4.06,0.78,5.19
2,3,-156,-57,-341,3843,0.25,-0.29,-13.15,-0.57,-3.41,38.43,-6.21,-0.94,1.92,3.99,0.64,5.30
17,-19,-268,-112,-438,3776,0.33,-0.38,-13.47,-1.12,-4.38,37.76,-6.21,-0.93,1.98,3.67,1.10,10.93
13,6,-250,-17,-703,3734,0.37,-0.30,-13.65,-0.17,-7.03,37.34,-6.23,-0.93,2.03,3.74,0.57,9.98
0,11,-156,-138,-210,4030,0.34,-0.21,-13.24,-1.38,-2.10,40.30,-6.21,-0.92,2.08,4.01,0.44,5.26
-6,-23,-235,-51,-120,3880,0.27,-0.33,-13.35,-0.51,-1.20,38.80,-6.19,-0.92,2.14,4.14,1.17,9.25
7,-2,-299,0,-441,3875,0.28,-0.31,-13.84,0.00,-4.41,38.75,-6.20,-0.91,2.19,3.87,0.73,12.41
2,-10,-291,-109,-519,3926,0.27,-0.34,-14.23,-1.09,-5.19,39.26,-6.20,-0.91,2.25,3.98,0.89,11.92
1,-4,-230,-9,-417,4038,0.25,-0.33,-14.21,-0.09,-4.17,40.38,-6.20,-0.90,2.30,4.00,0.76,8.81
5,-9,-245,-74,-400,3777,0.25,-0.35,-14.28,-0.74,-4.00,37.77,-6.19,-0.88,2.36,3.92,0.86,9.55
2,10,-169,-88,-390,3949,0.24,-0.25,-13.88,-0.88,-3.90,39.49,-6.19,-0.87,2.42,3.98,0.44,5.75
13,-30,-237,-19,-57,3947,0.29,-0.41,-13.94,-0.19,-0.57,39.47,-6.17,-0.88,2.47,3.73,1.30,9.19
0,-4,-245,56,-623,3701,0.26,-0.39,-14.04,0.56,-6.23,37.01,-6.18,-0.89,2.53,4.01,0.77,9.57
3,7,-204,-8,-607,3949,0.26,-0.31,-13.88,-0.08,-6.07,39.49,-6.20,-0.89,2.58,3.96,0.53,7.50
4,1,-120,-63,-367,3981,0.26,-0.27,-13.23,-0.63,-3.67,39.81,-6.19,-0.88,2.63,3.93,0.63,3.33
2,12,-118,-71,-550,3918,0.24,-0.17,-12.62,-0.71,-5.50,39.18,-6.20,-0.87,2.68,3.98,0.38,3.33
15,-38,-166,100,105,4022,0.31,-0.39,-12.37,1.00,1.05,40.22,-6.18,-0.88,2.73,3.69,1.46,5.80
9,-40,-319,-139,-241,3716,0.33,-0.59,-13.08,-1.39,-2.41,37.16,-6.16,-0.87,2.79,3.79,1.55,13.45
-2,13,-243,-10,-545,3896,0.29,-0.45,-13.26,-0.10,-5.45,38.96,-6.18,-0.87,2.84,4.04,0.43,9.54
-4,6,-212,-126,-456,3877,0.23,-0.37,-13.22,-1.26,-4.56,38.77,-6.18,-0.86,2.89,4.10,0.55,7.96
25,-58,-444,91,-127,4055,0.36,-0.69,-14.61,0.91,-1.27,40.55,-6.16,-0.87,2.95,3.46,1.94,19.51
-2,-36,-508,-271,-257,3811,0.31,-0.84,-16.25,-2.71,-2.57,38.11,-6.15,-0.86,3.01,4.01,1.53,20.00
8,-13,-463,-107,-502,4003,0.33,-0.84,-17.45,-1.07,-5.02,40.03,-6.15,-0.86,3.08,3.81,1.06,19.96
5,14,-408,-21,-620,3685,0.33,-0.67,-18.19,-0.21,-6.20,36.85,-6.17,-0.86,3.15,3.88,0.47,17.02
10,-18,-474,-105,-197,3790,0.36,-0.71,-19.26,-1.05,-1.97,37.90,-6.15,-0.86,3.23,3.76,1.13,20.00
10,-10,-491,50,-534,3914,0.38,-0.70,-20.33,0.50,-5.34,39.14,-6.17,-0.87,3.31,3.76,0.97,20.00
10,-1,-468,-203,-402,3980,0.41,-0.64,-21.15,-2.03,-4.02,39.80,-6.16,-0.87,3.39,3.75,0.76,19.51
11,-20,-471,-87,-368,3934,0.43,-0.69,-21.91,-0.87,-3.68,39.34,-6.15,-0.86,3.48,3.72,1.16,19.52
9,0,-477,-101,-582,3899,0.44,-0.62,-22.63,-1.01,-5.82,38.99,-6.16,-0.86,3.57,3.76,0.74,19.68
-4,-32,-477,-26,-473,3971,0.38,-0.76,-23.28,-0.26,-4.73,39.71,-6.17,-0.86,3.66,4.05,1.42,19.55
26,-10,-521,2,-421,3753,0.50,-0.74,-24.13,0.02,-4.21,37.53,-6.17,-0.85,3.76,3.41,0.97,20.00
1,-3,-516,11,-486,3805,0.45,-0.69,-24.86,0.11,-4.86,38.05,-6.18,-0.86,3.86,3.94,0.81,20.00
-7,-14,-507,-11,-283,3899,0.36,-0.70,-25.47,-0.11,-2.83,38.99,-6.16,-0.86,3.96,4.11,1.05,20.00
29,-13,-552,-30,-218,3935,0.51,-0.71,-26.29,-0.30,-2.18,39.35,-6.14,-0.87,4.06,3.33,1.03,20.00
9,-7,-537,26,-418,3839,0.51,-0.68,-26.94,0.26,-4.18,38.39,-6.14,-0.86,4.17,3.73,0.90,20.00
15,-26,-603,-25,-35,3912,0.55,-0.77,-27.92,-0.25,-0.35,39.12,-6.12,-0.88,4.28,3.58,1.32,20.00
17,-12,-678,98,-330,3777,0.60,-0.77,-29.26,0.98,-3.30,37.77,-6.10,-0.90,4.40,3.52,1.05,20.00
4,3,-687,-113,-332,3957,0.56,-0.67,-30.53,-1.13,-3.32,39.57,-6.09,-0.90,4.52,3.78,0.72,20.00
10,-21,-813,-75,-224,3878,0.57,-0.74,-32.43,-0.75,-2.24,38.78,-6.07,-0.91,4.65,3.65,1.22,20.00
1,-35,-832,-94,-454,3933,0.52,-0.88,-34.27,-0.94,-4.54,39.33,-6.07,-0.91,4.78,3.84,1.55,20.00
19,-1,-898,-153,-478,3970,0.58,-0.79,-36.32,-1.53,-4.78,39.70,-6.07,-0.91,4.93,3.46,0.83,20.00
11,-33,-907,-98,-353,4028,0.59,-0.92,-38.22,-0.98,-3.53,40.28,-6.06,-0.91,5.08,3.61,1.52,20.00
18,-3,-915,-219,-690,3883,0.64,-0.84,-39.98,-2.19,-6.90,38.83,-6.06,-0.92,5.24,3.46,0.90,20.00
9,-52,-911,133,-345,3873,0.63,-1.08,-41.54,1.33,-3.45,38.73,-6.05,-0.95,5.40,3.63,1.98,20.00
-2,-39,-841,-101,-239,3954,0.56,-1.21,-42.51,-1.01,-2.39,39.54,-6.03,-0.96,5.57,3.87,1.76,20.00
9,-17,-798,-64,-633,3877,0.56,-1.19,-43.13,-0.64,-6.33,38.77,-6.04,-0.98,5.74,3.65,1.31,20.00
8,-2,-674,-32,-513,3871,0.55,-1.08,-42.93,-0.32,-5.13,38.71,-6.05,-0.99,5.91,3.68,0.99,20.00
16,-6,-644,-115,-514,4065,0.59,-1.01,-42.56,-1.15,-5.14,40.65,-6.05,-0.99,6.08,3.51,1.05,20.00
22,-13,-602,-42,-556,3965,0.67,-0.99,-41.98,-0.42,-5.56,39.65,-6.06,-1.00,6.25,3.37,1.19,20.00
6,-7,-572,-74,-606,3819,0.64,-0.93,-41.27,-0.74,-6.06,38.19,-6.07,-1.01,6.41,3.71,1.06,20.00
3,-12,-482,29,-502,3998,0.59,-0.91,-40.08,0.29,-5.02,39.98,-6.08,-1.02,6.57,3.79,1.17,16.37
18,-20,-466,15,-432,3966,0.64,-0.94,-38.92,0.15,-4.32,39.66,-6.07,-1.02,6.72,3.47,1.34,15.73
10,-7,-438,-62,-479,3758,0.64,-0.89,-37.70,-0.62,-4.79,37.58,-6.08,-1.03,6.87,3.63,1.06,14.49
6,8,-403,-96,-586,3944,0.61,-0.75,-36.39,-0.96,-5.86,39.44,-6.09,-1.03,7.02,3.73,0.73,12.92
6,-11,-382,-96,-214,3958,0.59,-0.75,-35.08,-0.96,-2.14,39.58,-6.07,-1.04,7.16,3.72,1.11,12.05
11,-13,-396,-160,-439,4015,0.60,-0.75,-33.99,-1.60,-4.39,40.15,-6.06,-1.04,7.29,3.62,1.15,12.93
7,-7,-364,-64,-436,4015,0.58,-0.72,-32.81,-0.64,-4.36,40.15,-6.06,-1.04,7.42,3.70,1.02,11.48
-2,-10,-351,-102,-520,3796,0.51,-0.71,-31.67,-1.02,-5.20,37.96,-6.07,-1.04,7.55,3.91,1.08,10.99
3,-10,-344,-79,-400,3761,0.48,-0.70,-30.60,-0.79,-4.00,37.61,-6.06,-1.04,7.67,3.81,1.08,10.80
12,-4,-360,-81,-412,3985,0.50,-0.65,-29.74,-0.81,-4.12,39.85,-6.06,-1.03,7.79,3.62,0.94,11.74
9,-1,-346,-57,-488,4037,0.51,-0.59,-28.87,-0.57,-4.88,40.37,-6.06,-1.03,7.90,3.68,0.86,11.16
-7,-24,-342,-46,-387,3903,0.41,-0.68,-28.07,-0.46,-3.87,39.03,-6.05,-1.03,8.01,4.02,1.35,11.08
-4,-17,-363,-17,-490,3868,0.35,-0.72,-27.48,-0.17,-4.90,38.68,-6.06,-1.03,8.12,3.99,1.22,12.23
12,3,-358,-54,-526,3906,0.39,-0.63,-26.91,-0.54,-5.26,39.06,-6.07,-1.03,8.23,3.66,0.79,12.05
8,3,-363,-121,-440,3880,0.40,-0.54,-26.44,-1.21,-4.40,38.80,-6.07,-1.02,8.33,3.74,0.76,12.37
10,4,-389,-66,-527,3865,0.42,-0.47,-26.17,-0.66,-5.27,38.65,-6.08,-1.02,8.44,3.69,0.72,13.72
-2,-28,-397,-76,-406,3846,0.36,-0.59,-25.97,-0.76,-4.06,38.46,-6.07,-1.02,8.54,3.95,1.40,14.14
19,-7,-410,18,-417,3728,0.44,-0.57,-25.88,0.18,-4.17,37.28,-6.08,-1.01,8.64,3.50,0.97,14.80
13,7,-418,-131,-398,3674,0.48,-0.47,-25.84,-1.31,-3.98,36.74,-6.07,-1.01,8.74,3.61,0.65,15.20
4,-36,-436,-50,-364,4227,0.45,-0.65,-25.91,-0.50,-3.64,42.27,-6.06,-1.01,8.85,3.79,1.57,16.08
-4,-2,-373,-119,-461,4065,0.38,-0.59,-25.60,-1.19,-4.61,40.65,-6.06,-1.00,8.95,3.98,0.86,12.91
1,-8,-357,-226,-497,3949,0.35,-0.58,-25.22,-2.26,-4.97,39.49,-6.06,-1.00,9.05,3.88,0.98,12.15
23,-15,-438,-138,-180,3845,0.46,-0.62,-25.37,-1.38,-1.80,38.45,-6.04,-1.00,9.15,3.40,1.13,16.22
7,-12,-425,-161,-605,4014,0.45,-0.63,-25.42,-1.61,-6.05,40.14,-6.05,-1.00,9.25,3.73,1.07,15.53
-3,-2,-267,-149,-323,3863,0.39,-0.58,-24.51,-1.49,-3.23,38.63,-6.04,-0.99,9.35,3.94,0.85,7.64
14,-25,-350,-56,-42,3913,0.44,-0.67,-24.19,-0.56,-0.42,39.13,-6.02,-1.00,9.44,3.57,1.35,11.90
-6,-9,-329,123,-669,3515,0.36,-0.66,-23.78,1.23,-6.69,35.15,-6.04,-1.02,9.54,4.01,1.03,10.89
1,21,-302,18,-606,3847,0.33,-0.47,-23.24,0.18,-6.06,38.47,-6.05,-1.02,9.63,3.88,0.38,9.59
-2,8,-323,-220,-137,3988,0.28,-0.37,-22.89,-2.20,-1.37,39.88,-6.04,-1.02,9.72,3.95,0.61,10.70
1,-4,-299,-157,-189,3872,0.26,-0.36,-22.43,-1.57,-1.89,38.72,-6.02,-1.02,9.81,3.88,0.85,9.55
38,-29,-538,3,-545,3948,0.47,-0.50,-23.46,0.03,-5.45,39.48,-6.03,-1.02,9.90,3.08,1.40,20.00
25,-1,-435,75,-775,3747,0.57,-0.46,-23.77,0.75,-7.75,37.47,-6.05,-1.03,10.00,3.33,0.83,16.19
3,-19,-452,-267,14,4072,0.53,-0.53,-24.15,-2.67,0.14,40.72,-6.03,-1.04,10.09,3.77,1.21,16.97
18,-25,-489,-54,-20,3944,0.59,-0.63,-24.72,-0.54,-0.20,39.44,-6.01,-1.04,10.19,3.44,1.37,18.74
7,8,-470,-21,-512,3905,0.57,-0.51,-25.11,-0.21,-5.12,39.05,-6.02,-1.04,10.29,3.67,0.67,17.69
-1,-12,-479,-174,-321,3943,0.51,-0.54,-25.52,-1.74,-3.21,39.43,-6.01,-1.04,10.39,3.85,1.08,18.05
7,-19,-561,-59,-449,3906,0.50,-0.60,-26.39,-0.59,-4.49,39.06,-6.01,-1.03,10.50,3.69,1.23,20.00
22,-19,-566,42,-528,3739,0.59,-0.65,-27.21,0.42,-5.28,37.39,-6.02,-1.05,10.61,3.37,1.25,20.00
9,-20,-591,-182,-293,3758,0.58,-0.71,-28.09,-1.82,-2.93,37.58,-6.01,-1.04,10.72,3.62,1.29,20.00
9,22,-568,-162,-446,4245,0.58,-0.51,-28.75,-1.62,-4.46,42.45,-6.00,-1.04,10.83,3.62,0.38,20.00
14,-23,-633,-114,-524,4348,0.61,-0.60,-29.73,-1.14,-5.24,43.48,-6.01,-1.04,10.95,3.51,1.31,20.00
14,-33,-620,50,-516,3617,0.63,-0.74,-30.54,0.50,-5.16,36.17,-6.02,-1.05,11.07,3.52,1.56,20.00
17,-16,-663,-21,-292,3638,0.67,-0.76,-31.53,-0.21,-2.92,36.38,-6.00,-1.05,11.20,3.43,1.23,20.00
20,-5,-687,-140,-422,3872,0.73,-0.72,-32.57,-1.40,-4.22,38.72,-6.00,-1.05,11.32,3.35,0.99,20.00
18,-4,-703,-64,-383,3788,0.76,-0.67,-33.60,-0.64,-3.83,37.88,-5.99,-1.05,11.46,3.38,0.96,20.00
44,-6,-700,-174,-365,3729,0.96,-0.64,-34.51,-1.74,-3.65,37.29,-5.98,-1.05,11.60,2.79,0.99,20.00
4,-14,-680,19,-125,3855,0.88,-0.66,-35.21,0.19,-1.25,38.55,-5.96,-1.06,11.74,3.61,1.17,20.00
6,-4,-694,-100,-234,3920,0.83,-0.62,-35.92,-1.00,-2.34,39.20,-5.94,-1.07,11.88,3.57,0.95,20.00
7,1,-745,-145,-439,3944,0.79,-0.55,-36.87,-1.45,-4.39,39.44,-5.94,-1.07,12.02,3.56,0.83,20.00
8,-17,-703,22,-429,3947,0.76,-0.60,-37.47,0.22,-4.29,39.47,-5.94,-1.07,12.17,3.55,1.21,20.00
13,-19,-750,-133,-284,3929,0.76,-0.65,-38.30,-1.33,-2.84,39.29,-5.92,-1.07,12.33,3.43,1.27,20.00
24,-22,-781,-74,-351,3881,0.83,-0.72,-39.24,-0.74,-3.51,38.81,-5.91,-1.07,12.48,3.18,1.35,20.00
33,-1,-814,-16,-397,3939,0.95,-0.66,-40.28,-0.16,-3.97,39.39,-5.90,-1.07,12.64,2.96,0.91,20.00
20,3,-808,-12,-375,3774,0.98,-0.57,-41.18,-0.12,-3.75,37.74,-5.89,-1.07,12.81,3.21,0.80,20.00
28,-17,-800,-83,-211,3780,1.05,-0.62,-41.94,-0.83,-2.11,37.80,-5.87,-1.08,12.97,3.02,1.23,20.00
-7,-12,-778,-99,-382,3938,0.90,-0.63,-42.49,-0.99,-3.82,39.38,-5.86,-1.08,13.14,3.76,1.13,20.00
8,-11,-759,-175,-311,4014,0.86,-0.63,-42.87,-1.75,-3.11,40.14,-5.84,-1.09,13.31,3.46,1.11,20.00
31,-23,-757,-95,-363,3944,0.97,-0.71,-43.20,-0.95,-3.63,39.44,-5.83,-1.09,13.48,2.96,1.38,20.00
7,-14,-737,-65,-414,3984,0.91,-0.73,-43.38,-0.65,-4.14,39.84,-5.83,-1.09,13.66,3.46,1.20,20.00
-4,-23,-712,5,-435,3705,0.80,-0.79,-43.38,0.05,-4.35,37.05,-5.83,-1.10,13.83,3.71,1.41,20.00
31,-7,-657,5,-421,3823,0.91,-0.76,-43.05,0.05,-4.21,38.23,-5.83,-1.10,14.00,2.97,1.08,20.00
13,-14,-654,-78,-436,4057,0.89,-0.77,-42.74,-0.78,-4.36,40.57,-5.83,-1.10,14.17,3.34,1.22,20.00
-1,-14,-585,52,-450,4012,0.80,-0.78,-42.03,0.52,-4.50,40.12,-5.84,-1.11,14.34,3.66,1.23,19.87
17,-20,-588,-6,-386,3921,0.82,-0.82,-41.42,-0.06,-3.86,39.21,-5.83,-1.12,14.50,3.28,1.37,20.00
5,-2,-510,27,-584,3870,0.77,-0.75,-40.39,0.27,-5.84,38.70,-5.84,-1.13,14.66,3.54,0.99,16.29
9,-12,-491,16,-431,3914,0.75,-0.75,-39.34,0.16,-4.31,39.14,-5.84,-1.13,14.82,3.47,1.20,15.47
-2,-14,-464,-124,-489,3903,0.66,-0.76,-38.24,-1.24,-4.89,39.03,-5.84,-1.14,14.97,3.72,1.24,14.26
4,-8,-451,-54,-372,3850,0.62,-0.73,-37.17,-0.54,-3.72,38.50,-5.84,-1.14,15.12,3.60,1.11,13.76
3,-12,-398,-95,-453,3912,0.58,-0.73,-35.88,-0.95,-4.53,39.12,-5.84,-1.14,15.26,3.63,1.19,11.27
0,-20,-382,-79,-400,3984,0.52,-0.78,-34.62,-0.79,-4.00,39.84,-5.83,-1.13,15.40,3.71,1.37,10.65
7,-14,-389,-37,-219,3967,0.51,-0.79,-33.53,-0.37,-2.19,39.67,-5.81,-1.14,15.53,3.55,1.25,11.17
4,-2,-401,-99,-285,3819,0.48,-0.72,-32.62,-0.99,-2.85,38.19,-5.80,-1.14,15.66,3.61,0.99,11.91
10,-5,-421,-83,-262,3942,0.50,-0.68,-31.93,-0.83,-2.62,39.42,-5.78,-1.14,15.79,3.48,1.04,13.03
12,-19,-438,-150,-146,3853,0.52,-0.73,-31.41,-1.50,-1.46,38.53,-5.76,-1.15,15.91,3.42,1.34,13.96
7,-7,-462,-108,-303,3807,0.51,-0.70,-31.09,-1.08,-3.03,38.07,-5.75,-1.14,16.03,3.51,1.09,15.21
8,-14,-473,-45,-277,3920,0.51,-0.71,-30.86,-0.45,-2.77,39.20,-5.73,-1.15,16.16,3.48,1.24,15.79
13,-10,-497,-88,-407,3792,0.54,-0.70,-30.81,-0.88,-4.07,37.92,-5.73,-1.14,16.28,3.37,1.15,16.99
1,-17,-508,-126,-395,4009,0.49,-0.74,-30.83,-1.26,-3.95,40.09,-5.73,-1.14,16.40,3.63,1.30,17.53
7,-23,-537,-89,-555,3942,0.48,-0.80,-31.02,-0.89,-5.55,39.42,-5.73,-1.14,16.52,3.51,1.44,18.95
-4,-29,-544,-88,-556,3847,0.41,-0.90,-31.24,-0.88,-5.56,38.47,-5.74,-1.15,16.65,3.76,1.59,19.24
12,-21,-545,-101,-527,3933,0.44,-0.94,-31.44,-1.01,-5.27,39.33,-5.75,-1.15,16.77,3.43,1.44,19.24
9,-9,-545,-122,-599,3785,0.45,-0.90,-31.62,-1.22,-5.99,37.85,-5.76,-1.15,16.90,3.49,1.19,19.18
4,-2,-542,-112,-404,3769,0.43,-0.82,-31.76,-1.12,-4.04,37.69,-5.76,-1.15,17.02,3.60,1.02,18.98
12,-8,-555,-107,-316,3864,0.46,-0.79,-31.97,-1.07,-3.16,38.64,-5.75,-1.15,17.15,3.42,1.14,19.58
15,-24,-607,-207,-160,3948,0.51,-0.86,-32.48,-2.07,-1.60,39.48,-5.73,-1.15,17.28,3.34,1.48,20.00
1,-20,-626,-90,-163,3936,0.46,-0.89,-33.05,-0.90,-1.63,39.36,-5.71,-1.16,17.41,3.62,1.41,20.00
