gyroADC_X,gyroADC_Y,gyroADC_Z,accADC_X,accADC_Y,accADC_Z,GyroX,GyroY,GyroZ,AccX,AccY,AccZ,roll_IMU,pitch_IMU,yaw_IMU,roll_PID,pitch_PID,yaw_PID
0,0,0,-60,-380,3901,0.04,0.01,-0.05,-0.60,-3.80,39.01,-5.68,1.09,5.37,3.81,-0.69,-0.53
0,0,-1,-42,-386,3905,0.03,0.01,-0.05,-0.42,-3.86,39.05,-5.67,1.07,5.37,3.80,-0.69,-0.45
2,-1,-1,-54,-394,3921,0.04,0.00,-0.05,-0.54,-3.94,39.21,-5.68,1.05,5.37,3.52,-0.53,-0.45
3,2,0,-78,-393,3919,0.05,0.02,-0.04,-0.78,-3.93,39.19,-5.69,1.07,5.37,3.40,-0.98,-0.53
1,1,-2,-92,-403,3901,0.06,0.02,-0.05,-0.92,-4.03,39.01,-5.70,1.09,5.37,3.71,-0.83,-0.37
1,0,-2,-103,-404,3892,0.06,0.02,-0.06,-1.03,-4.04,38.92,-5.71,1.10,5.37,3.72,-0.69,-0.38
0,0,0,-113,-380,3932,0.05,0.02,-0.05,-1.13,-3.80,39.32,-5.70,1.12,5.37,3.86,-0.71,-0.54
0,0,0,-105,-378,3901,0.05,0.02,-0.05,-1.05,-3.78,39.01,-5.69,1.14,5.37,3.84,-0.72,-0.53
1,-1,-1,-83,-391,3908,0.05,0.01,-0.05,-0.83,-3.91,39.08,-5.70,1.15,5.37,3.70,-0.59,-0.45
0,0,-1,-72,-386,3907,0.04,0.01,-0.05,-0.72,-3.86,39.07,-5.69,1.14,5.37,3.83,-0.74,-0.45
0,1,0,-34,-391,3900,0.04,0.01,-0.05,-0.34,-3.91,39.00,-5.69,1.12,5.37,3.83,-0.87,-0.53
2,0,0,-42,-383,3885,0.05,0.01,-0.04,-0.42,-3.83,38.85,-5.69,1.10,5.37,3.54,-0.71,-0.53
1,0,0,-59,-392,3933,0.05,0.01,-0.04,-0.59,-3.92,39.33,-5.69,1.08,5.37,3.69,-0.70,-0.52
0,0,-1,-70,-389,3914,0.04,0.01,-0.04,-0.70,-3.89,39.14,-5.68,1.06,5.37,3.83,-0.69,-0.44
1,0,-1,-86,-385,3911,0.04,0.01,-0.04,-0.86,-3.85,39.11,-5.68,1.08,5.37,3.68,-0.70,-0.44
1,0,-2,-96,-376,3906,0.05,0.01,-0.05,-0.96,-3.76,39.06,-5.67,1.10,5.37,3.68,-0.71,-0.37
1,1,0,-88,-378,3911,0.05,0.01,-0.04,-0.88,-3.78,39.11,-5.66,1.11,5.37,3.67,-0.86,-0.53
0,1,0,-81,-393,3903,0.04,0.02,-0.04,-0.81,-3.93,39.03,-5.67,1.12,5.37,3.83,-0.86,-0.53
1,0,-1,-84,-401,3915,0.04,0.02,-0.04,-0.84,-4.01,39.15,-5.69,1.13,5.37,3.69,-0.72,-0.44
1,0,-1,-81,-398,3923,0.05,0.01,-0.04,-0.81,-3.98,39.23,-5.70,1.14,5.37,3.70,-0.73,-0.45
1,0,1,-76,-391,3912,0.05,0.01,-0.03,-0.76,-3.91,39.12,-5.71,1.12,5.37,3.70,-0.72,-0.60
1,0,0,-64,-382,3922,0.05,0.01,-0.03,-0.64,-3.82,39.22,-5.69,1.11,5.37,3.70,-0.71,-0.52
2,0,-1,-61,-382,3909,0.06,0.01,-0.03,-0.61,-3.82,39.09,-5.69,1.09,5.37,3.55,-0.70,-0.43
1,0,-1,-61,-385,3904,0.06,0.01,-0.04,-0.61,-3.85,39.04,-5.68,1.07,5.37,3.71,-0.69,-0.44
1,0,0,-79,-386,3911,0.06,0.01,-0.03,-0.79,-3.86,39.11,-5.67,1.09,5.37,3.70,-0.70,-0.52
1,0,-1,-69,-385,3902,0.06,0.01,-0.04,-0.69,-3.85,39.02,-5.66,1.07,5.37,3.70,-0.69,-0.44
1,-1,-1,-85,-385,3922,0.06,0.00,-0.04,-0.85,-3.85,39.22,-5.66,1.09,5.37,3.69,-0.57,-0.44
1,0,0,-85,-396,3914,0.06,0.00,-0.03,-0.85,-3.96,39.14,-5.67,1.10,5.37,3.70,-0.73,-0.52
1,0,-1,-66,-392,3910,0.06,0.00,-0.04,-0.66,-3.92,39.10,-5.68,1.09,5.37,3.70,-0.72,-0.44
0,0,-2,-60,-388,3912,0.05,0.00,-0.05,-0.60,-3.88,39.12,-5.67,1.07,5.37,3.85,-0.70,-0.36
1,0,-1,-56,-385,3914,0.05,0.00,-0.05,-0.56,-3.85,39.14,-5.67,1.05,5.37,3.69,-0.69,-0.45
1,0,-1,-54,-382,3907,0.05,0.00,-0.05,-0.54,-3.82,39.07,-5.66,1.03,5.37,3.69,-0.68,-0.45
2,0,-2,-69,-383,3914,0.06,0.00,-0.06,-0.69,-3.83,39.14,-5.65,1.03,5.37,3.54,-0.68,-0.37
1,0,-1,-76,-382,3922,0.06,0.00,-0.06,-0.76,-3.82,39.22,-5.63,1.04,5.37,3.68,-0.69,-0.46
1,1,0,-84,-384,3916,0.06,0.01,-0.05,-0.84,-3.84,39.16,-5.63,1.06,5.37,3.68,-0.84,-0.54
1,1,0,-83,-390,3908,0.06,0.01,-0.05,-0.83,-3.90,39.08,-5.64,1.07,5.37,3.68,-0.84,-0.53
1,1,0,-79,-386,3909,0.06,0.02,-0.04,-0.79,-3.86,39.09,-5.64,1.09,5.37,3.68,-0.84,-0.53
1,2,1,-83,-399,3900,0.06,0.03,-0.03,-0.83,-3.99,39.00,-5.65,1.10,5.37,3.69,-0.98,-0.60
2,0,-1,-78,-389,3904,0.07,0.02,-0.03,-0.78,-3.89,39.04,-5.67,1.11,5.37,3.56,-0.69,-0.43
1,0,-1,-82,-387,3904,0.07,0.02,-0.04,-0.82,-3.87,39.04,-5.66,1.13,5.37,3.71,-0.71,-0.44
0,-9,-11,31,-439,3870,0.06,-0.04,-0.10,0.31,-4.39,38.70,-5.67,1.12,5.37,3.86,0.57,0.34
-2,-20,-25,-173,-374,3868,0.04,-0.15,-0.24,-1.73,-3.74,38.68,-5.67,1.13,5.38,4.13,2.01,1.38
-3,-16,2,-10,-451,3852,0.02,-0.24,-0.21,-0.10,-4.51,38.52,-5.68,1.12,5.38,4.24,1.25,-0.87
-7,-7,-1,-149,-352,3939,-0.03,-0.25,-0.19,-1.49,-3.52,39.39,-5.67,1.14,5.38,4.76,-0.16,-0.60
-5,-3,-10,-73,-374,3885,-0.05,-0.25,-0.23,-0.73,-3.74,38.85,-5.66,1.13,5.38,4.40,-0.76,0.12
2,-2,-9,-72,-344,3936,-0.04,-0.24,-0.26,-0.72,-3.44,39.36,-5.64,1.12,5.38,3.35,-0.88,-0.00
3,-6,-160,238,-793,3953,-0.01,-0.25,-1.21,2.38,-7.93,39.53,-5.65,1.11,5.38,3.25,-0.29,11.79
-16,-27,-221,-196,-206,3929,-0.11,-0.39,-2.44,-1.96,-2.06,39.29,-5.64,1.12,5.39,5.95,2.64,15.65
10,-24,-214,-261,-680,4163,-0.04,-0.50,-3.50,-2.61,-6.80,41.63,-5.66,1.13,5.41,2.14,1.98,13.94
2,-34,-245,-314,-657,3906,-0.02,-0.65,-4.65,-3.14,-6.57,39.06,-5.67,1.13,5.43,3.39,3.20,15.35
2,-16,-314,-236,-498,3981,-0.01,-0.69,-6.10,-2.36,-4.98,39.81,-5.68,1.14,5.45,3.43,0.39,19.66
9,-11,-308,-191,-385,3869,0.05,-0.68,-7.37,-1.91,-3.85,38.69,-5.68,1.16,5.48,2.47,-0.38,17.80
8,-36,-232,-112,-235,3962,0.09,-0.84,-8.04,-1.12,-2.35,39.62,-5.66,1.15,5.51,2.69,3.15,10.64
4,-16,-198,-121,-187,3857,0.11,-0.85,-8.45,-1.21,-1.87,38.57,-5.65,1.15,5.54,3.32,0.07,7.33
-9,-13,-68,10,-192,3865,0.04,-0.84,-8.02,0.10,-1.92,38.65,-5.63,1.14,5.57,5.17,-0.37,-3.23
3,-5,-46,55,-226,3868,0.06,-0.79,-7.50,0.55,-2.26,38.68,-5.62,1.12,5.60,3.35,-1.47,-4.55
-2,-2,-15,96,-311,3868,0.04,-0.72,-6.84,0.96,-3.11,38.68,-5.61,1.10,5.63,4.08,-1.79,-6.48
-1,-2,-8,87,-306,3918,0.03,-0.66,-6.20,0.87,-3.06,39.18,-5.60,1.07,5.65,3.90,-1.66,-6.40
-1,0,-4,-16,-367,3904,0.02,-0.60,-5.61,-0.16,-3.67,39.04,-5.60,1.05,5.68,3.88,-1.82,-6.11
2,-3,-5,-31,-380,3905,0.03,-0.56,-5.08,-0.31,-3.80,39.05,-5.60,1.03,5.70,3.44,-1.27,-5.47
-5,-2,-13,-29,-450,3849,-0.00,-0.51,-4.65,-0.29,-4.50,38.49,-5.61,1.02,5.71,4.46,-1.34,-4.34
5,1,-24,-36,-505,3881,0.03,-0.45,-4.33,-0.36,-5.05,38.81,-5.63,1.01,5.73,3.00,-1.68,-3.07
2,-2,-114,56,-705,3886,0.04,-0.42,-4.59,0.56,-7.05,38.86,-5.65,1.00,5.75,3.49,-1.15,4.28
6,1,-163,94,-727,3898,0.07,-0.37,-5.13,0.94,-7.27,38.98,-5.66,0.99,5.77,2.95,-1.51,7.86
4,-5,-268,-12,-624,3886,0.09,-0.37,-6.25,-0.12,-6.24,38.86,-5.68,0.98,5.80,3.30,-0.58,15.57
11,5,-287,-51,-579,3875,0.15,-0.30,-7.38,-0.51,-5.79,38.75,-5.70,0.97,5.83,2.36,-1.97,15.98
6,-2,-276,-145,-271,3885,0.17,-0.28,-8.32,-1.45,-2.71,38.85,-5.68,0.98,5.86,3.15,-0.87,14.04
0,-10,-225,-213,-203,3938,0.15,-0.31,-8.86,-2.13,-2.03,39.38,-5.67,0.99,5.89,4.03,0.28,9.15
0,-5,-123,-147,-150,3923,0.14,-0.31,-8.73,-1.47,-1.50,39.23,-5.65,0.99,5.93,3.99,-0.48,0.65
2,-7,-106,-118,-190,3909,0.13,-0.32,-8.50,-1.18,-1.90,39.09,-5.64,0.99,5.96,3.67,-0.20,-0.56
0,-1,-59,-80,-203,3920,0.12,-0.30,-8.01,-0.80,-2.03,39.20,-5.62,0.98,5.99,3.94,-1.06,-4.02
-1,-1,-45,-57,-186,3902,0.10,-0.27,-7.48,-0.57,-1.86,39.02,-5.60,0.98,6.02,4.04,-1.01,-4.65
1,1,-5,-84,-350,3911,0.10,-0.24,-6.77,-0.84,-3.50,39.11,-5.58,0.98,6.05,3.72,-1.26,-7.28
1,3,-4,-66,-322,3932,0.09,-0.20,-6.11,-0.66,-3.22,39.32,-5.56,0.98,6.07,3.70,-1.48,-6.68
1,2,0,-85,-357,3915,0.09,-0.17,-5.50,-0.85,-3.57,39.15,-5.55,0.99,6.09,3.68,-1.27,-6.37
3,2,0,-86,-383,3924,0.10,-0.14,-4.95,-0.86,-3.83,39.24,-5.55,1.00,6.11,3.40,-1.23,-5.79
2,1,-3,-73,-404,3921,0.10,-0.12,-4.48,-0.73,-4.04,39.21,-5.57,1.00,6.13,3.57,-1.04,-5.04
0,0,-3,-86,-376,3912,0.09,-0.11,-4.05,-0.86,-3.76,39.12,-5.56,1.02,6.15,3.85,-0.87,-4.58
1,0,0,-63,-385,3901,0.09,-0.10,-3.64,-0.63,-3.85,39.01,-5.57,1.00,6.16,3.70,-0.84,-4.41
2,1,1,-44,-403,3900,0.09,-0.08,-3.27,-0.44,-4.03,39.00,-5.59,0.99,6.18,3.56,-0.96,-4.10
1,0,0,-42,-409,3897,0.09,-0.07,-2.94,-0.42,-4.09,38.97,-5.60,0.97,6.19,3.71,-0.78,-3.67
0,0,-1,-56,-392,3908,0.08,-0.06,-2.66,-0.56,-3.92,39.08,-5.61,0.96,6.20,3.86,-0.76,-3.29
0,1,-3,-70,-377,3914,0.07,-0.05,-2.41,-0.70,-3.77,39.14,-5.60,0.97,6.21,3.83,-0.89,-2.85
0,1,-3,-73,-368,3899,0.07,-0.04,-2.19,-0.73,-3.68,38.99,-5.58,0.97,6.22,3.81,-0.87,-2.62
0,-1,-2,-83,-377,3922,0.06,-0.04,-1.98,-0.83,-3.77,39.22,-5.57,0.99,6.22,3.79,-0.58,-2.49
1,1,1,-83,-384,3903,0.06,-0.03,-1.78,-0.83,-3.84,39.03,-5.58,1.01,6.23,3.64,-0.88,-2.53
1,2,6,-77,-394,3909,0.06,-0.02,-1.56,-0.77,-3.94,39.09,-5.59,1.02,6.24,3.65,-1.01,-2.72
1,2,7,-75,-389,3920,0.06,-0.00,-1.36,-0.75,-3.89,39.20,-5.60,1.03,6.24,3.66,-0.99,-2.60
0,1,0,-41,-408,3909,0.05,0.00,-1.23,-0.41,-4.08,39.09,-5.62,1.01,6.25,3.81,-0.82,-1.86
-1,1,1,-29,-401,3906,0.04,0.01,-1.10,-0.29,-4.01,39.06,-5.62,1.00,6.25,3.94,-0.79,-1.81
0,0,-2,-28,-395,3915,0.04,0.01,-1.00,-0.28,-3.95,39.15,-5.63,0.98,6.26,3.78,-0.63,-1.45
2,1,1,-40,-380,3909,0.05,0.01,-0.89,-0.40,-3.80,39.09,-5.62,0.96,6.26,3.49,-0.76,-1.59
2,0,0,-67,-376,3895,0.05,0.01,-0.80,-0.67,-3.76,38.95,-5.60,0.96,6.26,3.50,-0.61,-1.42
1,0,1,-80,-386,3901,0.05,0.01,-0.72,-0.80,-3.86,39.01,-5.61,0.98,6.27,3.65,-0.63,-1.41
1,0,0,-106,-390,3898,0.06,0.01,-0.65,-1.06,-3.90,38.98,-5.61,1.00,6.27,3.66,-0.64,-1.25
1,0,1,-111,-387,3909,0.06,0.01,-0.58,-1.11,-3.87,39.09,-5.61,1.02,6.27,3.66,-0.65,-1.26
1,0,1,-78,-387,3905,0.06,0.01,-0.51,-0.78,-3.87,39.05,-5.62,1.03,6.27,3.66,-0.67,-1.19
-1,1,-5,-53,-415,3898,0.04,0.01,-0.49,-0.53,-4.15,38.98,-5.64,1.02,6.28,3.96,-0.80,-0.66
-4,-10,-65,-233,-706,3846,0.02,-0.05,-0.84,-2.33,-7.06,38.46,-5.65,1.03,6.28,4.37,0.75,4.05
6,-10,-106,-237,-765,3980,0.05,-0.11,-1.40,-2.37,-7.65,39.80,-5.67,1.04,6.28,2.92,0.64,6.93
5,-10,-311,-198,-853,3930,0.08,-0.16,-3.16,-1.98,-8.53,39.30,-5.69,1.04,6.30,3.13,0.54,22.44
2,-5,-376,-195,-853,3849,0.08,-0.17,-5.14,-1.95,-8.53,38.49,-5.70,1.04,6.32,3.61,-0.25,25.85
14,-15,-536,-238,-605,3910,0.16,-0.25,-7.89,-2.38,-6.05,39.10,-5.72,1.05,6.35,1.94,1.13,36.48
13,-4,-562,-319,-563,3883,0.22,-0.24,-10.53,-3.19,-5.63,38.83,-5.73,1.06,6.39,2.22,-0.55,35.89
-9,-13,-585,-361,-444,3967,0.14,-0.30,-13.05,-3.61,-4.44,39.67,-5.73,1.07,6.44,5.43,0.71,35.17
10,-16,-585,-339,-403,3870,0.19,-0.37,-15.31,-3.39,-4.03,38.70,-5.73,1.08,6.50,2.62,1.03,32.77
25,-8,-546,-6,-246,3869,0.32,-0.38,-17.11,-0.06,-2.46,38.69,-5.72,1.07,6.57,0.57,-0.20,27.55
7,-4,-489,286,-99,3938,0.33,-0.37,-18.38,2.86,-0.99,39.38,-5.70,1.04,6.65,3.33,-0.77,21.37
9,0,-345,672,95,3899,0.36,-0.33,-18.65,6.72,0.95,38.99,-5.69,1.02,6.72,3.06,-1.30,8.88
5,-5,-314,605,-12,3915,0.35,-0.33,-18.70,6.05,-0.12,39.15,-5.69,1.00,6.79,3.65,-0.51,6.19
2,-6,-306,416,-297,3934,0.33,-0.33,-18.70,4.16,-2.97,39.34,-5.68,0.97,6.87,4.07,-0.35,5.51
11,1,-334,351,-295,3871,0.36,-0.29,-18.86,3.51,-2.95,38.71,-5.68,0.94,6.94,2.76,-1.33,7.70
7,-2,-488,19,-433,3891,0.37,-0.27,-19.95,0.19,-4.33,38.91,-5.69,0.92,7.02,3.38,-0.82,19.58
14,-13,-555,-12,-455,3945,0.42,-0.33,-21.34,-0.12,-4.55,39.45,-5.70,0.90,7.11,2.42,0.77,23.78
19,-11,-744,-1,-374,3922,0.49,-0.36,-23.75,-0.01,-3.74,39.22,-5.69,0.87,7.20,1.79,0.42,37.24
18,-33,-782,66,-291,3922,0.55,-0.53,-26.14,0.66,-2.91,39.22,-5.68,0.84,7.30,2.05,3.48,37.91
9,-26,-867,-101,-280,3870,0.55,-0.63,-28.82,-1.01,-2.80,38.70,-5.67,0.83,7.42,3.41,2.22,42.27
10,-23,-875,-155,-271,3888,0.56,-0.71,-31.27,-1.55,-2.71,38.88,-5.65,0.83,7.54,3.26,1.62,40.34
11,-26,-862,-143,-268,3916,0.57,-0.80,-33.40,-1.43,-2.68,39.16,-5.64,0.82,7.68,3.12,1.91,36.97
13,-26,-867,-192,-263,3926,0.59,-0.88,-35.35,-1.92,-2.63,39.26,-5.62,0.82,7.82,2.85,1.76,35.32
13,-15,-880,-269,-173,3890,0.61,-0.88,-37.19,-2.69,-1.73,38.90,-5.61,0.82,7.96,2.88,0.08,34.46
-8,-24,-878,-298,-217,3942,0.50,-0.94,-38.82,-2.98,-2.17,39.42,-5.60,0.81,8.12,5.87,1.35,32.55
15,-27,-845,-276,-141,3949,0.54,-1.01,-40.09,-2.76,-1.41,39.49,-5.59,0.80,8.28,2.43,1.68,28.39
14,-13,-840,-391,-272,3857,0.57,-0.99,-41.21,-3.91,-2.72,38.57,-5.58,0.80,8.44,2.64,-0.42,26.77
24,0,-877,-435,-386,3899,0.66,-0.89,-42.44,-4.35,-3.86,38.99,-5.58,0.80,8.61,1.28,-2.21,28.59
6,-12,-896,-350,-429,3896,0.63,-0.87,-43.66,-3.50,-4.29,38.96,-5.58,0.80,8.78,3.97,-0.35,28.89
21,1,-919,-83,-378,3944,0.70,-0.78,-44.90,-0.83,-3.78,39.44,-5.58,0.79,8.96,1.80,-2.15,29.51
25,3,-948,-3,-327,3938,0.78,-0.68,-46.19,-0.03,-3.27,39.38,-5.56,0.76,9.14,1.34,-2.25,30.58
17,-1,-980,-323,-120,3819,0.81,-0.62,-47.55,-3.23,-1.20,38.19,-5.55,0.75,9.33,2.60,-1.52,31.84
29,7,-946,-433,-168,3949,0.90,-0.52,-48.57,-4.33,-1.68,39.49,-5.54,0.75,9.53,0.94,-2.54,27.86
20,2,-953,-217,-701,3882,0.93,-0.45,-49.52,-2.17,-7.01,38.82,-5.56,0.74,9.72,2.39,-1.65,27.43
26,-7,-1001,-181,-720,3845,1.00,-0.45,-50.68,-1.81,-7.20,38.45,-5.57,0.72,9.93,1.61,-0.26,30.25
19,-9,-1056,-218,-264,3901,1.02,-0.46,-52.05,-2.18,-2.64,39.01,-5.56,0.72,10.13,2.70,0.03,33.44
12,-13,-1037,-278,-216,3913,0.99,-0.49,-53.17,-2.78,-2.16,39.13,-5.55,0.71,10.34,3.70,0.58,30.62
1,2,-984,-351,-208,3908,0.89,-0.43,-53.86,-3.51,-2.08,39.08,-5.54,0.70,10.56,5.20,-1.59,25.39
11,1,-992,-361,-269,3890,0.87,-0.38,-54.52,-3.61,-2.69,38.90,-5.53,0.70,10.77,3.62,-1.34,25.34
19,0,-1131,-308,-286,3822,0.90,-0.34,-55.97,-3.08,-2.86,38.22,-5.52,0.69,11.00,2.45,-1.11,35.57
29,-1,-1231,-260,-275,3930,0.99,-0.32,-57.88,-2.60,-2.75,39.30,-5.52,0.68,11.23,1.09,-0.90,41.99
29,10,-1390,-227,-277,3894,1.07,-0.22,-60.57,-2.27,-2.77,38.94,-5.51,0.68,11.47,1.23,-2.39,52.59
25,34,-1423,-211,-266,3808,1.11,0.01,-63.20,-2.11,-2.66,38.08,-5.49,0.67,11.72,1.92,-5.61,52.59
3,-6,-1455,-191,-372,3887,1.02,-0.03,-65.75,-1.91,-3.72,38.87,-5.49,0.66,11.98,5.10,0.42,52.57
4,-6,-1447,-176,-374,3751,0.94,-0.06,-68.00,-1.76,-3.74,37.51,-5.49,0.65,12.25,4.80,0.36,49.48
24,-20,-1374,-161,-504,3813,0.99,-0.18,-69.58,-1.61,-5.04,38.13,-5.51,0.64,12.53,1.86,2.29,41.60
25,-14,-1343,-173,-528,3904,1.05,-0.25,-70.82,-1.73,-5.28,39.04,-5.52,0.62,12.81,1.81,1.26,37.64
25,-18,-1198,-67,-690,3865,1.09,-0.33,-71.04,-0.67,-6.90,38.65,-5.54,0.59,13.09,1.91,1.72,25.09
17,2,-1121,-165,-587,3918,1.09,-0.29,-70.78,-1.65,-5.87,39.18,-5.55,0.57,13.38,3.13,-1.23,18.82
1,-7,-862,-212,-567,3910,0.99,-0.30,-68.96,-2.12,-5.67,39.10,-5.56,0.56,13.65,5.39,0.13,-1.22
20,-1,-731,-223,-613,3915,1.01,-0.28,-66.52,-2.23,-6.13,39.15,-5.58,0.54,13.92,2.54,-0.73,-9.76
3,-10,-577,-165,-578,3949,0.93,-0.31,-63.39,-1.65,-5.78,39.49,-5.59,0.53,14.17,4.99,0.59,-19.51
15,8,-549,-102,-548,3895,0.93,-0.23,-60.40,-1.02,-5.48,38.95,-5.60,0.51,14.41,3.16,-1.99,-18.74
13,9,-474,21,-507,3907,0.91,-0.15,-57.25,0.21,-5.07,39.07,-5.62,0.48,14.64,3.45,-1.98,-21.78
-3,-4,-457,75,-474,3898,0.80,-0.16,-54.31,0.75,-4.74,38.98,-5.63,0.44,14.85,5.69,0.01,-20.13
8,-1,-393,-262,-436,3973,0.77,-0.15,-51.28,-2.62,-4.36,39.73,-5.63,0.44,15.06,3.96,-0.42,-22.36
12,11,-330,-794,-458,3960,0.77,-0.07,-48.16,-7.94,-4.58,39.60,-5.63,0.44,15.25,3.34,-2.10,-24.41
-32,-48,-256,-709,-324,3991,0.50,-0.36,-44.91,-7.09,-3.24,39.91,-5.63,0.44,15.43,9.53,6.36,-27.25
-20,-15,-219,-721,-376,3681,0.32,-0.41,-41.75,-7.21,-3.76,36.81,-5.63,0.44,15.59,7.38,1.22,-27.06
2,-20,-87,111,-350,3922,0.30,-0.49,-38.11,1.11,-3.50,39.22,-5.63,0.40,15.74,3.98,1.85,-34.40
-7,-12,-41,366,-387,3914,0.23,-0.52,-34.55,3.66,-3.87,39.14,-5.63,0.37,15.88,5.22,0.61,-34.54
-1,-18,46,461,-385,3903,0.20,-0.57,-30.81,4.61,-3.85,39.03,-5.63,0.34,16.00,4.25,1.44,-37.97
-21,-22,47,467,-406,3884,0.05,-0.65,-27.45,4.67,-4.06,38.84,-5.63,0.31,16.11,7.02,1.92,-34.49
4,-43,28,453,-295,3921,0.07,-0.85,-24.53,4.53,-2.95,39.21,-5.62,0.27,16.21,3.24,4.77,-29.81
-13,-55,6,364,-261,3803,-0.01,-1.10,-22.04,3.64,-2.61,38.03,-5.62,0.24,16.30,5.66,6.15,-25.31
-13,-33,-101,253,-200,3844,-0.09,-1.19,-20.45,2.53,-2.00,38.44,-5.61,0.22,16.38,5.51,2.64,-14.57
-7,-40,-149,251,-113,3870,-0.13,-1.32,-19.32,2.51,-1.13,38.70,-5.60,0.19,16.46,4.52,3.48,-9.31
11,-51,-313,223,-127,3847,-0.05,-1.49,-19.29,2.23,-1.27,38.47,-5.58,0.16,16.53,1.92,4.84,4.60
-3,-44,-350,233,-122,3872,-0.06,-1.61,-19.50,2.33,-1.22,38.72,-5.57,0.14,16.61,4.02,3.56,7.51
0,-18,-473,341,-197,3884,-0.05,-1.56,-20.43,3.41,-1.97,38.84,-5.56,0.11,16.69,3.57,-0.28,16.93
5,-15,-519,174,-206,3832,-0.02,-1.50,-21.56,1.74,-2.06,38.32,-5.55,0.08,16.77,2.87,-0.60,19.63
-3,-20,-539,144,-92,3783,-0.03,-1.47,-22.69,1.44,-0.92,37.83,-5.54,0.06,16.86,4.05,0.23,20.12
2,-15,-541,149,-141,3948,-0.02,-1.41,-23.72,1.49,-1.41,39.48,-5.52,0.03,16.96,3.30,-0.41,19.19
16,-12,-558,8,-140,3835,0.08,-1.35,-24.75,0.08,-1.40,38.35,-5.50,0.02,17.06,1.34,-0.73,19.53
3,-20,-573,-2,-227,3927,0.09,-1.33,-25.77,-0.02,-2.27,39.27,-5.48,0.00,17.16,3.33,0.52,19.71
-4,-40,-643,-128,-223,4047,0.06,-1.44,-27.12,-1.28,-2.23,40.47,-5.47,-0.00,17.27,4.33,3.37,24.21
-1,-28,-657,-108,-334,3791,0.05,-1.47,-28.41,-1.08,-3.34,37.91,-5.46,-0.00,17.38,3.84,1.49,24.01
12,-17,-734,-31,-263,3801,0.11,-1.43,-30.05,-0.31,-2.63,38.01,-5.45,-0.02,17.50,1.98,-0.10,28.79
11,-19,-749,12,-389,3966,0.17,-1.40,-31.61,0.12,-3.89,39.66,-5.46,-0.05,17.62,2.25,0.28,28.40
12,-13,-786,-24,-429,3945,0.23,-1.34,-33.25,-0.24,-4.29,39.45,-5.47,-0.06,17.75,2.21,-0.52,29.79
10,-19,-767,-15,-447,3858,0.26,-1.32,-34.60,-0.15,-4.47,38.58,-5.49,-0.07,17.89,2.60,0.44,26.73
11,-16,-677,-53,-473,3853,0.31,-1.29,-35.27,-0.53,-4.73,38.53,-5.50,-0.08,18.03,2.53,0.05,18.39
6,-14,-654,-76,-504,3975,0.31,-1.24,-35.73,-0.76,-5.04,39.75,-5.52,-0.09,18.17,3.32,-0.16,15.94
4,-16,-578,-175,-499,3964,0.30,-1.22,-35.69,-1.75,-4.99,39.64,-5.53,-0.09,18.32,3.61,0.20,9.53
14,-13,-561,-207,-462,3943,0.36,-1.17,-35.54,-2.07,-4.62,39.43,-5.53,-0.09,18.46,2.20,-0.18,8.24
12,2,-490,138,-477,4018,0.40,-1.04,-34.97,1.38,-4.77,40.18,-5.54,-0.12,18.60,2.58,-2.20,2.81
10,-2,-476,174,-497,3877,0.42,-0.95,-34.38,1.74,-4.97,38.77,-5.55,-0.16,18.73,2.93,-1.40,2.24
15,3,-472,-236,-404,3896,0.47,-0.84,-33.82,-2.36,-4.04,38.96,-5.55,-0.15,18.87,2.26,-1.94,2.48
9,7,-464,-181,-398,3872,0.48,-0.71,-33.27,-1.81,-3.98,38.72,-5.55,-0.15,19.00,3.19,-2.32,2.37
7,1,-456,3,-445,3848,0.47,-0.64,-32.72,0.03,-4.45,38.48,-5.56,-0.17,19.13,3.50,-1.25,2.26
16,6,-453,32,-441,3914,0.52,-0.53,-32.22,0.32,-4.41,39.14,-5.58,-0.19,19.26,2.23,-1.81,2.53
8,-6,-402,-5,-347,3937,0.52,-0.52,-31.45,-0.05,-3.47,39.37,-5.56,-0.19,19.38,3.43,0.06,-0.98
18,-5,-388,15,-357,3906,0.58,-0.50,-30.67,0.15,-3.57,39.06,-5.54,-0.21,19.50,2.00,-0.04,-1.36
1,-11,-362,-177,-273,3896,0.52,-0.51,-29.81,-1.77,-2.73,38.96,-5.53,-0.21,19.62,4.49,0.84,-2.66
0,-7,-355,-188,-266,3878,0.47,-0.51,-28.99,-1.88,-2.66,38.78,-5.52,-0.20,19.74,4.53,0.24,-2.40
10,-5,-398,-68,-275,3889,0.49,-0.49,-28.52,-0.68,-2.75,38.89,-5.50,-0.20,19.85,3.02,-0.02,1.73
6,-3,-414,-50,-276,3901,0.47,-0.46,-28.20,-0.50,-2.76,39.01,-5.48,-0.21,19.96,3.60,-0.27,3.42
8,-2,-440,9,-285,3943,0.48,-0.42,-28.06,0.09,-2.85,39.43,-5.46,-0.22,20.07,3.28,-0.35,5.76
10,-6,-441,1,-234,3946,0.49,-0.42,-27.94,0.01,-2.34,39.46,-5.44,-0.23,20.19,2.99,0.28,5.96
12,-6,-451,-2,-320,3956,0.51,-0.41,-27.90,-0.02,-3.20,39.56,-5.42,-0.23,20.30,2.72,0.29,6.84
-2,-4,-469,-8,-417,3856,0.45,-0.39,-27.97,-0.08,-4.17,38.56,-5.43,-0.24,20.41,4.74,0.02,8.28
7,10,-494,-49,-430,3861,0.45,-0.29,-28.19,-0.49,-4.30,38.61,-5.45,-0.24,20.52,3.37,-1.92,10.16
16,17,-494,-50,-399,3896,0.50,-0.16,-28.38,-0.50,-3.99,38.96,-5.45,-0.23,20.63,2.10,-2.74,9.94
5,4,-444,-52,-341,3876,0.48,-0.12,-28.25,-0.52,-3.41,38.76,-5.44,-0.23,20.74,3.74,-0.69,5.83
-16,-1,-430,-73,-293,3893,0.34,-0.11,-28.05,-0.73,-2.93,38.93,-5.43,-0.22,20.86,6.66,0.08,4.85
-7,-7,-377,44,-238,3869,0.26,-0.15,-27.55,0.44,-2.38,38.69,-5.41,-0.24,20.97,5.13,0.95,0.89
11,-9,-375,36,-263,3926,0.30,-0.19,-27.08,0.36,-2.63,39.26,-5.39,-0.25,21.07,2.45,1.19,1.20
-7,-6,-371,-36,-205,3881,0.23,-0.20,-26.63,-0.36,-2.05,38.81,-5.37,-0.26,21.18,5.04,0.70,1.32
4,1,-382,-122,-260,3884,0.23,-0.18,-26.30,-1.22,-2.60,38.84,-5.36,-0.25,21.28,3.36,-0.32,2.60
1,-19,-430,-212,-276,3956,0.21,-0.28,-26.29,-2.12,-2.76,39.56,-5.35,-0.25,21.39,3.78,2.54,6.66
12,-7,-450,-189,-303,3901,0.26,-0.29,-26.41,-1.89,-3.03,39.01,-5.34,-0.24,21.49,2.20,0.68,8.23
9,-4,-470,-166,-345,3936,0.29,-0.29,-26.63,-1.66,-3.45,39.36,-5.34,-0.23,21.60,2.70,0.22,9.67
4,-3,-469,-123,-310,3890,0.29,-0.28,-26.83,-1.23,-3.10,38.90,-5.33,-0.23,21.71,3.45,0.09,9.37
5,-3,-460,97,-237,3890,0.29,-0.27,-26.96,0.97,-2.37,38.90,-5.31,-0.25,21.81,3.29,0.12,8.47
-2,-5,-460,107,-230,3927,0.25,-0.27,-27.07,1.07,-2.30,39.27,-5.30,-0.27,21.92,4.27,0.43,8.34
6,-6,-463,-45,-130,3927,0.26,-0.28,-27.18,-0.45,-1.30,39.27,-5.28,-0.28,22.03,3.06,0.57,8.46
-3,-7,-470,-80,-122,3855,0.22,-0.29,-27.33,-0.80,-1.22,38.55,-5.26,-0.28,22.14,4.34,0.69,8.89
18,4,-549,-124,-91,3931,0.30,-0.24,-27.95,-1.24,-0.91,39.31,-5.24,-0.28,22.25,1.29,-0.88,14.92
13,-4,-583,-90,-154,3970,0.35,-0.24,-28.71,-0.90,-1.54,39.70,-5.22,-0.29,22.37,2.13,0.34,16.98
-14,5,-693,-119,-345,4045,0.23,-0.19,-30.07,-1.19,-3.45,40.45,-5.22,-0.28,22.49,6.02,-0.93,24.85
-57,15,-722,-127,-440,4013,-0.14,-0.08,-31.46,-1.27,-4.40,40.13,-5.23,-0.28,22.61,11.88,-2.25,25.82
-89,-10,-645,-120,-365,3922,-0.67,-0.13,-32.25,-1.20,-3.65,39.22,-5.23,-0.27,22.74,15.76,1.46,18.45
-93,-21,-606,-68,-401,3887,-1.17,-0.24,-32.72,-0.68,-4.01,38.87,-5.24,-0.27,22.87,15.43,2.91,14.63
-59,5,-490,48,-377,3860,-1.41,-0.19,-32.44,0.48,-3.77,38.60,-5.26,-0.29,23.00,9.79,-0.93,5.09
-52,17,-466,2,-427,3885,-1.59,-0.07,-32.04,0.02,-4.27,38.85,-5.28,-0.30,23.13,8.41,-2.52,3.47
-97,5,-423,40,-510,4027,-2.02,-0.03,-31.41,0.40,-5.10,40.27,-5.31,-0.32,23.25,14.47,-0.61,0.48
-142,-15,-414,63,-480,4057,-2.68,-0.12,-30.80,0.63,-4.80,40.57,-5.33,-0.33,23.37,20.09,2.28,0.36
-242,-17,-373,106,-556,4039,-3.89,-0.21,-29.99,1.06,-5.56,40.39,-5.36,-0.35,23.49,33.07,2.43,-2.27
-277,-14,-348,131,-530,4000,-5.19,-0.27,-29.12,1.31,-5.30,40.00,-5.40,-0.38,23.61,35.97,1.86,-3.47
-303,-14,-199,56,-278,3886,-6.52,-0.33,-27.42,0.56,-2.78,38.86,-5.41,-0.39,23.72,37.42,1.76,-14.31
-293,-10,-122,-68,-293,3816,-7.66,-0.36,-25.42,-0.68,-2.93,38.16,-5.43,-0.39,23.82,33.76,1.10,-18.73
-249,15,-76,-115,-376,3901,-8.41,-0.23,-23.34,-1.15,-3.76,39.01,-5.46,-0.38,23.91,25.65,-2.48,-20.43
-249,18,-86,-218,-396,3874,-9.09,-0.10,-21.53,-2.18,-3.96,38.74,-5.50,-0.37,24.00,24.39,-2.69,-17.68
-253,-20,-150,-406,-408,3883,-9.72,-0.21,-20.30,-4.06,-4.08,38.83,-5.54,-0.36,24.08,23.82,2.89,-10.95
-248,-35,-180,-381,-395,3854,-10.26,-0.40,-19.36,-3.81,-3.95,38.54,-5.58,-0.35,24.15,22.06,4.80,-7.43
-185,-32,-341,4,-407,3843,-10.37,-0.56,-19.51,0.04,-4.07,38.43,-5.64,-0.35,24.23,12.30,4.05,6.05
-183,-14,-371,7,-363,3806,-10.45,-0.59,-19.82,0.07,-3.63,38.06,-5.67,-0.35,24.31,11.86,1.25,8.26
-221,-34,-446,159,-459,4029,-10.75,-0.74,-20.56,1.59,-4.59,40.29,-5.72,-0.38,24.39,17.12,4.04,13.82
-247,-36,-453,145,-485,4111,-11.18,-0.88,-21.27,1.45,-4.85,41.11,-5.77,-0.40,24.48,20.30,4.08,13.66
-372,-37,-414,82,-488,4228,-12.33,-1.02,-21.66,0.82,-4.88,42.28,-5.83,-0.43,24.56,37.22,3.99,9.92
-434,-38,-381,137,-497,4013,-13.75,-1.15,-21.82,1.37,-4.97,40.13,-5.90,-0.46,24.65,44.04,3.92,6.95
-576,-49,-289,100,-569,4175,-15.88,-1.33,-21.40,1.00,-5.69,41.75,-5.98,-0.48,24.73,61.70,5.26,-0.40
-615,-46,-264,71,-562,4097,-18.05,-1.48,-20.87,0.71,-5.62,40.97,-6.07,-0.50,24.82,63.61,4.54,-1.97
-721,-8,-181,-57,-709,3955,-20.64,-1.38,-19.89,-0.57,-7.09,39.55,-6.17,-0.51,24.89,74.93,-1.06,-7.97
-737,0,-172,-119,-692,4045,-23.07,-1.24,-18.95,-1.19,-6.92,40.45,-6.27,-0.51,24.97,72.83,-2.02,-7.74
-746,5,-141,-192,-662,3880,-25.32,-1.09,-17.92,-1.92,-6.62,38.80,-6.39,-0.51,25.04,70.03,-2.49,-9.28
-736,15,-136,-165,-636,3843,-27.27,-0.89,-16.95,-1.65,-6.36,38.43,-6.51,-0.51,25.11,64.88,-3.64,-8.69
-622,92,-138,3,-538,3919,-28.34,-0.24,-16.10,0.03,-5.38,39.19,-6.64,-0.51,25.17,45.56,-14.14,-7.62
-590,116,-148,36,-555,3855,-29.11,0.49,-15.39,0.36,-5.55,38.55,-6.77,-0.52,25.23,39.32,-16.42,-6.03
-474,204,-254,-42,-778,3812,-29.09,1.69,-15.40,-0.42,-7.78,38.12,-6.91,-0.51,25.29,21.75,-27.57,2.93
-425,231,-327,-39,-785,3904,-28.77,2.93,-15.86,-0.39,-7.85,39.04,-7.04,-0.50,25.36,14.97,-29.35,8.63
-421,257,-414,-92,-740,3909,-28.46,4.20,-16.80,-0.92,-7.40,39.09,-7.17,-0.49,25.43,15.03,-30.91,15.00
-464,232,-420,-119,-766,3972,-28.45,5.20,-17.68,-1.19,-7.66,39.72,-7.30,-0.47,25.50,21.70,-25.23,14.57
-397,258,-390,-188,-818,3635,-28.02,6.25,-18.29,-1.88,-8.18,36.35,-7.42,-0.44,25.57,12.37,-27.21,11.37
-373,256,-381,-246,-835,3738,-27.50,7.19,-18.79,-2.46,-8.35,37.38,-7.55,-0.41,25.65,9.79,-25.15,10.08
-323,240,-356,-164,-908,3853,-26.72,7.93,-19.08,-1.64,-9.08,38.53,-7.67,-0.38,25.73,3.72,-21.32,7.64
-320,248,-353,-161,-925,3825,-26.00,8.65,-19.32,-1.61,-9.25,38.25,-7.79,-0.35,25.81,4.70,-21.20,7.12
-323,242,-302,-123,-908,3816,-25.37,9.26,-19.23,-1.23,-9.08,38.16,-7.91,-0.32,25.89,6.43,-19.15,2.89
-310,240,-284,-102,-941,3834,-24.72,9.80,-19.04,-1.02,-9.41,38.34,-8.02,-0.28,25.97,5.75,-17.85,1.56
-257,182,-205,-166,-1009,3864,-23.82,9.93,-18.39,-1.66,-10.09,38.64,-8.14,-0.25,26.05,-0.55,-8.78,-4.45
-200,154,-159,-76,-1028,3890,-22.66,9.88,-17.52,-0.76,-10.28,38.90,-8.24,-0.22,26.13,-6.97,-4.63,-7.43
-50,146,-15,23,-1080,3875,-20.70,9.78,-15.86,0.23,-10.80,38.75,-8.34,-0.19,26.20,-26.06,-3.62,-17.88
3,167,44,-63,-1116,3814,-18.61,9.82,-14.01,-0.63,-11.16,38.14,-8.44,-0.15,26.26,-30.13,-6.76,-20.92
158,253,133,-358,-844,3641,-15.78,10.38,-11.79,-3.58,-8.44,36.41,-8.51,-0.10,26.31,-48.37,-18.85,-26.12
185,283,115,-345,-898,3677,-13.08,11.07,-9.91,-3.45,-8.98,36.77,-8.58,-0.05,26.36,-47.32,-22.15,-22.61
144,339,78,-339,-887,3680,-10.89,12.03,-8.45,-3.39,-8.87,36.80,-8.63,0.00,26.40,-36.89,-28.91,-17.93
178,385,66,-361,-867,3629,-8.72,13.18,-7.20,-3.61,-8.67,36.29,-8.68,0.06,26.43,-37.92,-33.80,-15.59
264,448,-40,-536,-835,3686,-6.23,14.59,-6.72,-5.36,-8.35,36.86,-8.71,0.13,26.47,-46.32,-40.77,-6.11
257,442,-88,-518,-838,3707,-4.04,15.83,-6.59,-5.18,-8.38,37.07,-8.74,0.21,26.50,-41.08,-37.56,-1.90
184,392,-275,-368,-852,3960,-2.52,16.64,-7.61,-3.68,-8.52,39.60,-8.76,0.28,26.54,-27.04,-28.46,12.86
133,364,-336,-253,-880,4106,-1.45,17.19,-8.89,-2.53,-8.80,41.06,-8.78,0.36,26.59,-17.24,-23.18,16.65
71,288,-330,-156,-932,4186,-0.87,17.23,-10.02,-1.56,-9.32,41.86,-8.80,0.43,26.64,-6.68,-11.57,14.95
61,247,-293,-236,-961,4171,-0.41,17.01,-10.80,-2.36,-9.61,41.71,-8.81,0.50,26.69,-4.27,-5.77,10.98
82,-8,-114,-389,-1083,4068,0.13,15.26,-10.42,-3.89,-10.83,40.68,-8.83,0.56,26.74,-6.44,29.76,-3.78
96,-85,-70,-381,-1077,4079,0.70,13.22,-9.80,-3.81,-10.77,40.79,-8.84,0.62,26.79,-7.48,37.59,-6.86
145,-272,50,-338,-1007,4016,1.51,10.24,-8.52,-3.38,-10.07,40.16,-8.85,0.67,26.83,-13.40,60.43,-15.67
161,-310,84,-319,-972,3980,2.34,7.32,-7.15,-3.19,-9.72,39.80,-8.86,0.70,26.86,-14.27,60.68,-17.11
211,-331,140,-363,-825,3857,3.40,4.57,-5.58,-3.63,-8.25,38.57,-8.85,0.73,26.89,-19.90,58.65,-20.19
225,-318,134,-363,-826,3854,4.43,2.18,-4.21,-3.63,-8.26,38.54,-8.85,0.75,26.91,-20.08,52.12,-18.23
261,-231,52,-296,-825,3905,5.58,0.55,-3.47,-2.96,-8.25,39.05,-8.84,0.77,26.92,-23.40,35.76,-10.50
263,-184,4,-276,-831,3917,6.63,-0.63,-3.10,-2.76,-8.31,39.17,-8.82,0.78,26.93,-21.74,26.36,-6.04
224,-157,-20,-254,-841,3946,7.33,-1.52,-2.91,-2.54,-8.41,39.46,-8.81,0.78,26.94,-14.47,20.54,-3.81
205,-164,-3,-255,-873,3954,7.85,-2.37,-2.64,-2.55,-8.73,39.54,-8.79,0.78,26.95,-10.60,20.00,-4.97
161,-213,81,-296,-988,3953,8.04,-3.43,-1.88,-2.96,-9.88,39.53,-8.77,0.78,26.96,-3.53,25.47,-11.28
153,-228,111,-280,-981,3955,8.17,-4.48,-1.02,-2.80,-9.81,39.55,-8.76,0.77,26.96,-2.07,25.78,-12.91
127,-289,237,-304,-884,3847,8.13,-5.80,0.53,-3.04,-8.84,38.47,-8.74,0.76,26.96,1.80,32.60,-21.94
119,-308,267,-277,-853,3822,8.04,-7.10,2.11,-2.77,-8.53,38.22,-8.72,0.74,26.94,2.84,33.04,-22.81
101,-335,320,-207,-763,3797,7.86,-8.43,3.85,-2.07,-7.63,37.97,-8.70,0.72,26.92,5.22,34.65,-25.46
102,-325,326,-204,-751,3816,7.69,-9.57,5.45,-2.04,-7.51,38.16,-8.68,0.70,26.90,4.74,30.98,-24.27
139,-252,325,-173,-767,3887,7.77,-10.15,6.89,-1.73,-7.67,38.87,-8.67,0.68,26.86,-0.76,18.76,-22.66
166,-225,334,-155,-743,3901,8.01,-10.51,8.24,-1.55,-7.43,39.01,-8.65,0.65,26.82,-4.44,13.98,-21.99
227,-229,385,-75,-730,4004,8.59,-10.85,9.76,-0.75,-7.30,40.04,-8.63,0.62,26.78,-12.65,13.96,-24.69
245,-238,402,-46,-731,4024,9.23,-11.22,11.24,-0.46,-7.31,40.24,-8.61,0.58,26.73,-14.21,14.66,-24.56
340,-230,541,-101,-655,3915,10.38,-11.50,13.41,-1.01,-6.55,39.15,-8.58,0.56,26.67,-26.53,12.93,-34.03
360,-235,578,-124,-688,3833,11.54,-11.78,15.60,-1.24,-6.88,38.33,-8.55,0.53,26.60,-27.41,13.17,-34.85
499,-246,607,-129,-543,3729,13.43,-12.11,17.74,-1.29,-5.43,37.29,-8.49,0.51,26.52,-45.06,14.25,-35.03
527,-235,594,-100,-531,3709,15.30,-12.33,19.59,-1.00,-5.31,37.09,-8.42,0.49,26.44,-45.83,12.16,-31.96
620,-91,537,-26,-588,3707,17.55,-11.65,20.91,-0.26,-5.88,37.07,-8.37,0.45,26.35,-55.79,-8.49,-25.73
603,-60,529,-44,-648,3733,19.47,-10.85,22.04,-0.44,-6.48,37.33,-8.31,0.43,26.25,-49.59,-11.68,-23.84
521,59,577,-79,-516,3702,20.70,-9.41,23.36,-0.79,-5.16,37.02,-8.22,0.42,26.16,-34.81,-27.09,-26.50
452,105,609,-116,-536,3868,21.39,-7.83,24.74,-1.16,-5.36,38.68,-8.13,0.42,26.05,-23.05,-31.11,-27.75
240,167,627,-162,-587,3986,20.72,-6.02,26.09,-1.62,-5.87,39.86,-8.05,0.43,25.95,7.95,-37.16,-27.83
190,180,629,-177,-603,4041,19.80,-4.32,27.32,-1.77,-6.03,40.41,-7.97,0.44,25.84,13.79,-35.93,-26.69
88,165,662,-187,-668,4048,18.36,-2.89,28.62,-1.87,-6.68,40.48,-7.91,0.46,25.72,26.57,-30.93,-28.09
89,144,678,-162,-697,4088,17.07,-1.72,29.90,-1.62,-6.97,40.88,-7.85,0.49,25.60,23.93,-25.54,-28.09
142,29,753,-120,-742,4142,16.23,-1.37,31.50,-1.20,-7.42,41.42,-7.80,0.51,25.48,14.23,-7.35,-32.73
161,-7,782,-120,-739,4154,15.59,-1.28,33.12,-1.20,-7.39,41.54,-7.75,0.53,25.34,10.08,-1.70,-33.46
211,-144,943,-52,-647,4149,15.31,-2.03,35.56,-0.52,-6.47,41.49,-7.71,0.54,25.20,1.92,17.77,-44.51
230,-173,991,-56,-633,4160,15.19,-2.88,38.05,-0.56,-6.33,41.60,-7.66,0.55,25.05,-1.26,20.56,-45.92
353,-272,1164,-100,-465,4085,15.82,-4.25,41.35,-1.00,-4.65,40.85,-7.58,0.57,24.88,-18.86,33.05,-57.08
432,-324,1215,-91,-407,4042,16.87,-5.80,44.62,-0.91,-4.07,40.42,-7.50,0.58,24.70,-28.97,38.04,-57.91
596,-471,1169,-127,-298,3970,18.82,-8.09,47.29,-1.27,-2.98,39.70,-7.40,0.58,24.51,-50.36,56.12,-51.17
615,-500,1130,-118,-246,3969,20.69,-10.34,49.45,-1.18,-2.46,39.69,-7.30,0.57,24.31,-49.78,56.30,-45.56
572,-543,971,-81,-176,3819,22.11,-12.61,50.43,-0.81,-1.76,38.19,-7.19,0.54,24.10,-40.60,58.56,-31.03
542,-535,920,-68,-212,3806,23.21,-14.62,51.00,-0.68,-2.12,38.06,-7.08,0.51,23.89,-34.03,53.57,-26.09
363,-403,751,-15,-408,3834,23.10,-15.61,50.48,-0.15,-4.08,38.34,-6.97,0.47,23.69,-7.01,31.58,-12.30
306,-345,721,17,-491,3877,22.66,-16.16,49.83,0.17,-4.91,38.77,-6.88,0.41,23.48,0.79,21.74,-10.43
37,-166,704,139,-775,4077,20.62,-15.55,49.14,1.39,-7.75,40.77,-6.81,0.37,23.28,37.90,-4.38,-9.70
-44,-153,755,200,-875,4124,18.29,-14.93,48.83,2.00,-8.75,41.24,-6.76,0.32,23.08,45.80,-5.16,-14.33
-312,-263,1024,136,-800,4067,14.55,-15.04,50.20,1.36,-8.00,40.67,-6.71,0.28,22.87,79.58,11.44,-35.66
-372,-342,1147,149,-856,4109,10.83,-15.62,52.17,1.49,-8.56,41.09,-6.68,0.23,22.66,81.65,22.41,-43.97
-408,-514,1443,124,-848,4028,7.26,-17.20,55.76,1.24,-8.48,40.28,-6.67,0.18,22.43,80.37,45.69,-65.23
-361,-540,1507,106,-786,3964,4.33,-18.77,59.38,1.06,-7.86,39.64,-6.67,0.13,22.18,67.66,46.71,-66.80
-54,-582,1634,87,-576,3735,3.57,-20.44,63.41,0.87,-5.76,37.35,-6.67,0.07,21.92,19.40,49.99,-73.27
55,-568,1625,87,-561,3687,3.55,-21.86,66.98,0.87,-5.61,36.87,-6.67,-0.00,21.64,2.73,45.21,-68.70
395,-461,1492,146,-537,3661,5.60,-22.49,69.38,1.46,-5.37,36.61,-6.66,-0.07,21.36,-45.23,27.75,-54.86
440,-429,1458,164,-535,3677,7.73,-22.86,71.34,1.64,-5.35,36.77,-6.64,-0.15,21.06,-48.09,22.22,-49.88
429,-338,1392,206,-600,3726,9.57,-22.63,72.69,2.06,-6.00,37.26,-6.61,-0.22,20.76,-42.93,8.82,-42.83
401,-318,1390,219,-631,3714,11.06,-22.31,73.90,2.19,-6.31,37.14,-6.58,-0.28,20.46,-35.86,6.43,-41.35
313,-233,1435,261,-659,3699,11.86,-21.50,75.27,2.61,-6.59,36.99,-6.55,-0.35,20.15,-20.94,-4.96,-43.69
316,-164,1501,279,-630,3650,12.60,-20.35,76.90,2.79,-6.30,36.50,-6.51,-0.41,19.84,-20.02,-13.27,-47.53
463,-27,1636,271,-564,3783,14.17,-18.48,79.19,2.71,-5.64,37.83,-6.47,-0.46,19.51,-39.50,-30.58,-56.51
435,-33,1661,296,-570,3734,15.40,-16.83,81.40,2.96,-5.70,37.34,-6.42,-0.51,19.18,-32.93,-26.52,-56.26
248,-102,1708,258,-507,3766,15.38,-15.77,83.68,2.58,-5.07,37.66,-6.37,-0.55,18.84,-4.49,-13.96,-57.80
185,-117,1712,231,-477,3761,14.97,-14.91,85.75,2.31,-4.77,37.61,-6.32,-0.59,18.50,4.30,-10.01,-55.91
-46,-118,1681,211,-430,3697,13.19,-14.14,87.43,2.11,-4.30,36.97,-6.27,-0.63,18.14,36.13,-8.37,-51.47
-101,-104,1667,209,-425,3705,11.26,-13.36,88.86,2.09,-4.25,37.05,-6.23,-0.66,17.78,40.83,-9.01,-48.74
-216,16,1607,235,-465,3677,8.81,-11.93,89.78,2.35,-4.65,36.77,-6.20,-0.68,17.42,53.72,-24.57,-42.65
-218,62,1590,255,-494,3746,6.60,-10.35,90.50,2.55,-4.94,37.46,-6.19,-0.70,17.06,49.83,-28.60,-40.42
-194,222,1561,281,-489,3890,4.76,-7.96,90.97,2.81,-4.89,38.90,-6.18,-0.71,16.69,42.67,-48.47,-37.43
-172,242,1570,260,-467,3917,3.23,-5.69,91.45,2.60,-4.67,39.17,-6.18,-0.71,16.32,36.43,-47.21,-37.65
-166,159,1587,221,-337,3958,1.90,-4.15,91.98,2.21,-3.37,39.58,-6.16,-0.71,15.96,32.98,-31.65,-38.49
-178,126,1596,208,-301,3930,0.62,-2.97,92.52,2.08,-3.01,39.30,-6.15,-0.69,15.59,32.38,-24.38,-38.65
-188,60,1635,170,-198,3776,-0.59,-2.31,93.24,1.70,-1.98,37.76,-6.15,-0.67,15.22,31.61,-13.07,-41.16
-158,85,1642,179,-168,3742,-1.49,-1.56,93.94,1.79,-1.68,37.42,-6.14,-0.65,14.84,25.32,-15.48,-40.98
86,292,1617,162,-81,3727,-0.82,0.38,94.41,1.62,-0.81,37.27,-6.13,-0.61,14.47,-10.62,-43.41,-38.33
139,346,1591,185,-74,3808,0.11,2.45,94.67,1.85,-0.74,38.08,-6.12,-0.57,14.09,-16.95,-47.74,-35.82
107,386,1449,189,-8,4023,0.75,4.56,94.04,1.89,-0.08,40.23,-6.10,-0.52,13.72,-10.87,-49.88,-24.42
50,355,1402,183,15,4050,0.98,6.27,93.19,1.83,0.15,40.50,-6.08,-0.46,13.35,-1.75,-41.96,-21.30
71,351,1241,136,26,3777,1.32,7.79,91.44,1.36,0.26,37.77,-6.06,-0.39,12.99,-4.33,-38.52,-9.48
176,321,1175,40,6,3735,2.26,8.96,89.46,0.40,0.06,37.35,-6.04,-0.32,12.64,-18.58,-31.76,-5.95
125,229,1094,72,-1,3935,2.80,9.47,87.19,0.72,-0.01,39.35,-6.01,-0.25,12.30,-9.80,-16.83,-1.47
86,232,1081,92,11,3868,3.04,9.93,85.07,0.92,0.11,38.68,-5.98,-0.18,11.96,-3.41,-16.45,-2.59
35,253,1039,37,-51,3861,2.95,10.48,82.90,0.37,-0.51,38.61,-5.95,-0.10,11.64,4.18,-18.66,-1.29
43,273,1022,56,-76,3855,2.92,11.10,80.84,0.56,-0.76,38.55,-5.92,-0.03,11.32,2.88,-20.59,-2.00
106,317,993,25,-94,3871,3.27,11.92,78.82,0.25,-0.94,38.71,-5.89,0.05,11.01,-6.08,-25.79,-1.66
131,318,997,16,-111,3854,3.74,12.67,77.02,0.16,-1.11,38.54,-5.86,0.13,10.71,-9.02,-24.58,-3.88
184,264,1016,-9,-131,3848,4.49,13.01,75.51,-0.09,-1.31,38.48,-5.82,0.21,10.41,-15.71,-15.75,-7.06
187,250,1021,-19,-123,3810,5.18,13.24,74.19,-0.19,-1.23,38.10,-5.78,0.30,10.12,-14.89,-13.25,-8.86
151,227,1037,-30,-132,3738,5.59,13.30,73.10,-0.30,-1.32,37.38,-5.74,0.38,9.84,-8.66,-9.68,-11.34
108,250,1034,-14,-177,3696,5.69,13.49,72.09,-0.14,-1.77,36.96,-5.69,0.46,9.56,-1.94,-12.87,-12.12
5,323,1051,-24,-293,3587,5.15,14.12,71.29,-0.24,-2.93,35.87,-5.65,0.55,9.28,12.72,-22.88,-14.38
-16,343,1064,-21,-346,3559,4.54,14.80,70.66,-0.21,-3.46,35.59,-5.62,0.62,9.00,14.74,-24.69,-16.14
-83,414,1145,-56,-428,3558,3.58,15.84,70.57,-0.56,-4.28,35.58,-5.62,0.71,8.73,23.14,-33.60,-23.06
-101,433,1174,-72,-448,3556,2.60,16.90,70.68,-0.72,-4.48,35.56,-5.63,0.81,8.45,24.05,-34.56,-25.38
-193,485,1291,-127,-446,3619,1.16,18.17,71.49,-1.27,-4.46,36.19,-5.63,0.92,8.18,35.36,-40.16,-34.42
-221,498,1332,-150,-407,3650,-0.30,19.39,72.46,-1.50,-4.07,36.50,-5.64,1.04,7.90,36.86,-39.91,-36.83
-334,560,1490,-219,-269,3800,-2.31,20.87,74.31,-2.19,-2.69,38.00,-5.63,1.17,7.61,50.28,-46.65,-48.24
-350,577,1517,-232,-255,3827,-4.21,22.30,76.13,-2.32,-2.55,38.27,-5.63,1.30,7.31,49.11,-46.62,-48.57
-351,612,1526,-300,-105,3974,-5.93,23.80,77.82,-3.00,-1.05,39.74,-5.63,1.44,7.01,46.01,-49.20,-47.51
-305,621,1512,-346,-11,4038,-7.20,25.21,79.26,-3.46,-0.11,40.38,-5.64,1.58,6.71,36.60,-48.00,-44.77
-93,591,1457,-339,-31,4166,-7.05,26.29,80.23,-3.39,-0.31,41.66,-5.64,1.73,6.40,4.56,-41.47,-39.07
-15,573,1435,-347,-26,4187,-6.43,27.16,80.96,-3.47,-0.26,41.87,-5.64,1.88,6.09,-6.17,-37.18,-36.40
255,454,1377,-382,-99,4178,-4.23,27.21,81.26,-3.82,-0.99,41.78,-5.63,2.03,5.77,-43.19,-19.03,-31.14
331,406,1363,-401,-114,4154,-1.79,26.97,81.45,-4.01,-1.14,41.54,-5.61,2.18,5.46,-50.17,-12.27,-29.72
533,274,1337,-428,-92,4105,1.64,25.94,81.46,-4.28,-0.92,41.05,-5.58,2.33,5.14,-74.49,5.82,-27.48
593,234,1331,-458,-60,4057,5.09,24.78,81.43,-4.58,-0.60,40.57,-5.53,2.47,4.83,-77.14,9.61,-26.97
712,137,1319,-534,71,3919,8.93,23.13,81.34,-5.34,0.71,39.19,-5.47,2.60,4.51,-88.06,21.21,-26.03
724,110,1310,-536,74,3859,12.45,21.49,81.19,-5.36,0.74,38.59,-5.39,2.73,4.20,-83.27,22.13,-25.39
678,39,1236,-514,60,3729,15.34,19.58,80.61,-5.14,0.60,37.29,-5.30,2.85,3.88,-70.84,29.26,-19.71
603,42,1181,-479,40,3716,17.48,17.88,79.76,-4.79,0.40,37.16,-5.20,2.96,3.57,-55.41,25.50,-15.93
390,116,1071,-384,64,3809,18.12,16.80,78.31,-3.84,0.64,38.09,-5.10,3.07,3.26,-21.80,12.10,-8.11
323,136,1049,-358,99,3828,18.27,15.95,76.88,-3.58,0.99,38.28,-4.99,3.16,2.96,-11.35,7.38,-7.73
146,199,983,-189,189,3897,17.34,15.57,75.19,-1.89,1.89,38.97,-4.88,3.25,2.66,13.80,-3.01,-3.90
110,212,952,-160,154,3898,16.27,15.30,73.48,-1.60,1.54,38.98,-4.78,3.33,2.37,17.21,-5.54,-3.06
109,178,797,-393,123,3875,15.31,14.86,70.99,-3.93,1.23,38.75,-4.69,3.42,2.09,15.47,-1.26,7.46
129,156,755,-393,85,3890,14.57,14.32,68.50,-3.93,0.85,38.90,-4.60,3.51,1.82,10.95,1.03,8.40
192,58,652,-271,-53,3945,14.28,13.25,65.63,-2.71,-0.53,39.45,-4.51,3.58,1.57,0.75,13.88,14.11
206,38,639,-250,-90,3978,14.11,12.15,62.96,-2.50,-0.90,39.78,-4.42,3.65,1.32,-1.77,14.81,12.41
196,-41,647,-395,-217,3984,13.90,10.69,60.61,-3.95,-2.17,39.84,-4.34,3.73,1.08,-0.71,24.03,9.27
149,-85,709,-333,-179,4011,13.41,9.10,58.88,-3.33,-1.79,40.11,-4.25,3.79,0.84,5.49,27.70,2.20
-7,-160,892,-299,-160,3961,12.03,7.21,58.43,-2.99,-1.60,39.61,-4.17,3.84,0.61,26.60,35.53,-13.76
-54,-182,942,-349,-129,3948,10.50,5.38,58.33,-3.49,-1.29,39.48,-4.10,3.89,0.38,30.82,35.38,-18.08
-156,-201,1115,-410,-1,3842,8.50,3.62,59.30,-4.10,-0.01,38.42,-4.03,3.93,0.14,42.54,34.91,-31.69
-163,-194,1143,-420,-6,3832,6.65,2.07,60.34,-4.20,-0.06,38.32,-3.97,3.96,-0.10,40.08,30.90,-32.93
-63,-82,1146,-327,16,3717,5.60,1.37,61.30,-3.27,0.16,37.17,-3.91,3.99,-0.35,22.80,12.46,-32.15
15,-27,1122,-295,2,3672,5.13,1.06,62.01,-2.95,0.02,36.72,-3.86,4.01,-0.60,9.98,3.48,-29.34
398,174,999,-438,-65,3716,7.05,2.02,61.91,-4.38,-0.65,37.16,-3.80,4.05,-0.84,-44.84,-25.38,-19.01
507,227,972,-422,-75,3759,9.44,3.20,61.64,-4.22,-0.75,37.59,-3.73,4.09,-1.09,-56.98,-31.25,-16.98
573,223,947,-581,-45,3985,11.99,4.24,61.26,-5.81,-0.45,39.85,-3.65,4.14,-1.34,-62.27,-28.70,-15.25
559,232,996,-588,16,3997,14.20,5.23,61.21,-5.88,0.16,39.97,-3.57,4.19,-1.58,-56.00,-28.23,-19.43
677,260,1116,-627,177,3910,16.91,6.30,61.89,-6.27,1.77,39.10,-3.47,4.24,-1.83,-68.93,-30.53,-28.85
740,287,1142,-627,184,3959,19.73,7.42,62.67,-6.27,1.84,39.59,-3.35,4.30,-2.08,-73.26,-32.56,-30.20
823,292,1184,-712,407,4004,22.78,8.46,63.63,-7.12,4.07,40.04,-3.23,4.36,-2.33,-80.23,-31.39,-32.73
825,284,1149,-758,554,4005,25.53,9.34,64.27,-7.58,5.54,40.05,-3.09,4.42,-2.59,-75.41,-28.53,-29.06
953,304,1074,-657,289,3865,28.79,10.26,64.40,-6.57,2.89,38.65,-2.94,4.48,-2.85,-88.86,-29.88,-22.55
1032,311,1068,-684,362,3835,32.21,11.13,64.47,-6.84,3.62,38.35,-2.78,4.55,-3.10,-94.54,-29.34,-21.94
1137,223,919,-712,520,3876,35.92,11.38,63.63,-7.12,5.20,38.76,-2.60,4.62,-3.36,-103.64,-15.50,-10.18
1108,180,863,-718,523,3909,39.09,11.34,62.53,-7.18,5.23,39.09,-2.41,4.68,-3.61,-93.34,-9.06,-6.58
1023,106,662,-756,549,3801,41.42,10.85,60.32,-7.56,5.49,38.01,-2.20,4.74,-3.85,-76.10,1.26,8.13
961,72,564,-742,559,3773,43.14,10.21,57.73,-7.42,5.59,37.73,-2.00,4.80,-4.08,-63.52,5.18,13.71
866,83,419,-799,647,3744,44.11,9.69,54.51,-7.99,6.47,37.44,-1.79,4.86,-4.30,-47.34,2.49,22.61
831,90,394,-816,681,3723,44.77,9.27,51.46,-8.16,6.81,37.23,-1.57,4.91,-4.51,-40.90,0.60,21.52
698,142,322,-813,697,3726,44.55,9.21,48.28,-8.13,6.97,37.26,-1.36,4.96,-4.70,-21.17,-7.48,24.26
647,151,296,-803,679,3732,44.04,9.21,45.26,-8.03,6.79,37.32,-1.16,5.01,-4.88,-14.49,-8.89,23.28
460,189,193,-767,656,3751,42.44,9.44,41.91,-7.67,6.56,37.51,-0.96,5.06,-5.05,10.87,-14.28,28.48
400,191,163,-773,646,3751,40.64,9.66,38.71,-7.73,6.46,37.51,-0.76,5.11,-5.21,16.47,-14.20,27.65
224,187,63,-778,592,3759,37.94,9.84,35.23,-7.78,5.92,37.59,-0.58,5.17,-5.35,38.09,-13.29,32.44
179,184,35,-768,580,3781,35.24,9.98,31.92,-7.68,5.80,37.81,-0.42,5.22,-5.48,39.72,-12.61,31.32
60,206,-29,-798,543,3833,32.08,10.24,28.55,-7.98,5.43,38.33,-0.26,5.27,-5.59,51.79,-15.51,33.19
14,215,-38,-795,498,3878,28.96,10.52,25.46,-7.95,4.98,38.78,-0.12,5.32,-5.70,52.79,-16.37,30.69
-24,238,-24,-746,409,3959,25.92,10.92,22.77,-7.46,4.09,39.59,0.00,5.38,-5.79,52.74,-19.16,26.66
-23,238,-12,-764,393,3952,23.18,11.28,20.42,-7.64,3.93,39.52,0.12,5.44,-5.87,47.34,-18.52,23.17
24,205,51,-791,352,3987,21.01,11.40,18.69,-7.91,3.52,39.87,0.22,5.50,-5.95,35.99,-13.29,16.00
39,194,68,-790,348,3994,19.15,11.45,17.23,-7.90,3.48,39.94,0.31,5.56,-6.02,30.11,-11.57,13.03
69,149,132,-781,309,3981,17.65,11.21,16.32,-7.81,3.09,39.81,0.40,5.62,-6.09,22.65,-5.19,6.64
70,127,148,-780,289,3960,16.32,10.87,15.59,-7.80,2.89,39.60,0.48,5.67,-6.15,19.91,-2.53,4.52
51,52,212,-750,250,3931,15.00,10.10,15.32,-7.50,2.50,39.31,0.56,5.73,-6.22,20.26,7.41,-1.18
39,35,231,-745,255,3903,13.73,9.30,15.20,-7.45,2.55,39.03,0.63,5.78,-6.28,19.65,8.46,-2.91
-5,-20,307,-741,211,3881,12.33,8.25,15.55,-7.41,2.11,38.81,0.69,5.83,-6.34,23.66,14.82,-8.97
-36,-38,341,-716,180,3880,10.88,7.19,16.08,-7.16,1.80,38.80,0.75,5.88,-6.41,25.60,15.54,-11.29
-119,-72,415,-673,53,3895,9.06,6.03,17.00,-6.73,0.53,38.95,0.79,5.92,-6.48,34.79,18.50,-16.58
-143,-85,435,-669,-7,3898,7.29,4.91,17.95,-6.69,-0.07,38.98,0.83,5.95,-6.55,35.06,18.34,-17.25
-247,-279,444,-576,-210,3884,5.05,2.72,18.87,-5.76,-2.10,38.84,0.84,5.97,-6.62,46.68,43.75,-17.04
-272,-327,448,-559,-171,4035,2.89,0.45,19.71,-5.59,-1.71,40.35,0.84,5.98,-6.70,46.39,46.77,-16.48
-427,-442,607,-527,-208,4099,-0.01,-2.29,21.44,-5.27,-2.08,40.99,0.83,5.98,-6.78,64.55,59.12,-28.11
-461,-465,680,-533,-230,4052,-2.82,-4.90,23.45,-5.33,-2.30,40.52,0.82,5.96,-6.88,64.43,57.70,-32.16
-582,-580,972,-550,-205,3900,-6.09,-7.95,27.03,-5.50,-2.05,39.00,0.79,5.94,-6.98,76.71,69.48,-53.10
-626,-599,1085,-551,-144,3911,-9.30,-10.80,30.95,-5.51,-1.44,39.11,0.75,5.91,-7.11,77.36,66.99,-58.51
-769,-620,1442,-559,-43,3789,-13.06,-13.51,36.65,-5.59,-0.43,37.89,0.70,5.87,-7.25,92.08,65.10,-82.71
-805,-620,1586,-604,20,3703,-16.66,-15.94,42.66,-6.04,0.20,37.03,0.65,5.82,-7.42,90.77,60.52,-88.53
-752,-555,1800,-660,246,3540,-19.58,-17.73,49.37,-6.60,2.46,35.40,0.60,5.76,-7.62,77.19,47.26,-99.53
-686,-510,1831,-693,322,3500,-21.81,-19.07,55.60,-6.93,3.22,35.00,0.55,5.70,-7.84,62.94,37.90,-95.54
-435,-348,1843,-812,579,3443,-22.28,-19.28,61.29,-8.12,5.79,34.43,0.50,5.63,-8.09,23.81,12.83,-90.52
-380,-302,1774,-667,554,3431,-22.37,-19.20,65.98,-6.67,5.54,34.31,0.45,5.56,-8.36,15.28,6.03,-79.68
-443,-246,1627,-698,563,3588,-22.84,-18.78,69.31,-6.98,5.63,35.88,0.40,5.49,-8.64,24.04,-1.68,-63.68
-465,-194,1545,-618,592,3614,-23.39,-18.08,71.80,-6.18,5.92,36.14,0.35,5.43,-8.93,26.38,-8.25,-54.06
-368,99,1199,-479,742,3567,-23.30,-15.67,71.93,-4.79,7.42,35.67,0.30,5.36,-9.22,11.80,-48.32,-24.58
-327,163,1100,-656,687,3589,-22.96,-13.11,71.45,-6.56,6.87,35.89,0.25,5.32,-9.51,6.21,-53.20,-16.68
-395,206,773,-869,541,3822,-23.07,-10.54,69.02,-8.69,5.41,38.22,0.20,5.29,-9.78,16.40,-54.87,8.48
-507,172,682,-897,535,3808,-23.86,-8.44,66.28,-8.97,5.35,38.08,0.14,5.27,-10.05,32.03,-45.69,13.31
-380,232,628,-639,417,3633,-23.79,-6.18,63.48,-6.39,4.17,36.33,0.09,5.25,-10.31,12.83,-50.55,14.94
-311,235,619,-643,339,3590,-23.31,-4.13,60.91,-6.43,3.39,35.90,0.03,5.25,-10.55,3.26,-47.12,13.00
-292,209,573,-887,96,3747,-22.76,-2.44,58.31,-8.87,0.96,37.47,-0.04,5.26,-10.79,1.45,-39.96,14.17
-306,213,571,-887,72,3610,-22.35,-0.90,55.97,-8.87,0.72,36.10,-0.10,5.27,-11.01,4.40,-37.66,11.88
-369,262,596,-805,-18,3635,-22.37,0.79,54.00,-8.05,-0.18,36.35,-0.17,5.29,-11.23,14.03,-41.95,7.70
-392,300,607,-779,-57,3602,-22.52,2.54,52.31,-7.79,-0.57,36.02,-0.25,5.32,-11.44,17.29,-44.45,4.99
-395,447,628,-801,-84,3716,-22.68,5.01,50.91,-8.01,-0.84,37.16,-0.32,5.36,-11.64,17.50,-62.21,1.75
-400,472,632,-809,-79,3707,-22.85,7.39,49.67,-8.09,-0.79,37.07,-0.40,5.41,-11.84,17.98,-61.55,0.12
-455,488,635,-899,20,3864,-23.34,9.63,48.58,-8.99,0.20,38.64,-0.47,5.47,-12.04,25.49,-59.79,-1.28
-420,500,627,-922,56,3786,-23.57,11.72,47.54,-9.22,0.56,37.86,-0.54,5.53,-12.23,19.77,-57.71,-1.68
-379,418,588,-1010,144,3880,-23.52,13.09,46.38,-10.10,1.44,38.80,-0.61,5.61,-12.41,13.65,-42.64,0.41
-377,377,574,-1022,157,3848,-23.47,14.08,45.24,-10.22,1.57,38.48,-0.68,5.68,-12.60,13.49,-34.57,0.41
-299,240,479,-1030,174,3897,-22.95,14.14,43.64,-10.30,1.74,38.97,-0.75,5.76,-12.77,2.63,-13.62,6.78
-251,225,440,-1020,190,3888,-22.18,14.10,41.96,-10.20,1.90,38.88,-0.82,5.83,-12.94,-3.20,-11.46,8.32
16,229,265,-1022,134,3943,-19.87,14.09,39.38,-10.22,1.34,39.43,-0.88,5.91,-13.10,-39.49,-12.14,20.43
64,212,213,-1017,112,3949,-17.49,13.97,36.74,-10.17,1.12,39.49,-0.93,5.99,-13.25,-42.28,-9.82,22.05
106,111,20,-1005,-25,4022,-15.10,13.25,33.19,-10.05,-0.25,40.22,-0.97,6.06,-13.38,-44.11,4.17,34.65
76,73,-24,-998,-53,4000,-13.12,12.37,29.72,-9.98,-0.53,40.00,-1.01,6.13,-13.50,-35.78,8.25,34.72
5,-6,-125,-958,-138,3963,-11.78,11.10,25.99,-9.58,-1.38,39.63,-1.05,6.19,-13.60,-22.38,17.85,39.33
77,37,-136,-937,-147,3844,-10.13,10.21,22.56,-9.37,-1.47,38.44,-1.08,6.25,-13.69,-30.22,9.57,36.64
118,41,-92,-958,-147,3889,-8.40,9.44,19.74,-9.58,-1.47,38.89,-1.11,6.31,-13.77,-33.17,7.46,29.94
87,31,-76,-942,-135,3863,-7.03,8.69,17.30,-9.42,-1.35,38.63,-1.13,6.37,-13.84,-25.83,7.52,26.01
-65,0,-31,-933,-139,3884,-6.72,7.82,15.39,-9.33,-1.39,38.84,-1.15,6.42,-13.90,-2.06,10.57,20.17
-108,-5,-22,-935,-132,3874,-6.71,7.01,13.71,-9.35,-1.32,38.74,-1.18,6.46,-13.95,4.54,9.77,17.64
-213,10,-10,-908,-146,3925,-7.34,6.37,12.28,-9.08,-1.46,39.25,-1.20,6.51,-14.00,19.38,6.24,15.11
-233,17,-12,-901,-161,3925,-8.02,5.83,10.98,-9.01,-1.61,39.25,-1.23,6.55,-14.04,21.15,4.13,13.91
-269,26,-29,-860,-238,3955,-8.86,5.41,9.70,-8.60,-2.38,39.55,-1.27,6.59,-14.08,25.08,1.93,14.00
-278,17,-37,-859,-272,3946,-9.67,4.97,8.51,-8.59,-2.72,39.46,-1.31,6.63,-14.12,24.94,2.45,13.41
-308,-59,-52,-853,-327,3895,-10.58,4.11,7.34,-8.53,-3.27,38.95,-1.36,6.66,-14.14,27.82,12.39,13.45
-334,-114,-51,-850,-345,3871,-11.56,3.01,6.30,-8.50,-3.45,38.71,-1.42,6.69,-14.17,29.97,18.67,12.26
-411,-193,-44,-865,-394,3793,-12.91,1.53,5.40,-8.65,-3.94,37.93,-1.48,6.71,-14.19,39.19,27.90,10.72
-434,-203,-44,-868,-405,3782,-14.27,0.14,4.59,-8.68,-4.05,37.82,-1.54,6.72,-14.21,40.18,26.78,9.87
-529,-178,-45,-855,-449,3812,-16.07,-0.96,3.86,-8.55,-4.49,38.12,-1.62,6.74,-14.22,51.30,20.88,9.17
-565,-157,-50,-852,-473,3825,-17.91,-1.82,3.17,-8.52,-4.73,38.25,-1.70,6.74,-14.23,53.36,16.04,8.87
-722,-57,-88,-810,-613,4017,-20.52,-1.99,2.31,-8.10,-6.13,40.17,-1.79,6.74,-14.24,72.42,0.48,11.18
-785,-20,-107,-776,-656,4112,-23.26,-1.91,1.43,-7.76,-6.56,41.12,-1.90,6.75,-14.24,76.92,-5.02,11.86
-1104,63,-124,-1009,-543,4266,-27.67,-1.34,0.53,-10.09,-5.43,42.66,-2.03,6.75,-14.24,117.29,-16.60,12.35
-1220,56,-106,-1026,-518,4302,-32.34,-0.86,-0.17,-10.26,-5.18,43.02,-2.17,6.77,-14.24,126.22,-14.64,10.08
-1737,-44,-7,-907,-536,4345,-39.70,-1.04,-0.20,-9.07,-5.36,43.45,-2.34,6.77,-14.24,191.24,0.26,1.67
-1992,-130,24,-825,-594,4286,-47.88,-1.73,-0.03,-8.25,-5.94,42.86,-2.54,6.78,-14.24,214.76,12.07,-0.78
-2466,-379,58,-928,-649,4140,-58.14,-3.87,0.33,-9.28,-6.49,41.40,-2.79,6.78,-14.24,267.79,45.99,-3.29
-2568,-443,58,-946,-669,4104,-67.99,-6.19,0.65,-9.46,-6.69,41.04,-3.07,6.76,-14.24,264.88,51.38,-2.95
-2819,-620,-12,-869,-830,3976,-78.39,-9.35,0.51,-8.69,-8.30,39.76,-3.40,6.74,-14.24,283.68,72.40,2.84
-2857,-655,-54,-846,-863,3939,-87.98,-12.41,0.13,-8.46,-8.63,39.39,-3.77,6.70,-14.24,271.55,71.96,5.99
-2860,-749,-260,-790,-1009,3829,-96.62,-15.74,-1.47,-7.90,-10.09,38.29,-4.17,6.64,-14.24,255.90,80.03,21.75
-2819,-755,-325,-782,-1048,3823,-104.16,-18.77,-3.31,-7.82,-10.48,38.23,-4.61,6.57,-14.23,235.66,75.25,25.32
-2510,-690,-565,-794,-1116,3820,-109.05,-21.10,-6.42,-7.94,-11.16,38.20,-5.06,6.49,-14.21,179.57,60.97,42.35
-2421,-675,-620,-803,-1144,3820,-112.92,-23.11,-9.56,-8.03,-11.44,38.20,-5.53,6.40,-14.18,158.99,54.94,43.68
-2149,-674,-798,-757,-1262,3804,-114.73,-24.91,-13.47,-7.57,-12.62,38.04,-6.02,6.31,-14.13,114.39,51.44,54.61
-2094,-706,-858,-759,-1268,3842,-116.03,-26.73,-17.36,-7.59,-12.68,38.42,-6.50,6.20,-14.07,103.86,52.96,55.58
-2072,-741,-898,-915,-1249,3894,-117.07,-28.57,-21.10,-9.15,-12.49,38.94,-6.99,6.08,-14.00,98.87,54.87,55.00
-2096,-762,-898,-972,-1366,3926,-118.15,-30.36,-24.47,-9.72,-13.66,39.26,-7.49,5.96,-13.92,100.81,54.76,51.42
-2201,-868,-976,-851,-1583,3757,-119.76,-32.62,-27.98,-8.51,-15.83,37.57,-8.00,5.82,-13.82,114.11,66.74,54.31
-1846,-810,-1159,-774,-1834,3503,-119.04,-34.30,-32.25,-7.74,-18.34,35.03,-8.50,5.67,-13.71,61.66,54.81,65.28
-1748,-814,-1196,-763,-1983,3422,-117.80,-35.84,-36.32,-7.63,-19.83,34.22,-9.00,5.51,-13.59,49.39,52.62,64.09
-1616,-994,-1257,-644,-2190,3396,-115.88,-38.32,-40.35,-6.44,-21.90,33.96,-9.50,5.34,-13.45,33.23,75.49,64.98
-1579,-1012,-1274,-646,-2240,3302,-113.92,-40.66,-44.09,-6.46,-22.40,33.02,-9.98,5.15,-13.30,31.62,73.92,62.45
-1525,-1076,-1296,-718,-2490,3234,-111.83,-43.16,-47.59,-7.18,-24.90,32.34,-10.46,4.95,-13.14,27.65,79.08,60.59
-1457,-1013,-1267,-632,-2460,3191,-109.54,-45.02,-50.56,-6.32,-24.60,31.91,-10.93,4.74,-12.98,21.94,66.09,54.98
-1422,-956,-1223,-634,-2436,3086,-107.26,-46.35,-52.96,-6.34,-24.36,30.86,-11.39,4.52,-12.80,21.23,55.02,48.69
-1381,-864,-851,-651,-2276,3059,-104.96,-46.98,-52.86,-6.51,-22.76,30.59,-11.84,4.30,-12.63,19.63,39.93,17.27
-1358,-823,-816,-676,-2248,2982,-102.74,-47.31,-52.55,-6.76,-22.48,29.82,-12.28,4.08,-12.46,20.60,33.22,14.61
-1267,-664,-589,-612,-2585,3007,-100.20,-46.63,-50.89,-6.12,-25.85,30.07,-12.71,3.85,-12.30,11.83,10.41,-2.87
-1123,-501,-361,-552,-2776,2979,-97.03,-45.02,-48.00,-5.52,-27.76,29.79,-13.13,3.64,-12.15,-3.85,-11.27,-19.15
-1098,-478,-322,-521,-2798,3003,-94.02,-43.43,-45.16,-5.21,-27.98,30.03,-13.53,3.43,-12.02,-1.71,-11.63,-19.46
-980,-377,-154,-514,-2826,3051,-90.60,-41.39,-41.59,-5.14,-28.26,30.51,-13.92,3.23,-11.89,-12.96,-23.03,-29.92
-939,-356,-21,-515,-2800,3121,-87.27,-39.42,-37.56,-5.15,-28.00,31.21,-14.29,3.04,-11.79,-12.66,-22.39,-36.93
-942,-363,13,-519,-2770,3130,-84.29,-37.69,-33.72,-5.19,-27.70,31.30,-14.65,2.87,-11.69,-6.32,-17.93,-35.76
-1031,-445,137,-491,-2700,3166,-82.15,-36.64,-29.51,-4.91,-27.00,31.66,-15.00,2.70,-11.61,11.54,-3.31,-41.81
-1087,-489,165,-462,-2684,3154,-80.56,-35.96,-25.56,-4.62,-26.84,31.54,-15.34,2.54,-11.55,23.31,4.79,-40.00
-1226,-622,192,-407,-2675,3108,-79.99,-36.16,-21.83,-4.07,-26.75,31.08,-15.68,2.38,-11.51,45.82,24.81,-38.35
-1254,-657,184,-398,-2688,3101,-79.64,-36.55,-18.52,-3.98,-26.88,31.01,-16.02,2.22,-11.47,50.98,29.51,-34.17
-1290,-771,97,-345,-2774,3003,-79.54,-37.60,-16.08,-3.45,-27.74,30.03,-16.36,2.06,-11.45,56.87,45.01,-24.21
-1237,-863,-39,-295,-2827,2871,-79.13,-39.10,-14.71,-2.95,-28.27,28.71,-16.69,1.89,-11.44,49.78,56.30,-11.24
-1215,-879,-71,-297,-2839,2856,-78.63,-40.55,-13.67,-2.97,-28.39,28.56,-17.02,1.72,-11.43,47.59,56.10,-7.43
-1152,-873,-144,-294,-2874,2804,-77.80,-41.82,-13.18,-2.94,-28.74,28.04,-17.35,1.55,-11.43,39.79,52.90,-0.73
-1145,-857,-145,-280,-2879,2788,-77.00,-42.87,-12.75,-2.80,-28.79,27.88,-17.68,1.37,-11.44,40.44,48.59,-0.19
-1157,-786,-109,-254,-2928,2740,-76.36,-43.38,-12.14,-2.54,-29.28,27.40,-18.00,1.19,-11.44,43.70,36.92,-2.59
-1213,-738,-65,-218,-2972,2701,-76.12,-43.54,-11.32,-2.18,-29.72,27.01,-18.32,1.02,-11.45,52.90,29.41,-5.45
-1243,-727,-54,-194,-2984,2692,-76.09,-43.62,-10.52,-1.94,-29.84,26.92,-18.64,0.84,-11.47,57.74,27.70,-5.53
-1282,-703,-63,-167,-3017,2701,-76.30,-43.55,-9.85,-1.67,-30.17,27.01,-18.97,0.66,-11.49,63.50,24.29,-4.06
-1291,-696,-67,-163,-3000,2686,-76.55,-43.44,-9.27,-1.63,-30.00,26.86,-19.29,0.49,-11.51,64.63,23.55,-3.11
-1306,-712,-82,-147,-3004,2595,-76.86,-43.44,-8.85,-1.47,-30.04,25.95,-19.61,0.31,-11.53,66.54,26.10,-1.38
-1312,-728,-95,-134,-3043,2586,-77.18,-43.53,-8.54,-1.34,-30.43,25.86,-19.94,0.14,-11.56,67.07,28.48,0.04
-1332,-797,-186,-92,-3169,2520,-77.58,-44.04,-8.82,-0.92,-31.69,25.20,-20.27,-0.04,-11.59,69.56,38.15,7.46
-1339,-818,-215,-71,-3199,2486,-77.99,-44.63,-9.25,-0.71,-31.99,24.86,-20.60,-0.22,-11.61,70.07,40.36,9.46
-1354,-885,-306,-50,-3338,2418,-78.45,-45.56,-10.19,-0.50,-33.38,24.18,-20.93,-0.40,-11.64,71.71,48.93,16.18
-1362,-916,-320,-50,-3364,2358,-78.92,-46.60,-11.13,-0.50,-33.64,23.58,-21.26,-0.59,-11.67,72.27,51.83,16.38
-1367,-913,-301,-82,-3341,2381,-79.36,-47.51,-11.85,-0.82,-33.41,23.81,-21.60,-0.79,-11.69,72.41,49.78,14.01
-1426,-862,-174,-79,-3434,2328,-80.13,-48.01,-11.73,-0.79,-34.34,23.28,-21.93,-0.98,-11.72,80.18,41.17,3.38
-1438,-864,-162,-74,-3482,2316,-80.89,-48.48,-11.54,-0.74,-34.82,23.16,-22.28,-1.18,-11.75,80.80,40.71,2.56
-1465,-917,-180,-30,-3665,2256,-81.73,-49.23,-11.49,-0.30,-36.65,22.56,-22.62,-1.38,-11.78,83.54,47.51,4.15
-1467,-943,-195,0,-3705,2212,-82.51,-50.06,-11.53,0.00,-37.05,22.12,-22.97,-1.58,-11.82,82.61,50.04,5.38
-1452,-1089,-236,46,-3820,2064,-83.11,-51.69,-11.81,0.46,-38.20,20.64,-23.32,-1.79,-11.86,79.40,69.34,8.55
-1443,-1133,-235,47,-3837,2029,-83.61,-53.44,-12.07,0.47,-38.37,20.29,-23.67,-2.00,-11.90,77.33,72.90,8.20
-1412,-1256,-173,55,-3855,1979,-83.86,-55.75,-11.91,0.55,-38.55,19.79,-24.03,-2.22,-11.95,72.36,87.41,3.12
-1403,-1274,-146,68,-3865,1954,-84.03,-57.95,-11.61,0.68,-38.65,19.54,-24.38,-2.45,-12.00,70.90,86.15,1.15
-1372,-1293,-30,36,-3824,1964,-84.00,-60.04,-10.64,0.36,-38.24,19.64,-24.74,-2.69,-12.06,66.47,85.24,-7.63
-1332,-1319,72,93,-3915,1862,-83.72,-62.08,-9.13,0.93,-39.15,18.62,-25.09,-2.93,-12.13,61.12,85.49,-14.68
-1309,-1359,99,128,-3939,1805,-83.34,-64.17,-7.62,1.28,-39.39,18.05,-25.45,-3.18,-12.22,58.58,87.81,-15.35
-1244,-1510,143,199,-3954,1614,-82.59,-66.96,-5.98,1.99,-39.54,16.14,-25.80,-3.43,-12.31,50.31,105.71,-17.34
-1222,-1554,150,230,-3948,1567,-81.79,-69.74,-4.47,2.30,-39.48,15.67,-26.15,-3.69,-12.42,48.71,107.32,-16.32
-1117,-1694,160,267,-3915,1402,-80.42,-73.10,-3.05,2.67,-39.15,14.02,-26.50,-3.95,-12.54,35.52,122.49,-15.65
-1080,-1729,161,276,-3889,1357,-78.97,-76.34,-1.76,2.76,-38.89,13.57,-26.84,-4.23,-12.67,32.85,121.88,-14.36
-919,-1838,130,341,-3881,1283,-76.68,-79.92,-0.79,3.41,-38.81,12.83,-27.18,-4.52,-12.82,12.86,131.91,-10.70
-719,-1890,-3,376,-4025,1304,-73.39,-83.45,-0.73,3.76,-40.25,13.04,-27.50,-4.82,-12.97,-11.21,133.34,0.65
-658,-1900,-51,399,-4038,1297,-70.07,-86.70,-0.97,3.99,-40.38,12.97,-27.81,-5.13,-13.13,-14.01,128.93,4.48
-410,-1813,-167,501,-4066,1275,-65.56,-89.09,-1.89,5.01,-40.66,12.75,-28.10,-5.45,-13.29,-43.10,111.34,13.34
-338,-1811,-187,493,-4144,1101,-61.07,-91.23,-2.84,4.93,-41.44,11.01,-28.38,-5.77,-13.46,-45.39,107.20,14.05
26,-1895,-263,617,-4174,832,-54.80,-93.66,-4.16,6.17,-41.74,8.32,-28.63,-6.11,-13.62,-88.86,115.62,19.10
91,-1921,-278,617,-4158,790,-48.77,-96.02,-5.44,6.17,-41.58,7.90,-28.86,-6.46,-13.79,-87.19,115.36,19.03
298,-1897,-339,568,-4147,751,-42.07,-97.99,-6.96,5.68,-41.47,7.51,-29.07,-6.82,-13.96,-105.95,108.21,22.60
325,-1858,-357,573,-4145,740,-35.88,-99.52,-8.45,5.73,-41.45,7.40,-29.25,-7.18,-14.13,-98.22,99.59,22.57
383,-1633,-416,650,-4223,575,-29.96,-99.53,-10.14,6.50,-42.23,5.75,-29.41,-7.55,-14.29,-95.74,65.51,25.79
378,-1574,-435,643,-4247,557,-24.66,-99.18,-11.78,6.43,-42.47,5.57,-29.54,-7.92,-14.45,-84.85,57.42,25.68
318,-1302,-488,658,-4264,541,-20.25,-97.20,-13.58,6.58,-42.64,5.41,-29.66,-8.29,-14.60,-67.27,19.92,28.28
285,-1216,-493,659,-4276,565,-16.49,-94.90,-15.23,6.59,-42.76,5.65,-29.76,-8.65,-14.74,-55.05,11.41,26.97
131,-824,-494,655,-4336,689,-14.04,-90.44,-16.72,6.55,-43.36,6.89,-29.86,-9.00,-14.86,-26.86,-39.69,25.49
82,-720,-487,663,-4351,705,-12.14,-85.78,-18.02,6.63,-43.51,7.05,-29.94,-9.33,-14.97,-15.73,-46.52,23.53
-109,-398,-411,720,-4410,768,-11.59,-79.63,-18.72,7.20,-44.10,7.68,-30.02,-9.65,-15.07,14.49,-83.76,16.35
-152,-353,-378,736,-4411,800,-11.36,-73.82,-19.16,7.36,-44.11,8.00,-30.10,-9.94,-15.16,21.54,-79.43,13.11
-275,-263,-211,735,-4426,912,-11.90,-68.05,-18.53,7.35,-44.26,9.12,-30.17,-10.22,-15.23,39.32,-82.03,-0.37
-295,-267,-163,729,-4427,923,-12.51,-62.87,-17.67,7.29,-44.27,9.23,-30.25,-10.47,-15.30,41.26,-71.45,-3.52
-307,-351,1,686,-4398,1009,-13.13,-58.72,-15.90,6.86,-43.98,10.09,-30.33,-10.71,-15.37,41.97,-50.63,-15.53
-296,-390,44,684,-4375,1041,-13.62,-55.23,-14.04,6.84,-43.75,10.41,-30.42,-10.92,-15.44,39.42,-37.92,-17.20
-260,-503,133,688,-4332,1094,-13.85,-52.78,-11.82,6.88,-43.32,10.94,-30.50,-11.13,-15.51,33.56,-15.90,-22.39
-250,-535,146,689,-4319,1102,-13.99,-50.76,-9.75,6.89,-43.19,11.02,-30.59,-11.33,-15.58,31.82,-7.08,-21.29
-220,-621,168,617,-4209,1164,-13.93,-49.47,-7.75,6.17,-42.09,11.64,-30.68,-11.51,-15.66,27.41,8.60,-21.03
-206,-632,164,607,-4191,1176,-13.79,-48.38,-5.97,6.07,-41.91,11.76,-30.76,-11.69,-15.75,25.60,12.46,-18.80
-78,-652,80,663,-4186,1145,-12.89,-47.52,-4.89,6.63,-41.86,11.45,-30.85,-11.86,-15.83,7.84,17.26,-10.53
-29,-656,48,695,-4206,1111,-11.78,-46.77,-4.11,6.95,-42.06,11.11,-30.93,-12.03,-15.92,2.53,19.40,-6.98
171,-691,-28,667,-4224,1004,-9.56,-46.31,-3.87,6.67,-42.24,10.04,-31.00,-12.20,-16.01,-23.71,25.72,-0.28
220,-717,-9,708,-4258,1046,-7.26,-46.05,-3.54,7.08,-42.58,10.46,-31.07,-12.37,-16.10,-26.79,30.28,-1.53
407,-767,89,792,-4400,994,-4.05,-46.12,-2.64,7.92,-44.00,9.94,-31.12,-12.53,-16.19,-49.20,37.88,-8.88
437,-781,118,784,-4372,973,-0.98,-46.28,-1.66,7.84,-43.72,9.73,-31.16,-12.69,-16.28,-47.93,39.83,-10.28
486,-819,145,710,-4282,975,2.08,-46.64,-0.61,7.10,-42.82,9.75,-31.19,-12.85,-16.38,-49.58,45.04,-11.45
515,-799,125,664,-4204,939,5.02,-46.85,0.22,6.64,-42.04,9.39,-31.21,-13.01,-16.49,-48.44,41.69,-8.88
577,-782,-79,571,-3708,1030,8.03,-46.94,-0.29,5.71,-37.08,10.30,-31.22,-13.17,-16.59,-52.17,39.05,7.88
580,-801,-159,588,-3584,967,10.77,-47.13,-1.23,5.88,-35.84,9.67,-31.22,-13.34,-16.69,-47.45,41.69,13.67
1025,-577,-561,453,-3354,891,15.94,-45.94,-4.53,4.53,-33.54,8.91,-31.19,-13.50,-16.78,-105.53,9.90,44.25
1197,-457,-682,479,-3411,881,21.65,-44.13,-8.23,4.79,-34.11,8.81,-31.13,-13.67,-16.85,-120.99,-4.87,50.58
1486,-148,-1274,573,-3937,1417,28.55,-40.62,-15.18,5.73,-39.37,14.17,-31.05,-13.84,-16.88,-152.05,-45.23,93.38
1536,-60,-1452,606,-4082,1436,35.07,-36.93,-22.52,6.06,-40.82,14.36,-30.92,-14.01,-16.89,-147.42,-51.54,100.69
1894,201,-2020,663,-4295,1577,43.11,-32.01,-32.59,6.63,-42.95,15.77,-30.75,-14.19,-16.84,-186.88,-81.91,138.14
1947,174,-2075,664,-4254,1586,50.68,-27.74,-41.99,6.64,-42.54,15.86,-30.55,-14.37,-16.76,-180.77,-69.60,132.84
2509,380,-1956,896,-4208,1952,60.91,-22.65,-49.72,8.96,-42.08,19.52,-30.29,-14.54,-16.63,-247.26,-91.25,114.56
2775,257,-1563,481,-4178,1964,71.75,-18.82,-54.28,4.81,-41.78,19.64,-29.98,-14.71,-16.48,-267.50,-65.12,76.42
2774,145,-1434,412,-4199,2046,81.50,-16.05,-57.60,4.12,-41.99,20.46,-29.63,-14.88,-16.31,-249.13,-42.69,61.96
2634,-292,-954,455,-4190,2289,89.41,-16.23,-57.66,4.55,-41.90,22.89,-29.24,-15.05,-16.14,-213.03,23.72,21.22
2498,-436,-779,405,-4131,2328,95.71,-17.27,-56.65,4.05,-41.31,23.28,-28.83,-15.21,-15.97,-180.64,43.83,7.45
2182,-600,-491,237,-3971,2380,99.45,-19.20,-53.98,2.37,-39.71,23.80,-28.41,-15.38,-15.82,-125.65,65.29,-14.13
2094,-610,-444,247,-3968,2369,102.28,-21.00,-51.29,2.47,-39.68,23.69,-27.98,-15.54,-15.68,-107.15,63.51,-15.28
1812,-593,-365,219,-3886,2305,103.10,-22.52,-48.39,2.19,-38.86,23.05,-27.55,-15.71,-15.55,-62.87,58.15,-18.91
1625,-566,-348,200,-3862,2227,102.71,-23.72,-45.67,2.00,-38.62,22.27,-27.12,-15.87,-15.43,-35.39,51.87,-17.49
1586,-560,-345,189,-3835,2234,102.11,-24.76,-43.21,1.89,-38.35,22.34,-26.70,-16.03,-15.32,-30.85,49.08,-15.14
1472,-491,-280,190,-3667,2317,100.88,-25.28,-40.60,1.90,-36.67,23.17,-26.28,-16.19,-15.22,-16.07,37.68,-17.89
1444,-457,-249,210,-3638,2353,99.60,-25.54,-38.05,2.10,-36.38,23.53,-25.87,-16.34,-15.13,-14.49,32.10,-17.84
1343,-347,-117,256,-3592,2335,97.83,-25.10,-34.96,2.56,-35.92,23.35,-25.47,-16.48,-15.05,-2.70,16.25,-25.75
1277,-327,1,328,-3540,2314,95.84,-24.59,-31.46,3.28,-35.40,23.14,-25.09,-16.62,-14.98,3.33,14.27,-32.05
1271,-323,44,320,-3541,2337,94.01,-24.10,-28.05,3.20,-35.41,23.37,-24.71,-16.75,-14.92,0.53,14.67,-32.08
1302,-271,69,199,-3442,2394,92.55,-23.34,-24.82,1.99,-34.42,23.94,-24.34,-16.87,-14.87,-7.20,8.25,-30.79
1323,-265,75,202,-3427,2369,91.36,-22.62,-21.88,2.02,-34.27,23.69,-23.98,-16.98,-14.83,-12.89,8.77,-28.19
1406,-238,61,388,-3406,2503,90.80,-21.81,-19.32,3.88,-34.06,25.03,-23.62,-17.09,-14.80,-26.84,6.26,-24.29
1431,-226,42,435,-3402,2495,90.45,-21.01,-17.13,4.35,-34.02,24.95,-23.27,-17.19,-14.77,-31.55,6.01,-20.37
1557,-274,-50,426,-3248,2380,90.91,-20.58,-15.72,4.26,-32.48,23.80,-22.92,-17.28,-14.75,-50.14,14.21,-11.09
1602,-304,-75,399,-3197,2371,91.59,-20.38,-14.61,3.99,-31.97,23.71,-22.56,-17.38,-14.73,-55.95,19.23,-7.79
1758,-384,-154,214,-2929,2489,93.15,-20.68,-14.09,2.14,-29.29,24.89,-22.20,-17.47,-14.72,-77.01,30.91,-0.55
1797,-374,-166,180,-2870,2564,94.80,-20.90,-13.69,1.80,-28.70,25.64,-21.83,-17.56,-14.70,-80.09,29.05,0.89
1896,-234,-191,335,-2727,2832,96.88,-20.23,-13.49,3.35,-27.27,28.32,-21.45,-17.64,-14.69,-91.48,9.01,3.22
1929,-148,-197,416,-2668,2942,98.96,-19.11,-13.34,4.16,-26.68,29.42,-21.07,-17.72,-14.67,-92.83,-1.93,3.88
1945,-33,-190,242,-2568,3141,100.93,-17.40,-13.17,2.42,-25.68,31.41,-20.67,-17.80,-14.65,-91.81,-16.18,3.47
1938,-9,-190,246,-2565,3258,102.66,-15.72,-13.01,2.46,-25.65,32.58,-20.27,-17.86,-14.62,-87.73,-16.61,3.64
1837,21,-192,282,-2627,3345,103.60,-14.02,-12.88,2.82,-26.27,33.45,-19.86,-17.92,-14.60,-70.82,-17.92,3.94
1800,-30,-197,267,-2665,3299,104.22,-12.80,-12.79,2.67,-26.65,32.99,-19.45,-17.98,-14.57,-64.27,-7.80,4.46
1672,-303,-214,290,-2654,3465,104.00,-13.37,-12.82,2.90,-26.54,34.65,-19.04,-18.03,-14.54,-45.45,32.79,5.87
1630,-363,-219,312,-2656,3513,103.54,-14.24,-12.87,3.12,-26.56,35.13,-18.63,-18.09,-14.52,-40.17,40.32,6.23
1493,-546,-193,277,-2497,3509,102.29,-16.15,-12.76,2.77,-24.97,35.09,-18.23,-18.16,-14.49,-21.91,64.66,4.14
1420,-672,-117,318,-2420,3530,100.73,-18.64,-12.20,3.18,-24.20,35.30,-17.83,-18.23,-14.47,-14.01,79.22,-1.70
1414,-691,-88,345,-2381,3539,99.28,-20.99,-11.52,3.45,-23.81,35.39,-17.44,-18.32,-14.46,-16.09,77.72,-3.44
1422,-685,48,306,-2302,3557,98.03,-23.07,-10.07,3.06,-23.02,35.57,-17.06,-18.40,-14.45,-19.94,72.92,-13.43
1434,-670,75,315,-2289,3566,96.97,-24.85,-8.61,3.15,-22.89,35.66,-16.69,-18.50,-14.45,-24.01,67.32,-14.17
1461,-601,168,332,-2194,3586,96.19,-26.03,-6.72,3.32,-21.94,35.86,-16.32,-18.59,-14.46,-29.86,54.63,-20.05
1468,-584,187,306,-2189,3555,95.52,-26.99,-4.91,3.06,-21.89,35.55,-15.95,-18.69,-14.48,-32.42,50.28,-19.74
1474,-533,251,442,-1957,3561,94.96,-27.54,-2.89,4.42,-19.57,35.61,-15.59,-18.79,-14.50,-34.64,41.52,-23.02
1459,-506,292,444,-1887,3614,94.36,-27.87,-0.82,4.44,-18.87,36.14,-15.24,-18.88,-14.53,-33.71,36.84,-24.30
1482,-422,392,381,-1757,3568,93.97,-27.66,1.66,3.81,-17.57,35.68,-14.89,-18.97,-14.57,-38.20,24.49,-30.15
1501,-340,465,448,-1653,3665,93.73,-26.97,4.33,4.48,-16.53,36.65,-14.54,-19.06,-14.62,-41.79,13.35,-33.50
1504,-319,477,453,-1624,3650,93.53,-26.22,6.80,4.53,-16.24,36.50,-14.20,-19.14,-14.68,-42.85,11.62,-31.89
1523,-257,486,545,-1489,3664,93.47,-25.16,9.09,5.45,-14.89,36.64,-13.85,-19.21,-14.75,-46.09,4.21,-30.22
1549,-243,484,564,-1426,3631,93.57,-24.13,11.13,5.64,-14.26,36.31,-13.51,-19.28,-14.82,-50.08,4.08,-27.88
1643,-255,453,565,-1332,3568,94.23,-23.27,12.78,5.65,-13.32,35.68,-13.17,-19.34,-14.90,-63.38,7.58,-23.50
1677,-262,441,598,-1275,3565,95.04,-22.54,14.19,5.98,-12.75,35.65,-12.83,-19.40,-14.99,-67.27,10.07,-20.98
1825,-277,400,591,-1126,3618,96.67,-21.98,15.21,5.91,-11.26,36.18,-12.48,-19.46,-15.07,-86.99,13.46,-16.42
1860,-283,385,601,-1091,3611,98.35,-21.51,16.04,6.01,-10.91,36.11,-12.12,-19.51,-15.16,-89.38,15.30,-14.27
1960,-337,310,681,-1023,3597,100.47,-21.41,16.33,6.81,-10.23,35.97,-11.75,-19.57,-15.25,-100.85,23.75,-7.60
1977,-357,283,684,-1010,3598,102.48,-21.45,16.42,6.84,-10.10,35.98,-11.38,-19.62,-15.34,-99.88,26.77,-5.21
2020,-434,184,780,-868,3602,104.56,-21.95,15.90,7.80,-8.68,36.02,-10.99,-19.68,-15.42,-102.76,37.60,2.64
2034,-453,163,760,-832,3603,106.51,-22.52,15.31,7.60,-8.32,36.03,-10.60,-19.74,-15.51,-101.46,39.46,3.79
2128,-500,92,735,-767,3628,108.84,-23.32,14.34,7.35,-7.67,36.28,-10.19,-19.80,-15.59,-111.65,45.16,8.79
2190,-508,62,777,-721,3640,111.31,-24.08,13.28,7.77,-7.21,36.40,-9.78,-19.87,-15.66,-116.70,44.97,10.22
2335,-519,28,817,-647,3642,114.43,-24.84,12.12,8.17,-6.47,36.42,-9.34,-19.94,-15.73,-133.20,45.26,11.88
2376,-525,21,836,-622,3655,117.48,-25.56,11.04,8.36,-6.22,36.55,-8.90,-20.02,-15.79,-133.97,44.87,11.33
2525,-549,33,870,-463,3775,121.13,-26.35,10.14,8.70,-4.63,37.75,-8.43,-20.10,-15.85,-150.08,47.08,9.36
2570,-562,47,915,-428,3797,124.69,-27.15,9.41,9.15,-4.28,37.97,-7.94,-20.19,-15.91,-150.51,47.61,7.41
2738,-635,121,983,-275,3877,128.93,-28.30,9.21,9.83,-2.75,38.77,-7.44,-20.28,-15.96,-168.45,56.61,0.93
2787,-665,143,979,-247,3874,133.04,-29.53,9.16,9.79,-2.47,38.74,-6.91,-20.38,-16.01,-168.49,58.93,-0.98
2961,-803,223,1020,-41,3869,137.79,-31.48,9.60,10.20,-0.41,38.69,-6.37,-20.49,-16.06,-186.37,76.36,-7.28
3002,-837,249,1013,29,3866,142.33,-33.43,10.16,10.13,0.29,38.66,-5.80,-20.60,-16.11,-184.41,77.92,-8.89
3103,-915,409,1072,282,3907,147.02,-35.67,11.64,10.72,2.82,39.07,-5.22,-20.73,-16.17,-191.30,85.66,-20.87
3122,-941,435,999,177,3801,151.36,-37.85,13.13,9.99,1.77,38.01,-4.63,-20.87,-16.24,-186.37,85.60,-21.49
3071,-984,521,1131,550,3640,154.96,-40.06,14.99,11.31,5.50,36.40,-4.02,-21.02,-16.31,-172.18,88.05,-26.79
3028,-996,556,1119,591,3593,157.94,-42.13,16.89,11.19,5.91,35.93,-3.40,-21.18,-16.38,-160.40,86.07,-27.75
2815,-971,677,1192,782,3465,159.31,-43.84,19.33,11.92,7.82,34.65,-2.77,-21.35,-16.47,-125.72,79.13,-35.41
2738,-958,705,1183,812,3403,160.08,-45.30,21.70,11.83,8.12,34.03,-2.15,-21.52,-16.57,-112.93,74.50,-35.26
2395,-868,783,1220,993,3245,158.69,-46.07,24.30,12.20,9.93,32.45,-1.54,-21.70,-16.67,-63.67,59.44,-39.10
2291,-830,796,1225,1056,3227,156.79,-46.52,26.73,12.25,10.56,32.27,-0.93,-21.89,-16.78,-51.80,52.91,-37.63
1901,-662,799,1292,1137,3137,152.71,-45.91,28.93,12.92,11.37,31.37,-0.35,-22.07,-16.90,-0.44,28.57,-35.54
1804,-614,768,1297,1212,3138,148.44,-45.06,30.72,12.97,12.12,31.38,0.21,-22.25,-17.03,5.90,22.97,-31.00
1461,-463,689,1335,1476,3084,142.51,-43.38,31.85,13.35,14.76,30.84,0.75,-22.42,-17.15,46.62,3.24,-23.10
1326,-416,631,1353,1581,3069,136.35,-41.58,32.52,13.53,15.81,30.69,1.26,-22.59,-17.28,55.19,-0.40,-17.47
1099,-345,476,1376,1695,3117,129.42,-39.53,32.17,13.76,16.95,31.17,1.75,-22.76,-17.41,76.36,-7.23,-4.70
1053,-334,430,1395,1700,3114,122.90,-37.61,31.57,13.95,17.00,31.14,2.21,-22.91,-17.54,70.73,-5.18,-1.42
940,-336,259,1388,1685,3143,116.34,-35.90,30.00,13.88,16.85,31.43,2.65,-23.06,-17.65,75.26,-1.54,11.41
926,-348,218,1397,1685,3128,110.36,-34.43,28.33,13.97,16.85,31.28,3.06,-23.20,-17.76,65.78,3.17,13.12
924,-420,112,1399,1705,3119,104.96,-33.55,26.18,13.99,17.05,31.19,3.46,-23.34,-17.86,55.60,15.91,19.84
934,-440,96,1432,1732,3101,100.16,-32.88,24.14,14.32,17.32,31.01,3.84,-23.48,-17.94,44.73,20.32,19.05
987,-504,73,1464,1686,3040,96.16,-32.67,22.18,14.64,16.86,30.40,4.21,-23.62,-18.02,28.84,30.58,18.92
1006,-518,67,1456,1677,3007,92.68,-32.56,20.37,14.56,16.77,30.07,4.57,-23.76,-18.09,19.11,33.01,17.52
1077,-553,64,1499,1700,2941,89.99,-32.68,18.72,14.99,17.00,29.41,4.92,-23.89,-18.16,2.94,38.21,16.03
1116,-559,81,1507,1734,2958,87.79,-32.82,17.34,15.07,17.34,29.58,5.27,-24.03,-18.21,-7.38,38.95,13.14
1181,-565,128,1566,1773,2938,86.22,-32.98,16.39,15.66,17.73,29.38,5.61,-24.17,-18.26,-20.51,39.64,8.15
1205,-579,137,1567,1778,2921,84.95,-33.22,15.59,15.67,17.78,29.21,5.95,-24.31,-18.30,-26.80,41.43,6.54
1322,-660,156,1551,1851,2882,84.52,-33.92,14.98,15.51,18.51,28.82,6.29,-24.46,-18.35,-45.68,52.54,4.30
1362,-682,160,1553,1886,2858,84.37,-34.69,14.46,15.53,18.86,28.58,6.62,-24.60,-18.38,-52.27,54.54,3.41
1542,-752,171,1551,1979,2738,85.34,-35.81,14.05,15.51,19.79,27.38,6.97,-24.75,-18.42,-78.11,63.20,2.05
1600,-770,170,1564,2024,2699,86.57,-36.92,13.69,15.64,20.24,26.99,7.32,-24.91,-18.45,-84.87,63.93,1.75
1839,-782,152,1608,2088,2700,89.13,-38.00,13.24,16.08,20.88,27.00,7.68,-25.07,-18.48,-116.70,63.82,2.81
1901,-773,155,1604,2124,2648,91.81,-38.92,12.87,16.04,21.24,26.48,8.05,-25.23,-18.50,-121.32,60.83,2.16
2040,-799,122,1659,2254,2703,95.08,-39.90,12.32,16.59,22.54,27.03,8.44,-25.40,-18.52,-136.60,63.04,4.38
2103,-838,121,1635,2261,2613,98.40,-41.02,11.83,16.35,22.61,26.13,8.84,-25.57,-18.54,-140.18,66.98,3.94
2339,-972,91,1611,2346,2475,102.82,-42.85,11.20,16.11,23.46,24.75,9.26,-25.75,-18.55,-168.06,84.07,5.82
2388,-1006,84,1632,2375,2449,107.11,-44.70,10.59,16.32,23.75,24.49,9.71,-25.93,-18.55,-167.71,85.87,5.77
2542,-1098,88,1681,2501,2298,111.90,-46.93,10.07,16.81,25.01,22.98,10.17,-26.13,-18.55,-182.42,95.81,4.88
2577,-1121,95,1670,2545,2249,116.43,-49.07,9.64,16.70,25.45,22.49,10.65,-26.33,-18.55,-179.50,95.39,3.83
2671,-1199,122,1694,2690,2015,121.08,-51.48,9.42,16.94,26.90,20.15,11.16,-26.54,-18.54,-185.36,102.86,1.31
2678,-1208,121,1697,2729,1966,125.31,-53.70,9.22,16.97,27.29,19.66,11.68,-26.77,-18.52,-178.77,100.18,1.18
2617,-1177,4,1741,2862,1734,128.74,-55.51,8.32,17.41,28.62,17.34,12.23,-26.99,-18.50,-163.32,92.17,10.14
2587,-1162,12,1854,2680,1700,131.65,-57.05,7.56,18.54,26.80,17.00,12.78,-27.23,-18.47,-153.61,87.13,8.65
2435,-1131,42,1787,2784,1437,133.34,-58.24,7.06,17.87,27.84,14.37,13.35,-27.47,-18.43,-127.60,80.30,5.58
2383,-1097,34,1829,2841,1353,134.54,-59.11,6.56,18.29,28.41,13.53,13.92,-27.71,-18.39,-117.77,73.63,5.72
2302,-1010,32,1837,2894,1271,135.13,-59.36,6.10,18.37,28.94,12.71,14.50,-27.95,-18.34,-104.69,60.04,5.40
2289,-976,39,1860,2910,1250,135.58,-59.38,5.73,18.60,29.10,12.50,15.08,-28.19,-18.28,-102.24,54.98,4.41
2228,-894,78,1844,2899,1107,135.61,-58.89,5.63,18.44,28.99,11.07,15.66,-28.43,-18.23,-93.26,43.55,1.00
2211,-892,88,1845,2901,1036,135.54,-58.44,5.61,18.45,29.01,10.36,16.25,-28.66,-18.17,-91.19,44.25,0.12
2099,-953,134,1862,2975,872,134.79,-58.41,5.86,18.62,29.75,8.72,16.83,-28.90,-18.11,-75.92,53.77,-3.51
2055,-968,155,1886,3008,831,133.84,-58.48,6.22,18.86,30.08,8.31,17.41,-29.13,-18.05,-71.38,56.09,-4.92
1849,-999,232,1897,3092,675,131.74,-58.72,7.02,18.97,30.92,6.75,17.98,-29.37,-17.99,-44.33,60.51,-10.61
1783,-1002,247,1888,3109,630,129.44,-58.96,7.82,18.88,31.09,6.30,18.54,-29.61,-17.93,-38.98,60.67,-11.03
1600,-997,266,1861,3104,472,126.26,-59.15,8.66,18.61,31.04,4.72,19.09,-29.85,-17.87,-17.47,59.72,-11.76
1543,-986,259,1881,3116,426,123.04,-59.25,9.37,18.81,31.16,4.26,19.63,-30.09,-17.81,-15.22,58.01,-10.41
1516,-895,270,1884,3167,413,119.99,-58.78,10.08,18.84,31.67,4.13,20.15,-30.33,-17.75,-17.23,45.17,-10.60
1532,-863,279,1867,3162,369,117.33,-58.17,10.78,18.67,31.62,3.69,20.66,-30.57,-17.70,-25.04,41.61,-10.63
1556,-843,345,1862,3227,221,115.09,-57.49,11.80,18.62,32.27,2.21,21.16,-30.81,-17.64,-33.27,40.00,-15.14
1539,-859,369,1854,3224,211,112.97,-56.98,12.87,18.54,32.24,2.11,21.66,-31.04,-17.59,-35.02,43.56,-16.05
1540,-825,443,1807,3202,96,111.07,-56.32,14.29,18.07,32.02,0.96,22.14,-31.28,-17.55,-39.10,39.79,-20.82
1540,-817,462,1769,3184,20,109.35,-55.67,15.68,17.69,31.84,0.20,22.61,-31.51,-17.51,-42.66,39.95,-20.96
1478,-879,531,1744,3228,-152,107.44,-55.47,17.35,17.44,32.28,-1.52,23.07,-31.75,-17.47,-37.14,49.95,-25.04
1455,-901,560,1755,3253,-157,105.57,-55.41,19.03,17.55,32.53,-1.57,23.53,-31.99,-17.44,-37.47,53.56,-25.72
1326,-842,665,1756,3298,-219,103.10,-55.01,21.18,17.56,32.98,-2.19,23.96,-32.23,-17.41,-22.76,45.49,-32.34
1266,-788,700,1681,3299,-397,100.51,-54.32,23.34,16.81,32.99,-3.97,24.39,-32.47,-17.40,-18.79,38.73,-33.03
1220,-582,758,1613,3328,-702,97.90,-52.43,25.63,16.13,33.28,-7.02,24.80,-32.71,-17.40,-16.99,11.03,-35.52
1209,-511,782,1596,3322,-769,95.49,-50.31,27.83,15.96,33.22,-7.69,25.19,-32.94,-17.40,-20.14,4.39,-35.21
1115,-267,932,1629,3398,-644,92.74,-46.91,30.74,16.29,33.98,-6.44,25.56,-33.17,-17.43,-11.26,-26.23,-44.85
1003,-217,971,1638,3406,-614,89.58,-43.54,33.59,16.38,34.06,-6.14,25.91,-33.39,-17.47,-0.38,-27.33,-45.13
433,-19,1046,1625,3485,-549,83.27,-39.30,36.61,16.25,34.85,-5.49,26.22,-33.60,-17.54,74.37,-49.36,-48.28
283,44,1042,1619,3494,-495,76.67,-35.10,39.30,16.19,34.94,-4.95,26.49,-33.80,-17.62,84.56,-50.89,-45.08
99,337,904,1350,3393,-655,69.60,-29.54,40.89,13.50,33.93,-6.55,26.73,-33.98,-17.72,99.09,-84.91,-31.70
18,350,838,1364,3383,-644,62.75,-24.45,41.91,13.64,33.83,-6.44,26.93,-34.14,-17.84,98.34,-77.14,-25.01
-277,367,648,1433,3474,-627,54.79,-19.76,41.67,14.33,34.74,-6.27,27.09,-34.29,-17.96,128.13,-70.77,-9.16
-317,425,584,1379,3498,-537,47.38,-15.20,41.07,13.79,34.98,-5.37,27.22,-34.42,-18.09,120.11,-70.87,-4.36
-277,569,557,1380,3572,-456,40.95,-10.20,40.36,13.80,35.72,-4.56,27.32,-34.54,-18.23,101.77,-83.31,-2.81
-281,587,553,1325,3565,-437,35.14,-5.60,39.70,13.25,35.65,-4.37,27.39,-34.63,-18.38,91.33,-77.27,-3.16
-491,544,513,1328,3552,-316,28.63,-1.72,38.86,13.28,35.52,-3.16,27.43,-34.71,-18.53,111.00,-63.32,-0.65
-582,527,497,1334,3523,-305,22.22,1.66,38.00,13.34,35.23,-3.05,27.45,-34.78,-18.69,112.72,-54.27,-0.19
-687,615,411,1277,3416,-518,15.80,5.25,36.71,12.77,34.16,-5.18,27.43,-34.83,-18.85,116.60,-60.86,5.75
-705,618,390,1194,3420,-460,9.92,8.49,35.42,11.94,34.20,-4.60,27.40,-34.87,-19.01,108.23,-55.15,6.17
-948,602,371,1216,3479,-360,3.15,11.32,34.14,12.16,34.79,-3.60,27.33,-34.89,-19.17,132.50,-47.35,6.44
-1013,596,381,1192,3482,-354,-3.35,13.82,33.05,11.92,34.82,-3.54,27.24,-34.90,-19.33,130.17,-41.68,4.46
-1099,625,456,1190,3468,-284,-9.71,16.25,32.53,11.90,34.68,-2.84,27.12,-34.90,-19.50,131.30,-41.50,-2.44
-975,711,507,1173,3508,-277,-14.69,18.96,32.37,11.73,35.08,-2.77,26.98,-34.90,-19.67,103.06,-49.48,-6.91
-857,741,638,1124,3570,35,-18.45,21.59,33.02,11.24,35.70,0.35,26.82,-34.88,-19.85,78.05,-49.10,-17.30
-871,762,674,1159,3586,64,-21.92,24.08,33.83,11.59,35.86,0.64,26.64,-34.85,-20.03,73.74,-47.60,-19.48
-812,873,764,1119,3489,123,-24.68,26.99,35.11,11.19,34.89,1.23,26.44,-34.82,-20.23,59.64,-59.03,-25.73
-808,863,765,1093,3452,107,-27.14,29.56,36.26,10.93,34.52,1.07,26.22,-34.78,-20.44,54.51,-52.67,-24.57
-764,828,692,989,3446,174,-29.09,31.65,36.86,9.89,34.46,1.74,26.00,-34.73,-20.66,44.26,-43.40,-17.74
-765,803,688,964,3535,160,-30.84,33.39,37.37,9.64,35.35,1.60,25.76,-34.67,-20.88,41.24,-36.34,-16.84
-594,753,812,902,3649,92,-31.38,34.64,38.59,9.02,36.49,0.92,25.52,-34.61,-21.11,14.30,-26.38,-26.04
-590,745,843,881,3629,160,-31.84,35.72,39.87,8.81,36.29,1.60,25.27,-34.55,-21.35,12.98,-23.15,-27.28
-588,660,943,869,3645,281,-32.25,36.18,41.63,8.69,36.45,2.81,25.02,-34.49,-21.59,12.08,-9.37,-33.86
-598,636,979,849,3690,331,-32.67,36.44,43.44,8.49,36.90,3.31,24.76,-34.43,-21.85,12.98,-5.25,-34.98
-620,642,1002,762,3725,340,-33.18,36.71,45.21,7.62,37.25,3.40,24.50,-34.37,-22.11,15.53,-5.69,-35.03
-634,648,988,754,3727,312,-33.73,36.99,46.72,7.54,37.27,3.12,24.22,-34.31,-22.38,16.81,-6.11,-32.22
-755,722,896,645,3806,328,-34.97,37.70,47.51,6.45,38.06,3.28,23.95,-34.25,-22.65,33.11,-16.11,-23.56
-813,747,875,644,3834,318,-36.43,38.48,48.10,6.44,38.34,3.18,23.66,-34.18,-22.92,39.37,-18.47,-21.14
-1139,874,799,580,3864,451,-39.73,39.97,48.16,5.80,38.64,4.51,23.36,-34.11,-23.20,83.03,-35.08,-14.61
-1244,901,773,585,3858,433,-43.35,41.47,48.06,5.85,38.58,4.33,23.04,-34.03,-23.48,92.40,-36.41,-12.49
-1660,977,658,648,3802,692,-49.14,43.28,47.27,6.48,38.02,6.92,22.71,-33.94,-23.76,145.09,-44.62,-3.56
-1768,994,624,585,3793,734,-55.01,45.01,46.35,5.85,37.93,7.34,22.35,-33.84,-24.04,150.68,-43.99,-1.63
-2122,948,519,500,3792,815,-62.45,46.30,44.88,5.00,37.92,8.15,21.96,-33.73,-24.31,190.83,-34.62,5.74
-2275,891,486,476,3788,943,-70.09,47.10,43.36,4.76,37.88,9.43,21.55,-33.61,-24.58,199.97,-24.48,6.95
-2655,819,429,480,3890,1221,-79.27,47.39,41.64,4.80,38.90,12.21,21.10,-33.49,-24.84,240.82,-13.04,9.98
-2763,818,410,463,3879,1301,-88.20,47.64,39.97,4.63,38.79,13.01,20.63,-33.37,-25.08,240.69,-12.50,9.85
-3239,780,267,333,3791,1322,-99.14,47.63,37.61,3.33,37.91,13.22,20.11,-33.23,-25.32,292.91,-6.80,19.48
-3377,745,213,372,3734,1386,-109.82,47.41,35.14,3.72,37.34,13.86,19.57,-33.10,-25.54,294.07,-1.97,21.47
-3967,570,-8,313,3645,1559,-123.04,46.15,31.58,3.13,36.45,15.59,18.98,-32.96,-25.75,359.40,22.23,36.44
-4133,528,-74,364,3573,1654,-135.95,44.76,27.97,3.64,35.73,16.54,18.35,-32.82,-25.93,360.69,25.91,38.22
-4745,414,-372,317,3360,1749,-151.30,42.81,22.91,3.17,33.60,17.49,17.67,-32.67,-26.09,425.39,39.50,58.12
-4893,397,-450,337,3297,1802,-166.01,40.95,17.87,3.37,32.97,18.02,16.95,-32.53,-26.22,420.56,38.48,59.41
-5418,377,-705,273,3230,1955,-182.46,39.15,11.78,2.73,32.30,19.55,16.19,-32.39,-26.31,469.98,38.04,74.57
-5620,381,-806,302,3060,2097,-198.50,37.56,5.69,3.02,30.60,20.97,15.37,-32.24,-26.38,470.95,34.32,76.68
-5940,441,-1032,384,2619,2416,-214.88,36.49,-1.18,3.84,26.19,24.16,14.51,-32.09,-26.40,489.29,23.05,88.56
-5953,507,-1083,393,2546,2478,-229.71,35.94,-7.67,3.93,25.46,24.78,13.60,-31.93,-26.40,463.79,11.82,86.01
-5909,848,-1196,353,2193,2474,-242.78,37.52,-14.19,3.53,21.93,24.74,12.66,-31.76,-26.37,432.94,-37.30,88.67
-6021,760,-1192,342,2094,2467,-255.23,38.40,-20.05,3.42,20.94,24.67,11.69,-31.58,-26.30,427.08,-22.32,82.13
-5826,747,-1135,427,1567,2729,-265.25,39.12,-24.96,4.27,15.67,27.29,10.68,-31.40,-26.22,379.04,-19.11,72.08
-5775,704,-1103,415,1406,3071,-273.95,39.50,-29.20,4.15,14.06,30.71,9.65,-31.20,-26.11,355.46,-11.95,64.88
-5520,720,-973,466,1078,3323,-280.23,39.94,-32.21,4.66,10.78,33.23,8.59,-31.01,-25.99,305.38,-13.68,50.66
-5401,760,-926,438,992,3448,-285.15,40.58,-34.64,4.38,9.92,34.48,7.53,-30.81,-25.85,278.61,-18.70,44.10
-4900,813,-715,406,652,3551,-286.53,41.48,-35.54,4.06,6.52,35.51,6.46,-30.62,-25.71,200.31,-25.20,25.26
-4676,804,-627,425,499,3659,-286.40,42.24,-35.81,4.25,4.99,36.59,5.39,-30.42,-25.56,167.10,-22.53,17.50
-4171,703,-452,379,294,3774,-283.20,42.31,-34.98,3.79,2.94,37.74,4.33,-30.22,-25.42,96.84,-7.14,3.54
-4013,671,-413,384,230,3796,-279.36,42.17,-34.01,3.84,2.30,37.96,3.28,-30.03,-25.28,80.71,-2.64,1.26
-3363,531,-301,334,60,3900,-271.94,41.19,-32.44,3.34,0.60,39.00,2.26,-29.84,-25.14,-3.68,16.73,-6.59
-3196,490,-273,341,24,3939,-264.24,40.06,-30.86,3.41,0.24,39.39,1.27,-29.66,-25.00,-13.92,20.72,-7.30
-2527,364,-191,324,-144,3964,-253.23,38.27,-28.94,3.24,-1.44,39.64,0.32,-29.49,-24.87,-94.46,36.44,-12.23
-2345,333,-174,312,-180,3982,-242.21,36.48,-27.11,3.12,-1.80,39.82,-0.59,-29.33,-24.75,-100.75,37.66,-11.74
-1779,209,-94,291,-265,4075,-228.84,34.11,-24.97,2.91,-2.65,40.75,-1.45,-29.18,-24.63,-161.17,51.98,-16.26
-1696,153,-70,284,-282,4090,-216.30,31.63,-22.90,2.84,-2.82,40.90,-2.27,-29.04,-24.52,-149.54,55.74,-16.11
-1497,-12,9,246,-428,4007,-203.81,28.39,-20.56,2.46,-4.28,40.07,-3.03,-28.91,-24.42,-155.71,74.69,-20.33
-1444,-60,39,238,-414,3976,-192.23,25.19,-18.26,2.38,-4.14,39.76,-3.76,-28.80,-24.33,-141.40,75.86,-20.45
-1117,54,107,151,-424,3794,-179.82,23.00,-15.78,1.51,-4.24,37.94,-4.45,-28.70,-24.26,-167.31,54.26,-23.60
-1113,63,115,184,-416,3996,-168.63,21.08,-13.50,1.84,-4.16,39.96,-5.09,-28.60,-24.19,-146.30,49.20,-21.87
-1355,51,84,153,-493,3914,-160.03,19.29,-11.64,1.53,-4.93,39.14,-5.70,-28.51,-24.13,-92.70,47.57,-17.27
-1441,44,62,146,-525,3948,-152.82,17.62,-10.10,1.46,-5.25,39.48,-6.29,-28.43,-24.07,-65.54,45.43,-13.78
-1860,-7,-47,191,-696,3867,-148.88,15.82,-9.38,1.91,-6.96,38.67,-6.86,-28.35,-24.02,6.19,49.74,-3.78
-1969,-12,-77,196,-754,3854,-146.01,14.16,-8.91,1.96,-7.54,38.54,-7.43,-28.29,-23.98,28.64,47.33,-0.75
-2385,-46,-171,219,-997,3741,-145.95,12.47,-9.06,2.19,-9.97,37.41,-7.99,-28.22,-23.93,92.55,49.26,7.05
-2488,-47,-188,241,-1070,3736,-146.54,10.93,-9.30,2.41,-10.70,37.36,-8.56,-28.17,-23.88,107.53,46.47,8.23
-2899,-64,-220,240,-1223,3630,-149.57,9.45,-9.71,2.40,-12.23,36.30,-9.14,-28.12,-23.84,164.85,46.22,10.50
-3097,-75,-146,373,-1515,3628,-153.50,8.05,-9.63,3.73,-15.15,36.28,-9.75,-28.08,-23.79,187.99,45.22,4.31
-3480,-53,-100,321,-1121,3547,-159.38,6.92,-9.28,3.21,-11.21,35.47,-10.37,-28.05,-23.75,235.68,39.70,0.78
-3540,-35,-130,327,-1325,3438,-165.03,6.01,-9.14,3.27,-13.25,34.38,-11.01,-28.01,-23.71,234.54,35.22,3.47
-3612,50,-184,221,-1724,3456,-170.56,5.72,-9.35,2.21,-17.24,34.56,-11.69,-27.98,-23.67,235.49,21.67,7.82
-3583,98,-205,216,-1786,3453,-175.36,5.74,-9.67,2.16,-17.86,34.53,-12.38,-27.96,-23.62,222.43,14.38,9.26
-3330,327,-272,154,-2024,3459,-178.14,7.16,-10.36,1.54,-20.24,34.59,-13.07,-27.92,-23.58,179.06,-17.87,14.20
-3245,380,-289,162,-2091,3425,-180.12,8.77,-11.09,1.62,-20.91,34.25,-13.78,-27.88,-23.52,162.81,-22.94,14.86
-3017,454,-348,130,-2323,3461,-180.51,10.66,-12.10,1.30,-23.23,34.61,-14.49,-27.84,-23.46,127.76,-30.67,18.78
-2966,456,-357,122,-2383,3453,-180.55,12.37,-13.07,1.22,-23.83,34.53,-15.19,-27.79,-23.40,120.37,-27.76,18.51
-2653,499,-373,86,-2539,3312,-178.68,14.18,-14.04,0.86,-25.39,33.12,-15.88,-27.74,-23.33,76.64,-30.93,18.84
-2455,488,-364,42,-2595,3277,-175.79,15.74,-14.85,0.42,-25.95,32.77,-16.56,-27.68,-23.25,52.37,-26.34,17.20
-2091,430,-338,19,-2738,3371,-170.97,16.79,-15.43,0.19,-27.38,33.71,-17.21,-27.62,-23.17,6.43,-15.55,14.38
-2006,404,-331,5,-2769,3340,-166.11,17.57,-15.91,0.05,-27.69,33.40,-17.85,-27.56,-23.08,3.09,-10.13,13.28
-1698,311,-304,-42,-2870,3321,-159.85,17.71,-16.17,-0.42,-28.70,33.21,-18.46,-27.50,-22.99,-31.63,4.27,10.70
-1636,285,-297,-50,-2892,3301,-153.85,17.68,-16.36,-0.50,-28.92,33.01,-19.04,-27.44,-22.90,-29.33,8.14,9.90
-1461,214,-273,-49,-2945,3237,-147.37,17.22,-16.39,-0.49,-29.45,32.37,-19.60,-27.39,-22.81,-43.39,18.05,7.82
-1406,168,-275,-37,-2997,3138,-141.21,16.52,-16.43,-0.37,-29.97,31.38,-20.14,-27.33,-22.73,-39.75,23.71,7.94
-1406,155,-276,-60,-2994,3116,-135.67,15.81,-16.47,-0.60,-29.94,31.16,-20.65,-27.28,-22.64,-28.91,24.32,7.98
-1473,101,-244,-25,-2783,3030,-131.09,14.85,-16.31,-0.25,-27.83,30.30,-21.15,-27.24,-22.55,-9.69,30.70,5.43
-1512,89,-212,-71,-2868,2996,-127.20,13.91,-15.98,-0.71,-28.68,29.96,-21.63,-27.19,-22.47,3.93,30.72,3.07
-1730,30,-145,-67,-3111,2817,-125.03,12.70,-15.26,-0.67,-31.11,28.17,-22.10,-27.16,-22.39,41.60,37.40,-1.86
-1787,19,-137,-88,-3131,2791,-123.43,11.55,-14.57,-0.88,-31.31,27.91,-22.57,-27.12,-22.32,53.64,36.87,-1.81
-1982,22,-149,-146,-3326,2719,-123.18,10.53,-14.02,-1.46,-33.26,27.19,-23.05,-27.09,-22.25,84.17,34.46,-0.22
-2024,33,-163,-103,-3331,2711,-123.21,9.67,-13.62,-1.03,-33.31,27.11,-23.52,-27.07,-22.18,90.83,31.15,1.39
-2113,65,-180,-73,-3400,2572,-123.78,9.10,-13.35,-0.73,-34.00,25.72,-24.00,-27.04,-22.12,103.64,25.18,3.10
-2115,63,-180,-61,-3425,2526,-124.30,8.58,-13.11,-0.61,-34.25,25.26,-24.48,-27.02,-22.05,103.27,24.47,3.35
-2018,50,-167,-43,-3522,2381,-124.18,8.02,-12.82,-0.43,-35.22,23.81,-24.96,-27.00,-21.99,89.03,25.40,2.55
-1784,42,-132,-62,-3561,2303,-122.64,7.48,-12.34,-0.62,-35.61,23.03,-25.44,-26.99,-21.94,56.56,25.57,0.09
-1683,44,-120,-58,-3594,2283,-120.65,7.00,-11.84,-0.58,-35.94,22.83,-25.91,-26.97,-21.88,45.26,24.35,-0.40
-1341,52,-134,-123,-3665,2251,-116.76,6.62,-11.48,-1.23,-36.65,22.51,-26.37,-26.96,-21.83,0.76,22.39,1.17
-1174,65,-161,-162,-3676,2281,-112.25,6.35,-11.31,-1.62,-36.76,22.81,-26.81,-26.94,-21.78,-15.87,19.90,3.62
-853,69,-259,-241,-3671,2319,-106.23,6.14,-11.76,-2.41,-36.71,23.19,-27.22,-26.93,-21.73,-53.14,18.87,11.45
-781,64,-289,-268,-3653,2359,-100.37,5.91,-12.35,-2.68,-36.53,23.59,-27.61,-26.92,-21.67,-52.77,19.21,13.36
-602,-58,-419,-279,-3604,2346,-94.00,4.97,-13.67,-2.79,-36.04,23.46,-27.97,-26.92,-21.61,-67.77,36.02,22.97
-564,-141,-466,-261,-3592,2275,-88.04,3.61,-15.14,-2.61,-35.92,22.75,-28.31,-26.92,-21.55,-62.06,46.11,25.39
-422,-592,-682,-298,-3512,2127,-81.81,-0.36,-17.79,-2.98,-35.12,21.27,-28.62,-26.94,-21.49,-71.71,107.38,40.88
-176,-973,-959,-361,-3479,2073,-74.70,-6.26,-21.86,-3.61,-34.79,20.73,-28.90,-26.99,-21.43,-95.58,154.34,60.03
-81,-1028,-1044,-404,-3471,2115,-67.73,-11.90,-26.04,-4.04,-34.71,21.15,-29.15,-27.07,-21.36,-96.68,152.09,62.80
606,-966,-1397,-520,-3481,1963,-57.26,-16.61,-31.96,-5.20,-34.81,19.63,-29.36,-27.18,-21.27,-181.49,133.80,86.43
1279,-1013,-1755,-433,-3464,2118,-43.73,-21.13,-39.47,-4.33,-34.64,21.18,-29.50,-27.32,-21.17,-258.41,132.50,108.80
1506,-1028,-1882,-466,-3433,2197,-30.17,-25.28,-47.00,-4.66,-34.33,21.97,-29.57,-27.49,-21.05,-267.29,127.02,111.57
2174,-839,-2060,-504,-3388,2213,-13.89,-27.87,-54.87,-5.04,-33.88,22.13,-29.57,-27.68,-20.90,-338.33,93.42,118.31
2916,-643,-2148,-376,-3347,2296,5.28,-29.01,-62.48,-3.76,-33.47,22.96,-29.48,-27.89,-20.73,-415.23,61.52,117.68
3090,-595,-2161,-376,-3300,2306,23.60,-29.74,-69.42,-3.76,-33.00,23.06,-29.30,-28.11,-20.53,-407.18,52.97,111.43
3586,-429,-2182,-518,-3198,2598,43.12,-29.38,-75.79,-5.18,-31.98,25.98,-29.03,-28.35,-20.30,-446.04,28.49,106.44
3782,-307,-2220,-61,-3107,2733,61.88,-28.31,-81.75,-0.61,-31.07,27.33,-28.67,-28.59,-20.04,-440.64,12.06,103.32
3796,-315,-2227,-74,-3103,2671,78.84,-27.40,-87.16,-0.74,-31.03,26.71,-28.22,-28.84,-19.76,-410.93,15.17,98.16
4166,-46,-2225,-1474,-2944,2869,96.37,-24.95,-92.02,-14.74,-29.44,28.69,-27.69,-29.08,-19.44,-434.51,-21.04,92.82
4212,208,-2251,-1154,-2915,3132,112.43,-21.18,-96.55,-11.54,-29.15,31.32,-27.08,-29.32,-19.10,-411.52,-52.49,90.20
4113,233,-2259,-1002,-2868,3190,126.28,-17.64,-100.67,-10.02,-28.68,31.90,-26.40,-29.55,-18.72,-370.65,-49.44,86.47
3507,272,-2137,-1264,-2528,3502,135.04,-14.22,-103.64,-12.64,-25.28,35.02,-25.66,-29.77,-18.33,-262.11,-48.77,72.96
3330,288,-2066,-1142,-2539,3547,141.85,-11.04,-105.88,-11.42,-25.39,35.47,-24.89,-29.97,-17.91,-222.73,-45.05,64.53
2741,289,-1779,-1007,-2543,3658,144.38,-8.17,-106.14,-10.07,-25.43,36.58,-24.10,-30.16,-17.48,-128.63,-39.65,39.90
2290,227,-1433,-1141,-2630,3721,143.92,-5.97,-104.27,-11.41,-26.30,37.21,-23.31,-30.33,-17.05,-61.26,-25.91,12.53
2208,191,-1337,-1153,-2622,3707,142.99,-4.21,-102.00,-11.53,-26.22,37.07,-22.53,-30.49,-16.63,-51.02,-16.98,6.77
2010,-9,-910,-1065,-2450,3646,140.95,-3.84,-97.35,-10.65,-24.50,36.46,-21.76,-30.64,-16.22,-25.19,14.31,-24.53
1925,-137,-402,-968,-2180,3646,138.60,-4.29,-90.07,-9.68,-21.80,36.46,-21.02,-30.77,-15.84,-17.18,33.06,-59.89
1905,-147,-264,-955,-2116,3624,136.36,-4.76,-82.67,-9.55,-21.16,36.24,-20.30,-30.89,-15.49,-18.85,33.78,-63.78
1810,-178,205,-978,-1843,3404,133.77,-5.37,-73.15,-9.78,-18.43,34.04,-19.60,-30.99,-15.18,-9.73,37.42,-93.46
1783,-191,309,-982,-1784,3315,131.27,-6.00,-63.95,-9.82,-17.84,33.15,-18.94,-31.08,-14.91,-10.79,38.28,-92.56
1651,-205,598,-878,-1553,3021,128.21,-6.65,-53.91,-8.78,-15.53,30.21,-18.31,-31.16,-14.68,3.14,39.23,-106.43
1618,-181,632,-903,-1495,2974,125.26,-7.09,-44.66,-9.03,-14.95,29.74,-17.72,-31.22,-14.49,2.19,34.78,-99.53
1515,61,724,-1129,-1301,2978,121.97,-6.01,-35.78,-11.29,-13.01,29.78,-17.16,-31.27,-14.34,11.31,-0.04,-97.94
1499,178,736,-1219,-1275,3012,118.92,-4.32,-27.71,-12.19,-12.75,30.12,-16.62,-31.31,-14.23,7.61,-14.67,-90.42
1265,626,736,-1537,-1175,3219,114.75,-0.07,-20.45,-15.37,-11.75,32.19,-16.12,-31.31,-14.13,35.05,-74.93,-82.74
839,1020,594,-1344,-1055,3254,108.39,6.16,-14.78,-13.44,-10.55,32.54,-15.64,-31.29,-14.06,87.67,-123.23,-64.71
771,1106,605,-1328,-1124,3186,102.25,12.29,-9.61,-13.28,-11.24,31.86,-15.21,-31.24,-14.00,86.13,-124.77,-60.18
517,1199,552,-1184,-989,3203,95.18,18.37,-5.29,-11.84,-9.89,32.03,-14.80,-31.16,-13.96,111.20,-127.48,-51.11
427,1199,529,-1157,-893,3302,88.27,23.85,-1.53,-11.57,-8.93,33.02,-14.43,-31.05,-13.92,111.59,-117.18,-45.19
77,1288,509,-1328,-720,3511,79.91,29.32,1.73,-13.28,-7.20,35.11,-14.10,-30.92,-13.90,148.91,-120.48,-40.04
-93,1338,513,-1468,-708,3598,71.35,34.55,4.68,-14.68,-7.08,35.98,-13.80,-30.76,-13.88,158.43,-118.30,-37.25
-398,1383,512,-1584,-809,3635,61.79,39.53,7.34,-15.84,-8.09,36.35,-13.55,-30.59,-13.87,186.67,-115.84,-34.36
-451,1360,499,-1543,-851,3579,52.86,43.88,9.65,-15.43,-8.51,35.79,-13.34,-30.39,-13.86,177.69,-104.24,-30.81
-563,1206,417,-1517,-945,3620,44.14,46.84,11.23,-15.17,-9.45,36.20,-13.16,-30.18,-13.86,178.14,-75.27,-22.19
-562,1167,399,-1541,-945,3582,36.30,49.28,12.54,-15.41,-9.45,35.82,-13.02,-29.96,-13.87,163.04,-64.86,-19.28
-382,1140,396,-1599,-932,3608,30.34,51.31,13.70,-15.99,-9.32,36.08,-12.90,-29.74,-13.88,124.23,-57.05,-17.79
-127,1173,444,-1716,-924,3649,26.53,53.33,15.04,-17.16,-9.24,36.49,-12.80,-29.50,-13.89,78.06,-58.41,-20.44
-43,1191,456,-1757,-927,3658,23.61,55.26,16.32,-17.57,-9.27,36.58,-12.72,-29.25,-13.91,59.67,-57.65,-20.10
99,1108,436,-1723,-870,3720,21.86,56.49,17.34,-17.23,-8.70,37.20,-12.64,-29.00,-13.93,34.64,-42.83,-17.32
126,1072,425,-1769,-871,3736,20.44,57.38,18.20,-17.69,-8.71,37.36,-12.57,-28.74,-13.95,27.79,-35.82,-15.48
353,978,342,-1955,-872,3668,20.55,57.61,18.47,-19.55,-8.72,36.68,-12.50,-28.49,-13.98,-6.66,-21.23,-8.16
407,937,337,-1973,-841,3637,20.98,57.57,18.68,-19.73,-8.41,36.37,-12.43,-28.23,-14.01,-14.14,-15.23,-7.51
675,801,260,-1822,-712,3578,23.00,56.70,18.40,-18.22,-7.12,35.78,-12.35,-27.98,-14.03,-51.23,3.69,-1.29
729,762,228,-1772,-692,3607,25.14,55.67,17.95,-17.72,-6.92,36.07,-12.26,-27.73,-14.06,-55.46,7.54,0.95
931,608,98,-1791,-686,3370,28.31,53.82,16.75,-17.91,-6.86,33.70,-12.16,-27.49,-14.08,-80.34,27.35,10.70
967,528,46,-1820,-720,3375,31.38,51.65,15.36,-18.20,-7.20,33.75,-12.04,-27.26,-14.10,-80.10,35.30,13.63
956,313,-118,-1958,-874,3274,34.07,48.40,13.10,-19.58,-8.74,32.74,-11.91,-27.04,-14.11,-73.40,61.78,25.14
945,290,-152,-1965,-906,3259,36.43,45.33,10.86,-19.65,-9.06,32.59,-11.77,-26.84,-14.12,-67.35,59.34,25.65
877,268,-209,-2000,-1057,3095,38.13,42.43,8.50,-20.00,-10.57,30.95,-11.62,-26.65,-14.12,-53.85,57.08,27.98
859,290,-199,-2009,-1073,3109,39.56,39.96,6.44,-20.09,-10.73,31.09,-11.46,-26.47,-14.11,-48.51,48.92,24.95
717,470,-46,-2035,-1123,3169,39.98,38.83,5.51,-20.35,-11.23,31.69,-11.30,-26.30,-14.10,-26.17,19.22,11.00
669,514,4,-2021,-1111,3207,40.06,38.08,4.99,-20.21,-11.11,32.07,-11.13,-26.13,-14.09,-18.80,10.98,6.21
444,581,248,-2110,-1204,3274,38.76,37.82,6.00,-21.10,-12.04,32.74,-10.98,-25.96,-14.09,12.95,0.15,-13.39
379,573,323,-2115,-1177,3299,37.20,37.53,7.37,-21.15,-11.77,32.99,-10.83,-25.79,-14.09,19.81,0.72,-18.29
59,444,654,-2061,-992,3235,33.84,36.49,10.62,-20.61,-9.92,32.35,-10.71,-25.62,-14.11,62.16,18.30,-42.89
-72,396,754,-2040,-1030,3236,30.02,35.25,14.16,-20.40,-10.30,32.36,-10.60,-25.45,-14.14,74.83,23.18,-47.61
-457,284,941,-2119,-1019,3072,24.23,33.46,18.48,-21.19,-10.19,30.72,-10.53,-25.29,-14.19,122.53,36.75,-58.87
-543,286,975,-2168,-994,3102,18.49,31.86,22.58,-21.68,-9.94,31.02,-10.49,-25.13,-14.27,124.75,33.31,-57.41
-702,555,1040,-2426,-1021,3211,12.36,32.06,26.67,-24.26,-10.21,32.11,-10.48,-24.97,-14.36,137.38,-7.44,-58.58
-706,675,1034,-2503,-1046,3295,6.82,32.97,30.31,-25.03,-10.46,32.95,-10.50,-24.80,-14.46,127.51,-24.12,-54.21
-965,1036,985,-2577,-1162,3758,0.25,35.99,33.29,-25.77,-11.62,37.58,-10.55,-24.62,-14.58,154.60,-73.57,-46.89
-1126,1020,969,-2532,-1216,3834,-6.64,38.61,35.87,-25.32,-12.16,38.34,-10.63,-24.43,-14.71,166.15,-66.29,-42.79
-1314,952,904,-2548,-1418,3531,-13.99,40.56,37.80,-25.48,-14.18,35.31,-10.74,-24.22,-14.84,180.97,-52.37,-35.23
-1116,581,939,-2422,-1531,3869,-19.40,40.05,39.74,-24.22,-15.31,38.69,-10.88,-24.02,-14.98,140.62,3.10,-36.12
-1104,449,968,-2434,-1544,3944,-24.20,38.78,41.68,-24.34,-15.44,39.44,-11.04,-23.82,-15.12,129.82,20.70,-36.52
-1008,42,1217,-2463,-1508,3993,-27.93,35.16,44.93,-24.63,-15.08,39.93,-11.22,-23.63,-15.29,108.23,75.78,-54.15
-1000,-81,1329,-2475,-1483,4055,-31.23,31.15,48.55,-24.75,-14.83,40.55,-11.42,-23.45,-15.47,100.88,86.83,-59.80
-912,-345,1627,-2510,-1481,4051,-33.67,25.93,53.62,-25.10,-14.81,40.51,-11.64,-23.29,-15.68,82.99,117.10,-79.66
-780,-690,1735,-2377,-1458,3841,-35.06,19.13,58.84,-23.77,-14.58,38.41,-11.88,-23.15,-15.91,60.38,156.73,-83.26
-740,-808,1727,-2330,-1472,3793,-36.07,12.29,63.49,-23.30,-14.72,37.93,-12.13,-23.03,-16.17,52.53,161.69,-77.63
-491,-1275,1599,-2227,-1698,3448,-35.46,3.28,66.89,-22.27,-16.98,34.48,-12.38,-22.95,-16.46,15.89,215.80,-63.16
-418,-1350,1568,-2211,-1787,3365,-34.46,-5.28,69.77,-22.11,-17.87,33.65,-12.64,-22.89,-16.76,6.81,210.98,-57.46
-121,-1460,1586,-2115,-2027,3133,-31.76,-13.66,72.47,-21.15,-20.27,31.33,-12.90,-22.86,-17.08,-33.18,211.87,-56.10
142,-1217,1729,-2121,-2296,3107,-27.71,-19.72,75.77,-21.21,-22.96,31.07,-13.15,-22.86,-17.42,-65.46,163.33,-64.69
179,-1122,1786,-2072,-2144,3181,-23.85,-24.59,79.08,-20.72,-21.44,31.81,-13.39,-22.86,-17.79,-63.63,139.62,-65.97
-62,-897,2087,-1963,-1914,3354,-21.84,-27.60,83.91,-19.63,-19.14,33.54,-13.63,-22.87,-18.17,-22.92,99.61,-86.33
-513,-858,2346,-1789,-1997,3285,-22.79,-30.08,89.83,-17.89,-19.97,32.85,-13.89,-22.89,-18.58,44.24,88.99,-101.97
-585,-851,2399,-1747,-1984,3253,-24.08,-32.26,95.48,-17.47,-19.84,32.53,-14.16,-22.91,-19.02,52.96,83.80,-100.44
-330,-656,2521,-1664,-1959,3086,-23.68,-33.04,101.31,-16.64,-19.59,30.86,-14.45,-22.92,-19.49,15.00,52.60,-104.56
-174,-704,2490,-1537,-1811,3454,-22.38,-34.03,106.37,-15.37,-18.11,34.54,-14.73,-22.93,-19.97,-6.12,58.05,-96.53
-167,-783,2453,-1470,-1652,3383,-21.16,-35.40,110.69,-14.70,-16.52,33.83,-15.02,-22.93,-20.48,-4.69,67.50,-88.77
-196,-951,2326,-1375,-1282,3449,-20.24,-37.66,113.81,-13.75,-12.82,34.49,-15.30,-22.94,-21.00,1.66,88.84,-74.66
-194,-976,2281,-1339,-1225,3394,-19.40,-39.85,116.35,-13.39,-12.25,33.94,-15.59,-22.95,-21.53,3.14,88.52,-68.12
41,-1003,2004,-1253,-1391,3308,-17.21,-41.98,116.94,-12.53,-13.91,33.08,-15.87,-22.97,-22.07,-28.37,88.61,-43.98
742,-843,1490,-1114,-1848,3404,-10.96,-42.93,114.33,-11.14,-18.48,34.04,-16.13,-22.99,-22.60,-123.27,62.43,-3.14
792,-908,1300,-1108,-1699,3678,-5.03,-44.17,110.83,-11.08,-16.99,36.78,-16.35,-23.02,-23.12,-119.52,70.00,9.30
995,-1021,616,-1045,-1356,3648,1.54,-45.98,103.50,-10.45,-13.56,36.48,-16.54,-23.07,-23.61,-137.90,83.83,59.53
1557,-1070,56,-862,-1380,3608,10.88,-47.91,93.49,-8.62,-13.80,36.08,-16.68,-23.13,-24.06,-205.82,87.69,96.42
1662,-1101,-71,-832,-1409,3618,19.93,-49.84,83.71,-8.32,-14.09,36.18,-16.76,-23.20,-24.47,-204.64,88.83,96.86
1733,-1308,-430,-691,-1685,3593,28.51,-52.83,72.72,-6.91,-16.85,35.93,-16.80,-23.30,-24.85,-199.20,114.79,115.67
1749,-1349,-517,-633,-1814,3557,36.33,-55.78,62.29,-6.33,-18.14,35.57,-16.79,-23.43,-25.18,-186.83,115.54,112.03
2175,-1199,-659,-480,-1984,3401,45.96,-57.51,52.04,-4.80,-19.84,34.01,-16.73,-23.57,-25.47,-233.59,89.47,113.23
2093,-1129,-650,-358,-2106,3369,54.13,-58.65,42.87,-3.58,-21.06,33.69,-16.62,-23.73,-25.73,-205.68,76.75,102.78
2063,-1094,-602,-444,-2036,3390,61.31,-59.46,34.91,-4.44,-20.36,33.90,-16.48,-23.91,-25.95,-187.62,70.00,90.31
1832,-983,-504,-304,-1919,3519,66.35,-59.51,28.35,-3.04,-19.19,35.19,-16.30,-24.09,-26.15,-142.96,53.10,75.07
1777,-944,-457,-292,-1932,3502,70.55,-59.32,22.73,-2.92,-19.32,35.02,-16.09,-24.27,-26.32,-126.74,47.64,65.15
1579,-868,-258,-255,-1898,3602,73.13,-58.68,18.88,-2.55,-18.98,36.02,-15.87,-24.46,-26.47,-91.81,37.38,44.23
1528,-836,-85,-158,-1671,3551,75.14,-57.91,16.47,-1.58,-16.71,35.51,-15.63,-24.65,-26.61,-80.39,34.08,27.04
1550,-834,-55,-161,-1581,3528,77.08,-57.21,14.49,-1.61,-15.81,35.28,-15.38,-24.84,-26.75,-80.23,35.23,22.41
1802,-738,-25,-177,-1337,3570,80.36,-55.99,12.89,-1.77,-13.37,35.70,-15.12,-25.02,-26.87,-112.62,23.02,18.18
1960,-673,-61,-222,-1265,3626,84.28,-54.49,11.23,-2.22,-12.65,36.26,-14.83,-25.21,-26.98,-129.48,16.06,19.48
2185,-536,-202,-254,-1153,3969,89.18,-52.31,8.87,-2.54,-11.53,39.69,-14.51,-25.38,-27.08,-154.72,-0.59,28.95
2186,-534,-243,-224,-1135,4027,93.60,-50.34,6.50,-2.24,-11.35,40.27,-14.18,-25.55,-27.16,-146.73,2.96,29.92
2082,-657,-367,-103,-1090,4022,96.94,-49.31,3.61,-1.03,-10.90,40.22,-13.82,-25.73,-27.23,-124.78,23.77,37.37
2101,-680,-383,-82,-1064,4007,100.06,-48.53,0.92,-0.82,-10.64,40.07,-13.44,-25.90,-27.28,-122.01,28.87,35.87
2552,-667,-370,68,-894,3813,105.62,-47.75,-1.43,0.68,-8.94,38.13,-13.04,-26.07,-27.33,-180.52,28.49,32.29
2681,-695,-314,32,-717,3792,111.42,-47.21,-3.20,0.32,-7.17,37.92,-12.61,-26.24,-27.36,-189.51,33.89,25.67
2707,-671,-301,38,-676,3801,116.79,-46.58,-4.72,0.38,-6.76,38.01,-12.15,-26.41,-27.38,-183.61,31.53,22.97
2738,-626,-268,158,-558,3638,121.81,-45.74,-5.88,1.58,-5.58,36.38,-11.67,-26.57,-27.40,-179.14,26.37,18.94
2758,-606,-266,191,-529,3623,126.45,-44.87,-6.92,1.91,-5.29,36.23,-11.16,-26.74,-27.40,-173.73,25.09,17.68
2820,-543,-251,240,-356,3564,131.01,-43.69,-7.76,2.40,-3.56,35.64,-10.63,-26.90,-27.41,-174.90,17.81,15.52
2837,-513,-240,241,-317,3588,135.21,-42.45,-8.44,2.41,-3.17,35.88,-10.09,-27.06,-27.40,-169.89,15.69,13.86
2829,-401,-158,251,-18,3578,138.95,-40.65,-8.56,2.51,-0.18,35.78,-9.52,-27.21,-27.39,-161.97,2.12,6.78
2818,-379,-118,254,112,3540,142.24,-38.90,-8.43,2.54,1.12,35.40,-8.94,-27.35,-27.38,-154.43,2.18,3.54
2766,-359,3,320,590,3353,144.89,-37.20,-7.57,3.20,5.90,33.53,-8.34,-27.49,-27.36,-141.88,2.44,-5.80
2757,-345,47,368,866,3303,147.22,-35.58,-6.52,3.68,8.66,33.03,-7.74,-27.63,-27.35,-136.50,3.45,-8.43
2956,-48,-178,212,250,3272,150.53,-32.32,-6.96,2.12,2.50,32.72,-7.12,-27.74,-27.33,-160.99,-35.58,10.17
3050,92,-206,263,521,3281,154.08,-28.53,-7.52,2.63,5.21,32.81,-6.48,-27.85,-27.31,-169.01,-49.68,11.95
2811,306,-475,271,816,3688,155.82,-23.81,-9.66,2.71,8.16,36.88,-5.83,-27.93,-27.27,-129.70,-73.32,32.47
2601,283,-545,278,810,3715,156.11,-19.70,-12.02,2.78,8.10,37.15,-5.18,-28.00,-27.22,-97.57,-61.98,35.89
2119,340,-594,222,813,3425,153.42,-15.66,-14.44,2.22,8.13,34.25,-4.52,-28.06,-27.16,-29.58,-62.98,37.48
2189,340,-545,210,778,3348,151.43,-12.02,-16.32,2.10,7.78,33.48,-3.87,-28.10,-27.08,-44.46,-56.06,31.33
2095,122,-277,253,851,3599,149.07,-10.07,-16.38,2.53,8.51,35.99,-3.23,-28.13,-27.00,-35.02,-19.11,8.55
1990,30,-199,236,923,3674,146.30,-8.88,-15.96,2.36,9.23,36.74,-2.60,-28.15,-26.93,-24.67,-2.81,2.39
1697,-121,18,186,1223,3440,142.02,-8.73,-14.25,1.86,12.23,34.40,-1.99,-28.18,-26.86,11.51,20.52,-14.20
1590,-164,66,211,1288,3440,137.52,-8.86,-12.42,2.11,12.88,34.40,-1.40,-28.20,-26.80,18.91,26.85,-16.33
1466,-123,177,155,1520,3107,132.71,-8.72,-10.10,1.55,15.20,31.07,-0.83,-28.23,-26.75,28.34,20.87,-23.28
1502,-68,180,151,1575,3109,128.60,-8.26,-7.99,1.51,15.75,31.09,-0.29,-28.25,-26.70,14.70,13.36,-21.31
1749,223,132,98,1773,3088,126.41,-6.08,-6.39,0.98,17.73,30.88,0.25,-28.26,-26.67,-27.47,-26.86,-15.55
1764,272,110,91,1801,3195,124.53,-3.81,-5.08,0.91,18.01,31.95,0.77,-28.27,-26.64,-33.66,-30.04,-12.30
1345,216,69,67,1933,3322,120.28,-2.11,-4.15,0.67,19.33,33.22,1.28,-28.27,-26.61,21.86,-18.28,-7.85
1250,193,79,85,1967,3365,115.88,-0.72,-3.25,0.85,19.67,33.65,1.76,-28.26,-26.59,27.68,-12.15,-7.74
1047,118,130,87,2028,3177,110.68,0.07,-2.13,0.87,20.28,31.77,2.23,-28.25,-26.57,48.48,0.78,-10.88
1120,175,145,120,2079,3110,106.44,1.13,-1.04,1.20,20.79,31.10,2.67,-28.23,-26.56,29.04,-5.92,-10.99
1314,219,169,80,2178,3127,103.81,2.35,0.10,0.80,21.78,31.27,3.10,-28.21,-26.55,-5.81,-10.32,-11.82
1309,231,158,44,2196,3145,101.42,3.53,1.05,0.44,21.96,31.45,3.52,-28.19,-26.55,-9.87,-9.95,-9.88
1212,290,104,-41,2290,3179,98.67,4.94,1.58,-0.41,22.90,31.79,3.93,-28.16,-26.55,-0.55,-16.28,-4.75
1192,313,87,-34,2288,3186,96.07,6.36,1.95,-0.34,22.88,31.86,4.32,-28.12,-26.55,-2.67,-17.13,-2.91
1078,299,11,-5,2238,3202,93.04,7.55,1.83,-0.05,22.38,32.02,4.71,-28.08,-26.56,8.72,-12.77,3.39
1048,290,-5,-11,2231,3216,90.13,8.56,1.61,-0.11,22.31,32.16,5.08,-28.04,-26.56,7.53,-9.51,4.52
949,229,-18,-27,2230,3288,86.91,9.10,1.34,-0.27,22.30,32.88,5.43,-27.99,-26.56,16.29,0.79,5.34
759,133,-2,-21,2217,3219,82.84,9.00,1.19,-0.21,22.17,32.19,5.78,-27.94,-26.57,37.35,15.21,3.83
683,91,4,-17,2207,3200,78.73,8.66,1.10,-0.17,22.07,32.00,6.10,-27.90,-26.57,40.92,20.93,3.22
401,-12,14,-27,2253,2987,73.30,7.72,1.08,-0.27,22.53,29.87,6.41,-27.86,-26.57,73.45,34.83,2.34
303,-38,15,-19,2284,2909,67.82,6.71,1.06,-0.19,22.84,29.09,6.69,-27.82,-26.57,77.82,36.87,2.24
-75,-31,16,-17,2226,2720,60.58,5.85,1.05,-0.17,22.26,27.20,6.95,-27.79,-26.57,121.59,34.15,2.15
-191,2,-3,-15,2215,2699,53.36,5.28,0.93,-0.15,22.15,26.99,7.17,-27.75,-26.57,125.45,28.01,3.63
-654,227,-80,-47,2340,2582,44.03,6.14,0.35,-0.47,23.40,25.82,7.36,-27.72,-26.57,178.27,-4.70,9.54
-792,288,-97,-55,2333,2593,34.80,7.28,-0.28,-0.55,23.33,25.93,7.52,-27.68,-26.56,181.72,-11.86,10.31
-1391,515,-160,-125,2339,2838,22.83,9.69,-1.23,-1.25,23.39,28.38,7.62,-27.63,-26.56,250.34,-41.94,14.65
-1708,591,-175,-177,2277,2927,10.13,12.33,-2.17,-1.77,22.77,29.27,7.68,-27.57,-26.55,274.59,-48.58,14.92
-2368,629,-225,-197,2166,3120,-5.33,14.93,-3.33,-1.97,21.66,31.20,7.68,-27.49,-26.53,345.96,-49.49,17.93
-2532,619,-243,-188,2137,3162,-20.24,17.22,-4.48,-1.88,21.37,31.62,7.61,-27.41,-26.52,342.77,-43.70,18.23
-3112,529,-340,-208,2030,3239,-37.20,18.72,-6.10,-2.08,20.30,32.39,7.49,-27.32,-26.50,399.18,-27.18,24.73
-3263,496,-371,-212,1997,3234,-53.38,19.87,-7.76,-2.12,19.97,32.34,7.30,-27.22,-26.47,391.68,-20.03,25.60
-3773,391,-520,-83,1747,3142,-71.06,20.27,-10.15,-0.83,17.47,31.42,7.04,-27.13,-26.43,436.15,-3.33,35.68
-3875,373,-571,-63,1683,3120,-87.59,20.52,-12.62,-0.63,16.83,31.20,6.72,-27.02,-26.38,420.60,-0.18,37.39
-3979,535,-753,-143,1522,3225,-103.10,21.73,-15.95,-1.43,15.22,32.25,6.35,-26.92,-26.31,407.33,-22.66,49.27
-3911,630,-784,-187,1449,3248,-116.65,23.40,-19.14,-1.87,14.49,32.48,5.93,-26.80,-26.23,371.58,-34.06,48.52
-3814,764,-895,-170,1043,3880,-128.25,25.72,-22.68,-1.70,10.43,38.80,5.46,-26.67,-26.14,335.12,-50.19,54.16
-3930,785,-954,-172,824,3917,-139.40,27.94,-26.24,-1.72,8.24,39.17,4.95,-26.54,-26.03,332.03,-49.28,55.39
-4123,649,-965,-191,518,3939,-150.61,29.10,-29.50,-1.91,5.18,39.39,4.41,-26.39,-25.91,340.59,-26.43,52.85
-4140,618,-937,-164,447,3933,-160.80,29.96,-32.26,-1.64,4.47,39.33,3.82,-26.25,-25.78,324.27,-20.17,47.54
-3918,556,-767,-143,115,3739,-168.62,30.36,-33.72,-1.43,1.15,37.39,3.21,-26.10,-25.63,276.01,-10.06,31.59
-3837,488,-706,-119,113,3669,-175.17,30.30,-34.65,-1.19,1.13,36.69,2.57,-25.96,-25.49,251.68,0.10,25.42
-3718,295,-448,-124,-50,4035,-180.33,29.07,-33.92,-1.24,-0.50,40.35,1.91,-25.82,-25.34,224.19,27.11,4.32
-3732,226,-387,-119,-105,3957,-185.06,27.54,-32.89,-1.19,-1.05,39.57,1.23,-25.69,-25.20,217.81,34.65,0.23
-3615,96,-223,-185,-424,3977,-188.61,25.37,-30.96,-1.85,-4.24,39.77,0.53,-25.57,-25.07,193.72,50.29,-11.63
-3600,68,-202,-207,-508,3977,-191.71,23.25,-29.10,-2.07,-5.08,39.77,-0.19,-25.46,-24.94,186.03,50.47,-11.45
-3502,37,-126,-275,-680,3919,-193.90,21.15,-26.95,-2.75,-6.80,39.19,-0.92,-25.36,-24.82,167.42,51.15,-15.63
-3501,6,-77,-273,-756,3901,-195.86,19.07,-24.73,-2.73,-7.56,39.01,-1.66,-25.27,-24.71,164.03,51.89,-17.44
-3585,-61,13,-276,-989,3912,-198.15,16.79,-22.18,-2.76,-9.89,39.12,-2.41,-25.19,-24.62,173.02,57.73,-22.37
-3643,-76,29,-242,-1042,3915,-200.55,14.65,-19.78,-2.42,-10.42,39.15,-3.19,-25.12,-24.53,177.81,55.92,-21.20
-3926,-149,98,-154,-1225,3774,-204.45,12.28,-17.21,-1.54,-12.25,37.74,-3.98,-25.06,-24.45,214.12,62.51,-24.32
-4002,-170,119,-121,-1274,3726,-208.41,10.01,-14.76,-1.21,-12.74,37.26,-4.79,-25.01,-24.39,218.73,61.39,-23.52
-4229,-204,405,-78,-1877,3578,-213.37,7.77,-10.81,-0.78,-18.77,35.78,-5.64,-24.97,-24.35,244.52,62.30,-43.57
-4165,-34,235,-261,-1688,3303,-217.44,6.78,-8.30,-2.61,-16.88,33.03,-6.50,-24.93,-24.31,227.63,34.49,-26.51
-4110,19,264,-169,-1840,3337,-220.77,6.22,-5.86,-1.69,-18.40,33.37,-7.39,-24.90,-24.29,213.52,25.32,-26.38
-3836,285,294,-213,-2347,3252,-222.09,7.34,-3.48,-2.13,-23.47,32.52,-8.28,-24.86,-24.27,169.82,-13.16,-26.41
-3800,338,295,-206,-2387,3277,-223.06,8.66,-1.33,-2.06,-23.87,32.77,-9.19,-24.82,-24.27,163.09,-18.76,-24.22
-3795,439,319,-255,-2520,3378,-223.90,10.48,0.75,-2.55,-25.20,33.78,-10.09,-24.76,-24.27,161.33,-30.76,-24.05
-3823,435,329,-227,-2543,3376,-224.83,12.08,2.68,-2.27,-25.43,33.76,-11.01,-24.70,-24.28,164.44,-27.15,-22.85
-3509,524,416,-193,-2699,2943,-223.76,14.07,4.95,-1.93,-26.99,29.43,-11.92,-24.63,-24.29,119.20,-37.01,-27.82
-3432,502,439,-152,-2788,3061,-222.32,15.73,7.13,-1.52,-27.88,30.61,-12.83,-24.55,-24.32,110.79,-30.57,-27.45
-3265,373,462,-246,-3101,2930,-220.00,16.43,9.24,-2.46,-31.01,29.30,-13.74,-24.47,-24.34,90.30,-9.62,-27.17
-3135,358,398,-346,-3226,2920,-217.12,16.97,10.74,-3.46,-32.26,29.20,-14.64,-24.38,-24.38,76.52,-6.37,-20.15
-3110,377,409,-317,-3020,2861,-214.38,17.57,12.16,-3.17,-30.20,28.61,-15.52,-24.29,-24.42,78.48,-8.18,-19.58
-3016,453,510,-248,-3312,2704,-211.34,18.58,14.06,-2.48,-33.12,27.04,-16.40,-24.19,-24.46,70.48,-17.93,-26.12
-2974,469,521,-275,-3369,2626,-208.35,19.58,15.83,-2.75,-33.69,26.26,-17.27,-24.09,-24.51,70.32,-18.54,-25.17
-2717,507,508,-347,-3597,2574,-204.09,20.72,17.35,-3.47,-35.97,25.74,-18.12,-23.98,-24.56,39.76,-22.26,-22.46
-2540,511,474,-407,-3695,2530,-199.17,21.76,18.50,-4.07,-36.95,25.30,-18.95,-23.86,-24.61,22.62,-20.96,-18.35
-2068,412,391,-327,-3808,2445,-191.87,22.10,19.04,-3.27,-38.08,24.45,-19.75,-23.74,-24.67,-35.00,-5.31,-10.75
-1920,362,373,-319,-3850,2392,-184.40,22.10,19.41,-3.19,-38.50,23.92,-20.53,-23.62,-24.72,-42.90,2.24,-8.83
-1338,190,341,-343,-3960,2345,-174.12,21.05,19.55,-3.43,-39.60,23.45,-21.26,-23.51,-24.77,-111.70,26.40,-5.96
-655,135,344,-351,-4127,2285,-160.70,19.76,19.69,-3.51,-41.27,22.85,-21.94,-23.40,-24.83,-190.00,32.29,-6.06
-471,116,348,-334,-4128,2278,-147.50,18.50,19.85,-3.34,-41.28,22.78,-22.56,-23.29,-24.88,-192.65,32.71,-6.23
233,13,419,-185,-3980,2252,-131.33,16.73,20.42,-1.85,-39.80,22.52,-23.13,-23.19,-24.95,-269.01,45.00,-11.63
405,-37,451,-141,-3924,2246,-115.73,14.83,21.13,-1.41,-39.24,22.46,-23.63,-23.09,-25.01,-265.36,48.96,-13.59
1018,-173,528,-176,-3883,2292,-97.95,12.29,22.23,-1.76,-38.83,22.92,-24.07,-23.00,-25.08,-324.87,64.84,-18.93
1529,-211,495,-165,-3794,2334,-78.82,9.77,23.03,-1.65,-37.94,23.34,-24.43,-22.91,-25.16,-366.34,65.81,-15.29
1654,-267,473,-118,-3776,2350,-60.85,7.17,23.61,-1.18,-37.76,23.50,-24.72,-22.84,-25.25,-351.18,69.37,-12.80
1989,-309,395,-92,-3727,2322,-42.63,4.57,23.66,-0.92,-37.27,23.22,-24.94,-22.77,-25.34,-367.61,70.80,-6.13
2101,-301,383,-50,-3666,2334,-25.56,2.27,23.63,-0.50,-36.66,23.34,-25.09,-22.72,-25.44,-352.24,65.20,-5.14
2624,-211,404,46,-3451,2315,-6.99,0.76,23.73,0.46,-34.51,23.15,-25.17,-22.66,-25.54,-396.79,48.57,-6.80
2728,-210,406,47,-3466,2415,10.35,-0.60,23.84,0.47,-34.66,24.15,-25.18,-22.61,-25.64,-379.80,45.82,-6.85
2935,-257,354,-18,-3449,2664,27.22,-2.11,23.61,-0.18,-34.49,26.64,-25.13,-22.57,-25.74,-379.46,50.10,-2.67
2975,-267,345,6,-3419,2706,42.64,-3.52,23.35,0.06,-34.19,27.06,-25.01,-22.53,-25.84,-356.42,48.91,-2.17
2942,-335,389,72,-3396,2818,56.32,-5.22,23.39,0.72,-33.96,28.18,-24.84,-22.50,-25.95,-325.58,56.06,-5.85
2902,-350,424,98,-3394,2828,68.39,-6.83,23.64,0.98,-33.94,28.28,-24.62,-22.48,-26.06,-296.77,55.28,-8.55
2592,-480,628,217,-3391,2842,77.37,-9.07,25.11,2.17,-33.91,28.42,-24.37,-22.46,-26.18,-232.66,70.84,-24.26
2383,-524,744,188,-3383,2891,84.17,-11.36,27.13,1.88,-33.83,28.91,-24.10,-22.44,-26.32,-188.09,73.20,-31.93
1848,-529,1002,138,-3330,3015,87.02,-13.45,30.53,1.38,-33.30,30.15,-23.82,-22.43,-26.47,-101.28,70.00,-50.18
1714,-511,1072,138,-3295,3048,88.77,-15.23,34.02,1.38,-32.95,30.48,-23.55,-22.42,-26.63,-77.71,63.89,-52.40
1282,-461,1334,260,-2994,3077,87.72,-16.51,38.75,2.60,-29.94,30.77,-23.28,-22.41,-26.82,-14.00,53.81,-69.57
1203,-466,1393,304,-2900,3079,86.28,-17.71,43.38,3.04,-29.00,30.79,-23.03,-22.39,-27.03,-4.84,52.31,-69.65
1080,-517,1493,375,-2545,3165,84.24,-19.09,48.15,3.75,-25.45,31.65,-22.79,-22.37,-27.26,9.90,57.46,-73.06
1096,-529,1480,386,-2453,3157,82.50,-20.41,52.36,3.86,-24.53,31.57,-22.56,-22.36,-27.51,4.02,56.78,-67.47
1260,-571,1303,472,-2131,3092,81.94,-21.85,55.07,4.72,-21.31,30.92,-22.35,-22.34,-27.77,-22.21,60.44,-49.58
1426,-505,998,548,-1918,3076,82.44,-22.75,55.65,5.48,-19.18,30.76,-22.13,-22.32,-28.03,-46.71,48.67,-23.10
1462,-476,907,569,-1902,3059,83.12,-23.37,55.62,5.69,-19.02,30.59,-21.91,-22.31,-28.30,-51.07,43.05,-15.40
1586,-320,546,626,-1927,3129,84.48,-22.99,53.39,6.26,-19.27,31.29,-21.68,-22.30,-28.56,-67.55,19.98,12.84
1618,-282,486,644,-1956,3135,85.90,-22.41,51.01,6.44,-19.56,31.35,-21.44,-22.30,-28.80,-69.90,15.28,15.44
1777,-183,382,709,-2079,3267,88.15,-21.29,48.24,7.09,-20.79,32.67,-21.18,-22.29,-29.03,-90.05,2.31,21.33
1837,-168,384,719,-2106,3312,90.54,-20.18,45.76,7.19,-21.06,33.12,-20.92,-22.29,-29.25,-94.85,2.11,18.56
2115,-169,476,735,-2069,3447,94.39,-19.19,44.09,7.35,-20.69,34.47,-20.63,-22.29,-29.47,-130.15,4.13,9.01
2195,-186,518,737,-2013,3474,98.34,-18.41,42.84,7.37,-20.13,34.74,-20.33,-22.28,-29.67,-135.07,8.20,4.15
2490,-270,668,728,-1827,3605,103.70,-18.22,42.63,7.28,-18.27,36.05,-20.00,-22.27,-29.88,-170.13,21.38,-8.76
2571,-293,687,727,-1774,3624,109.01,-18.18,42.56,7.27,-17.74,36.24,-19.64,-22.27,-30.08,-172.65,24.94,-10.43
2928,-378,677,761,-1544,3670,115.97,-18.67,42.43,7.61,-15.44,36.70,-19.26,-22.27,-30.28,-214.16,36.98,-9.70
3042,-393,657,754,-1508,3693,122.93,-19.20,42.20,7.54,-15.08,36.93,-18.85,-22.27,-30.48,-218.64,38.26,-8.24
3550,-454,546,759,-1269,3820,132.29,-20.05,41.31,7.59,-12.69,38.20,-18.40,-22.27,-30.68,-278.68,45.96,0.24
3654,-477,525,754,-1196,3855,141.35,-20.95,40.38,7.54,-11.96,38.55,-17.90,-22.28,-30.87,-277.70,47.76,1.06
3985,-547,460,802,-928,3836,151.52,-22.19,39.15,8.02,-9.28,38.36,-17.36,-22.31,-31.06,-309.27,56.10,5.28
4057,-578,440,835,-866,3798,161.12,-23.50,37.92,8.35,-8.66,37.98,-16.78,-22.34,-31.25,-302.46,58.38,5.68
4144,-685,338,935,-613,3721,170.29,-25.33,36.19,9.35,-6.13,37.21,-16.16,-22.38,-31.42,-298.78,71.26,12.51
4134,-698,320,951,-560,3680,178.47,-27.05,34.52,9.51,-5.60,36.80,-15.50,-22.43,-31.59,-282.18,70.01,12.29
4055,-712,257,1002,-336,3572,185.36,-28.69,32.64,10.02,-3.36,35.72,-14.80,-22.50,-31.76,-257.54,69.09,15.64
3999,-595,221,985,-77,3557,191.22,-29.45,30.72,9.85,-0.77,35.57,-14.09,-22.58,-31.91,-238.38,49.86,16.68
3991,-547,217,1005,32,3555,196.44,-29.84,28.97,10.05,0.32,35.55,-13.34,-22.66,-32.06,-227.76,41.85,15.18
3985,-376,258,953,355,3550,201.11,-29.15,27.65,9.53,3.55,35.50,-12.57,-22.74,-32.20,-218.52,17.13,10.32
3936,-266,298,1037,389,3631,205.01,-27.86,26.70,10.37,3.89,36.31,-11.79,-22.82,-32.33,-204.18,2.86,5.94
3792,-148,328,1009,764,3574,207.64,-25.98,26.03,10.09,7.64,35.74,-10.99,-22.90,-32.45,-177.76,-11.52,2.70
3742,-155,330,1012,756,3553,209.70,-24.32,25.44,10.12,7.56,35.53,-10.19,-22.97,-32.57,-166.76,-7.27,1.91
3572,-215,304,1090,948,3480,210.52,-23.20,24.75,10.90,9.48,34.80,-9.37,-23.04,-32.69,-139.82,4.05,3.40
3517,-238,288,1099,999,3451,210.92,-22.34,24.03,10.99,9.99,34.51,-8.56,-23.11,-32.80,-131.21,9.25,4.00
3374,-228,118,1098,1208,3341,210.41,-21.49,22.35,10.98,12.08,33.41,-7.74,-23.18,-32.90,-110.91,9.36,16.63
3337,-205,101,1046,1289,3335,209.72,-20.59,20.73,10.46,12.89,33.35,-6.92,-23.25,-33.00,-107.11,7.60,16.36
3241,-80,54,987,1603,3177,208.52,-19.02,18.99,9.87,16.03,31.77,-6.10,-23.32,-33.08,-95.28,-8.44,18.51
3227,-44,42,987,1679,3171,207.35,-17.39,17.34,9.87,16.79,31.71,-5.29,-23.38,-33.16,-95.90,-10.80,17.79
3148,54,-24,1032,1834,3069,205.82,-15.32,15.46,10.32,18.34,30.69,-4.47,-23.43,-33.22,-87.29,-21.79,21.40
3094,71,-59,1046,1874,3032,204.11,-13.36,13.56,10.46,18.74,30.32,-3.66,-23.48,-33.28,-82.83,-20.63,22.35
2929,87,-110,1053,1984,2897,201.57,-11.49,11.53,10.53,19.84,28.97,-2.86,-23.52,-33.32,-63.02,-19.50,24.53
2881,92,-110,1039,2021,2838,198.99,-9.78,9.71,10.39,20.21,28.38,-2.06,-23.56,-33.36,-61.11,-17.00,22.60
2712,165,-74,1043,2099,2746,195.63,-7.79,8.28,10.43,20.99,27.46,-1.27,-23.59,-33.39,-42.22,-24.36,18.05
2653,202,-67,1047,2097,2705,192.25,-5.78,7.05,10.47,20.97,27.05,-0.49,-23.61,-33.41,-40.13,-26.18,16.15
2455,336,-27,1103,2130,2605,188.00,-3.15,6.18,11.03,21.30,26.05,0.27,-23.62,-33.43,-18.49,-41.63,11.84
2404,364,-12,1090,2176,2575,183.87,-0.62,5.49,10.90,21.76,25.75,1.01,-23.62,-33.44,-19.04,-41.09,9.84
2230,381,76,1070,2321,2325,179.08,1.77,5.40,10.70,23.21,23.25,1.74,-23.62,-33.46,-2.04,-39.17,2.29
2188,361,105,1060,2403,2209,174.52,3.79,5.50,10.60,24.03,22.09,2.45,-23.60,-33.48,-4.74,-32.29,-0.06
2079,316,258,922,2692,1856,169.75,5.34,6.53,9.22,26.92,18.56,3.13,-23.58,-33.50,2.39,-22.51,-11.93
2146,517,124,1104,2261,1880,165.87,7.96,6.63,11.04,22.61,18.80,3.81,-23.55,-33.52,-15.63,-48.22,-0.47
2173,964,170,945,2577,1783,162.53,13.04,7.00,9.45,25.77,17.83,4.46,-23.51,-33.55,-26.49,-106.79,-3.97
2084,1062,138,938,2670,1716,158.99,18.22,7.15,9.38,26.70,17.16,5.10,-23.44,-33.58,-20.04,-111.98,-1.10
1412,1326,37,807,2837,1904,151.71,24.49,6.66,8.07,28.37,19.04,5.71,-23.34,-33.61,68.23,-140.44,6.94
1225,1366,31,776,2900,1853,144.01,30.37,6.18,7.76,29.00,18.53,6.29,-23.22,-33.64,81.79,-135.47,6.95
853,1656,18,746,2851,1871,134.81,37.43,5.67,7.46,28.51,18.71,6.84,-23.07,-33.68,120.74,-166.41,7.51
879,1787,7,723,2807,1769,126.69,44.59,5.15,7.23,28.07,17.69,7.34,-22.90,-33.71,101.06,-172.95,7.89
774,1926,-31,721,2651,1992,118.74,51.88,4.44,7.21,26.51,19.92,7.82,-22.69,-33.76,101.71,-180.48,10.37
698,1926,-30,712,2599,2078,111.13,58.44,3.82,7.12,25.99,20.78,8.26,-22.46,-33.80,98.58,-168.20,9.62
396,1941,106,582,2659,2200,102.43,64.44,4.08,5.82,26.59,22.00,8.67,-22.20,-33.85,127.89,-159.30,-1.61
225,1944,220,620,2607,2322,93.56,69.85,5.01,6.20,26.07,23.22,9.04,-21.93,-33.91,136.92,-149.69,-10.28
-150,1839,391,488,2586,2194,83.29,74.08,6.90,4.88,25.86,21.94,9.36,-21.64,-33.98,174.45,-125.85,-22.76
-259,1765,420,500,2538,2199,73.38,77.44,8.77,5.00,25.38,21.99,9.64,-21.33,-34.07,172.12,-108.41,-23.23
-696,1535,480,312,2676,2153,61.80,79.06,10.82,3.12,26.76,21.53,9.87,-21.02,-34.17,216.67,-70.47,-26.13
-826,1536,487,268,2709,2200,50.58,80.53,12.71,2.68,27.09,22.00,10.05,-20.71,-34.27,215.13,-68.06,-24.72
-1398,1740,470,178,2988,2230,36.99,83.09,14.31,1.78,29.88,22.30,10.17,-20.39,-34.39,276.54,-94.53,-21.58
-1560,1810,449,187,2949,2202,23.78,85.82,15.61,1.87,29.49,22.02,10.24,-20.05,-34.51,276.17,-100.25,-18.40
-2072,1904,217,134,2734,2182,8.76,88.85,15.38,1.34,27.34,21.82,10.25,-19.71,-34.64,325.81,-109.07,1.01
-2183,1913,155,99,2741,2271,-5.43,91.64,14.78,0.99,27.41,22.71,10.20,-19.35,-34.76,315.88,-105.40,5.65
-2479,1899,30,-88,2711,2444,-20.01,94.06,13.49,-0.88,27.11,24.44,10.10,-18.98,-34.88,333.48,-98.93,14.88
-2572,1866,26,-173,2641,2626,-33.70,96.03,12.30,-1.73,26.41,26.26,9.94,-18.61,-35.00,321.84,-90.40,13.97
-2811,1824,19,-204,2358,2875,-47.48,97.56,11.18,-2.04,23.58,28.75,9.73,-18.22,-35.11,332.33,-81.36,13.39
-2901,1788,11,-251,2335,2865,-60.42,98.71,10.13,-2.51,23.35,28.65,9.47,-17.83,-35.22,321.71,-73.95,12.97
-3343,1656,-2,-285,2241,2999,-74.77,98.94,9.11,-2.85,22.41,29.99,9.16,-17.43,-35.32,362.14,-53.65,12.99
-3465,1628,-18,-326,2152,3017,-88.43,98.98,8.09,-3.26,21.52,30.17,8.79,-17.03,-35.41,355.12,-49.57,13.28
-3857,1637,-140,-582,2072,3322,-103.12,99.06,6.42,-5.82,20.72,33.22,8.36,-16.63,-35.50,387.37,-51.04,21.86
-3954,1665,-171,-632,2060,3404,-116.93,99.31,4.74,-6.32,20.60,34.04,7.89,-16.23,-35.57,376.32,-55.10,22.71
-4244,1715,-295,-644,1831,3613,-131.12,99.84,2.47,-6.44,18.31,36.13,7.36,-15.82,-35.63,394.01,-61.99,30.81
-4306,1695,-333,-628,1769,3684,-144.28,100.20,0.19,-6.28,17.69,36.84,6.78,-15.41,-35.68,378.93,-58.54,31.62
-4505,1501,-459,-677,1434,3896,-157.33,99.34,-2.63,-6.77,14.34,38.96,6.15,-15.00,-35.71,384.97,-30.86,39.32
-4605,1358,-511,-722,1285,3985,-169.69,97.69,-5.48,-7.22,12.85,39.85,5.47,-14.59,-35.73,377.26,-12.45,40.70
-4947,1051,-570,-833,962,4209,-182.89,94.33,-8.41,-8.33,9.62,42.09,4.75,-14.19,-35.73,404.88,27.75,42.60
-5079,970,-574,-843,876,4253,-195.59,90.81,-11.07,-8.43,8.76,42.53,3.97,-13.81,-35.71,401.48,33.19,40.12
-5729,674,-545,-689,576,4218,-210.98,85.84,-13.29,-6.89,5.76,42.18,3.14,-13.45,-35.68,472.01,68.68,35.31
-5915,583,-519,-669,446,4145,-225.96,80.81,-15.13,-6.69,4.46,41.45,2.25,-13.10,-35.63,472.59,72.80,31.16
-6517,251,-419,-566,-47,4017,-243.12,74.26,-16.17,-5.66,-0.47,40.17,1.29,-12.79,-35.57,532.53,110.82,21.58
-6628,198,-397,-640,-233,3982,-259.24,68.05,-16.98,-6.40,-2.33,39.82,0.26,-12.50,-35.51,519.61,106.93,18.86
-6900,111,-213,-576,-900,3871,-275.40,61.92,-16.58,-5.76,-9.00,38.71,-0.84,-12.23,-35.44,531.19,108.42,3.68
-6910,120,-90,-473,-1192,3817,-290.01,56.46,-15.47,-4.73,-11.92,38.17,-1.99,-12.00,-35.37,505.81,96.55,-5.57
-6657,234,165,-563,-880,3544,-301.62,52.24,-12.92,-5.63,-8.80,35.44,-3.20,-11.77,-35.31,446.04,71.03,-24.48
-6356,349,249,-640,-1311,3464,-310.23,49.14,-10.10,-6.40,-13.11,34.64,-4.44,-11.57,-35.26,384.65,47.49,-28.62
-5905,424,436,-767,-1844,3781,-315.23,46.82,-6.43,-7.67,-18.44,37.81,-5.70,-11.37,-35.22,307.24,31.51,-40.58
-5866,453,469,-827,-2002,3822,-319.49,44.90,-2.93,-8.27,-20.02,38.22,-6.99,-11.18,-35.19,294.07,23.33,-39.67
-5467,510,547,-853,-2385,3602,-320.89,43.52,0.70,-8.53,-23.85,36.02,-8.28,-10.99,-35.17,231.42,11.91,-42.44
-5264,520,565,-851,-2455,3405,-320.91,42.34,4.08,-8.51,-24.55,34.05,-9.58,-10.81,-35.16,201.28,8.03,-40.39
-4570,494,595,-831,-2794,3479,-316.69,41.12,7.30,-8.31,-27.94,34.79,-10.86,-10.64,-35.17,104.27,9.56,-39.52
-4074,424,667,-755,-2975,3222,-309.88,39.59,10.64,-7.55,-29.75,32.22,-12.12,-10.46,-35.18,42.38,17.23,-42.08
-3961,402,680,-831,-3072,3267,-303.05,38.09,13.72,-8.31,-30.72,32.67,-13.35,-10.29,-35.20,38.88,17.62,-39.91
-3524,441,698,-925,-3045,3099,-294.24,36.97,16.61,-9.25,-30.45,30.99,-14.55,-10.12,-35.23,-10.28,9.44,-38.38
-3437,463,704,-965,-3055,3186,-285.78,36.10,19.24,-9.65,-30.55,31.86,-15.71,-9.95,-35.27,-6.76,4.32,-36.10
-3184,570,684,-986,-3274,2859,-276.63,35.96,21.49,-9.86,-32.74,28.59,-16.84,-9.78,-35.32,-27.26,-12.36,-32.02
-3080,560,682,-922,-3322,2778,-267.75,35.78,23.50,-9.22,-33.22,27.78,-17.93,-9.60,-35.37,-25.59,-11.29,-29.71
-2928,449,585,-898,-3724,2872,-258.84,34.94,24.72,-8.98,-37.24,28.72,-18.99,-9.43,-35.42,-31.18,3.93,-20.20
-2930,396,578,-878,-3539,2801,-250.83,33.86,25.77,-8.78,-35.39,28.01,-20.02,-9.26,-35.48,-15.03,9.86,-18.49
-2841,289,662,-815,-3861,2568,-243.07,32.24,27.23,-8.15,-38.61,25.68,-21.02,-9.09,-35.54,-13.26,22.99,-24.05
-2503,346,738,-930,-4157,2319,-234.04,31.13,29.01,-9.30,-41.57,23.19,-21.98,-8.93,-35.60,-47.05,12.08,-28.60
-2325,406,754,-980,-4276,2244,-224.81,30.49,30.71,-9.80,-42.76,22.44,-22.91,-8.76,-35.67,-56.12,1.62,-28.15
-1615,638,854,-907,-4428,2185,-212.18,31.33,32.85,-9.07,-44.28,21.85,-23.78,-8.58,-35.75,-139.89,-32.28,-34.35
-1550,579,884,-911,-4425,2203,-200.42,31.73,34.96,-9.11,-44.25,22.03,-24.61,-8.40,-35.83,-126.98,-22.65,-34.66
-1224,516,1090,-835,-4229,2328,-187.85,31.71,38.11,-8.35,-42.29,23.28,-25.39,-8.22,-35.91,-152.36,-13.21,-48.76
-899,529,1262,-753,-4154,2230,-174.54,31.76,42.00,-7.53,-41.54,22.30,-26.12,-8.02,-36.01,-176.25,-15.22,-59.21
-206,365,1429,-736,-4238,2143,-158.35,30.81,46.51,-7.36,-42.38,21.43,-26.79,-7.82,-36.13,-250.82,7.86,-68.56
19,306,1434,-782,-4255,2126,-142.40,29.60,50.61,-7.82,-42.55,21.26,-27.39,-7.62,-36.26,-254.52,14.42,-64.64
923,123,1404,-662,-4168,2242,-122.53,27.39,54.11,-6.62,-41.68,22.42,-27.91,-7.41,-36.40,-354.40,38.01,-58.37
1757,-44,1436,-456,-3974,2267,-99.56,24.38,57.46,-4.56,-39.74,22.67,-28.35,-7.21,-36.56,-437.79,57.65,-57.52
2001,-62,1478,-384,-3839,2215,-77.39,21.57,60.73,-3.84,-38.39,22.15,-28.69,-7.01,-36.74,-432.80,54.93,-57.61
2886,-164,1678,-176,-3557,2272,-52.05,18.41,64.89,-1.76,-35.57,22.72,-28.94,-6.82,-36.93,-519.60,64.38,-70.12
3155,-214,1704,-149,-3523,2233,-27.60,15.26,68.80,-1.49,-35.23,22.33,-29.09,-6.63,-37.15,-514.21,65.92,-68.17
4148,-492,1767,148,-2776,2344,0.46,10.73,72.70,1.48,-27.76,23.44,-29.14,-6.45,-37.38,-612.46,99.62,-69.36
4886,-832,1732,256,-2379,2353,30.22,4.59,75.99,2.56,-23.79,23.53,-29.06,-6.28,-37.64,-668.70,139.71,-62.88
5124,-1004,1589,249,-2275,2402,58.46,-2.00,78.09,2.49,-22.75,24.02,-28.87,-6.13,-37.93,-651.64,153.38,-48.53
5507,-1161,1089,278,-2457,2476,86.20,-8.88,76.92,2.78,-24.57,24.76,-28.58,-6.02,-38.22,-657.69,164.20,-7.37
5554,-1164,918,269,-2504,2537,111.46,-15.09,74.83,2.69,-25.04,25.37,-28.18,-5.92,-38.51,-617.28,152.84,4.93
5768,-899,272,245,-2190,2528,135.50,-19.07,69.01,2.45,-21.90,25.28,-27.68,-5.86,-38.79,-604.71,104.85,53.52
5781,-834,127,278,-2049,2555,157.21,-22.25,62.88,2.78,-20.49,25.55,-27.10,-5.82,-39.06,-565.96,88.89,59.34
5557,-625,-334,409,-1784,2717,175.39,-23.84,54.55,4.09,-17.84,27.17,-26.43,-5.81,-39.30,-497.81,54.01,89.60
5160,-357,-729,292,-1660,3016,189.33,-23.63,44.65,2.92,-16.60,30.16,-25.71,-5.81,-39.51,-411.34,13.53,112.60
5023,-265,-819,269,-1633,3072,201.04,-22.88,35.19,2.69,-16.33,30.72,-24.94,-5.83,-39.68,-368.79,0.92,110.22
