gyroADC_X,gyroADC_Y,gyroADC_Z,accADC_X,accADC_Y,accADC_Z,GyroX,GyroY,GyroZ,AccX,AccY,AccZ,roll_IMU,pitch_IMU,yaw_IMU,roll_PID,pitch_PID,yaw_PID
0,0,-1,-59,-409,3911,-0.01,-0.00,-0.03,-0.59,-4.09,39.11,-5.96,0.81,173.26,3.94,-0.54,-20.00
0,-1,-1,-57,-410,3890,-0.01,-0.01,-0.03,-0.57,-4.10,38.90,-5.98,0.82,173.26,3.95,-0.52,-20.00
-4,-3,-2,-59,-399,3932,-0.03,-0.03,-0.04,-0.59,-3.99,39.32,-5.96,0.82,173.26,4.02,-0.48,-20.00
-1,-1,-3,-36,-389,3896,-0.04,-0.03,-0.05,-0.36,-3.89,38.96,-5.95,0.81,173.26,3.95,-0.51,-20.00
1,-1,1,-51,-392,3913,-0.03,-0.03,-0.04,-0.51,-3.92,39.13,-5.93,0.80,173.26,3.90,-0.50,-20.00
1,-1,-1,-47,-402,3920,-0.02,-0.03,-0.04,-0.47,-4.02,39.20,-5.92,0.79,173.26,3.89,-0.49,-20.00
0,0,-1,-53,-412,3918,-0.02,-0.03,-0.05,-0.53,-4.12,39.18,-5.94,0.78,173.26,3.92,-0.51,-20.00
0,-1,0,-49,-402,3920,-0.01,-0.03,-0.04,-0.49,-4.02,39.20,-5.92,0.77,173.26,3.91,-0.48,-20.00
1,-2,-1,-55,-405,3907,-0.01,-0.04,-0.04,-0.55,-4.05,39.07,-5.92,0.79,173.26,3.89,-0.47,-20.00
2,-2,-1,-60,-407,3898,0.01,-0.05,-0.05,-0.60,-4.07,38.98,-5.93,0.81,173.26,3.87,-0.48,-20.00
2,-3,-3,-54,-411,3906,0.02,-0.06,-0.06,-0.54,-4.11,39.06,-5.95,0.80,173.26,3.88,-0.45,-20.00
2,-3,-2,-56,-391,3916,0.03,-0.08,-0.07,-0.56,-3.91,39.16,-5.93,0.80,173.26,3.86,-0.45,-20.00
1,-2,-2,-65,-396,3919,0.03,-0.08,-0.07,-0.65,-3.96,39.19,-5.91,0.81,173.26,3.87,-0.47,-20.00
2,-2,-1,-59,-399,3903,0.04,-0.08,-0.07,-0.59,-3.99,39.03,-5.90,0.82,173.26,3.84,-0.48,-20.00
0,-1,0,-54,-395,3904,0.04,-0.08,-0.06,-0.54,-3.95,39.04,-5.88,0.82,173.26,3.87,-0.50,-20.00
0,0,-1,-63,-391,3912,0.03,-0.07,-0.06,-0.63,-3.91,39.12,-5.86,0.83,173.26,3.86,-0.53,-20.00
-1,0,-1,-62,-394,3900,0.02,-0.07,-0.06,-0.62,-3.94,39.00,-5.85,0.84,173.26,3.88,-0.54,-20.00
-1,1,-1,-58,-403,3899,0.01,-0.05,-0.06,-0.58,-4.03,38.99,-5.87,0.84,173.26,3.89,-0.56,-20.00
0,1,0,-50,-403,3908,0.01,-0.04,-0.06,-0.50,-4.03,39.08,-5.87,0.82,173.26,3.87,-0.55,-20.00
-1,0,-1,-54,-402,3911,0.01,-0.04,-0.06,-0.54,-4.02,39.11,-5.87,0.80,173.26,3.89,-0.52,-20.00
1,1,-3,-52,-403,3893,0.01,-0.03,-0.07,-0.52,-4.03,38.93,-5.88,0.79,173.26,3.86,-0.53,-20.00
1,0,-4,-55,-406,3903,0.02,-0.03,-0.09,-0.55,-4.06,39.03,-5.90,0.79,173.26,3.87,-0.52,-20.00
0,0,-4,-58,-400,3890,0.01,-0.02,-0.10,-0.58,-4.00,38.90,-5.89,0.81,173.26,3.88,-0.53,-20.00
-5,1,-5,-30,-385,3956,-0.02,-0.01,-0.12,-0.30,-3.85,39.56,-5.88,0.80,173.26,3.99,-0.54,-20.00
1,1,-14,-67,-377,3909,-0.01,-0.01,-0.20,-0.67,-3.77,39.09,-5.86,0.80,173.26,3.85,-0.55,-20.00
-2,-1,-14,-90,-379,3926,-0.02,-0.01,-0.26,-0.90,-3.79,39.26,-5.85,0.82,173.26,3.91,-0.52,-20.00
0,1,-14,-69,-402,3901,-0.02,-0.01,-0.32,-0.69,-4.02,39.01,-5.86,0.84,173.26,3.87,-0.57,-20.00
1,2,-12,-63,-407,3911,-0.01,0.01,-0.36,-0.63,-4.07,39.11,-5.87,0.85,173.26,3.86,-0.60,-20.00
2,1,-3,-81,-407,3901,0.00,0.01,-0.34,-0.81,-4.07,39.01,-5.87,0.87,173.27,3.84,-0.60,-20.00
1,0,-3,-93,-410,3910,0.01,0.01,-0.33,-0.93,-4.10,39.10,-5.88,0.89,173.27,3.86,-0.59,-20.00
1,0,-2,-74,-408,3892,0.01,0.01,-0.31,-0.74,-4.08,38.92,-5.89,0.90,173.27,3.86,-0.60,-20.00
0,0,-2,-61,-415,3895,0.01,0.01,-0.29,-0.61,-4.15,38.95,-5.90,0.90,173.27,3.89,-0.60,-20.00
0,0,-2,-53,-408,3913,0.01,0.01,-0.27,-0.53,-4.08,39.13,-5.91,0.88,173.27,3.90,-0.59,-20.00
0,0,-2,-63,-410,3912,0.01,0.01,-0.26,-0.63,-4.10,39.12,-5.93,0.89,173.27,3.91,-0.59,-20.00
0,0,-1,-57,-402,3902,0.01,0.01,-0.24,-0.57,-4.02,39.02,-5.92,0.88,173.27,3.90,-0.58,-20.00
0,1,-1,-58,-406,3897,0.01,0.01,-0.22,-0.58,-4.06,38.97,-5.93,0.86,173.27,3.91,-0.59,-20.00
-1,0,-1,-55,-412,3902,0.00,0.01,-0.20,-0.55,-4.12,39.02,-5.95,0.85,173.27,3.94,-0.57,-20.00
-1,-1,-1,-64,-406,3906,-0.01,0.00,-0.19,-0.64,-4.06,39.06,-5.94,0.87,173.28,3.94,-0.56,-20.00
-1,0,-2,-61,-401,3909,-0.01,0.00,-0.18,-0.61,-4.01,39.09,-5.92,0.88,173.28,3.93,-0.58,-20.00
0,0,-1,-57,-398,3905,-0.01,0.00,-0.17,-0.57,-3.98,39.05,-5.91,0.87,173.28,3.90,-0.57,-20.00
0,0,-1,-67,-405,3906,-0.01,0.00,-0.16,-0.67,-4.05,39.06,-5.91,0.89,173.28,3.90,-0.59,-20.00
0,0,-1,-63,-407,3901,-0.01,0.00,-0.15,-0.63,-4.07,39.01,-5.93,0.90,173.28,3.91,-0.59,-20.00
0,0,0,-54,-414,3892,-0.01,0.00,-0.13,-0.54,-4.14,38.92,-5.94,0.89,173.28,3.92,-0.59,-20.00
0,-1,0,-55,-410,3903,-0.01,-0.00,-0.12,-0.55,-4.10,39.03,-5.95,0.87,173.28,3.93,-0.55,-20.00
0,0,-2,-60,-394,3902,-0.01,-0.00,-0.12,-0.60,-3.94,39.02,-5.93,0.87,173.28,3.92,-0.57,-20.00
0,1,-2,-54,-393,3899,-0.01,0.00,-0.12,-0.54,-3.93,38.99,-5.92,0.86,173.28,3.91,-0.59,-20.00
-1,0,-1,-58,-405,3899,-0.01,0.00,-0.12,-0.58,-4.05,38.99,-5.93,0.85,173.28,3.94,-0.56,-20.00
0,0,-1,-60,-411,3904,-0.01,0.00,-0.11,-0.60,-4.11,39.04,-5.95,0.86,173.28,3.93,-0.57,-20.00
0,0,-1,-65,-406,3904,-0.01,0.00,-0.11,-0.65,-4.06,39.04,-5.94,0.87,173.28,3.93,-0.58,-20.00
0,1,-1,-67,-409,3910,-0.01,0.01,-0.10,-0.67,-4.09,39.10,-5.95,0.89,173.28,3.93,-0.61,-20.00
0,-1,-1,-59,-401,3920,-0.01,0.00,-0.10,-0.59,-4.01,39.20,-5.93,0.89,173.28,3.92,-0.56,-20.00
0,0,-1,-58,-397,3911,-0.01,0.00,-0.09,-0.58,-3.97,39.11,-5.91,0.88,173.28,3.90,-0.58,-20.00
0,0,-1,-58,-410,3904,-0.01,0.00,-0.09,-0.58,-4.10,39.04,-5.93,0.87,173.28,3.92,-0.58,-20.00
0,0,-1,-68,-408,3909,-0.01,0.00,-0.09,-0.68,-4.08,39.09,-5.93,0.89,173.28,3.92,-0.59,-20.00
0,0,0,-67,-407,3911,-0.00,0.00,-0.08,-0.67,-4.07,39.11,-5.94,0.91,173.28,3.92,-0.60,-20.00
0,0,-1,-63,-401,3911,-0.00,0.00,-0.08,-0.63,-4.01,39.11,-5.92,0.91,173.28,3.91,-0.60,-20.00
0,0,-1,-58,-401,3908,-0.00,0.00,-0.08,-0.58,-4.01,39.08,-5.91,0.90,173.28,3.90,-0.59,-20.00
1,0,0,-57,-404,3907,0.00,0.00,-0.07,-0.57,-4.04,39.07,-5.91,0.88,173.28,3.88,-0.58,-20.00
1,-1,-1,-55,-404,3905,0.01,-0.01,-0.07,-0.55,-4.04,39.05,-5.91,0.86,173.28,3.87,-0.55,-20.00
1,-2,-1,-58,-404,3907,0.01,-0.02,-0.07,-0.58,-4.04,39.07,-5.90,0.84,173.28,3.87,-0.51,-20.00
0,-1,0,-62,-400,3904,0.01,-0.02,-0.06,-0.62,-4.00,39.04,-5.89,0.86,173.28,3.88,-0.54,-20.00
-1,0,-1,-59,-406,3897,0.01,-0.02,-0.06,-0.59,-4.06,38.97,-5.91,0.86,173.29,3.92,-0.56,-20.00
0,1,-1,-57,-404,3902,0.00,-0.01,-0.06,-0.57,-4.04,39.02,-5.91,0.84,173.29,3.90,-0.57,-20.00
-1,1,0,-51,-406,3895,-0.00,-0.00,-0.05,-0.51,-4.06,38.95,-5.92,0.82,173.29,3.93,-0.56,-20.00
-1,1,0,-53,-407,3894,-0.01,0.00,-0.05,-0.53,-4.07,38.94,-5.93,0.81,173.29,3.94,-0.56,-20.00
-1,1,-1,-54,-406,3910,-0.01,0.01,-0.05,-0.54,-4.06,39.10,-5.93,0.79,173.29,3.94,-0.55,-20.00
-1,1,-1,-58,-410,3904,-0.02,0.01,-0.05,-0.58,-4.10,39.04,-5.94,0.80,173.29,3.95,-0.55,-20.00
-1,1,-1,-66,-411,3893,-0.02,0.02,-0.05,-0.66,-4.11,38.93,-5.95,0.82,173.29,3.95,-0.57,-20.00
-1,2,-1,-57,-399,3910,-0.03,0.03,-0.05,-0.57,-3.99,39.10,-5.93,0.82,173.29,3.94,-0.59,-20.00
0,2,-1,-56,-394,3909,-0.02,0.04,-0.05,-0.56,-3.94,39.09,-5.92,0.82,173.29,3.91,-0.59,-20.00
0,1,-1,-60,-405,3905,-0.02,0.04,-0.05,-0.60,-4.05,39.05,-5.92,0.84,173.29,3.91,-0.59,-20.00
0,1,-1,-59,-410,3898,-0.02,0.04,-0.06,-0.59,-4.10,38.98,-5.94,0.84,173.29,3.92,-0.59,-20.00
-1,1,-2,-61,-410,3898,-0.02,0.04,-0.06,-0.61,-4.10,38.98,-5.95,0.85,173.29,3.95,-0.60,-20.00
-1,0,-1,-60,-406,3894,-0.03,0.04,-0.06,-0.60,-4.06,38.94,-5.95,0.87,173.29,3.96,-0.59,-20.00
0,0,-1,-50,-403,3890,-0.02,0.04,-0.06,-0.50,-4.03,38.90,-5.95,0.86,173.29,3.93,-0.57,-20.00
-1,-1,-1,-46,-400,3911,-0.03,0.03,-0.06,-0.46,-4.00,39.11,-5.94,0.84,173.29,3.95,-0.54,-20.00
0,-2,0,-54,-406,3907,-0.03,0.01,-0.06,-0.54,-4.06,39.07,-5.94,0.82,173.29,3.92,-0.50,-20.00
1,-4,-2,-52,-405,3897,-0.02,-0.01,-0.06,-0.52,-4.05,38.97,-5.94,0.80,173.29,3.90,-0.45,-20.00
1,-2,-3,-45,-419,3889,-0.01,-0.03,-0.07,-0.45,-4.19,38.89,-5.95,0.79,173.29,3.91,-0.48,-20.00
1,-3,-7,-63,-408,3903,-0.00,-0.04,-0.11,-0.63,-4.08,39.03,-5.95,0.81,173.29,3.91,-0.46,-20.00
0,-3,-8,-45,-401,3902,-0.00,-0.06,-0.15,-0.45,-4.01,39.02,-5.94,0.79,173.29,3.92,-0.45,-20.00
-2,-3,-9,-71,-407,3922,-0.01,-0.07,-0.19,-0.71,-4.07,39.22,-5.94,0.81,173.29,3.97,-0.46,-20.00
-2,-3,-7,-67,-405,3922,-0.02,-0.08,-0.21,-0.67,-4.05,39.22,-5.94,0.83,173.29,3.97,-0.47,-20.00
-1,-1,-4,-68,-405,3911,-0.03,-0.08,-0.21,-0.68,-4.05,39.11,-5.94,0.85,173.29,3.95,-0.52,-20.00
-2,-1,-2,-67,-403,3894,-0.04,-0.08,-0.21,-0.67,-4.03,38.94,-5.93,0.87,173.29,3.97,-0.53,-20.00
0,3,3,-81,-407,3905,-0.03,-0.05,-0.17,-0.81,-4.07,39.05,-5.93,0.88,173.29,3.92,-0.63,-20.00
-1,1,3,-86,-413,3935,-0.04,-0.04,-0.13,-0.86,-4.13,39.35,-5.94,0.90,173.29,3.95,-0.60,-20.00
-2,-2,4,-52,-408,3888,-0.05,-0.05,-0.09,-0.52,-4.08,38.88,-5.94,0.88,173.30,3.98,-0.53,-20.00
-2,-1,4,-73,-401,3902,-0.05,-0.05,-0.06,-0.73,-4.01,39.02,-5.94,0.90,173.30,3.97,-0.56,-20.00
-2,-1,4,-46,-399,3892,-0.06,-0.05,-0.03,-0.46,-3.99,38.92,-5.93,0.88,173.30,3.97,-0.55,-20.00
-2,-1,2,-56,-406,3892,-0.07,-0.05,-0.01,-0.56,-4.06,38.92,-5.94,0.87,173.30,3.98,-0.54,-20.00
-5,-3,-11,-49,-421,3909,-0.09,-0.06,-0.08,-0.49,-4.21,39.09,-5.95,0.85,173.30,4.05,-0.49,-20.00
-3,-5,-15,-43,-421,3921,-0.10,-0.09,-0.16,-0.43,-4.21,39.21,-5.96,0.84,173.30,4.02,-0.43,-20.00
-2,-1,-4,-58,-413,3918,-0.10,-0.09,-0.17,-0.58,-4.13,39.18,-5.98,0.84,173.30,4.02,-0.51,-20.00
-2,-1,-4,-65,-410,3908,-0.10,-0.08,-0.18,-0.65,-4.10,39.08,-5.98,0.86,173.30,4.02,-0.52,-20.00
-1,0,-1,-56,-400,3897,-0.10,-0.07,-0.17,-0.56,-4.00,38.97,-5.97,0.85,173.30,3.99,-0.54,-20.00
0,0,-1,-49,-407,3901,-0.09,-0.07,-0.16,-0.49,-4.07,39.01,-5.97,0.83,173.30,3.96,-0.53,-20.00
-1,1,0,-56,-404,3898,-0.09,-0.05,-0.14,-0.56,-4.04,38.98,-5.95,0.83,173.30,3.97,-0.55,-20.00
-1,1,0,-61,-396,3901,-0.08,-0.04,-0.13,-0.61,-3.96,39.01,-5.93,0.84,173.30,3.96,-0.56,-20.00
-1,1,1,-54,-400,3900,-0.08,-0.03,-0.11,-0.54,-4.00,39.00,-5.92,0.83,173.30,3.95,-0.56,-20.00
-1,1,0,-57,-404,3907,-0.08,-0.02,-0.10,-0.57,-4.04,39.07,-5.90,0.83,173.30,3.94,-0.56,-20.00
-1,1,0,-58,-410,3907,-0.08,-0.01,-0.09,-0.58,-4.10,39.07,-5.92,0.84,173.30,3.95,-0.57,-20.00
0,2,0,-54,-396,3912,-0.07,-0.00,-0.08,-0.54,-3.96,39.12,-5.90,0.83,173.30,3.91,-0.59,-20.00
-1,1,-1,-48,-393,3909,-0.07,0.01,-0.08,-0.48,-3.93,39.09,-5.89,0.82,173.30,3.93,-0.56,-20.00
0,0,0,-54,-397,3908,-0.06,0.00,-0.07,-0.54,-3.97,39.08,-5.87,0.81,173.30,3.89,-0.54,-20.00
0,0,-2,-59,-409,3909,-0.06,0.00,-0.07,-0.59,-4.09,39.09,-5.89,0.82,173.30,3.90,-0.54,-20.00
0,0,-2,-60,-410,3899,-0.05,0.00,-0.08,-0.60,-4.10,38.99,-5.90,0.83,173.30,3.91,-0.55,-20.00
0,-1,-2,-52,-407,3908,-0.05,-0.00,-0.08,-0.52,-4.07,39.08,-5.91,0.81,173.30,3.92,-0.51,-20.00
0,-1,-3,-62,-403,3902,-0.04,-0.01,-0.09,-0.62,-4.03,39.02,-5.91,0.83,173.30,3.91,-0.53,-20.00
0,0,-1,-64,-401,3910,-0.04,-0.01,-0.09,-0.64,-4.01,39.10,-5.90,0.85,173.30,3.91,-0.56,-20.00
0,1,-1,-55,-402,3904,-0.03,-0.00,-0.09,-0.55,-4.02,39.04,-5.89,0.83,173.30,3.90,-0.57,-20.00
0,0,-1,-58,-401,3909,-0.03,-0.00,-0.08,-0.58,-4.01,39.09,-5.88,0.84,173.30,3.89,-0.55,-20.00
-1,1,-1,-56,-400,3908,-0.03,0.01,-0.08,-0.56,-4.00,39.08,-5.86,0.83,173.30,3.90,-0.57,-20.00
-1,1,-1,-65,-403,3909,-0.04,0.01,-0.08,-0.65,-4.03,39.09,-5.87,0.85,173.30,3.90,-0.58,-20.00
0,0,0,-60,-408,3905,-0.03,0.01,-0.07,-0.60,-4.08,39.05,-5.88,0.85,173.30,3.89,-0.56,-20.00
-1,-1,-1,-65,-410,3895,-0.03,0.00,-0.07,-0.65,-4.10,38.95,-5.90,0.86,173.30,3.92,-0.55,-20.00
-1,0,-2,-48,-414,3906,-0.04,0.00,-0.08,-0.48,-4.14,39.06,-5.91,0.85,173.31,3.93,-0.56,-20.00
0,0,-1,-53,-405,3911,-0.03,0.00,-0.07,-0.53,-4.05,39.11,-5.91,0.83,173.31,3.91,-0.55,-20.00
-1,0,-1,-56,-407,3902,-0.04,0.00,-0.07,-0.56,-4.07,39.02,-5.93,0.83,173.31,3.94,-0.55,-20.00
0,0,-1,-57,-405,3914,-0.03,0.00,-0.07,-0.57,-4.05,39.14,-5.91,0.83,173.31,3.91,-0.55,-20.00
-1,0,1,-45,-406,3912,-0.04,0.00,-0.06,-0.45,-4.06,39.12,-5.91,0.81,173.31,3.93,-0.54,-20.00
0,0,-1,-51,-410,3908,-0.03,0.00,-0.06,-0.51,-4.10,39.08,-5.93,0.80,173.31,3.92,-0.53,-20.00
-1,0,-1,-54,-405,3902,-0.04,0.00,-0.06,-0.54,-4.05,39.02,-5.93,0.78,173.31,3.94,-0.52,-20.00
-1,1,-1,-46,-403,3903,-0.04,0.01,-0.06,-0.46,-4.03,39.03,-5.92,0.76,173.31,3.94,-0.53,-20.00
-1,0,-1,-43,-403,3897,-0.04,0.01,-0.06,-0.43,-4.03,38.97,-5.92,0.74,173.31,3.94,-0.49,-20.00
-1,0,0,-48,-406,3901,-0.04,0.01,-0.05,-0.48,-4.06,39.01,-5.93,0.73,173.31,3.94,-0.48,-20.00
-1,1,-1,-53,-407,3897,-0.04,0.01,-0.05,-0.53,-4.07,38.97,-5.94,0.74,173.31,3.95,-0.51,-20.00
0,0,-1,-61,-405,3905,-0.04,0.01,-0.05,-0.61,-4.05,39.05,-5.94,0.76,173.31,3.93,-0.51,-20.00
-1,1,-1,-51,-408,3899,-0.04,0.02,-0.06,-0.51,-4.08,38.99,-5.95,0.75,173.31,3.96,-0.52,-20.00
-1,0,0,-54,-415,3905,-0.04,0.01,-0.05,-0.54,-4.15,39.05,-5.97,0.76,173.31,3.97,-0.51,-20.00
-1,1,-1,-56,-401,3904,-0.05,0.02,-0.05,-0.56,-4.01,39.04,-5.96,0.77,173.31,3.96,-0.53,-20.00
0,0,-2,-49,-403,3895,-0.04,0.02,-0.06,-0.49,-4.03,38.95,-5.94,0.75,173.31,3.93,-0.50,-20.00
-1,-1,-2,-52,-403,3903,-0.04,0.01,-0.06,-0.52,-4.03,39.03,-5.92,0.76,173.31,3.94,-0.48,-20.00
0,0,-2,-56,-411,3905,-0.04,0.01,-0.07,-0.56,-4.11,39.05,-5.94,0.77,173.31,3.93,-0.51,-20.00
-1,0,-2,-56,-414,3900,-0.04,0.01,-0.08,-0.56,-4.14,39.00,-5.96,0.77,173.31,3.96,-0.51,-20.00
-1,1,-1,-58,-406,3895,-0.04,0.01,-0.07,-0.58,-4.06,38.95,-5.96,0.79,173.31,3.96,-0.55,-20.00
-1,0,-1,-53,-395,3902,-0.04,0.01,-0.07,-0.53,-3.95,39.02,-5.94,0.79,173.31,3.95,-0.53,-20.00
-1,-1,-1,-59,-393,3890,-0.05,0.00,-0.07,-0.59,-3.93,38.90,-5.92,0.80,173.31,3.94,-0.51,-20.00
0,0,-1,-63,-405,3894,-0.04,0.00,-0.07,-0.63,-4.05,38.94,-5.92,0.82,173.31,3.92,-0.54,-20.00
0,0,-1,-54,-407,3902,-0.04,0.00,-0.07,-0.54,-4.07,39.02,-5.94,0.80,173.31,3.93,-0.53,-20.00
-1,1,-1,-60,-403,3914,-0.04,0.01,-0.07,-0.60,-4.03,39.14,-5.93,0.82,173.31,3.94,-0.56,-20.00
0,1,-1,-48,-390,3901,-0.04,0.01,-0.07,-0.48,-3.90,39.01,-5.91,0.81,173.31,3.91,-0.56,-20.00
0,1,-1,-45,-390,3907,-0.03,0.02,-0.07,-0.45,-3.90,39.07,-5.90,0.80,173.31,3.90,-0.55,-20.00
0,0,-1,-49,-402,3907,-0.03,0.02,-0.07,-0.49,-4.02,39.07,-5.89,0.78,173.31,3.90,-0.52,-20.00
0,0,-1,-60,-410,3910,-0.03,0.02,-0.07,-0.60,-4.10,39.10,-5.90,0.79,173.31,3.90,-0.53,-20.00
0,0,-1,-59,-411,3907,-0.02,0.01,-0.07,-0.59,-4.11,39.07,-5.92,0.80,173.31,3.91,-0.53,-20.00
-1,0,-1,-54,-412,3910,-0.03,0.01,-0.07,-0.54,-4.12,39.10,-5.94,0.80,173.31,3.95,-0.53,-20.00
-1,1,-3,-51,-405,3913,-0.03,0.02,-0.08,-0.51,-4.05,39.13,-5.93,0.78,173.31,3.94,-0.54,-20.00
0,1,-3,-59,-402,3912,-0.03,0.02,-0.09,-0.59,-4.02,39.12,-5.92,0.80,173.31,3.91,-0.55,-20.00
-1,0,-4,-44,-413,3899,-0.03,0.02,-0.10,-0.44,-4.13,38.99,-5.93,0.78,173.31,3.94,-0.52,-20.00
-1,0,-4,-57,-400,3894,-0.03,0.02,-0.12,-0.57,-4.00,38.94,-5.92,0.80,173.31,3.93,-0.53,-20.00
-1,-1,-3,-56,-401,3902,-0.04,0.01,-0.12,-0.56,-4.01,39.02,-5.90,0.80,173.31,3.92,-0.51,-20.00
-1,0,-3,-55,-405,3897,-0.04,0.01,-0.13,-0.55,-4.05,38.97,-5.92,0.80,173.32,3.94,-0.53,-20.00
-1,-1,-2,-60,-403,3904,-0.04,0.00,-0.13,-0.60,-4.03,39.04,-5.91,0.82,173.32,3.93,-0.52,-20.00
-1,0,-2,-58,-399,3909,-0.04,0.00,-0.13,-0.58,-3.99,39.09,-5.89,0.83,173.32,3.92,-0.55,-20.00
-1,0,-2,-61,-403,3902,-0.05,0.00,-0.13,-0.61,-4.03,39.02,-5.90,0.84,173.32,3.92,-0.56,-20.00
0,0,-1,-68,-408,3896,-0.04,0.00,-0.12,-0.68,-4.08,38.96,-5.90,0.86,173.32,3.91,-0.57,-20.00
-1,0,-1,-63,-412,3901,-0.04,0.00,-0.11,-0.63,-4.12,39.01,-5.92,0.87,173.32,3.94,-0.57,-20.00
-1,-1,-1,-64,-411,3905,-0.04,-0.01,-0.11,-0.64,-4.11,39.05,-5.94,0.88,173.32,3.95,-0.56,-20.00
0,-1,-2,-56,-405,3905,-0.04,-0.01,-0.11,-0.56,-4.05,39.05,-5.93,0.86,173.32,3.93,-0.55,-20.00
0,0,-1,-52,-397,3912,-0.04,-0.01,-0.11,-0.52,-3.97,39.12,-5.92,0.85,173.32,3.92,-0.56,-20.00
-1,-1,-2,-54,-400,3913,-0.04,-0.01,-0.11,-0.54,-4.00,39.13,-5.90,0.84,173.32,3.93,-0.53,-20.00
-1,-1,-1,-64,-406,3914,-0.04,-0.02,-0.10,-0.64,-4.06,39.14,-5.91,0.86,173.32,3.93,-0.54,-20.00
0,-1,-5,-54,-405,3918,-0.04,-0.02,-0.12,-0.54,-4.05,39.18,-5.91,0.84,173.32,3.91,-0.53,-20.00
0,-2,-5,-58,-407,3914,-0.03,-0.03,-0.14,-0.58,-4.07,39.14,-5.92,0.84,173.32,3.92,-0.51,-20.00
0,0,-3,-62,-407,3912,-0.03,-0.03,-0.15,-0.62,-4.07,39.12,-5.93,0.86,173.32,3.92,-0.56,-20.00
-1,0,-3,-56,-402,3898,-0.03,-0.03,-0.15,-0.56,-4.02,38.98,-5.92,0.85,173.32,3.93,-0.55,-20.00
-1,0,-4,-55,-405,3901,-0.04,-0.02,-0.16,-0.55,-4.05,39.01,-5.92,0.83,173.32,3.94,-0.54,-20.00
0,1,-4,-52,-407,3903,-0.03,-0.02,-0.17,-0.52,-4.07,39.03,-5.93,0.81,173.32,3.92,-0.55,-20.00
-1,0,-3,-56,-406,3893,-0.03,-0.01,-0.17,-0.56,-4.06,38.93,-5.95,0.82,173.32,3.95,-0.54,-20.00
-2,-2,-21,14,-513,3901,-0.04,-0.02,-0.28,0.14,-5.13,39.01,-5.96,0.81,173.33,3.99,-0.48,-20.00
2,0,-27,-81,-373,3907,-0.03,-0.02,-0.42,-0.81,-3.73,39.07,-5.95,0.82,173.33,3.89,-0.53,-20.00
0,0,-24,-65,-405,3902,-0.02,-0.02,-0.52,-0.65,-4.05,39.02,-5.94,0.84,173.33,3.93,-0.55,-20.00
0,-1,-18,-63,-411,3899,-0.02,-0.02,-0.58,-0.63,-4.11,38.99,-5.96,0.85,173.33,3.94,-0.53,-20.00
-1,-1,-16,-66,-390,3912,-0.03,-0.03,-0.62,-0.66,-3.90,39.12,-5.94,0.86,173.33,3.95,-0.54,-20.00
0,0,-10,-66,-395,3910,-0.02,-0.03,-0.62,-0.66,-3.95,39.10,-5.92,0.86,173.34,3.92,-0.56,-20.00
2,0,-8,-60,-403,3900,-0.01,-0.02,-0.60,-0.60,-4.03,39.00,-5.91,0.87,173.34,3.86,-0.57,-20.00
1,0,-7,-59,-412,3893,-0.00,-0.02,-0.59,-0.59,-4.12,38.93,-5.93,0.87,173.34,3.89,-0.57,-20.00
0,1,-5,-58,-416,3894,-0.00,-0.01,-0.56,-0.58,-4.16,38.94,-5.94,0.87,173.34,3.92,-0.59,-20.00
-1,0,-5,-58,-404,3905,-0.01,-0.01,-0.53,-0.58,-4.04,39.05,-5.93,0.86,173.35,3.94,-0.56,-20.00
0,0,-3,-55,-402,3908,-0.01,-0.01,-0.50,-0.55,-4.02,39.08,-5.92,0.85,173.35,3.91,-0.56,-20.00
0,0,-5,-48,-407,3897,-0.01,-0.01,-0.48,-0.48,-4.07,38.97,-5.92,0.83,173.35,3.91,-0.54,-20.00
-1,-1,-5,-55,-412,3900,-0.01,-0.01,-0.46,-0.55,-4.12,39.00,-5.94,0.82,173.35,3.94,-0.52,-20.00
-2,-2,-3,-57,-411,3910,-0.02,-0.02,-0.43,-0.57,-4.11,39.10,-5.96,0.83,173.35,3.98,-0.50,-20.00
-1,-1,-1,-61,-416,3910,-0.03,-0.03,-0.40,-0.61,-4.16,39.10,-5.97,0.83,173.36,3.97,-0.52,-20.00
0,-3,2,-30,-428,3880,-0.02,-0.04,-0.34,-0.30,-4.28,38.80,-5.99,0.82,173.36,3.96,-0.47,-20.00
-1,-3,-1,-29,-394,3913,-0.03,-0.06,-0.32,-0.29,-3.94,39.13,-5.98,0.80,173.36,3.97,-0.45,-20.00
0,0,5,-70,-398,3899,-0.02,-0.05,-0.25,-0.70,-3.98,38.99,-5.97,0.82,173.36,3.94,-0.53,-20.00
2,2,8,-66,-399,3905,-0.01,-0.03,-0.18,-0.66,-3.99,39.05,-5.95,0.83,173.36,3.89,-0.58,-20.00
7,4,0,-81,-324,3894,0.03,-0.01,-0.16,-0.81,-3.24,38.94,-5.94,0.84,173.36,3.77,-0.63,-20.00
7,-1,-20,12,-467,3879,0.07,-0.01,-0.27,0.12,-4.67,38.79,-5.95,0.82,173.36,3.76,-0.52,-20.00
0,-2,-1,-47,-469,3874,0.07,-0.02,-0.25,-0.47,-4.69,38.74,-5.97,0.82,173.36,3.92,-0.49,-20.00
-3,-2,-8,-83,-415,3906,0.04,-0.03,-0.27,-0.83,-4.15,39.06,-5.97,0.84,173.36,3.99,-0.50,-20.00
-1,-2,-2,-56,-385,3920,0.03,-0.04,-0.26,-0.56,-3.85,39.20,-5.95,0.84,173.36,3.94,-0.50,-20.00
0,-1,-5,-55,-394,3906,0.03,-0.04,-0.26,-0.55,-3.94,39.06,-5.93,0.83,173.36,3.91,-0.52,-20.00
4,0,-10,-40,-381,3886,0.05,-0.04,-0.30,-0.40,-3.81,38.86,-5.92,0.82,173.37,3.81,-0.53,-20.00
6,0,-13,-61,-439,3916,0.08,-0.04,-0.35,-0.61,-4.39,39.16,-5.94,0.82,173.37,3.77,-0.53,-20.00
0,-1,-5,-56,-422,3902,0.07,-0.04,-0.34,-0.56,-4.22,39.02,-5.95,0.82,173.37,3.91,-0.51,-20.00
-1,-2,-6,-65,-415,3890,0.06,-0.05,-0.34,-0.65,-4.15,38.90,-5.97,0.84,173.37,3.94,-0.50,-20.00
0,-2,-5,-68,-426,3901,0.05,-0.05,-0.34,-0.68,-4.26,39.01,-5.98,0.84,173.37,3.93,-0.50,-20.00
0,-2,-3,-54,-398,3904,0.05,-0.06,-0.32,-0.54,-3.98,39.04,-5.97,0.84,173.37,3.92,-0.50,-20.00
0,-2,-5,-50,-407,3912,0.04,-0.07,-0.32,-0.50,-4.07,39.12,-5.96,0.82,173.37,3.92,-0.48,-20.00
-1,-1,-3,-55,-410,3910,0.03,-0.07,-0.31,-0.55,-4.10,39.10,-5.98,0.81,173.38,3.96,-0.50,-20.00
-1,0,-2,-51,-413,3908,0.02,-0.06,-0.29,-0.51,-4.13,39.08,-5.99,0.79,173.38,3.97,-0.51,-20.00
-2,0,0,-46,-396,3911,0.01,-0.05,-0.26,-0.46,-3.96,39.11,-5.97,0.78,173.38,3.98,-0.50,-20.00
-1,-1,-1,-61,-390,3904,0.00,-0.05,-0.24,-0.61,-3.90,39.04,-5.96,0.79,173.38,3.95,-0.49,-20.00
0,-1,1,-60,-400,3906,0.00,-0.06,-0.21,-0.60,-4.00,39.06,-5.94,0.80,173.38,3.92,-0.49,-20.00
1,0,0,-55,-409,3907,0.01,-0.05,-0.19,-0.55,-4.09,39.07,-5.96,0.80,173.38,3.91,-0.52,-20.00
1,0,0,-64,-420,3902,0.01,-0.04,-0.17,-0.64,-4.20,39.02,-5.97,0.81,173.38,3.92,-0.52,-20.00
0,0,-2,-63,-405,3908,0.01,-0.04,-0.17,-0.63,-4.05,39.08,-5.97,0.83,173.38,3.93,-0.54,-20.00
0,1,-1,-63,-407,3896,0.01,-0.03,-0.16,-0.63,-4.07,38.96,-5.96,0.85,173.38,3.93,-0.57,-20.00
-1,0,-6,-43,-392,3913,0.00,-0.03,-0.18,-0.43,-3.92,39.13,-5.95,0.83,173.38,3.95,-0.54,-20.00
-2,1,-30,45,-298,3933,-0.01,-0.02,-0.34,0.45,-2.98,39.33,-5.94,0.82,173.38,3.96,-0.56,-20.00
-4,-2,-49,-106,-453,3892,-0.03,-0.03,-0.61,-1.06,-4.53,38.92,-5.95,0.83,173.39,4.02,-0.50,-20.00
-1,-2,-35,-70,-386,3902,-0.04,-0.04,-0.76,-0.70,-3.86,39.02,-5.94,0.84,173.39,3.95,-0.51,-20.00
2,0,-48,-31,-434,3909,-0.02,-0.03,-0.98,-0.31,-4.34,39.09,-5.95,0.83,173.39,3.89,-0.54,-20.00
2,0,-51,-50,-440,3905,-0.01,-0.03,-1.19,-0.50,-4.40,39.05,-5.97,0.83,173.40,3.90,-0.54,-20.00
-3,0,-76,7,-264,3969,-0.02,-0.03,-1.53,0.07,-2.64,39.69,-5.95,0.82,173.40,3.99,-0.53,-20.00
-8,-11,-81,11,-281,3945,-0.07,-0.09,-1.87,0.11,-2.81,39.45,-5.93,0.81,173.41,4.10,-0.28,-20.00
0,-10,-112,-31,-388,3889,-0.06,-0.14,-2.37,-0.31,-3.88,38.89,-5.92,0.79,173.42,3.93,-0.28,-19.75
6,1,-104,-38,-435,3908,-0.02,-0.12,-2.77,-0.38,-4.35,39.08,-5.94,0.78,173.43,3.80,-0.50,-20.00
-5,-4,-93,-208,-581,3956,-0.05,-0.14,-3.06,-2.08,-5.81,39.56,-5.95,0.79,173.44,4.04,-0.40,-20.00
4,9,-71,-223,-518,3907,-0.02,-0.07,-3.19,-2.23,-5.18,39.07,-5.96,0.81,173.46,3.86,-0.70,-20.00
2,-1,-20,-64,-403,3864,-0.01,-0.07,-2.99,-0.64,-4.03,38.64,-5.96,0.82,173.47,3.90,-0.50,-20.00
1,1,-18,-50,-398,3892,0.00,-0.05,-2.80,-0.50,-3.98,38.92,-5.95,0.81,173.48,3.91,-0.54,-20.00
-1,2,-15,-26,-442,3921,-0.00,-0.04,-2.61,-0.26,-4.42,39.21,-5.96,0.80,173.49,3.96,-0.56,-20.00
2,1,-23,-15,-435,3904,0.01,-0.03,-2.49,-0.15,-4.35,39.04,-5.97,0.78,173.50,3.90,-0.53,-20.00
1,1,-24,-74,-361,3891,0.01,-0.02,-2.39,-0.74,-3.61,38.91,-5.96,0.79,173.51,3.91,-0.53,-20.00
0,0,-15,-72,-385,3913,0.01,-0.02,-2.24,-0.72,-3.85,39.13,-5.94,0.80,173.52,3.92,-0.52,-20.00
1,-2,-6,-53,-399,3908,0.02,-0.03,-2.05,-0.53,-3.99,39.08,-5.92,0.79,173.53,3.89,-0.47,-20.00
2,0,-3,-50,-403,3901,0.03,-0.02,-1.87,-0.50,-4.03,39.01,-5.92,0.77,173.53,3.86,-0.50,-20.00
1,1,0,-53,-397,3887,0.03,-0.02,-1.68,-0.53,-3.97,38.87,-5.90,0.77,173.54,3.86,-0.53,-20.00
1,0,-1,-58,-404,3904,0.03,-0.01,-1.52,-0.58,-4.04,39.04,-5.90,0.79,173.55,3.87,-0.52,-20.00
0,-1,-1,-50,-411,3900,0.03,-0.02,-1.37,-0.50,-4.11,39.00,-5.92,0.78,173.55,3.90,-0.49,-20.00
-1,-1,-1,-56,-413,3893,0.02,-0.02,-1.24,-0.56,-4.13,38.93,-5.93,0.79,173.56,3.93,-0.49,-20.00
-2,-1,-3,-71,-421,3916,0.01,-0.03,-1.14,-0.71,-4.21,39.16,-5.95,0.80,173.56,3.96,-0.50,-20.00
0,1,-1,-53,-403,3921,0.01,-0.02,-1.03,-0.53,-4.03,39.21,-5.93,0.79,173.56,3.91,-0.54,-20.00
-1,0,0,-47,-401,3902,-0.00,-0.02,-0.92,-0.47,-4.01,39.02,-5.92,0.78,173.57,3.93,-0.51,-20.00
1,0,0,-55,-413,3902,0.01,-0.01,-0.83,-0.55,-4.13,39.02,-5.94,0.78,173.57,3.90,-0.51,-20.00
0,0,0,-60,-411,3893,0.01,-0.01,-0.75,-0.60,-4.11,38.93,-5.95,0.79,173.58,3.93,-0.52,-20.00
-1,1,0,-51,-397,3896,-0.00,-0.01,-0.67,-0.51,-3.97,38.96,-5.93,0.79,173.58,3.94,-0.54,-20.00
-1,1,0,-54,-409,3901,-0.01,0.00,-0.61,-0.54,-4.09,39.01,-5.95,0.79,173.58,3.95,-0.54,-20.00
-1,1,1,-50,-411,3899,-0.01,0.01,-0.54,-0.50,-4.11,38.99,-5.97,0.78,173.58,3.96,-0.53,-20.00
0,2,0,-45,-410,3899,-0.01,0.02,-0.49,-0.45,-4.10,38.99,-5.97,0.76,173.58,3.94,-0.55,-20.00
-1,1,0,-56,-412,3905,-0.02,0.02,-0.44,-0.56,-4.12,39.05,-5.98,0.77,173.59,3.97,-0.54,-20.00
0,0,0,-57,-409,3914,-0.01,0.02,-0.39,-0.57,-4.09,39.14,-5.98,0.79,173.59,3.95,-0.53,-20.00
-1,0,-1,-51,-406,3907,-0.02,0.02,-0.36,-0.51,-4.06,39.07,-5.97,0.78,173.59,3.96,-0.52,-20.00
-1,1,0,-57,-401,3902,-0.02,0.02,-0.32,-0.57,-4.01,39.02,-5.95,0.79,173.59,3.95,-0.54,-20.00
0,1,0,-62,-401,3905,-0.02,0.03,-0.29,-0.62,-4.01,39.05,-5.94,0.80,173.59,3.93,-0.56,-20.00
-1,1,0,-55,-401,3903,-0.03,0.03,-0.26,-0.55,-4.01,39.03,-5.92,0.80,173.59,3.93,-0.56,-20.00
0,1,0,-61,-405,3897,-0.02,0.03,-0.24,-0.61,-4.05,38.97,-5.92,0.82,173.59,3.92,-0.57,-20.00
0,1,-1,-63,-415,3895,-0.02,0.04,-0.22,-0.63,-4.15,38.95,-5.94,0.83,173.59,3.93,-0.58,-20.00
-1,1,-2,-59,-415,3889,-0.02,0.04,-0.21,-0.59,-4.15,38.89,-5.96,0.83,173.60,3.96,-0.58,-20.00
-1,0,-1,-57,-414,3900,-0.03,0.03,-0.19,-0.57,-4.14,39.00,-5.97,0.83,173.60,3.97,-0.56,-20.00
0,1,1,-70,-359,3916,-0.03,0.04,-0.17,-0.70,-3.59,39.16,-5.96,0.84,173.60,3.94,-0.58,-20.00
1,-2,-17,-81,-348,3916,-0.02,0.02,-0.26,-0.81,-3.48,39.16,-5.94,0.84,173.60,3.90,-0.52,-20.00
1,2,3,-21,-479,3889,-0.01,0.03,-0.21,-0.21,-4.79,38.89,-5.96,0.84,173.60,3.91,-0.60,-20.00
4,3,-10,-51,-371,3923,0.02,0.05,-0.25,-0.51,-3.71,39.23,-5.94,0.83,173.60,3.83,-0.62,-20.00
-8,-8,-16,-18,-500,3893,-0.03,-0.01,-0.32,-0.18,-5.00,38.93,-5.96,0.83,173.60,4.10,-0.38,-20.00
0,-3,-71,-79,-510,3915,-0.03,-0.02,-0.72,-0.79,-5.10,39.15,-5.97,0.83,173.60,3.95,-0.48,-20.00
-3,-2,-77,-113,-436,3906,-0.05,-0.03,-1.12,-1.13,-4.36,39.06,-5.98,0.85,173.61,4.02,-0.51,-20.00
0,-1,-13,9,-401,3863,-0.04,-0.04,-1.09,0.09,-4.01,38.63,-5.98,0.83,173.61,3.96,-0.52,-20.00
-9,-6,-40,-23,-447,3926,-0.09,-0.07,-1.22,-0.23,-4.47,39.26,-5.99,0.81,173.62,4.16,-0.40,-20.00
5,2,-71,-76,-452,3903,-0.05,-0.05,-1.53,-0.76,-4.52,39.03,-6.01,0.82,173.62,3.88,-0.57,-20.00
3,0,-69,-7,-451,3842,-0.03,-0.05,-1.80,-0.07,-4.51,38.42,-6.02,0.81,173.63,3.92,-0.52,-20.00
-1,-1,-65,-9,-392,3919,-0.03,-0.05,-2.02,-0.09,-3.92,39.19,-6.02,0.79,173.64,4.00,-0.49,-20.00
1,0,-64,-37,-377,3925,-0.02,-0.04,-2.21,-0.37,-3.77,39.25,-6.00,0.78,173.65,3.95,-0.50,-20.00
4,4,-52,-26,-426,3927,0.00,-0.01,-2.30,-0.26,-4.26,39.27,-6.01,0.76,173.66,3.88,-0.58,-20.00
1,2,-58,15,-461,3895,0.01,-0.00,-2.43,0.15,-4.61,38.95,-6.02,0.75,173.67,3.95,-0.53,-20.00
2,-1,-99,6,-461,3902,0.02,-0.01,-2.79,0.06,-4.61,39.02,-6.03,0.73,173.68,3.93,-0.46,-20.00
2,0,-112,-41,-473,3898,0.03,-0.01,-3.19,-0.41,-4.73,38.98,-6.05,0.73,173.69,3.94,-0.48,-20.00
5,6,-121,-42,-327,3996,0.06,0.03,-3.61,-0.42,-3.27,39.96,-6.03,0.72,173.71,3.86,-0.61,-19.88
5,-2,-109,-72,-292,3854,0.08,0.02,-3.92,-0.72,-2.92,38.54,-6.01,0.73,173.72,3.84,-0.44,-20.00
3,-1,-61,-149,-289,3908,0.09,0.01,-3.90,-1.49,-2.89,39.08,-6.00,0.74,173.74,3.87,-0.47,-20.00
-1,-1,-41,-157,-307,3908,0.08,0.00,-3.76,-1.57,-3.07,39.08,-5.99,0.75,173.75,3.95,-0.47,-20.00
-1,-2,-11,-86,-390,3905,0.06,-0.01,-3.45,-0.86,-3.90,39.05,-5.98,0.76,173.76,3.95,-0.46,-20.00
-1,-1,-8,-62,-379,3908,0.05,-0.02,-3.15,-0.62,-3.79,39.08,-5.96,0.77,173.78,3.94,-0.48,-20.00
-2,-1,-2,-60,-394,3910,0.03,-0.02,-2.85,-0.60,-3.94,39.10,-5.94,0.77,173.79,3.95,-0.48,-20.00
-1,-1,-2,-61,-406,3906,0.02,-0.02,-2.58,-0.61,-4.06,39.06,-5.94,0.79,173.80,3.94,-0.49,-20.00
1,-1,-1,-56,-411,3896,0.03,-0.03,-2.32,-0.56,-4.11,38.96,-5.96,0.80,173.81,3.91,-0.50,-20.00
0,-1,-1,-59,-406,3904,0.03,-0.03,-2.10,-0.59,-4.06,39.04,-5.95,0.81,173.82,3.92,-0.51,-20.00
-1,0,-1,-70,-398,3896,0.02,-0.03,-1.89,-0.70,-3.98,38.96,-5.94,0.83,173.82,3.94,-0.54,-20.00
-1,0,1,-56,-407,3898,0.01,-0.03,-1.70,-0.56,-4.07,38.98,-5.96,0.82,173.83,3.95,-0.53,-20.00
0,1,2,-61,-411,3902,0.01,-0.02,-1.52,-0.61,-4.11,39.02,-5.97,0.83,173.84,3.94,-0.56,-20.00
0,1,2,-53,-407,3908,0.01,-0.01,-1.35,-0.53,-4.07,39.08,-5.96,0.81,173.84,3.93,-0.56,-20.00
0,0,1,-54,-395,3907,0.01,-0.01,-1.21,-0.54,-3.95,39.07,-5.95,0.81,173.85,3.92,-0.53,-20.00
0,0,1,-60,-408,3900,0.01,-0.01,-1.08,-0.60,-4.08,39.00,-5.95,0.83,173.85,3.93,-0.54,-20.00
-1,1,1,-51,-410,3912,-0.00,-0.00,-0.97,-0.51,-4.10,39.12,-5.96,0.81,173.85,3.95,-0.56,-20.00
0,-2,-5,-35,-404,3901,-0.00,-0.01,-0.90,-0.35,-4.04,39.01,-5.96,0.79,173.86,3.93,-0.48,-20.00
0,-1,-1,-73,-401,3911,-0.00,-0.02,-0.82,-0.73,-4.01,39.11,-5.95,0.81,173.86,3.93,-0.51,-20.00
0,1,-1,-35,-406,3905,-0.00,-0.01,-0.74,-0.35,-4.06,39.05,-5.95,0.79,173.86,3.93,-0.54,-20.00
1,0,-2,-56,-406,3902,0.01,-0.01,-0.68,-0.56,-4.06,39.02,-5.94,0.81,173.87,3.90,-0.53,-20.00
-1,-1,1,-75,-409,3910,-0.00,-0.01,-0.61,-0.75,-4.09,39.10,-5.95,0.82,173.87,3.94,-0.52,-20.00
-2,0,-1,-55,-410,3913,-0.01,-0.01,-0.55,-0.55,-4.10,39.13,-5.96,0.81,173.87,3.98,-0.53,-20.00
-1,-1,-3,-53,-397,3914,-0.02,-0.02,-0.52,-0.53,-3.97,39.14,-5.94,0.81,173.87,3.95,-0.51,-20.00
0,1,-1,-64,-400,3920,-0.02,-0.01,-0.47,-0.64,-4.00,39.20,-5.93,0.82,173.88,3.92,-0.56,-20.00
0,0,-4,-57,-413,3911,-0.01,-0.01,-0.45,-0.57,-4.13,39.11,-5.95,0.82,173.88,3.93,-0.54,-20.00
0,0,-2,-50,-411,3909,-0.01,-0.01,-0.41,-0.50,-4.11,39.09,-5.96,0.81,173.88,3.94,-0.53,-20.00
0,0,-2,-55,-403,3905,-0.01,-0.01,-0.39,-0.55,-4.03,39.05,-5.94,0.81,173.88,3.92,-0.53,-20.00
0,-1,-7,-44,-453,3905,-0.01,-0.01,-0.39,-0.44,-4.53,39.05,-5.96,0.80,173.88,3.93,-0.51,-20.00
7,8,-52,16,-646,3925,0.03,0.04,-0.67,0.16,-6.46,39.25,-5.97,0.80,173.89,3.79,-0.70,-20.00
11,-4,-464,270,-573,3871,0.10,0.01,-3.43,2.70,-5.73,38.71,-5.98,0.78,173.90,3.70,-0.44,3.44
8,-8,-503,67,-398,4000,0.14,-0.04,-6.16,0.67,-3.98,40.00,-5.98,0.76,173.92,3.75,-0.33,4.55
25,17,-467,-169,-421,4122,0.27,0.07,-8.39,-1.69,-4.21,41.22,-5.98,0.77,173.96,3.36,-0.87,0.85
7,-33,-499,-290,-554,3837,0.29,-0.14,-10.59,-2.90,-5.54,38.37,-5.99,0.78,174.00,3.73,0.19,1.78
19,-7,-607,-53,-794,3915,0.38,-0.17,-13.24,-0.53,-7.94,39.15,-6.00,0.78,174.05,3.47,-0.32,7.61
18,9,-655,113,-815,3956,0.45,-0.10,-15.91,1.13,-8.15,39.56,-6.02,0.76,174.12,3.48,-0.66,9.35
2,6,-723,-20,-788,3836,0.42,-0.05,-18.73,-0.20,-7.88,38.36,-6.04,0.75,174.19,3.83,-0.61,12.37
7,-14,-702,-63,-657,4017,0.42,-0.13,-21.14,-0.63,-6.57,40.17,-6.06,0.74,174.27,3.74,-0.17,9.58
10,-14,-592,-241,-166,4007,0.44,-0.20,-22.64,-2.41,-1.66,40.07,-6.04,0.74,174.36,3.66,-0.15,1.27
21,-9,-518,-345,13,3798,0.52,-0.24,-23.53,-3.45,0.13,37.98,-6.02,0.74,174.46,3.41,-0.24,-4.26
16,-16,-462,-315,138,3878,0.57,-0.31,-24.00,-3.15,1.38,38.78,-6.01,0.74,174.55,3.48,-0.08,-8.33
27,0,-463,-290,141,3868,0.67,-0.28,-24.42,-2.90,1.41,38.68,-5.99,0.74,174.65,3.22,-0.41,-8.52
8,3,-607,-267,-176,3893,0.66,-0.23,-25.68,-2.67,-1.76,38.93,-5.97,0.74,174.75,3.60,-0.48,0.52
12,-14,-660,-180,11,4000,0.66,-0.30,-27.14,-1.80,0.11,40.00,-5.95,0.73,174.86,3.51,-0.12,3.28
15,-16,-810,-109,-10,3955,0.69,-0.36,-29.37,-1.09,-0.10,39.55,-5.94,0.72,174.98,3.42,-0.05,12.18
16,-14,-863,-53,-85,3895,0.72,-0.41,-31.69,-0.53,-0.85,38.95,-5.92,0.71,175.10,3.38,-0.07,14.44
6,-17,-1104,-79,-391,3833,0.68,-0.48,-35.26,-0.79,-3.91,38.33,-5.91,0.71,175.24,3.59,0.01,20.00
31,-15,-1176,-58,-353,3937,0.80,-0.52,-38.91,-0.58,-3.53,39.37,-5.89,0.69,175.40,3.04,-0.01,20.00
16,-45,-1351,3,-326,4060,0.82,-0.74,-43.26,0.03,-3.26,40.60,-5.88,0.66,175.57,3.33,0.68,20.00
28,-21,-1412,-3,-338,3869,0.91,-0.80,-47.54,-0.03,-3.38,38.69,-5.86,0.63,175.76,3.05,0.23,20.00
31,-20,-1473,-91,-538,3854,1.01,-0.84,-51.78,-0.91,-5.38,38.54,-5.87,0.61,175.96,2.97,0.23,20.00
28,-8,-1480,-191,-576,3920,1.08,-0.80,-55.63,-1.91,-5.76,39.20,-5.89,0.60,176.18,3.02,-0.01,20.00
26,-6,-1485,-392,-453,3902,1.13,-0.76,-59.12,-3.92,-4.53,39.02,-5.89,0.59,176.42,3.05,-0.06,20.00
17,-32,-1491,-311,-412,3989,1.12,-0.88,-62.30,-3.11,-4.12,39.89,-5.88,0.58,176.67,3.23,0.51,20.00
6,-29,-1520,-253,-362,3912,1.04,-0.97,-65.35,-2.53,-3.62,39.12,-5.88,0.56,176.92,3.47,0.48,20.00
8,-46,-1528,-191,-376,3878,0.99,-1.15,-68.13,-1.91,-3.76,38.78,-5.88,0.55,177.20,3.45,0.89,20.00
9,-42,-1498,-164,-391,3988,0.94,-1.29,-70.46,-1.64,-3.91,39.88,-5.87,0.53,177.48,3.43,0.85,20.00
19,-28,-1470,-114,-421,3945,0.97,-1.33,-72.38,-1.14,-4.21,39.45,-5.87,0.52,177.76,3.23,0.59,20.00
23,-29,-1338,11,-301,3866,1.01,-1.38,-73.30,0.11,-3.01,38.66,-5.86,0.47,178.05,3.12,0.65,20.00
16,-19,-1261,17,-363,3913,1.01,-1.36,-73.66,0.17,-3.63,39.13,-5.84,0.42,178.35,3.26,0.48,17.38
11,-21,-1093,44,-573,3898,0.97,-1.35,-72.97,0.44,-5.73,38.98,-5.86,0.38,178.64,3.38,0.54,6.34
15,-18,-1058,22,-604,3853,0.97,-1.32,-72.12,0.22,-6.04,38.53,-5.87,0.34,178.92,3.31,0.50,4.40
12,-14,-926,129,-506,3807,0.94,-1.28,-70.56,1.29,-5.06,38.07,-5.88,0.29,179.20,3.38,0.44,-3.71
13,-7,-894,159,-494,3864,0.93,-1.19,-68.96,1.59,-4.94,38.64,-5.89,0.25,179.48,3.37,0.31,-5.02
24,-8,-753,181,-403,3951,0.98,-1.12,-66.65,1.81,-4.03,39.51,-5.89,0.19,179.74,3.13,0.34,-13.32
7,-15,-712,152,-456,3885,0.93,-1.10,-64.33,1.52,-4.56,38.85,-5.89,0.15,180.00,3.49,0.51,-14.84
10,-7,-550,279,-355,3890,0.89,-1.03,-61.25,2.79,-3.55,38.90,-5.88,0.10,-179.76,3.43,0.36,20.00
9,-8,-517,240,-383,3825,0.86,-0.98,-58.28,2.40,-3.83,38.25,-5.88,0.05,-179.53,3.46,0.39,20.00
6,-5,-441,123,-434,3869,0.81,-0.91,-55.14,1.23,-4.34,38.69,-5.88,0.01,-179.31,3.54,0.34,20.00
5,-13,-408,92,-445,3897,0.76,-0.90,-52.12,0.92,-4.45,38.97,-5.88,-0.03,-179.10,3.58,0.53,20.00
8,6,-368,8,-386,3870,0.73,-0.77,-49.15,0.08,-3.86,38.70,-5.87,-0.06,-178.91,3.51,0.13,20.00
9,-16,-366,51,-345,3946,0.71,-0.79,-46.47,0.51,-3.45,39.46,-5.85,-0.10,-178.72,3.48,0.61,20.00
-6,-14,-379,-10,-357,3913,0.61,-0.80,-44.13,-0.10,-3.57,39.13,-5.83,-0.11,-178.55,3.80,0.58,20.00
14,-15,-401,5,-368,3909,0.63,-0.81,-42.17,0.05,-3.68,39.09,-5.81,-0.13,-178.38,3.38,0.61,20.00
2,-12,-439,-67,-371,3895,0.58,-0.80,-40.63,-0.67,-3.71,38.95,-5.80,-0.13,-178.22,3.63,0.55,20.00
8,-1,-445,-103,-298,3885,0.57,-0.73,-39.28,-1.03,-2.98,38.85,-5.78,-0.14,-178.06,3.50,0.31,20.00
2,-11,-417,-84,-373,3958,0.53,-0.72,-37.90,-0.84,-3.73,39.58,-5.78,-0.14,-177.91,3.63,0.51,20.00
8,-3,-409,-49,-335,3914,0.52,-0.67,-36.60,-0.49,-3.35,39.14,-5.76,-0.14,-177.77,3.50,0.34,20.00
11,-1,-390,-49,-360,3883,0.54,-0.61,-35.32,-0.49,-3.60,38.83,-5.75,-0.14,-177.63,3.42,0.28,20.00
5,4,-364,-87,-338,3919,0.51,-0.52,-34.01,-0.87,-3.38,39.19,-5.74,-0.14,-177.49,3.55,0.16,20.00
7,-8,-356,-88,-286,3876,0.51,-0.52,-32.78,-0.88,-2.86,38.76,-5.72,-0.14,-177.36,3.50,0.40,20.00
9,-3,-357,-101,-308,3928,0.51,-0.49,-31.68,-1.01,-3.08,39.28,-5.71,-0.14,-177.23,3.45,0.29,20.00
13,-4,-329,-110,-307,3962,0.54,-0.46,-30.52,-1.10,-3.07,39.62,-5.70,-0.14,-177.11,3.35,0.30,20.00
12,-15,-314,-99,-361,3895,0.56,-0.51,-29.38,-0.99,-3.61,38.95,-5.69,-0.14,-177.00,3.36,0.54,20.00
8,-5,-289,-52,-388,3847,0.55,-0.49,-28.21,-0.52,-3.88,38.47,-5.69,-0.13,-176.88,3.44,0.32,20.00
7,3,-280,-69,-411,3939,0.54,-0.42,-27.09,-0.69,-4.11,39.39,-5.69,-0.13,-176.78,3.47,0.14,20.00
4,-6,-255,-32,-410,3936,0.51,-0.41,-25.94,-0.32,-4.10,39.36,-5.69,-0.12,-176.67,3.54,0.32,20.00
1,-8,-252,-12,-390,3892,0.46,-0.42,-24.88,-0.12,-3.90,38.92,-5.69,-0.12,-176.57,3.61,0.36,20.00
1,-5,-273,-6,-457,3877,0.42,-0.41,-24.06,-0.06,-4.57,38.77,-5.71,-0.13,-176.48,3.63,0.30,20.00
6,-1,-303,-7,-448,3877,0.42,-0.38,-23.50,-0.07,-4.48,38.77,-5.73,-0.13,-176.39,3.54,0.21,20.00
14,-11,-363,13,-401,3929,0.46,-0.40,-23.37,0.13,-4.01,39.29,-5.74,-0.15,-176.29,3.38,0.43,20.00
10,-13,-369,-27,-435,3872,0.48,-0.44,-23.28,-0.27,-4.35,38.72,-5.75,-0.15,-176.20,3.46,0.48,20.00
5,-8,-343,-21,-388,3857,0.46,-0.45,-23.04,-0.21,-3.88,38.57,-5.75,-0.14,-176.11,3.57,0.38,20.00
-4,3,-349,-2,-431,3924,0.39,-0.38,-22.87,-0.02,-4.31,39.24,-5.76,-0.15,-176.02,3.78,0.14,20.00
8,-10,-417,30,-360,3961,0.40,-0.41,-23.13,0.30,-3.60,39.61,-5.75,-0.17,-175.93,3.52,0.43,20.00
8,-7,-437,-15,-392,3884,0.41,-0.41,-23.48,-0.15,-3.92,38.84,-5.75,-0.16,-175.83,3.52,0.36,20.00
6,-7,-456,-156,-291,3878,0.40,-0.41,-23.91,-1.56,-2.91,38.78,-5.73,-0.16,-175.74,3.55,0.36,20.00
7,0,-448,-208,-309,3924,0.41,-0.37,-24.25,-2.08,-3.09,39.24,-5.73,-0.15,-175.64,3.53,0.20,20.00
13,-4,-414,-146,-198,3923,0.44,-0.36,-24.35,-1.46,-1.98,39.23,-5.71,-0.15,-175.54,3.38,0.28,20.00
10,-2,-414,-160,-167,3883,0.46,-0.33,-24.44,-1.60,-1.67,38.83,-5.69,-0.15,-175.45,3.43,0.23,20.00
7,0,-447,-239,-116,3887,0.46,-0.30,-24.73,-2.39,-1.16,38.87,-5.68,-0.15,-175.35,3.48,0.18,20.00
10,-15,-460,-229,-56,3968,0.47,-0.36,-25.06,-2.29,-0.56,39.68,-5.66,-0.15,-175.25,3.40,0.50,20.00
7,1,-509,-246,14,3943,0.47,-0.32,-25.66,-2.46,0.14,39.43,-5.64,-0.15,-175.15,3.45,0.17,20.00
13,-4,-535,-208,26,3916,0.50,-0.31,-26.36,-2.08,0.26,39.16,-5.62,-0.15,-175.04,3.31,0.27,20.00
16,-7,-645,-336,-34,3897,0.55,-0.32,-27.66,-3.36,-0.34,38.97,-5.61,-0.15,-174.93,3.23,0.33,20.00
15,-6,-673,-308,-28,3917,0.59,-0.33,-29.00,-3.08,-0.28,39.17,-5.59,-0.15,-174.82,3.23,0.31,20.00
17,-6,-752,-409,-51,3890,0.63,-0.33,-30.68,-4.09,-0.51,38.90,-5.58,-0.15,-174.69,3.16,0.31,20.00
19,-8,-772,-434,-45,3946,0.68,-0.35,-32.32,-4.34,-0.45,39.46,-5.56,-0.15,-174.57,3.10,0.36,20.00
14,-14,-845,-381,-71,3946,0.70,-0.40,-34.25,-3.81,-0.71,39.46,-5.55,-0.15,-174.43,3.19,0.49,20.00
14,-14,-891,-328,-112,3931,0.72,-0.44,-36.26,-3.28,-1.12,39.31,-5.54,-0.15,-174.29,3.17,0.51,20.00
36,-20,-1051,-85,-310,3989,0.86,-0.52,-39.04,-0.85,-3.10,39.89,-5.52,-0.16,-174.13,2.68,0.65,20.00
13,-16,-1105,-103,-395,3788,0.86,-0.57,-41.88,-1.03,-3.95,37.88,-5.52,-0.16,-173.96,3.15,0.58,20.00
12,-36,-1218,-9,-626,3900,0.84,-0.73,-45.12,-0.09,-6.26,39.00,-5.53,-0.18,-173.78,3.18,1.05,20.00
14,-23,-1238,71,-672,3911,0.85,-0.80,-48.16,0.71,-6.72,39.11,-5.55,-0.20,-173.59,3.15,0.82,20.00
12,-30,-1295,365,-686,3840,0.83,-0.90,-51.24,3.65,-6.86,38.40,-5.56,-0.24,-173.39,3.20,1.01,20.00
-1,-18,-1291,365,-795,3925,0.74,-0.92,-53.99,3.65,-7.95,39.25,-5.57,-0.27,-173.18,3.49,0.80,20.00
-2,-22,-1230,297,-783,3938,0.66,-0.96,-56.10,2.97,-7.83,39.38,-5.58,-0.31,-172.95,3.54,0.91,20.00
10,-23,-1179,235,-765,3942,0.65,-1.01,-57.68,2.35,-7.65,39.42,-5.59,-0.35,-172.72,3.31,0.97,20.00
6,-24,-889,88,-646,3882,0.62,-1.05,-57.33,0.88,-6.46,38.82,-5.60,-0.38,-172.50,3.41,1.02,20.00
9,-7,-721,36,-573,3930,0.62,-0.99,-56.00,0.36,-5.73,39.30,-5.62,-0.40,-172.27,3.36,0.68,20.00
10,-3,-443,-26,-417,3976,0.62,-0.91,-53.10,-0.26,-4.17,39.76,-5.62,-0.41,-172.06,3.34,0.58,20.00
6,-4,-397,30,-337,3940,0.59,-0.84,-50.21,0.30,-3.37,39.40,-5.60,-0.44,-171.86,3.41,0.60,20.00
12,-9,-338,18,-286,3954,0.61,-0.81,-47.25,0.18,-2.86,39.54,-5.58,-0.45,-171.67,3.27,0.70,20.00
6,-14,-342,-32,-336,3846,0.58,-0.82,-44.61,-0.32,-3.36,38.46,-5.56,-0.46,-171.50,3.39,0.81,20.00
6,-12,-415,113,-446,3907,0.56,-0.81,-42.68,1.13,-4.46,39.07,-5.57,-0.49,-171.33,3.40,0.79,20.00
3,-8,-445,159,-462,3881,0.52,-0.78,-41.13,1.59,-4.62,38.81,-5.58,-0.53,-171.16,3.48,0.72,20.00
0,-1,-617,81,-514,3827,0.47,-0.71,-40.78,0.81,-5.14,38.27,-5.59,-0.55,-171.00,3.56,0.58,20.00
9,-23,-659,107,-565,3980,0.48,-0.77,-40.72,1.07,-5.65,39.80,-5.61,-0.58,-170.84,3.39,1.06,20.00
24,-5,-770,-100,-461,3945,0.58,-0.73,-41.35,-1.00,-4.61,39.45,-5.61,-0.58,-170.68,3.06,0.68,20.00
13,-19,-784,-103,-370,3906,0.60,-0.77,-42.00,-1.03,-3.70,39.06,-5.60,-0.58,-170.51,3.27,0.98,20.00
4,-14,-787,-91,-264,3930,0.56,-0.78,-42.60,-0.91,-2.64,39.30,-5.59,-0.59,-170.34,3.45,0.89,20.00
6,-21,-788,-112,-284,3875,0.54,-0.83,-43.14,-1.12,-2.84,38.75,-5.57,-0.59,-170.17,3.41,1.04,20.00
14,-14,-768,-157,-309,3856,0.57,-0.83,-43.51,-1.57,-3.09,38.56,-5.56,-0.60,-170.00,3.23,0.90,20.00
3,-22,-759,-139,-382,3908,0.53,-0.88,-43.79,-1.39,-3.82,39.08,-5.56,-0.60,-169.82,3.46,1.08,20.00
-1,-10,-716,-75,-365,3880,0.48,-0.86,-43.78,-0.75,-3.65,38.80,-5.56,-0.60,-169.65,3.56,0.83,20.00
18,-13,-715,-66,-452,3940,0.54,-0.85,-43.76,-0.66,-4.52,39.40,-5.56,-0.60,-169.47,3.16,0.90,20.00
11,-17,-710,34,-494,3891,0.55,-0.87,-43.72,0.34,-4.94,38.91,-5.58,-0.62,-169.30,3.31,0.99,20.00
8,-9,-702,3,-485,3872,0.54,-0.84,-43.63,0.03,-4.85,38.72,-5.59,-0.64,-169.13,3.38,0.83,20.00
11,-21,-687,-40,-515,3942,0.56,-0.88,-43.46,-0.40,-5.15,39.42,-5.60,-0.65,-168.95,3.32,1.10,20.00
1,-22,-667,51,-443,3917,0.51,-0.93,-43.18,0.51,-4.43,39.17,-5.61,-0.67,-168.78,3.55,1.14,20.00
6,-16,-608,-35,-432,3967,0.49,-0.93,-42.57,-0.35,-4.32,39.67,-5.62,-0.68,-168.61,3.45,1.03,20.00
10,-5,-589,-41,-384,3898,0.51,-0.87,-41.91,-0.41,-3.84,38.98,-5.61,-0.68,-168.45,3.36,0.79,20.00
8,-7,-535,-138,-363,3967,0.50,-0.82,-40.98,-1.38,-3.63,39.67,-5.61,-0.68,-168.28,3.40,0.81,20.00
4,-18,-525,-83,-402,3877,0.48,-0.85,-40.08,-0.83,-4.02,38.77,-5.61,-0.68,-168.13,3.49,1.05,20.00
4,-12,-463,-64,-343,3893,0.45,-0.84,-38.90,-0.64,-3.43,38.93,-5.60,-0.68,-167.97,3.49,0.92,20.00
7,-11,-446,-85,-361,3934,0.45,-0.82,-37.73,-0.85,-3.61,39.34,-5.59,-0.68,-167.82,3.42,0.90,20.00
0,-14,-447,-29,-323,3909,0.41,-0.83,-36.68,-0.29,-3.23,39.09,-5.58,-0.68,-167.68,3.57,0.96,20.00
2,-21,-452,13,-379,3898,0.38,-0.87,-35.77,0.13,-3.79,38.98,-5.57,-0.68,-167.53,3.53,1.12,20.00
3,-13,-460,0,-415,3839,0.36,-0.86,-35.00,0.00,-4.15,38.39,-5.58,-0.69,-167.39,3.52,0.95,20.00
13,-11,-470,-47,-443,3839,0.40,-0.84,-34.37,-0.47,-4.43,38.39,-5.59,-0.69,-167.26,3.31,0.91,20.00
8,-6,-469,4,-267,3863,0.41,-0.80,-33.79,0.04,-2.67,38.63,-5.57,-0.70,-167.12,3.40,0.80,20.00
9,0,-453,-49,-265,3915,0.42,-0.72,-33.18,-0.49,-2.65,39.15,-5.55,-0.70,-166.99,3.36,0.66,20.00
5,-12,-412,-100,-414,3934,0.41,-0.72,-32.37,-1.00,-4.14,39.34,-5.55,-0.70,-166.86,3.45,0.90,20.00
10,-1,-402,-75,-373,3895,0.43,-0.65,-31.59,-0.75,-3.73,38.95,-5.55,-0.70,-166.74,3.34,0.66,20.00
8,-13,-397,-46,-315,3908,0.44,-0.67,-30.85,-0.46,-3.15,39.08,-5.53,-0.69,-166.61,3.37,0.90,20.00
11,-10,-401,-46,-348,3912,0.46,-0.66,-30.21,-0.46,-3.48,39.12,-5.52,-0.69,-166.49,3.30,0.84,20.00
6,-8,-406,6,-271,3955,0.45,-0.64,-29.67,0.06,-2.71,39.55,-5.50,-0.70,-166.38,3.39,0.80,20.00
14,-4,-408,-20,-277,3878,0.49,-0.60,-29.19,-0.20,-2.77,38.78,-5.49,-0.70,-166.26,3.20,0.71,20.00
1,-9,-427,-25,-409,3893,0.45,-0.60,-28.87,-0.25,-4.09,38.93,-5.49,-0.70,-166.15,3.48,0.81,20.00
11,-11,-437,-58,-421,3953,0.47,-0.61,-28.65,-0.58,-4.21,39.53,-5.49,-0.70,-166.03,3.27,0.85,20.00
6,2,-415,-146,-272,3989,0.46,-0.53,-28.32,-1.46,-2.72,39.89,-5.48,-0.69,-165.92,3.37,0.56,20.00
2,-16,-400,-15,-226,3885,0.43,-0.58,-27.93,-0.15,-2.26,38.85,-5.46,-0.70,-165.81,3.45,0.94,20.00
-2,-9,-418,-47,-190,3923,0.37,-0.57,-27.68,-0.47,-1.90,39.23,-5.44,-0.70,-165.70,3.53,0.80,20.00
13,-11,-421,-72,-196,3923,0.41,-0.58,-27.48,-0.72,-1.96,39.23,-5.42,-0.71,-165.59,3.20,0.85,20.00
8,1,-416,-87,-224,3937,0.42,-0.52,-27.27,-0.87,-2.24,39.37,-5.41,-0.71,-165.48,3.29,0.59,20.00
9,-2,-430,-26,-163,3896,0.43,-0.48,-27.17,-0.26,-1.63,38.96,-5.39,-0.71,-165.37,3.25,0.64,20.00
11,-1,-506,-127,-152,3904,0.46,-0.44,-27.54,-1.27,-1.52,39.04,-5.37,-0.71,-165.26,3.20,0.61,20.00
13,-9,-536,-98,-207,3929,0.49,-0.45,-28.05,-0.98,-2.07,39.29,-5.35,-0.71,-165.15,3.13,0.78,20.00
13,-18,-643,-160,-258,3884,0.52,-0.51,-29.17,-1.60,-2.58,38.84,-5.34,-0.71,-165.03,3.12,0.97,20.00
15,-15,-711,-224,-293,3963,0.56,-0.55,-30.59,-2.24,-2.93,39.63,-5.33,-0.70,-164.91,3.06,0.92,20.00
11,-17,-789,-161,-264,3932,0.57,-0.60,-32.34,-1.61,-2.64,39.32,-5.32,-0.70,-164.78,3.13,0.97,20.00
13,-20,-822,-135,-279,3859,0.59,-0.66,-34.12,-1.35,-2.79,38.59,-5.31,-0.70,-164.65,3.08,1.05,20.00
3,-15,-874,-45,-291,3912,0.55,-0.69,-36.04,-0.45,-2.91,39.12,-5.29,-0.70,-164.50,3.28,0.96,20.00
24,-26,-892,-54,-367,3953,0.64,-0.78,-37.88,-0.54,-3.67,39.53,-5.29,-0.70,-164.35,2.83,1.20,20.00
25,-17,-915,-154,-393,3869,0.73,-0.80,-39.67,-1.54,-3.93,38.69,-5.29,-0.70,-164.20,2.78,1.03,20.00
17,-5,-912,-55,-326,3917,0.76,-0.75,-41.27,-0.55,-3.26,39.17,-5.28,-0.70,-164.03,2.93,0.77,20.00
12,-9,-919,-47,-391,3919,0.76,-0.73,-42.75,-0.47,-3.91,39.19,-5.28,-0.70,-163.86,3.03,0.85,20.00
16,-10,-911,-4,-379,3963,0.78,-0.72,-44.03,-0.04,-3.79,39.63,-5.28,-0.70,-163.69,2.94,0.86,20.00
21,-21,-878,-3,-444,3855,0.83,-0.78,-44.98,-0.03,-4.44,38.55,-5.29,-0.71,-163.51,2.84,1.11,20.00
8,-12,-843,-39,-439,3978,0.80,-0.77,-45.63,-0.39,-4.39,39.78,-5.29,-0.72,-163.33,3.11,0.93,20.00
16,-18,-763,40,-430,3939,0.81,-0.81,-45.72,0.40,-4.30,39.39,-5.30,-0.74,-163.15,2.95,1.07,20.00
15,-8,-733,61,-423,3954,0.82,-0.77,-45.62,0.61,-4.23,39.54,-5.32,-0.76,-162.96,2.98,0.88,20.00
9,-26,-630,32,-398,3966,0.80,-0.86,-44.90,0.32,-3.98,39.66,-5.33,-0.77,-162.79,3.11,1.27,20.00
0,-10,-600,46,-395,3762,0.72,-0.83,-44.07,0.46,-3.95,37.62,-5.34,-0.79,-162.61,3.33,0.95,20.00
3,-22,-540,72,-376,3865,0.66,-0.88,-42.96,0.72,-3.76,38.65,-5.35,-0.82,-162.44,3.29,1.23,20.00
9,-1,-533,-14,-378,3814,0.65,-0.80,-41.91,-0.14,-3.78,38.14,-5.35,-0.82,-162.27,3.17,0.78,20.00
0,-4,-497,-3,-379,3824,0.59,-0.74,-40.75,-0.03,-3.79,38.24,-5.35,-0.82,-162.11,3.37,0.83,20.00
6,-9,-493,-26,-403,3975,0.57,-0.72,-39.68,-0.26,-4.03,39.75,-5.35,-0.82,-161.95,3.25,0.92,20.00
7,1,-489,7,-442,3897,0.55,-0.65,-38.70,0.07,-4.42,38.97,-5.36,-0.83,-161.80,3.25,0.70,20.00
9,-9,-486,-5,-464,3865,0.55,-0.64,-37.79,-0.05,-4.64,38.65,-5.37,-0.84,-161.65,3.21,0.91,20.00
7,-10,-458,-63,-402,3814,0.54,-0.63,-36.81,-0.63,-4.02,38.14,-5.37,-0.84,-161.50,3.26,0.93,20.00
5,-6,-452,-97,-384,3911,0.52,-0.61,-35.88,-0.97,-3.84,39.11,-5.37,-0.84,-161.36,3.30,0.84,20.00
5,-3,-378,-20,-356,3898,0.49,-0.56,-34.60,-0.20,-3.56,38.98,-5.36,-0.83,-161.22,3.30,0.76,20.00
3,-13,-358,35,-341,3950,0.46,-0.59,-33.33,0.35,-3.41,39.50,-5.35,-0.84,-161.09,3.34,0.98,20.00
5,-1,-302,-101,-390,3917,0.45,-0.53,-31.84,-1.01,-3.90,39.17,-5.35,-0.83,-160.96,3.30,0.72,20.00
10,-6,-287,-94,-388,3935,0.46,-0.52,-30.40,-0.94,-3.88,39.35,-5.34,-0.83,-160.84,3.20,0.81,20.00
10,1,-240,-160,-309,3950,0.48,-0.46,-28.83,-1.60,-3.09,39.50,-5.34,-0.82,-160.73,3.19,0.65,20.00
10,-5,-212,-155,-324,3904,0.49,-0.44,-27.24,-1.55,-3.24,39.04,-5.33,-0.82,-160.62,3.18,0.76,20.00
-3,-7,-213,-99,-374,3939,0.42,-0.44,-25.81,-0.99,-3.74,39.39,-5.33,-0.81,-160.52,3.46,0.80,20.00
4,-6,-225,-163,-434,3812,0.41,-0.44,-24.60,-1.63,-4.34,38.12,-5.33,-0.80,-160.42,3.33,0.77,20.00
9,3,-197,-120,-456,3922,0.42,-0.37,-23.34,-1.20,-4.56,39.22,-5.33,-0.80,-160.33,3.22,0.57,20.00
8,9,-206,-90,-397,3884,0.43,-0.28,-22.27,-0.90,-3.97,38.84,-5.34,-0.79,-160.24,3.24,0.41,20.00
-9,1,-308,-176,-444,3955,0.33,-0.25,-21.92,-1.76,-4.44,39.55,-5.34,-0.78,-160.15,3.62,0.56,20.00
-15,-19,-363,-145,-427,3976,0.21,-0.34,-21.94,-1.45,-4.27,39.76,-5.34,-0.77,-160.06,3.77,0.99,20.00
11,-4,-475,-216,-264,3936,0.25,-0.33,-22.64,-2.16,-2.64,39.36,-5.33,-0.76,-159.97,3.23,0.68,20.00
-5,-22,-494,-126,-276,3878,0.20,-0.43,-23.39,-1.26,-2.76,38.78,-5.32,-0.76,-159.88,3.56,1.06,20.00
-1,-14,-494,144,-336,4047,0.17,-0.47,-24.07,1.44,-3.36,40.47,-5.31,-0.79,-159.79,3.48,0.93,20.00
15,-4,-480,109,-284,3934,0.24,-0.45,-24.59,1.09,-2.84,39.34,-5.30,-0.81,-159.69,3.12,0.74,20.00
-2,-17,-415,36,-497,3870,0.21,-0.51,-24.66,0.36,-4.97,38.70,-5.31,-0.82,-159.59,3.49,1.02,20.00
10,10,-385,32,-319,4016,0.25,-0.40,-24.54,0.32,-3.19,40.16,-5.29,-0.82,-159.49,3.22,0.44,20.00
22,8,-302,-69,-266,3937,0.36,-0.31,-23.93,-0.69,-2.66,39.37,-5.28,-0.81,-159.40,2.94,0.46,20.00
8,3,-267,36,-258,3862,0.37,-0.26,-23.17,0.36,-2.58,38.62,-5.26,-0.82,-159.30,3.21,0.55,20.00
-6,-26,-274,-48,-375,3931,0.30,-0.39,-22.52,-0.48,-3.75,39.31,-5.26,-0.81,-159.21,3.51,1.17,20.00
-3,6,-287,-87,-316,3916,0.25,-0.32,-22.02,-0.87,-3.16,39.16,-5.25,-0.80,-159.13,3.46,0.49,20.00
0,-8,-373,-34,-258,4045,0.22,-0.33,-22.09,-0.34,-2.58,40.45,-5.23,-0.80,-159.04,3.39,0.78,20.00
16,-5,-371,-70,-175,3840,0.30,-0.33,-22.15,-0.70,-1.75,38.40,-5.22,-0.80,-158.95,3.04,0.72,20.00
20,-9,-357,-73,-166,3839,0.39,-0.35,-22.11,-0.73,-1.66,38.39,-5.20,-0.80,-158.86,2.92,0.81,20.00
15,5,-327,-33,-210,3865,0.44,-0.29,-21.89,-0.33,-2.10,38.65,-5.18,-0.80,-158.77,2.99,0.50,20.00
18,-3,-245,56,-408,3895,0.51,-0.28,-21.20,0.56,-4.08,38.95,-5.20,-0.81,-158.69,2.92,0.67,20.00
10,-3,-201,55,-401,3964,0.52,-0.27,-20.31,0.55,-4.01,39.64,-5.21,-0.82,-158.61,3.09,0.67,20.00
7,-2,-134,9,-410,3882,0.51,-0.25,-19.09,0.09,-4.10,38.82,-5.22,-0.81,-158.53,3.16,0.65,20.00
5,0,-132,-6,-380,3929,0.49,-0.23,-17.99,-0.06,-3.80,39.29,-5.22,-0.80,-158.46,3.21,0.59,20.00
4,-5,-123,-31,-325,3898,0.46,-0.23,-16.94,-0.31,-3.25,38.98,-5.22,-0.79,-158.40,3.23,0.69,20.00
3,0,-121,-25,-321,3902,0.44,-0.21,-15.98,-0.25,-3.21,39.02,-5.21,-0.78,-158.33,3.26,0.57,20.00
1,-7,-133,10,-280,3895,0.40,-0.23,-15.20,0.10,-2.80,38.95,-5.19,-0.78,-158.27,3.29,0.72,20.00
-15,-3,-138,77,-227,4005,0.27,-0.23,-14.52,0.77,-2.27,40.05,-5.17,-0.79,-158.21,3.64,0.64,20.00
-18,-12,-211,-49,-306,3890,0.13,-0.28,-14.35,-0.49,-3.06,38.90,-5.16,-0.78,-158.16,3.73,0.83,20.00
-16,-3,-246,-148,-369,3845,0.02,-0.27,-14.42,-1.48,-3.69,38.45,-5.16,-0.77,-158.10,3.73,0.64,20.00
12,-2,-299,-153,-376,3809,0.09,-0.25,-14.80,-1.53,-3.76,38.09,-5.16,-0.75,-158.04,3.14,0.61,20.00
15,2,-272,-74,-326,3961,0.17,-0.22,-14.98,-0.74,-3.26,39.61,-5.16,-0.74,-157.98,3.05,0.51,20.00
16,1,-257,-72,-299,3921,0.25,-0.19,-15.05,-0.72,-2.99,39.21,-5.15,-0.73,-157.92,3.00,0.51,20.00
0,-5,-252,-34,-353,3920,0.23,-0.20,-15.08,-0.34,-3.53,39.20,-5.14,-0.72,-157.86,3.33,0.63,20.00
-9,-7,-329,-82,-285,3831,0.15,-0.22,-15.58,-0.82,-2.85,38.31,-5.14,-0.71,-157.80,3.53,0.67,20.00
-1,-7,-333,-199,-331,3862,0.13,-0.24,-16.05,-1.99,-3.31,38.62,-5.13,-0.70,-157.73,3.37,0.67,20.00
2,-12,-314,91,-233,4097,0.13,-0.29,-16.36,0.91,-2.33,40.97,-5.11,-0.71,-157.67,3.30,0.79,20.00
-22,-17,-310,238,-205,3919,-0.02,-0.37,-16.62,2.38,-2.05,39.19,-5.10,-0.73,-157.60,3.82,0.93,20.00
4,-2,-355,-221,-462,3711,0.01,-0.34,-17.12,-2.21,-4.62,37.11,-5.11,-0.72,-157.53,3.29,0.61,20.00
-1,-10,-352,-267,-524,3874,0.00,-0.37,-17.56,-2.67,-5.24,38.74,-5.12,-0.72,-157.46,3.40,0.78,20.00
-14,-29,-429,110,-392,3951,-0.08,-0.51,-18.42,1.10,-3.92,39.51,-5.13,-0.74,-157.39,3.69,1.22,20.00
0,-11,-453,-77,-293,3810,-0.08,-0.53,-19.34,-0.77,-2.93,38.10,-5.12,-0.73,-157.31,3.40,0.85,20.00
20,-10,-469,-49,-241,4080,0.05,-0.53,-20.27,-0.49,-2.41,40.80,-5.10,-0.73,-157.23,2.95,0.83,20.00
15,-10,-460,13,-287,3930,0.14,-0.54,-21.05,0.13,-2.87,39.30,-5.09,-0.73,-157.15,3.01,0.83,20.00
20,-22,-484,-19,-352,3843,0.25,-0.62,-21.89,-0.19,-3.52,38.43,-5.09,-0.72,-157.06,2.88,1.09,20.00
35,-8,-483,-210,-375,3823,0.44,-0.61,-22.65,-2.10,-3.75,38.23,-5.09,-0.71,-156.97,2.53,0.80,20.00
-1,-10,-397,244,-334,3816,0.39,-0.61,-22.81,2.44,-3.34,38.16,-5.08,-0.74,-156.88,3.27,0.86,20.00
20,1,-377,132,-313,3923,0.47,-0.54,-22.83,1.32,-3.13,39.23,-5.07,-0.77,-156.79,2.81,0.64,20.00
13,8,-264,-190,-562,3820,0.50,-0.44,-22.15,-1.90,-5.62,38.20,-5.08,-0.77,-156.70,2.95,0.46,20.00
17,2,-248,-181,-534,3924,0.56,-0.38,-21.45,-1.81,-5.34,39.24,-5.09,-0.76,-156.62,2.86,0.57,20.00
10,-1,-230,7,-285,3978,0.56,-0.35,-20.71,0.07,-2.85,39.78,-5.07,-0.76,-156.54,2.99,0.62,20.00
-6,-27,-322,223,-160,3867,0.47,-0.48,-20.60,2.23,-1.60,38.67,-5.06,-0.78,-156.45,3.33,1.20,20.00
23,19,-424,-310,-245,3758,0.56,-0.32,-21.13,-3.10,-2.45,37.58,-5.05,-0.77,-156.37,2.71,0.21,20.00
8,-16,-427,-222,-252,3906,0.55,-0.38,-21.62,-2.22,-2.52,39.06,-5.04,-0.76,-156.28,3.01,0.93,20.00
2,-22,-407,142,-383,4041,0.51,-0.48,-21.94,1.42,-3.83,40.41,-5.04,-0.79,-156.20,3.15,1.10,20.00
-17,-7,-393,149,-399,3866,0.36,-0.47,-22.14,1.49,-3.99,38.66,-5.05,-0.82,-156.11,3.58,0.81,20.00
13,-26,-357,138,-392,3856,0.40,-0.58,-22.11,1.38,-3.92,38.56,-5.05,-0.84,-156.02,2.96,1.24,20.00
37,-2,-341,-130,-522,3790,0.59,-0.54,-21.98,-1.30,-5.22,37.90,-5.06,-0.84,-155.93,2.43,0.74,20.00
25,2,-210,39,-457,3932,0.68,-0.47,-21.06,0.39,-4.57,39.32,-5.08,-0.84,-155.85,2.66,0.65,20.00
23,7,-188,42,-434,3931,0.75,-0.38,-20.10,0.42,-4.34,39.31,-5.09,-0.85,-155.77,2.69,0.52,20.00
1,-6,-107,101,-348,3917,0.68,-0.38,-18.74,1.01,-3.48,39.17,-5.09,-0.88,-155.70,3.15,0.80,20.00
-7,-5,-92,20,-361,3951,0.57,-0.37,-17.43,0.20,-3.61,39.51,-5.09,-0.87,-155.63,3.34,0.78,19.80
3,2,-104,-131,-341,3796,0.53,-0.32,-16.32,-1.31,-3.41,37.96,-5.08,-0.85,-155.56,3.15,0.61,20.00
9,3,-107,-179,-372,3923,0.53,-0.27,-15.34,-1.79,-3.72,39.23,-5.08,-0.84,-155.50,3.03,0.57,20.00
2,-4,-125,62,-229,4036,0.49,-0.27,-14.57,0.62,-2.29,40.36,-5.06,-0.85,-155.44,3.17,0.72,20.00
2,-11,-149,113,-137,3984,0.46,-0.31,-14.02,1.13,-1.37,39.84,-5.04,-0.86,-155.39,3.16,0.88,20.00
7,-7,-207,-223,-369,3907,0.45,-0.32,-13.88,-2.23,-3.69,39.07,-5.04,-0.85,-155.33,3.06,0.79,20.00
13,3,-220,-95,-373,3916,0.49,-0.27,-13.84,-0.95,-3.73,39.16,-5.04,-0.84,-155.28,2.93,0.56,20.00
-4,-2,-226,113,-240,3902,0.41,-0.26,-13.83,1.13,-2.40,39.02,-5.02,-0.85,-155.22,3.28,0.67,20.00
-14,-7,-221,63,-217,3930,0.29,-0.27,-13.80,0.63,-2.17,39.30,-5.00,-0.86,-155.17,3.51,0.78,20.00
9,-4,-198,-76,-442,3840,0.31,-0.27,-13.62,-0.76,-4.42,38.40,-5.01,-0.85,-155.11,3.04,0.72,20.00
3,-5,-193,-31,-401,3992,0.30,-0.27,-13.44,-0.31,-4.01,39.92,-5.02,-0.84,-155.06,3.17,0.73,20.00
-1,9,-198,-31,-273,3911,0.26,-0.19,-13.30,-0.31,-2.73,39.11,-5.01,-0.83,-155.01,3.25,0.42,20.00
-2,9,-216,-23,-229,3933,0.23,-0.12,-13.29,-0.23,-2.29,39.33,-4.99,-0.82,-154.95,3.27,0.39,20.00
8,1,-201,-122,-414,3916,0.25,-0.10,-13.19,-1.22,-4.14,39.16,-4.99,-0.81,-154.90,3.06,0.54,20.00
4,-6,-205,36,-359,3973,0.25,-0.13,-13.12,0.36,-3.59,39.73,-5.00,-0.80,-154.85,3.15,0.69,20.00
-4,-6,-215,34,-325,3890,0.20,-0.15,-13.12,0.34,-3.25,38.90,-4.99,-0.79,-154.80,3.32,0.69,20.00
3,-1,-207,13,-373,3896,0.20,-0.14,-13.07,0.13,-3.73,38.96,-5.00,-0.78,-154.74,3.18,0.58,20.00
6,-2,-139,40,-408,3908,0.22,-0.14,-12.61,0.40,-4.08,39.08,-5.02,-0.78,-154.69,3.13,0.60,20.00
3,0,-127,28,-390,3903,0.21,-0.13,-12.12,0.28,-3.90,39.03,-5.03,-0.78,-154.65,3.20,0.55,20.00
-2,1,-132,-26,-283,3896,0.18,-0.11,-11.72,-0.26,-2.83,38.96,-5.02,-0.77,-154.60,3.30,0.52,20.00
2,7,-163,-101,-245,3882,0.17,-0.05,-11.54,-1.01,-2.45,38.82,-5.01,-0.76,-154.55,3.22,0.37,20.00
2,2,-231,-102,-283,3893,0.17,-0.04,-11.79,-1.02,-2.83,38.93,-5.00,-0.75,-154.51,3.21,0.46,20.00
3,-8,-249,-41,-246,3948,0.17,-0.08,-12.13,-0.41,-2.46,39.48,-4.98,-0.74,-154.46,3.18,0.67,20.00
6,-7,-273,-22,-394,3876,0.19,-0.12,-12.59,-0.22,-3.94,38.76,-4.99,-0.73,-154.41,3.12,0.65,20.00
1,-5,-267,-28,-375,3864,0.18,-0.13,-12.96,-0.28,-3.75,38.64,-5.00,-0.72,-154.36,3.23,0.61,20.00
4,2,-261,-25,-367,3884,0.18,-0.11,-13.25,-0.25,-3.67,38.84,-5.01,-0.70,-154.30,3.17,0.45,20.00
6,1,-264,-35,-336,3956,0.20,-0.09,-13.54,-0.35,-3.36,39.56,-5.00,-0.69,-154.25,3.12,0.46,20.00
8,11,-285,-73,-393,3832,0.23,-0.02,-13.92,-0.73,-3.93,38.32,-5.01,-0.68,-154.19,3.08,0.23,20.00
2,-6,-285,-70,-411,4007,0.22,-0.05,-14.27,-0.70,-4.11,40.07,-5.01,-0.67,-154.14,3.21,0.58,20.00
0,-10,-272,48,-337,3949,0.20,-0.11,-14.50,0.48,-3.37,39.49,-5.00,-0.68,-154.08,3.24,0.68,20.00
-2,-7,-259,1,-328,3887,0.17,-0.14,-14.63,0.01,-3.28,38.87,-4.99,-0.67,-154.02,3.29,0.62,20.00
5,-4,-245,21,-322,3916,0.18,-0.15,-14.66,0.21,-3.22,39.16,-4.98,-0.66,-153.96,3.13,0.56,20.00
5,-4,-237,21,-320,3923,0.19,-0.16,-14.64,0.21,-3.20,39.23,-4.96,-0.65,-153.90,3.12,0.55,20.00
4,2,-222,-39,-374,3923,0.20,-0.13,-14.53,-0.39,-3.74,39.23,-4.97,-0.64,-153.85,3.14,0.42,20.00
4,-7,-216,0,-377,3931,0.20,-0.16,-14.40,0.00,-3.77,39.31,-4.98,-0.63,-153.79,3.15,0.60,20.00
4,1,-174,36,-364,3913,0.21,-0.14,-14.02,0.36,-3.64,39.13,-4.99,-0.63,-153.73,3.16,0.43,20.00
-2,-3,-160,64,-343,3929,0.17,-0.14,-13.59,0.64,-3.43,39.29,-4.99,-0.65,-153.68,3.29,0.53,20.00
1,-4,-106,-16,-400,3916,0.16,-0.15,-12.88,-0.16,-4.00,39.16,-5.00,-0.64,-153.63,3.24,0.55,20.00
2,-2,-92,-1,-406,3884,0.16,-0.15,-12.15,-0.01,-4.06,38.84,-5.02,-0.64,-153.58,3.23,0.50,20.00
0,0,-60,8,-362,3915,0.14,-0.13,-11.30,0.08,-3.62,39.15,-5.03,-0.63,-153.53,3.28,0.45,20.00
-2,2,-51,30,-331,3877,0.12,-0.11,-10.48,0.30,-3.31,38.77,-5.01,-0.62,-153.49,3.32,0.40,20.00
1,-1,-65,10,-316,3915,0.11,-0.10,-9.83,0.10,-3.16,39.15,-5.00,-0.61,-153.45,3.25,0.45,20.00
-1,-5,-64,7,-352,3900,0.09,-0.12,-9.24,0.07,-3.52,39.00,-5.00,-0.59,-153.42,3.30,0.53,20.00
3,-1,-53,-33,-413,3926,0.10,-0.12,-8.64,-0.33,-4.13,39.26,-5.02,-0.58,-153.38,3.22,0.44,20.00
1,1,-52,-9,-380,3879,0.10,-0.10,-8.09,-0.09,-3.80,38.79,-5.03,-0.57,-153.35,3.27,0.38,20.00
1,0,-58,-14,-346,3905,0.09,-0.09,-7.64,-0.14,-3.46,39.05,-5.03,-0.56,-153.32,3.27,0.39,20.00
0,-1,-59,-11,-334,3894,0.08,-0.09,-7.23,-0.11,-3.34,38.94,-5.02,-0.54,-153.29,3.29,0.40,20.00
5,2,-64,-35,-363,3887,0.11,-0.07,-6.90,-0.35,-3.63,38.87,-5.03,-0.53,-153.26,3.19,0.32,20.00
3,0,-56,-37,-369,3896,0.11,-0.06,-6.55,-0.37,-3.69,38.96,-5.03,-0.51,-153.24,3.23,0.35,20.00
-1,-5,-41,-38,-336,3939,0.10,-0.08,-6.15,-0.38,-3.36,39.39,-5.03,-0.50,-153.21,3.31,0.45,20.00
-2,-3,-38,-13,-336,3905,0.08,-0.09,-5.76,-0.13,-3.36,39.05,-5.03,-0.48,-153.19,3.34,0.40,20.00
-2,1,-38,-38,-348,3931,0.06,-0.08,-5.42,-0.38,-3.48,39.31,-5.03,-0.46,-153.17,3.34,0.31,20.00
3,-2,-37,-31,-343,3877,0.07,-0.08,-5.10,-0.31,-3.43,38.77,-5.03,-0.45,-153.15,3.24,0.36,20.00
2,1,-31,-12,-325,3912,0.07,-0.07,-4.78,-0.12,-3.25,39.12,-5.02,-0.43,-153.13,3.25,0.28,20.00
3,2,-32,4,-315,3911,0.08,-0.05,-4.50,0.04,-3.15,39.11,-5.01,-0.42,-153.11,3.22,0.25,20.00
-4,1,-43,-69,-280,3896,0.05,-0.04,-4.31,-0.69,-2.80,38.96,-5.00,-0.41,-153.09,3.36,0.26,20.00
0,0,-53,-53,-283,3941,0.05,-0.03,-4.20,-0.53,-2.83,39.41,-4.98,-0.40,-153.08,3.28,0.27,20.00
-2,-2,-87,-37,-321,3902,0.03,-0.04,-4.31,-0.37,-3.21,39.02,-4.98,-0.38,-153.06,3.32,0.30,20.00
-1,-3,-90,-62,-350,3924,0.02,-0.06,-4.43,-0.62,-3.50,39.24,-4.98,-0.36,-153.04,3.30,0.32,20.00
2,-3,-120,-77,-295,3908,0.03,-0.07,-4.72,-0.77,-2.95,39.08,-4.97,-0.35,-153.02,3.23,0.31,20.00
3,-1,-146,-49,-243,3913,0.05,-0.07,-5.14,-0.49,-2.43,39.13,-4.96,-0.34,-153.00,3.20,0.26,20.00
5,-11,-179,-110,-326,3905,0.07,-0.13,-5.72,-1.10,-3.26,39.05,-4.96,-0.32,-152.98,3.15,0.47,20.00
4,2,-182,-99,-346,3865,0.09,-0.10,-6.26,-0.99,-3.46,38.65,-4.96,-0.31,-152.96,3.17,0.19,20.00
1,-8,-198,-2,-357,3892,0.09,-0.14,-6.84,-0.02,-3.57,38.92,-4.97,-0.30,-152.93,3.23,0.40,20.00
0,-1,-206,-2,-390,3828,0.08,-0.13,-7.41,-0.02,-3.90,38.28,-4.98,-0.29,-152.90,3.27,0.25,20.00
0,-5,-236,5,-347,3934,0.07,-0.15,-8.11,0.05,-3.47,39.34,-4.99,-0.28,-152.87,3.27,0.33,20.00
-3,2,-243,44,-357,3884,0.04,-0.12,-8.78,0.44,-3.57,38.84,-5.00,-0.30,-152.83,3.35,0.19,20.00
4,4,-265,-20,-456,3929,0.06,-0.09,-9.52,-0.20,-4.56,39.29,-5.02,-0.30,-152.79,3.21,0.14,20.00
-4,-1,-281,-17,-431,3876,0.03,-0.08,-10.28,-0.17,-4.31,38.76,-5.03,-0.29,-152.75,3.39,0.24,20.00
4,-10,-316,-38,-431,3872,0.05,-0.14,-11.18,-0.38,-4.31,38.72,-5.05,-0.29,-152.71,3.23,0.43,20.00
4,-10,-335,61,-425,3851,0.07,-0.18,-12.11,0.61,-4.25,38.51,-5.06,-0.30,-152.66,3.24,0.45,20.00
8,-10,-315,322,-284,3904,0.12,-0.23,-12.82,3.22,-2.84,39.04,-5.06,-0.32,-152.61,3.14,0.48,20.00
1,-10,-241,468,-140,3940,0.11,-0.27,-13.01,4.68,-1.40,39.40,-5.05,-0.35,-152.56,3.28,0.50,20.00
-7,1,48,90,-289,3857,0.06,-0.23,-11.41,0.90,-2.89,38.57,-5.04,-0.37,-152.51,3.45,0.28,13.22
-15,16,23,-496,-456,3840,-0.04,-0.11,-10.13,-4.96,-4.56,38.40,-5.04,-0.35,-152.47,3.64,-0.06,15.63
-1,-6,-68,-57,-372,3900,-0.04,-0.14,-9.53,-0.57,-3.72,39.00,-5.05,-0.34,-152.43,3.36,0.38,20.00
-4,2,-91,-120,-401,3894,-0.06,-0.11,-9.13,-1.20,-4.01,38.94,-5.05,-0.32,-152.40,3.43,0.20,20.00
3,-4,-153,-27,-294,3892,-0.04,-0.12,-9.15,-0.27,-2.94,38.92,-5.04,-0.32,-152.36,3.28,0.32,20.00
0,-1,-149,-32,-289,3928,-0.03,-0.12,-9.15,-0.32,-2.89,39.28,-5.03,-0.31,-152.32,3.33,0.25,20.00
-5,-3,-113,22,-339,3913,-0.06,-0.12,-8.92,0.22,-3.39,39.13,-5.01,-0.31,-152.29,3.43,0.30,20.00
-2,-6,-113,-36,-331,3955,-0.07,-0.15,-8.72,-0.36,-3.31,39.55,-5.01,-0.30,-152.25,3.36,0.36,20.00
0,-3,-81,-12,-351,3916,-0.06,-0.15,-8.34,-0.12,-3.51,39.16,-5.01,-0.29,-152.22,3.32,0.29,20.00
-3,-6,-75,-2,-345,3902,-0.07,-0.17,-7.96,-0.02,-3.45,39.02,-5.01,-0.27,-152.19,3.39,0.35,20.00
-4,-3,-77,-20,-357,3910,-0.09,-0.17,-7.64,-0.20,-3.57,39.10,-5.02,-0.26,-152.16,3.42,0.28,20.00
-4,-4,-79,-13,-349,3908,-0.11,-0.18,-7.36,-0.13,-3.49,39.08,-5.02,-0.24,-152.13,3.43,0.29,20.00
3,-1,-64,-25,-316,3901,-0.08,-0.17,-7.01,-0.25,-3.16,39.01,-5.01,-0.23,-152.10,3.27,0.22,20.00
4,0,-60,-29,-300,3902,-0.04,-0.15,-6.68,-0.29,-3.00,39.02,-5.00,-0.22,-152.08,3.23,0.19,20.00
3,1,-72,-61,-282,3903,-0.02,-0.13,-6.45,-0.61,-2.82,39.03,-4.99,-0.21,-152.05,3.24,0.15,20.00
3,-1,-80,-87,-307,3908,-0.00,-0.12,-6.29,-0.87,-3.07,39.08,-4.98,-0.19,-152.02,3.23,0.18,20.00
0,-6,-94,-48,-319,3929,-0.00,-0.15,-6.23,-0.48,-3.19,39.29,-4.98,-0.18,-152.00,3.29,0.28,20.00
0,-6,-108,-16,-289,3915,-0.00,-0.17,-6.27,-0.16,-2.89,39.15,-4.96,-0.17,-151.97,3.27,0.28,20.00
0,1,-152,-122,-303,3914,-0.00,-0.15,-6.57,-1.22,-3.03,39.14,-4.96,-0.16,-151.95,3.27,0.12,20.00
0,-4,-163,-101,-335,3928,-0.00,-0.16,-6.91,-1.01,-3.35,39.28,-4.95,-0.14,-151.92,3.27,0.22,20.00
2,-9,-176,-68,-331,3915,0.01,-0.20,-7.29,-0.68,-3.31,39.15,-4.95,-0.13,-151.89,3.23,0.32,20.00
-3,2,-174,3,-332,3879,-0.01,-0.16,-7.62,0.03,-3.32,38.79,-4.94,-0.12,-151.86,3.32,0.08,20.00
-6,-3,-161,48,-369,3913,-0.04,-0.17,-7.84,0.48,-3.69,39.13,-4.95,-0.13,-151.83,3.40,0.19,20.00
5,0,-158,-11,-378,3890,-0.01,-0.15,-8.02,-0.11,-3.78,38.90,-4.97,-0.13,-151.80,3.18,0.13,20.00
4,2,-127,55,-419,3905,0.02,-0.12,-7.99,0.55,-4.19,39.05,-4.99,-0.14,-151.77,3.20,0.09,20.00
-1,3,-105,-3,-394,3938,0.01,-0.09,-7.84,-0.03,-3.94,39.38,-5.00,-0.14,-151.74,3.32,0.06,20.00
1,-3,-73,-162,-548,3923,0.01,-0.10,-7.50,-1.62,-5.48,39.23,-5.02,-0.13,-151.71,3.29,0.18,20.00
4,-7,-87,-108,-547,3871,0.04,-0.13,-7.28,-1.08,-5.47,38.71,-5.03,-0.13,-151.68,3.23,0.26,20.00
2,-4,-147,5,-384,3952,0.05,-0.14,-7.45,0.05,-3.84,39.52,-5.05,-0.13,-151.65,3.28,0.20,20.00
-1,-4,-158,43,-403,3898,0.03,-0.15,-7.67,0.43,-4.03,38.98,-5.07,-0.14,-151.62,3.35,0.22,20.00
-1,-3,-158,38,-275,3910,0.03,-0.16,-7.86,0.38,-2.75,39.10,-5.05,-0.15,-151.59,3.35,0.20,20.00
2,-5,-153,-12,-255,3952,0.03,-0.17,-8.01,-0.12,-2.55,39.52,-5.03,-0.15,-151.55,3.27,0.25,20.00
-3,-3,-135,-131,-187,3957,0.01,-0.17,-8.03,-1.31,-1.87,39.57,-5.02,-0.14,-151.52,3.37,0.20,20.00
-5,0,-142,-123,-167,3929,-0.02,-0.16,-8.10,-1.23,-1.67,39.29,-5.00,-0.13,-151.49,3.41,0.13,20.00
3,-15,-194,-134,-286,3966,0.00,-0.23,-8.47,-1.34,-2.86,39.66,-4.99,-0.12,-151.46,3.24,0.45,20.00
5,-3,-212,-111,-231,3895,0.03,-0.23,-8.92,-1.11,-2.31,38.95,-4.98,-0.11,-151.42,3.18,0.20,20.00
1,-2,-307,20,-190,3902,0.03,-0.22,-9.90,0.20,-1.90,39.02,-4.96,-0.12,-151.38,3.25,0.18,20.00
3,-1,-337,19,-261,3904,0.05,-0.20,-10.96,0.19,-2.61,39.04,-4.95,-0.12,-151.34,3.19,0.16,20.00
3,-3,-340,171,-415,3858,0.06,-0.20,-11.94,1.71,-4.15,38.58,-4.95,-0.14,-151.29,3.19,0.21,20.00
17,1,-325,144,-423,3944,0.16,-0.17,-12.73,1.44,-4.23,39.44,-4.96,-0.17,-151.24,2.89,0.14,20.00
4,-5,-246,122,-490,3916,0.17,-0.19,-12.96,1.22,-4.90,39.16,-4.98,-0.18,-151.19,3.16,0.27,20.00
0,-3,-230,102,-403,3867,0.15,-0.19,-13.06,1.02,-4.03,38.67,-4.99,-0.20,-151.14,3.25,0.24,20.00
0,-2,-157,49,-446,3891,0.14,-0.18,-12.72,0.49,-4.46,38.91,-5.00,-0.21,-151.09,3.26,0.23,20.00
0,4,-129,70,-428,3897,0.12,-0.14,-12.23,0.70,-4.28,38.97,-5.02,-0.23,-151.04,3.28,0.11,20.00
1,0,-65,9,-349,3920,0.12,-0.12,-11.40,0.09,-3.49,39.20,-5.03,-0.22,-150.99,3.27,0.18,20.00
1,3,-64,-16,-348,3903,0.11,-0.09,-10.65,-0.16,-3.48,39.03,-5.03,-0.20,-150.95,3.27,0.10,20.00
1,-6,-86,-10,-321,3927,0.11,-0.12,-10.11,-0.10,-3.21,39.27,-5.02,-0.19,-150.91,3.26,0.28,20.00
2,-3,-75,49,-325,3902,0.11,-0.13,-9.56,0.49,-3.25,39.02,-5.01,-0.21,-150.87,3.23,0.24,20.00
3,3,-63,-33,-327,3900,0.12,-0.10,-8.99,-0.33,-3.27,39.00,-5.00,-0.20,-150.83,3.21,0.10,20.00
3,1,-68,-39,-324,3896,0.12,-0.08,-8.50,-0.39,-3.24,38.96,-5.00,-0.19,-150.80,3.20,0.12,20.00
-1,-3,-93,-30,-308,3917,0.10,-0.09,-8.22,-0.30,-3.08,39.17,-4.98,-0.18,-150.77,3.28,0.20,20.00
2,0,-98,-40,-329,3912,0.11,-0.08,-8.00,-0.40,-3.29,39.12,-4.98,-0.16,-150.74,3.22,0.13,20.00
4,1,-113,-74,-331,3921,0.12,-0.07,-7.89,-0.74,-3.31,39.21,-4.98,-0.15,-150.70,3.17,0.09,20.00
5,-1,-126,-74,-297,3896,0.14,-0.07,-7.87,-0.74,-2.97,38.96,-4.97,-0.13,-150.67,3.14,0.13,20.00
3,3,-145,-116,-253,3950,0.14,-0.04,-7.96,-1.16,-2.53,39.50,-4.96,-0.12,-150.64,3.17,0.03,20.00
-1,-4,-138,-94,-266,3949,0.12,-0.06,-8.01,-0.94,-2.66,39.49,-4.94,-0.11,-150.61,3.25,0.17,20.00
0,-12,-124,30,-348,3909,0.11,-0.13,-7.96,0.30,-3.48,39.09,-4.95,-0.13,-150.58,3.24,0.36,20.00
1,-5,-96,63,-361,3925,0.11,-0.15,-7.75,0.63,-3.61,39.25,-4.96,-0.15,-150.55,3.22,0.24,20.00
-1,3,-15,128,-379,3926,0.09,-0.11,-7.07,1.28,-3.79,39.26,-4.96,-0.17,-150.52,3.27,0.08,19.63
-4,1,11,108,-374,3902,0.06,-0.10,-6.30,1.08,-3.74,39.02,-4.97,-0.19,-150.49,3.35,0.13,18.30
-1,0,78,-3,-281,3909,0.04,-0.09,-5.19,-0.03,-2.81,39.09,-4.95,-0.19,-150.47,3.28,0.15,14.37
-1,1,84,49,-287,3875,0.03,-0.07,-4.16,0.49,-2.87,38.75,-4.94,-0.20,-150.46,3.27,0.13,14.54
-4,-4,103,148,-314,3933,0.01,-0.09,-3.11,1.48,-3.14,39.33,-4.93,-0.22,-150.44,3.33,0.25,13.84
-5,-3,107,133,-339,3905,-0.03,-0.10,-2.15,1.33,-3.39,39.05,-4.93,-0.24,-150.44,3.36,0.24,14.11
-1,5,95,-7,-389,3885,-0.03,-0.06,-1.36,-0.07,-3.89,38.85,-4.95,-0.23,-150.43,3.29,0.07,15.36
1,1,82,-65,-424,3910,-0.02,-0.05,-0.72,-0.65,-4.24,39.10,-4.96,-0.22,-150.43,3.26,0.14,16.60
4,2,44,-25,-391,3925,0.01,-0.03,-0.38,-0.25,-3.91,39.25,-4.98,-0.21,-150.43,3.20,0.10,19.37
4,1,36,3,-350,3911,0.03,-0.02,-0.12,0.03,-3.50,39.11,-4.99,-0.19,-150.43,3.20,0.11,20.00
-1,1,58,-7,-335,3927,0.02,-0.01,0.24,-0.07,-3.35,39.27,-4.98,-0.18,-150.43,3.30,0.10,18.77
1,0,61,-18,-333,3933,0.02,-0.01,0.59,-0.18,-3.33,39.33,-4.98,-0.16,-150.43,3.26,0.11,18.76
-1,-2,71,-14,-363,3942,0.02,-0.02,0.97,-0.14,-3.63,39.42,-4.99,-0.14,-150.43,3.31,0.14,18.29
-1,3,79,16,-352,3914,0.01,-0.00,1.35,0.16,-3.52,39.14,-5.00,-0.15,-150.44,3.32,0.04,17.97
-8,1,164,60,-405,3889,-0.04,0.00,2.22,0.60,-4.05,38.89,-5.02,-0.16,-150.45,3.49,0.09,12.70
-3,7,197,26,-462,3914,-0.06,0.05,3.20,0.26,-4.62,39.14,-5.04,-0.16,-150.46,3.40,-0.05,11.01
-18,-3,291,-14,-470,3891,-0.16,0.02,4.65,-0.14,-4.70,38.91,-5.05,-0.16,-150.48,3.75,0.16,5.46
-9,6,311,-28,-461,3905,-0.20,0.06,6.08,-0.28,-4.61,39.05,-5.07,-0.15,-150.50,3.59,-0.04,4.91
-5,5,360,26,-336,3913,-0.21,0.08,7.67,0.26,-3.36,39.13,-5.06,-0.16,-150.53,3.50,-0.02,2.48
2,15,360,-29,-286,3922,-0.18,0.17,9.10,-0.29,-2.86,39.22,-5.05,-0.15,-150.57,3.34,-0.25,3.29
1,13,329,-64,-335,3909,-0.15,0.23,10.20,-0.64,-3.35,39.09,-5.05,-0.13,-150.61,3.35,-0.24,6.01
-9,1,319,-57,-283,3869,-0.19,0.21,11.12,-0.57,-2.83,38.69,-5.04,-0.11,-150.65,3.56,-0.01,7.22
-3,2,277,-10,-317,3925,-0.19,0.20,11.70,-0.10,-3.17,39.25,-5.02,-0.09,-150.70,3.43,-0.03,10.40
-4,1,259,-35,-301,3903,-0.20,0.19,12.11,-0.35,-3.01,39.03,-5.01,-0.08,-150.75,3.44,-0.02,11.85
1,3,202,-42,-250,3872,-0.17,0.19,12.13,-0.42,-2.50,38.72,-4.99,-0.06,-150.80,3.32,-0.07,15.74
-2,0,195,-14,-283,3894,-0.17,0.17,12.11,-0.14,-2.83,38.94,-4.98,-0.05,-150.85,3.37,-0.01,16.20
-2,2,192,-15,-310,3901,-0.16,0.16,12.07,-0.15,-3.10,39.01,-4.96,-0.04,-150.89,3.36,-0.06,16.39
-4,3,197,16,-313,3916,-0.17,0.17,12.06,0.16,-3.13,39.16,-4.95,-0.04,-150.94,3.39,-0.08,16.06
-2,5,204,-107,-290,3876,-0.16,0.18,12.10,-1.07,-2.90,38.76,-4.94,-0.02,-150.99,3.35,-0.14,15.61
-2,7,161,-202,-292,3911,-0.16,0.21,11.87,-2.02,-2.92,39.11,-4.94,0.00,-151.04,3.34,-0.20,18.41
-1,3,93,-43,-366,3934,-0.15,0.20,11.25,-0.43,-3.66,39.34,-4.95,0.02,-151.08,3.33,-0.13,20.00
-2,4,89,-59,-371,3915,-0.15,0.21,10.67,-0.59,-3.71,39.15,-4.96,0.05,-151.12,3.35,-0.17,20.00
0,3,109,13,-299,3896,-0.13,0.20,10.27,0.13,-2.99,38.96,-4.94,0.04,-151.17,3.30,-0.14,20.00
1,4,121,6,-329,3917,-0.11,0.21,9.98,0.06,-3.29,39.17,-4.93,0.03,-151.20,3.26,-0.16,20.00
2,5,130,-36,-346,3942,-0.09,0.22,9.77,-0.36,-3.46,39.42,-4.93,0.06,-151.24,3.24,-0.20,19.36
-3,-2,124,21,-355,3929,-0.10,0.18,9.55,0.21,-3.55,39.29,-4.94,0.05,-151.28,3.35,-0.04,19.65
0,2,113,-101,-360,3884,-0.09,0.18,9.29,-1.01,-3.60,38.84,-4.95,0.07,-151.32,3.29,-0.13,20.00
1,6,120,-82,-346,3897,-0.07,0.20,9.09,-0.82,-3.46,38.97,-4.95,0.09,-151.35,3.27,-0.23,19.67
1,6,113,13,-273,3909,-0.06,0.21,8.87,0.13,-2.73,39.09,-4.93,0.09,-151.39,3.25,-0.24,20.00
1,2,101,42,-272,3899,-0.05,0.20,8.60,0.42,-2.72,38.99,-4.92,0.08,-151.42,3.24,-0.15,20.00
-4,4,153,25,-537,3884,-0.07,0.21,8.67,0.25,-5.37,38.84,-4.93,0.08,-151.46,3.36,-0.19,17.22
-5,8,175,-19,-588,3918,-0.09,0.24,8.87,-0.19,-5.88,39.18,-4.95,0.09,-151.49,3.40,-0.28,15.84
-5,4,250,180,-365,3913,-0.11,0.24,9.51,1.80,-3.65,39.13,-4.96,0.07,-151.53,3.40,-0.19,11.12
-4,15,265,148,-361,3864,-0.13,0.30,10.18,1.48,-3.61,38.64,-4.96,0.06,-151.57,3.39,-0.43,10.48
-5,4,249,30,-263,3933,-0.14,0.30,10.68,0.30,-2.63,39.33,-4.94,0.06,-151.61,3.40,-0.20,11.86
0,5,242,-13,-291,3909,-0.13,0.30,11.09,-0.13,-2.91,39.09,-4.93,0.07,-151.66,3.29,-0.23,12.57
-7,12,227,4,-330,3878,-0.16,0.34,11.36,0.04,-3.30,38.78,-4.92,0.05,-151.70,3.43,-0.37,13.75
-12,-3,215,61,-319,3914,-0.22,0.29,11.54,0.61,-3.19,39.14,-4.91,0.04,-151.75,3.55,-0.05,14.66
-13,0,215,29,-366,3845,-0.27,0.26,11.70,0.29,-3.66,38.45,-4.93,0.03,-151.80,3.59,-0.09,14.76
-10,11,252,8,-362,3960,-0.31,0.30,12.06,0.08,-3.62,39.60,-4.95,0.03,-151.84,3.55,-0.33,12.47
-12,3,357,5,-431,3923,-0.35,0.29,13.03,0.05,-4.31,39.23,-4.97,0.04,-151.90,3.62,-0.16,5.90
-7,15,379,-47,-453,3847,-0.36,0.35,14.04,-0.47,-4.53,38.47,-4.98,0.05,-151.95,3.53,-0.43,4.98
-14,11,414,-89,-366,3904,-0.41,0.38,15.16,-0.89,-3.66,39.04,-4.99,0.07,-152.01,3.69,-0.38,3.25
-26,10,407,101,-291,4024,-0.53,0.41,16.13,1.01,-2.91,40.24,-4.98,0.06,-152.08,3.96,-0.36,4.28
-7,2,304,-75,-295,3969,-0.52,0.38,16.37,-0.75,-2.95,39.69,-4.98,0.09,-152.14,3.57,-0.20,11.40
-15,-2,290,-69,-345,3881,-0.56,0.33,16.50,-0.69,-3.45,38.81,-4.98,0.11,-152.21,3.74,-0.12,12.44
-21,21,362,-328,-341,3906,-0.63,0.42,17.06,-3.28,-3.41,39.06,-4.98,0.14,-152.27,3.89,-0.63,7.88
-37,-2,411,-24,-501,4140,-0.79,0.37,17.86,-0.24,-5.01,41.40,-5.00,0.15,-152.35,4.27,-0.16,5.02
-15,2,380,183,-281,3667,-0.80,0.34,18.39,1.83,-2.81,36.67,-5.00,0.14,-152.42,3.83,-0.22,7.43
-13,5,342,-14,-253,4037,-0.80,0.34,18.64,-0.14,-2.53,40.37,-4.99,0.15,-152.49,3.77,-0.29,10.15
-19,4,333,66,-406,3895,-0.84,0.33,18.81,0.66,-4.06,38.95,-5.00,0.14,-152.57,3.92,-0.26,10.87
-14,10,329,9,-386,3882,-0.84,0.36,18.93,0.09,-3.86,38.82,-5.02,0.14,-152.64,3.83,-0.39,11.22
-17,-2,334,4,-405,3944,-0.86,0.31,19.08,0.04,-4.05,39.44,-5.04,0.14,-152.72,3.91,-0.14,10.98
-22,-6,343,-22,-409,3955,-0.91,0.24,19.26,-0.22,-4.09,39.55,-5.06,0.16,-152.80,4.04,-0.05,10.48
-33,-6,368,-40,-418,3898,-1.02,0.18,19.58,-0.40,-4.18,38.98,-5.09,0.17,-152.87,4.30,-0.04,8.98
-50,-20,369,-53,-285,3893,-1.22,0.04,19.87,-0.53,-2.85,38.93,-5.07,0.19,-152.95,4.70,0.27,9.08
-37,-6,338,-66,-317,3941,-1.32,0.00,19.95,-0.66,-3.17,39.41,-5.07,0.21,-153.03,4.46,-0.02,11.24
-32,-15,328,-46,-310,3918,-1.39,-0.09,19.95,-0.46,-3.10,39.18,-5.06,0.23,-153.11,4.37,0.18,11.93
-34,-21,305,-93,-300,3935,-1.46,-0.21,19.82,-0.93,-3.00,39.35,-5.06,0.25,-153.19,4.43,0.32,13.43
-40,-12,296,-49,-312,3925,-1.55,-0.26,19.64,-0.49,-3.12,39.25,-5.05,0.27,-153.27,4.57,0.14,13.95
-37,-15,278,-22,-347,3948,-1.62,-0.33,19.37,-0.22,-3.47,39.48,-5.05,0.29,-153.35,4.53,0.20,15.03
-33,-9,271,-32,-352,3897,-1.66,-0.35,19.09,-0.32,-3.52,38.97,-5.06,0.31,-153.42,4.47,0.07,15.36
155,136,740,-1164,-1115,2925,-0.55,0.52,21.70,-11.64,-11.15,29.25,-5.08,0.34,-153.51,0.35,-3.13,-14.96
111,188,871,-635,-1411,4254,0.18,1.61,24.84,-6.35,-14.11,42.54,-5.09,0.36,-153.61,1.05,-4.50,-20.00
-48,64,1190,-85,-465,4616,-0.13,1.84,29.61,-0.85,-4.65,46.16,-5.10,0.39,-153.72,4.38,-2.06,-20.00
-7,10,1165,207,-608,4120,-0.16,1.72,33.76,2.07,-6.08,41.20,-5.12,0.40,-153.86,3.56,-0.93,-20.00
25,-16,1122,96,-208,4238,0.01,1.45,37.23,0.96,-2.08,42.38,-5.10,0.41,-154.01,2.86,-0.34,-20.00
69,-9,1095,158,-86,3724,0.43,1.25,40.18,1.58,-0.86,37.24,-5.08,0.41,-154.17,1.83,-0.43,-20.00
-6,10,939,233,17,3752,0.35,1.18,41.89,2.33,0.17,37.52,-5.06,0.42,-154.33,3.37,-0.80,-16.99
-4,15,823,190,53,4002,0.29,1.16,42.72,1.90,0.53,40.02,-5.05,0.43,-154.50,3.33,-0.91,-8.63
-18,1,580,128,-80,3948,0.15,1.05,41.99,1.28,-0.80,39.48,-5.03,0.44,-154.67,3.64,-0.60,7.45
-1,7,533,5,-158,3924,0.13,0.99,41.04,0.05,-1.58,39.24,-5.01,0.46,-154.83,3.29,-0.71,10.13
-9,3,495,-54,-441,3961,0.06,0.91,39.96,-0.54,-4.41,39.61,-5.03,0.48,-154.99,3.48,-0.62,12.12
-7,9,499,27,-448,3898,0.01,0.87,39.01,0.27,-4.48,38.98,-5.04,0.49,-155.15,3.46,-0.74,11.34
-18,5,555,44,-416,3902,-0.10,0.81,38.49,0.44,-4.16,39.02,-5.05,0.49,-155.30,3.73,-0.65,7.28
-8,11,574,27,-395,3903,-0.14,0.80,38.14,0.27,-3.95,39.03,-5.06,0.49,-155.45,3.54,-0.77,5.82
-6,16,651,53,-418,3887,-0.16,0.82,38.30,0.53,-4.18,38.87,-5.07,0.50,-155.60,3.51,-0.88,0.71
-19,4,670,17,-360,3888,-0.26,0.76,38.56,0.17,-3.60,38.88,-5.08,0.50,-155.76,3.81,-0.62,-0.41
1,19,699,-41,-426,3916,-0.23,0.80,38.97,-0.41,-4.26,39.16,-5.10,0.51,-155.91,3.41,-0.94,-2.13
-6,12,698,-97,-371,3881,-0.24,0.79,39.33,-0.97,-3.71,38.81,-5.10,0.55,-156.07,3.56,-0.82,-1.83
-9,12,696,-30,-368,3896,-0.27,0.79,39.64,-0.30,-3.68,38.96,-5.12,0.56,-156.23,3.64,-0.83,-1.50
-13,8,697,-16,-346,3894,-0.32,0.76,39.93,-0.16,-3.46,38.94,-5.12,0.56,-156.38,3.73,-0.74,-1.38
-14,13,703,12,-330,3886,-0.38,0.76,40.22,0.12,-3.30,38.86,-5.11,0.56,-156.54,3.76,-0.84,-1.60
-10,23,702,-34,-284,3863,-0.40,0.82,40.48,-0.34,-2.84,38.63,-5.09,0.57,-156.71,3.67,-1.07,-1.36
-2,23,702,-57,-349,3898,-0.37,0.88,40.72,-0.57,-3.49,38.98,-5.09,0.61,-156.87,3.50,-1.11,-1.20
-11,13,695,-52,-312,4000,-0.40,0.87,40.88,-0.52,-3.12,40.00,-5.08,0.63,-157.03,3.68,-0.92,-0.61
-4,17,730,-72,-317,3926,-0.39,0.89,41.25,-0.72,-3.17,39.26,-5.06,0.66,-157.19,3.53,-1.03,-2.75
-7,14,730,-94,-359,3935,-0.39,0.89,41.58,-0.94,-3.59,39.35,-5.06,0.70,-157.36,3.59,-0.99,-2.54
-11,7,699,-46,-307,3959,-0.42,0.84,41.68,-0.46,-3.07,39.59,-5.05,0.72,-157.53,3.67,-0.84,-0.36
-21,27,656,-74,-340,3797,-0.51,0.92,41.52,-0.74,-3.40,37.97,-5.05,0.75,-157.69,3.90,-1.30,2.49
-7,37,659,41,-390,3797,-0.50,1.05,41.38,0.41,-3.90,37.97,-5.06,0.76,-157.86,3.62,-1.54,2.23
-12,9,677,32,-375,4048,-0.52,1.00,41.38,0.32,-3.75,40.48,-5.06,0.76,-158.02,3.73,-0.96,1.03
-17,17,720,-53,-354,3978,-0.57,1.01,41.63,-0.53,-3.54,39.78,-5.08,0.78,-158.19,3.85,-1.13,-1.71
-4,14,731,-84,-393,3930,-0.54,0.99,41.93,-0.84,-3.93,39.30,-5.09,0.81,-158.35,3.59,-1.09,-2.27
-6,22,699,-3,-470,3894,-0.52,1.03,42.00,-0.03,-4.70,38.94,-5.11,0.82,-158.52,3.64,-1.27,-0.03
10,31,661,43,-440,3906,-0.41,1.11,41.83,0.43,-4.40,39.06,-5.12,0.83,-158.68,3.29,-1.48,2.47
-18,10,481,222,-74,3864,-0.48,1.06,40.58,2.22,-0.74,38.64,-5.11,0.83,-158.85,3.87,-1.04,14.00
-2,12,435,226,30,3884,-0.44,1.03,39.18,2.26,0.30,38.84,-5.09,0.84,-159.00,3.52,-1.08,16.35
3,15,283,96,-157,3935,-0.38,1.02,36.99,0.96,-1.57,39.35,-5.08,0.84,-159.15,3.40,-1.14,20.00
-7,3,240,45,-196,3896,-0.38,0.93,34.75,0.45,-1.96,38.96,-5.06,0.85,-159.29,3.59,-0.88,20.00
-10,4,180,-73,-409,3932,-0.41,0.87,32.37,-0.73,-4.09,39.32,-5.08,0.87,-159.42,3.67,-0.89,20.00
0,3,170,-128,-412,3904,-0.37,0.80,30.17,-1.28,-4.12,39.04,-5.09,0.90,-159.54,3.46,-0.87,20.00
0,4,152,-150,-402,3904,-0.33,0.74,28.08,-1.50,-4.02,39.04,-5.10,0.92,-159.65,3.46,-0.89,20.00
-6,1,151,-132,-385,3895,-0.33,0.67,26.20,-1.32,-3.85,38.95,-5.11,0.95,-159.75,3.59,-0.83,20.00
-7,3,147,-39,-330,3899,-0.34,0.62,24.47,-0.39,-3.30,38.99,-5.10,0.95,-159.85,3.60,-0.86,20.00
-5,-2,149,-27,-339,3886,-0.34,0.55,22.93,-0.27,-3.39,38.86,-5.10,0.94,-159.94,3.56,-0.73,20.00
-15,-1,176,-50,-407,3920,-0.40,0.49,21.71,-0.50,-4.07,39.20,-5.11,0.95,-160.03,3.79,-0.74,20.00
-6,-2,196,-61,-478,3822,-0.39,0.43,20.74,-0.61,-4.78,38.22,-5.13,0.95,-160.11,3.62,-0.71,20.00
-4,6,269,-230,-547,3864,-0.38,0.42,20.31,-2.30,-5.47,38.64,-5.15,0.98,-160.19,3.58,-0.88,17.19
-9,4,327,-262,-525,3961,-0.40,0.40,20.27,-2.62,-5.25,39.61,-5.16,1.00,-160.27,3.70,-0.85,13.25
-16,1,448,-193,-509,3964,-0.45,0.37,20.98,-1.93,-5.09,39.64,-5.17,1.02,-160.35,3.86,-0.79,5.46
-4,8,473,-186,-491,3812,-0.43,0.38,21.76,-1.86,-4.91,38.12,-5.19,1.04,-160.44,3.62,-0.95,4.22
-13,7,523,-50,-411,3871,-0.47,0.39,22.78,-0.50,-4.11,38.71,-5.21,1.04,-160.53,3.83,-0.94,1.41
-4,13,528,-55,-366,3856,-0.45,0.43,23.72,-0.55,-3.66,38.56,-5.22,1.04,-160.62,3.65,-1.07,1.62
0,14,528,-14,-291,3829,-0.40,0.47,24.57,-0.14,-2.91,38.29,-5.20,1.04,-160.72,3.54,-1.10,2.11
-10,13,520,29,-299,3921,-0.42,0.50,25.28,0.29,-2.99,39.21,-5.20,1.03,-160.82,3.75,-1.08,3.07
-5,5,514,-119,-294,3932,-0.41,0.48,25.89,-1.19,-2.94,39.32,-5.18,1.06,-160.93,3.63,-0.93,3.83
-14,11,517,-110,-364,3856,-0.46,0.50,26.46,-1.10,-3.64,38.56,-5.19,1.09,-161.03,3.83,-1.08,3.96
8,18,545,-139,-272,3865,-0.36,0.56,27.13,-1.39,-2.72,38.65,-5.17,1.11,-161.14,3.35,-1.25,2.46
-1,1,562,-39,-413,3927,-0.33,0.51,27.85,-0.39,-4.13,39.27,-5.19,1.11,-161.25,3.53,-0.89,1.72
-8,16,560,-41,-323,3904,-0.35,0.56,28.48,-0.41,-3.23,39.04,-5.17,1.11,-161.36,3.67,-1.21,2.23
-5,17,556,-15,-295,3854,-0.34,0.61,29.02,-0.15,-2.95,38.54,-5.16,1.11,-161.48,3.60,-1.24,2.82
0,17,578,-24,-369,3870,-0.31,0.65,29.65,-0.24,-3.69,38.70,-5.17,1.11,-161.60,3.49,-1.25,1.70
-9,8,587,-3,-405,3941,-0.33,0.63,30.26,-0.03,-4.05,39.41,-5.18,1.10,-161.72,3.69,-1.06,1.45
-12,15,629,-47,-460,3940,-0.37,0.66,31.07,-0.47,-4.60,39.40,-5.19,1.11,-161.84,3.77,-1.22,-0.92
-6,12,634,-37,-464,3956,-0.37,0.67,31.83,-0.37,-4.64,39.56,-5.21,1.12,-161.97,3.66,-1.17,-0.81
-12,8,633,-64,-430,3881,-0.41,0.65,32.51,-0.64,-4.30,38.81,-5.22,1.13,-162.09,3.80,-1.09,-0.35
-5,17,630,-67,-439,3818,-0.40,0.69,33.10,-0.67,-4.39,38.18,-5.24,1.14,-162.23,3.67,-1.29,0.21
-6,19,587,-8,-280,3867,-0.39,0.74,33.37,-0.08,-2.80,38.67,-5.23,1.15,-162.36,3.68,-1.34,3.29
-10,4,567,44,-242,3940,-0.42,0.69,33.50,0.44,-2.42,39.40,-5.21,1.15,-162.49,3.76,-1.03,4.74
-14,3,483,121,-328,3879,-0.46,0.64,33.09,1.21,-3.28,38.79,-5.21,1.15,-162.62,3.85,-0.99,10.23
-12,12,457,98,-359,3835,-0.49,0.65,32.57,0.98,-3.59,38.35,-5.21,1.14,-162.75,3.82,-1.17,11.71
-11,11,378,-10,-278,3858,-0.51,0.65,31.62,-0.10,-2.78,38.58,-5.20,1.14,-162.88,3.79,-1.15,16.55
-8,12,367,37,-390,3875,-0.50,0.66,30.70,0.37,-3.90,38.75,-5.20,1.14,-163.00,3.73,-1.17,16.80
-12,-17,339,-120,-285,4003,-0.53,0.49,29.69,-1.20,-2.85,40.03,-5.19,1.16,-163.12,3.81,-0.55,18.15
-6,9,338,-63,-278,3821,-0.51,0.49,28.79,-0.63,-2.78,38.21,-5.17,1.17,-163.23,3.67,-1.09,17.73
-2,0,314,27,-289,3930,-0.47,0.44,27.82,0.27,-2.89,39.30,-5.16,1.16,-163.35,3.57,-0.89,18.83
7,12,301,156,-361,3937,-0.38,0.47,26.88,1.56,-3.61,39.37,-5.16,1.16,-163.45,3.37,-1.14,19.20
-8,3,247,-29,-111,3986,-0.39,0.44,25.70,-0.29,-1.11,39.86,-5.14,1.17,-163.56,3.66,-0.95,20.00
-11,14,204,27,-193,3856,-0.42,0.48,24.37,0.27,-1.93,38.56,-5.12,1.17,-163.65,3.72,-1.19,20.00
7,-6,116,132,-80,3764,-0.34,0.40,22.64,1.32,-0.80,37.64,-5.11,1.16,-163.74,3.32,-0.76,20.00
13,3,80,76,-90,4069,-0.22,0.38,20.87,0.76,-0.90,40.69,-5.09,1.16,-163.83,3.16,-0.93,20.00
5,5,-29,107,-295,3957,-0.17,0.37,18.60,1.07,-2.95,39.57,-5.09,1.15,-163.90,3.30,-0.96,20.00
7,-1,-45,48,-284,4006,-0.11,0.33,16.47,0.48,-2.84,40.06,-5.08,1.15,-163.97,3.24,-0.82,20.00
6,-11,-75,-69,-247,3965,-0.06,0.23,14.36,-0.69,-2.47,39.65,-5.06,1.15,-164.02,3.23,-0.60,20.00
1,-5,-78,-65,-255,3806,-0.05,0.17,12.45,-0.65,-2.55,38.06,-5.04,1.15,-164.07,3.32,-0.71,20.00
-4,0,-85,-131,-288,3853,-0.07,0.16,10.69,-1.31,-2.88,38.53,-5.03,1.17,-164.12,3.42,-0.81,20.00
-3,-1,-86,-91,-326,3923,-0.08,0.14,9.09,-0.91,-3.26,39.23,-5.01,1.18,-164.15,3.39,-0.80,20.00
9,2,-85,-38,-382,3932,-0.02,0.13,7.67,-0.38,-3.82,39.32,-5.02,1.17,-164.18,3.14,-0.85,20.00
6,0,-84,0,-337,3904,0.02,0.12,6.39,0.00,-3.37,39.04,-5.02,1.16,-164.21,3.18,-0.80,20.00
3,-3,-50,-5,-275,3823,0.04,0.09,5.44,-0.05,-2.75,38.23,-5.01,1.14,-164.23,3.23,-0.72,20.00
6,1,-44,-79,-286,3884,0.07,0.09,4.63,-0.79,-2.86,38.84,-4.99,1.15,-164.25,3.15,-0.80,20.00
-4,-2,-50,-83,-313,3920,0.04,0.07,3.86,-0.83,-3.13,39.20,-4.97,1.15,-164.26,3.35,-0.74,20.00
1,-2,-52,-65,-315,3893,0.04,0.05,3.16,-0.65,-3.15,38.93,-4.95,1.14,-164.28,3.24,-0.73,20.00
2,-1,-55,-41,-322,3955,0.05,0.04,2.51,-0.41,-3.22,39.55,-4.94,1.13,-164.29,3.21,-0.73,20.00
3,1,-44,-34,-302,3856,0.06,0.04,1.99,-0.34,-3.02,38.56,-4.93,1.11,-164.30,3.18,-0.77,20.00
-2,-1,-9,-55,-333,3916,0.04,0.03,1.73,-0.55,-3.33,39.16,-4.93,1.10,-164.30,3.28,-0.71,20.00
0,2,-11,-87,-379,3914,0.04,0.04,1.49,-0.87,-3.79,39.14,-4.94,1.10,-164.31,3.25,-0.78,20.00
3,-3,-35,-158,-372,3896,0.05,0.02,1.13,-1.58,-3.72,38.96,-4.95,1.12,-164.31,3.19,-0.68,20.00
1,2,-44,-164,-400,3980,0.05,0.03,0.75,-1.64,-4.00,39.80,-4.96,1.14,-164.32,3.24,-0.80,20.00
-9,8,12,-316,-658,3943,-0.01,0.07,0.75,-3.16,-6.58,39.43,-4.98,1.15,-164.32,3.47,-0.94,20.00
-10,11,45,-312,-691,3929,-0.07,0.13,0.95,-3.12,-6.91,39.29,-4.99,1.16,-164.32,3.52,-1.02,20.00
-19,-1,239,-459,-890,3829,-0.18,0.11,2.31,-4.59,-8.90,38.29,-5.01,1.17,-164.33,3.74,-0.78,9.75
-11,11,310,-407,-881,3791,-0.23,0.17,3.97,-4.07,-8.81,37.91,-5.02,1.18,-164.35,3.60,-1.05,5.87
8,25,529,-272,-922,3917,-0.15,0.30,6.80,-2.72,-9.22,39.17,-5.04,1.19,-164.37,3.21,-1.38,-7.38
-4,21,572,-208,-870,4005,-0.16,0.40,9.61,-2.08,-8.70,40.05,-5.06,1.20,-164.41,3.46,-1.33,-8.72
-2,19,634,101,-431,3941,-0.16,0.48,12.52,1.01,-4.31,39.41,-5.07,1.19,-164.46,3.43,-1.30,-11.28
-1,23,642,157,-366,3947,-0.15,0.57,15.18,1.57,-3.66,39.47,-5.07,1.18,-164.52,3.40,-1.40,-10.32
-8,18,728,-23,-130,3668,-0.18,0.62,18.10,-0.23,-1.30,36.68,-5.05,1.18,-164.59,3.54,-1.32,-14.50
-6,5,743,17,-148,4170,-0.20,0.59,20.83,0.17,-1.48,41.70,-5.03,1.18,-164.68,3.50,-1.04,-13.97
-15,7,667,-253,-58,4012,-0.27,0.57,22.81,-2.53,-0.58,40.12,-5.01,1.20,-164.77,3.69,-1.09,-7.69
-12,5,654,-217,-133,3806,-0.32,0.55,24.52,-2.17,-1.33,38.06,-5.00,1.23,-164.86,3.63,-1.06,-5.84
-5,7,667,26,-188,3869,-0.32,0.54,26.14,0.26,-1.88,38.69,-4.98,1.23,-164.97,3.48,-1.10,-5.80
-11,10,668,114,-174,3940,-0.35,0.54,27.60,1.14,-1.74,39.40,-4.97,1.22,-165.08,3.60,-1.16,-5.03
-15,13,659,40,-276,3956,-0.41,0.57,28.86,0.40,-2.76,39.56,-4.96,1.22,-165.19,3.69,-1.22,-3.69
-14,14,656,38,-248,4012,-0.45,0.60,29.97,0.38,-2.48,40.12,-4.95,1.22,-165.31,3.67,-1.25,-2.85
-3,9,627,22,-260,3947,-0.43,0.59,30.80,0.22,-2.60,39.47,-4.93,1.22,-165.44,3.43,-1.15,-0.40
-6,4,610,75,-222,3937,-0.42,0.56,31.44,0.75,-2.22,39.37,-4.92,1.22,-165.56,3.49,-1.04,1.13
-13,8,542,30,-354,3983,-0.46,0.55,31.60,0.30,-3.54,39.83,-4.92,1.21,-165.69,3.64,-1.11,5.85
-5,12,491,-23,-409,3838,-0.44,0.57,31.44,-0.23,-4.09,38.38,-4.94,1.21,-165.81,3.48,-1.20,9.23
-12,4,437,-195,-371,3951,-0.47,0.54,30.96,-1.95,-3.71,39.51,-4.94,1.24,-165.94,3.63,-1.05,12.64
-7,7,420,-112,-381,3941,-0.47,0.53,30.43,-1.12,-3.81,39.41,-4.96,1.27,-166.06,3.54,-1.12,13.51
-6,5,371,-17,-377,3978,-0.46,0.50,29.65,-0.17,-3.77,39.78,-4.96,1.26,-166.17,3.52,-1.07,16.42
-3,10,360,14,-388,3887,-0.43,0.51,28.88,0.14,-3.88,38.87,-4.97,1.26,-166.29,3.46,-1.17,16.75
-6,5,341,-92,-298,3893,-0.42,0.49,28.07,-0.92,-2.98,38.93,-4.95,1.27,-166.40,3.51,-1.07,17.60
1,8,334,-72,-340,3851,-0.37,0.49,27.30,-0.72,-3.40,38.51,-4.96,1.27,-166.51,3.35,-1.13,17.66
17,19,333,45,-99,3925,-0.23,0.56,26.60,0.45,-0.99,39.25,-4.94,1.27,-166.62,2.98,-1.38,17.35
-4,-1,316,142,-47,4093,-0.23,0.50,25.87,1.42,-0.47,40.93,-4.93,1.27,-166.72,3.40,-0.95,18.11
0,-4,175,187,-177,3950,-0.21,0.42,24.35,1.87,-1.77,39.50,-4.91,1.26,-166.82,3.30,-0.87,20.00
1,1,136,140,-223,3876,-0.18,0.39,22.74,1.40,-2.23,38.76,-4.91,1.26,-166.91,3.27,-0.95,20.00
5,-2,75,124,-201,3950,-0.13,0.34,20.93,1.24,-2.01,39.50,-4.89,1.25,-166.99,3.17,-0.87,20.00
1,1,66,47,-240,3921,-0.12,0.31,19.24,0.47,-2.40,39.21,-4.88,1.24,-167.07,3.23,-0.92,20.00
-1,-3,21,1,-250,3969,-0.11,0.26,17.44,0.01,-2.50,39.69,-4.87,1.24,-167.14,3.26,-0.83,20.00
-3,-4,21,40,-284,3882,-0.12,0.21,15.83,0.40,-2.84,38.82,-4.86,1.22,-167.20,3.30,-0.78,20.00
0,-2,17,19,-310,3854,-0.11,0.18,14.35,0.19,-3.10,38.54,-4.86,1.21,-167.26,3.23,-0.81,20.00
-2,3,15,7,-289,3891,-0.11,0.18,13.00,0.07,-2.89,38.91,-4.85,1.20,-167.31,3.27,-0.90,20.00
4,-1,10,4,-283,3921,-0.07,0.15,11.76,0.04,-2.83,39.21,-4.84,1.19,-167.36,3.13,-0.81,20.00
0,4,28,-21,-321,3845,-0.06,0.16,10.76,-0.21,-3.21,38.45,-4.84,1.18,-167.40,3.21,-0.90,20.00
2,7,67,-183,-486,3781,-0.05,0.19,10.09,-1.83,-4.86,37.81,-4.85,1.19,-167.44,3.17,-0.98,20.00
-14,3,121,-220,-611,4019,-0.13,0.19,9.82,-2.20,-6.11,40.19,-4.87,1.20,-167.48,3.53,-0.91,20.00
-8,9,237,-309,-626,3930,-0.16,0.22,10.28,-3.09,-6.26,39.30,-4.88,1.22,-167.52,3.43,-1.05,14.83
-7,13,263,-210,-581,3861,-0.19,0.28,10.86,-2.10,-5.81,38.61,-4.90,1.23,-167.56,3.43,-1.15,13.40
-16,16,377,-286,-611,3870,-0.27,0.35,12.07,-2.86,-6.11,38.70,-4.91,1.25,-167.61,3.64,-1.24,6.36
-13,18,412,-260,-579,3902,-0.32,0.43,13.38,-2.60,-5.79,39.02,-4.93,1.26,-167.66,3.60,-1.32,4.73
-10,16,566,-300,-655,3903,-0.35,0.48,15.49,-3.00,-6.55,39.03,-4.94,1.28,-167.72,3.56,-1.30,-4.51
-3,12,618,-372,-665,3831,-0.33,0.51,17.71,-3.72,-6.65,38.31,-4.96,1.30,-167.79,3.42,-1.24,-6.78
-2,15,748,-271,-691,3811,-0.31,0.55,20.51,-2.71,-6.91,38.11,-4.97,1.32,-167.87,3.41,-1.32,-14.01
-18,15,772,-230,-519,3913,-0.39,0.58,23.16,-2.30,-5.19,39.13,-4.99,1.34,-167.97,3.76,-1.35,-14.13
-15,3,764,-56,-359,3852,-0.44,0.54,25.51,-0.56,-3.59,38.52,-5.00,1.34,-168.07,3.72,-1.09,-12.26
-3,17,735,-1,-290,3924,-0.42,0.59,27.44,-0.01,-2.90,39.24,-4.99,1.33,-168.18,3.46,-1.39,-9.19
-3,8,661,83,-243,4019,-0.39,0.58,28.73,0.83,-2.43,40.19,-4.97,1.33,-168.29,3.45,-1.20,-3.44
-17,3,637,212,-261,4063,-0.46,0.54,29.74,2.12,-2.61,40.63,-4.97,1.32,-168.41,3.75,-1.08,-1.22
-8,2,564,109,-234,3968,-0.46,0.50,30.21,1.09,-2.34,39.68,-4.96,1.32,-168.53,3.56,-1.05,4.00
-11,12,547,148,-301,3816,-0.48,0.52,30.52,1.48,-3.01,38.16,-4.96,1.31,-168.65,3.63,-1.25,5.35
-10,11,507,-24,-225,3812,-0.49,0.54,30.56,-0.24,-2.25,38.12,-4.94,1.32,-168.77,3.60,-1.24,8.10
-15,5,501,-23,-234,3944,-0.54,0.51,30.56,-0.23,-2.34,39.44,-4.92,1.32,-168.90,3.70,-1.11,8.53
-8,4,532,-50,-334,3910,-0.53,0.49,30.75,-0.50,-3.34,39.10,-4.92,1.31,-169.02,3.56,-1.08,6.55
-6,7,558,-126,-330,3856,-0.52,0.48,31.08,-1.26,-3.30,38.56,-4.92,1.35,-169.14,3.51,-1.16,4.99
-1,18,598,-20,-363,3896,-0.47,0.54,31.62,-0.20,-3.63,38.96,-4.92,1.34,-169.27,3.40,-1.40,2.60
-4,17,602,-104,-320,3923,-0.45,0.59,32.13,-1.04,-3.20,39.23,-4.91,1.36,-169.40,3.44,-1.41,2.64
-3,16,616,-59,-386,3883,-0.42,0.63,32.68,-0.59,-3.86,38.83,-4.92,1.37,-169.53,3.42,-1.40,2.01
-17,6,608,-68,-362,3941,-0.48,0.60,33.12,-0.68,-3.62,39.41,-4.93,1.37,-169.66,3.73,-1.19,2.82
-8,21,568,-55,-353,3941,-0.48,0.67,33.27,-0.55,-3.53,39.41,-4.94,1.37,-169.79,3.55,-1.51,5.64
-10,7,543,15,-313,4093,-0.50,0.65,33.26,0.15,-3.13,40.93,-4.93,1.36,-169.92,3.59,-1.22,7.34
-1,1,506,15,-369,4018,-0.45,0.59,33.02,0.15,-3.69,40.18,-4.93,1.36,-170.05,3.40,-1.08,9.74
-8,6,502,51,-360,3800,-0.46,0.57,32.78,0.51,-3.60,38.00,-4.93,1.35,-170.18,3.54,-1.17,9.89
-15,4,496,-39,-236,3739,-0.50,0.53,32.52,-0.39,-2.36,37.39,-4.92,1.36,-170.31,3.69,-1.12,10.18
-5,12,498,-53,-239,3944,-0.48,0.55,32.31,-0.53,-2.39,39.44,-4.90,1.36,-170.44,3.47,-1.30,9.94
-2,8,470,-17,-354,3998,-0.45,0.55,31.95,-0.17,-3.54,39.98,-4.90,1.36,-170.57,3.40,-1.21,11.66
-4,10,449,10,-366,3827,-0.43,0.55,31.49,0.10,-3.66,38.27,-4.91,1.35,-170.69,3.44,-1.25,12.84
-3,2,460,-143,-341,3863,-0.40,0.51,31.15,-1.43,-3.41,38.63,-4.91,1.39,-170.82,3.41,-1.09,11.92
5,10,493,-165,-341,3877,-0.33,0.52,31.04,-1.65,-3.41,38.77,-4.91,1.42,-170.94,3.23,-1.28,9.64
-4,14,532,28,-401,3892,-0.32,0.55,31.18,0.28,-4.01,38.92,-4.92,1.41,-171.07,3.41,-1.37,7.10
-19,8,512,89,-448,4067,-0.41,0.55,31.19,0.89,-4.48,40.67,-4.92,1.41,-171.19,3.75,-1.24,8.48
-13,5,478,-132,-374,3927,-0.44,0.52,30.98,-1.32,-3.74,39.27,-4.93,1.44,-171.31,3.64,-1.19,10.68
-7,17,484,-142,-400,3833,-0.44,0.57,30.84,-1.42,-4.00,38.33,-4.95,1.46,-171.44,3.53,-1.46,10.21
-10,20,513,-172,-427,3856,-0.46,0.64,30.88,-1.72,-4.27,38.56,-4.96,1.48,-171.56,3.60,-1.56,8.29
-6,7,504,-116,-375,3960,-0.45,0.62,30.87,-1.16,-3.75,39.60,-4.98,1.50,-171.68,3.53,-1.30,8.91
-7,9,496,-67,-287,3917,-0.45,0.61,30.81,-0.67,-2.87,39.17,-4.96,1.51,-171.80,3.54,-1.34,9.44
-10,6,504,-79,-325,3871,-0.46,0.59,30.80,-0.79,-3.25,38.71,-4.95,1.50,-171.93,3.60,-1.27,8.91
-1,12,532,-55,-376,3879,-0.42,0.60,30.97,-0.55,-3.76,38.79,-4.96,1.50,-172.05,3.41,-1.40,7.13
-9,14,555,-91,-349,3954,-0.44,0.63,31.26,-0.91,-3.49,39.54,-4.97,1.50,-172.17,3.58,-1.44,5.75
2,17,602,-85,-384,4001,-0.38,0.67,31.80,-0.85,-3.84,40.01,-4.98,1.50,-172.30,3.35,-1.52,2.89
-11,4,610,-33,-320,3870,-0.41,0.63,32.34,-0.33,-3.20,38.70,-4.98,1.50,-172.43,3.62,-1.24,2.67
-11,5,594,-33,-335,3921,-0.44,0.59,32.73,-0.33,-3.35,39.21,-4.97,1.49,-172.56,3.62,-1.25,3.99
-7,9,590,-43,-375,3814,-0.43,0.59,33.06,-0.43,-3.75,38.14,-4.98,1.49,-172.69,3.55,-1.33,4.46
-1,10,553,-98,-444,3799,-0.40,0.59,33.13,-0.98,-4.44,37.99,-5.00,1.51,-172.82,3.43,-1.36,7.03
-3,5,547,-37,-323,3987,-0.38,0.56,33.15,-0.37,-3.23,39.87,-4.99,1.50,-172.95,3.46,-1.25,7.47
4,6,574,-36,-415,3969,-0.31,0.54,33.34,-0.36,-4.15,39.69,-5.00,1.50,-173.09,3.30,-1.26,5.76
-19,11,564,16,-395,3937,-0.40,0.56,33.44,0.16,-3.95,39.37,-5.01,1.50,-173.22,3.80,-1.37,6.52
-7,8,514,-10,-298,3989,-0.40,0.55,33.23,-0.10,-2.98,39.89,-4.99,1.50,-173.35,3.55,-1.30,9.81
-12,3,494,52,-388,3984,-0.43,0.51,32.92,0.52,-3.88,39.84,-5.00,1.49,-173.48,3.66,-1.19,11.01
-10,5,447,-37,-328,3916,-0.45,0.49,32.36,-0.37,-3.28,39.16,-4.99,1.49,-173.61,3.62,-1.22,13.90
-5,10,445,-53,-371,3880,-0.44,0.50,31.84,-0.53,-3.71,38.80,-5.00,1.49,-173.74,3.52,-1.32,13.76
-5,9,458,23,-455,3959,-0.42,0.51,31.45,0.23,-4.55,39.59,-5.01,1.49,-173.86,3.52,-1.30,12.68
2,9,468,-2,-400,3916,-0.37,0.51,31.16,-0.02,-4.00,39.16,-5.02,1.48,-173.99,3.37,-1.30,11.86
-14,3,466,-5,-425,3909,-0.42,0.48,30.88,-0.05,-4.25,39.09,-5.03,1.48,-174.11,3.72,-1.17,11.86
-14,4,441,84,-418,3941,-0.46,0.46,30.49,0.84,-4.18,39.41,-5.03,1.48,-174.23,3.73,-1.18,13.35
-5,5,448,-162,-321,3924,-0.45,0.44,30.17,-1.62,-3.21,39.24,-5.03,1.51,-174.35,3.54,-1.22,12.72
-9,3,456,-18,-601,3856,-0.46,0.41,29.93,-0.18,-6.01,38.56,-5.04,1.51,-174.47,3.63,-1.17,12.06
-24,8,454,112,-442,3841,-0.56,0.42,29.71,1.12,-4.42,38.41,-5.05,1.51,-174.59,3.97,-1.27,12.09
-1,20,444,-9,-441,3920,-0.51,0.50,29.45,-0.09,-4.41,39.20,-5.06,1.51,-174.70,3.50,-1.54,12.64
-18,9,438,-110,-468,3903,-0.57,0.51,29.17,-1.10,-4.68,39.03,-5.08,1.52,-174.82,3.87,-1.33,12.91
-7,8,438,-40,-457,3962,-0.55,0.50,28.93,-0.40,-4.57,39.62,-5.09,1.52,-174.93,3.65,-1.31,12.79
-19,13,461,21,-497,3819,-0.61,0.53,28.85,0.21,-4.97,38.19,-5.11,1.53,-175.05,3.92,-1.42,11.20
-1,21,461,-76,-391,3902,-0.56,0.61,28.78,-0.76,-3.91,39.02,-5.12,1.53,-175.16,3.55,-1.60,11.18
-22,8,499,-20,-375,3852,-0.64,0.60,28.94,-0.20,-3.75,38.52,-5.13,1.52,-175.28,4.00,-1.33,8.71
2,24,510,-112,-329,3994,-0.56,0.68,29.16,-1.12,-3.29,39.94,-5.11,1.54,-175.39,3.48,-1.69,8.10
-4,19,527,-37,-399,3921,-0.53,0.73,29.46,-0.37,-3.99,39.21,-5.12,1.54,-175.51,3.60,-1.60,7.14
-6,16,540,-94,-406,3958,-0.51,0.76,29.81,-0.94,-4.06,39.58,-5.13,1.55,-175.63,3.65,-1.55,6.47
-10,12,557,-159,-512,3877,-0.52,0.75,30.22,-1.59,-5.12,38.77,-5.15,1.57,-175.75,3.74,-1.48,5.57
-4,16,559,-129,-478,3910,-0.49,0.78,30.61,-1.29,-4.78,39.10,-5.17,1.58,-175.87,3.63,-1.58,5.67
0,15,595,-160,-437,3873,-0.45,0.79,31.18,-1.60,-4.37,38.73,-5.18,1.61,-175.99,3.54,-1.58,3.57
-1,22,601,-159,-417,3820,-0.41,0.84,31.73,-1.59,-4.17,38.20,-5.19,1.63,-176.12,3.56,-1.76,3.49
-14,9,619,-127,-267,3902,-0.45,0.81,32.33,-1.27,-2.67,39.02,-5.17,1.65,-176.25,3.82,-1.50,2.62
-1,12,622,-130,-289,3934,-0.41,0.81,32.89,-1.30,-2.89,39.34,-5.15,1.67,-176.38,3.53,-1.57,2.75
-17,-2,586,-34,-231,3861,-0.47,0.71,33.18,-0.34,-2.31,38.61,-5.14,1.68,-176.51,3.87,-1.26,5.37
-16,1,579,-92,-234,3890,-0.52,0.65,33.39,-0.92,-2.34,38.90,-5.12,1.69,-176.64,3.85,-1.31,5.99
5,17,577,-106,-314,3914,-0.44,0.69,33.57,-1.06,-3.14,39.14,-5.10,1.70,-176.78,3.38,-1.65,6.25
-8,13,569,-112,-346,3933,-0.45,0.70,33.69,-1.12,-3.46,39.33,-5.08,1.70,-176.91,3.64,-1.58,6.87
-14,-2,505,-85,-295,3835,-0.49,0.62,33.40,-0.85,-2.95,38.35,-5.06,1.70,-177.05,3.76,-1.25,11.07
-10,3,489,-89,-310,3867,-0.50,0.57,33.04,-0.89,-3.10,38.67,-5.05,1.71,-177.18,3.67,-1.34,11.97
4,22,451,-122,-262,3863,-0.43,0.65,32.49,-1.22,-2.62,38.63,-5.03,1.72,-177.31,3.35,-1.76,14.26
1,20,434,-95,-309,3942,-0.38,0.71,31.89,-0.95,-3.09,39.42,-5.01,1.73,-177.44,3.39,-1.74,15.09
-7,1,421,-101,-321,3903,-0.38,0.64,31.27,-1.01,-3.21,39.03,-4.99,1.73,-177.56,3.54,-1.34,15.64
-1,7,422,-88,-324,3832,-0.35,0.62,30.71,-0.88,-3.24,38.32,-4.98,1.72,-177.68,3.41,-1.45,15.28
-9,11,417,-14,-364,4011,-0.37,0.63,30.19,-0.14,-3.64,40.11,-4.99,1.72,-177.80,3.57,-1.53,15.34
-14,4,405,-68,-316,3944,-0.42,0.59,29.64,-0.68,-3.16,39.44,-4.97,1.71,-177.92,3.68,-1.37,15.87
-7,12,390,-146,-316,3888,-0.42,0.60,29.05,-1.46,-3.16,38.88,-4.96,1.74,-178.04,3.53,-1.56,16.57
-5,10,391,-46,-439,3932,-0.41,0.60,28.53,-0.46,-4.39,39.32,-4.97,1.74,-178.15,3.50,-1.52,16.23
-13,1,392,-160,-414,3902,-0.45,0.55,28.07,-1.60,-4.14,39.02,-4.99,1.76,-178.26,3.68,-1.33,15.92
-9,13,388,-117,-359,3928,-0.46,0.57,27.63,-1.17,-3.59,39.28,-5.00,1.77,-178.37,3.61,-1.59,15.96
5,16,412,-185,-464,3890,-0.38,0.61,27.38,-1.85,-4.64,38.90,-5.02,1.79,-178.48,3.31,-1.67,14.21
-1,16,421,-135,-452,3936,-0.35,0.65,27.21,-1.35,-4.52,39.36,-5.04,1.81,-178.59,3.44,-1.69,13.52
-6,10,448,-112,-573,3814,-0.35,0.65,27.22,-1.12,-5.73,38.14,-5.05,1.82,-178.70,3.55,-1.58,11.71
-3,14,455,-92,-467,3887,-0.33,0.67,27.28,-0.92,-4.67,38.87,-5.07,1.82,-178.80,3.50,-1.67,11.29
-14,1,452,-5,-405,3796,-0.39,0.61,27.31,-0.05,-4.05,37.96,-5.07,1.82,-178.91,3.74,-1.39,11.52
-12,1,439,-103,-317,3888,-0.42,0.55,27.25,-1.03,-3.17,38.88,-5.06,1.82,-179.02,3.70,-1.37,12.39
-16,2,430,51,-342,4007,-0.48,0.51,27.15,0.51,-3.42,40.07,-5.06,1.81,-179.13,3.79,-1.38,12.96
-10,-2,427,-116,-343,3847,-0.49,0.45,27.04,-1.16,-3.43,38.47,-5.06,1.81,-179.24,3.68,-1.27,13.12
-15,6,443,32,-449,3949,-0.53,0.44,27.04,0.32,-4.49,39.49,-5.07,1.80,-179.34,3.80,-1.43,12.05
-5,2,444,-89,-339,3870,-0.51,0.41,27.04,-0.89,-3.39,38.70,-5.07,1.80,-179.45,3.58,-1.34,12.00
1,14,456,-88,-350,3824,-0.45,0.45,27.12,-0.88,-3.50,38.24,-5.07,1.79,-179.56,3.45,-1.59,11.24
2,22,468,-127,-432,3895,-0.39,0.54,27.26,-1.27,-4.32,38.95,-5.09,1.80,-179.67,3.42,-1.79,10.53
-6,12,490,-107,-432,3916,-0.39,0.56,27.53,-1.07,-4.32,39.16,-5.10,1.81,-179.78,3.60,-1.59,9.20
-11,4,488,-28,-439,3901,-0.42,0.53,27.75,-0.28,-4.39,39.01,-5.11,1.81,-179.89,3.71,-1.42,9.48
-11,9,479,-34,-409,3861,-0.44,0.53,27.90,-0.34,-4.09,38.61,-5.12,1.81,-180.00,3.73,-1.52,10.19
-7,3,484,-105,-425,3885,-0.44,0.50,28.06,-1.05,-4.25,38.85,-5.14,1.82,179.89,3.65,-1.39,-20.00
0,27,491,-122,-484,3938,-0.40,0.61,28.25,-1.22,-4.84,39.38,-5.15,1.83,179.78,3.51,-1.92,-20.00
-10,-3,487,-34,-522,3931,-0.42,0.53,28.39,-0.34,-5.22,39.31,-5.17,1.83,179.67,3.73,-1.29,-20.00
-7,12,497,-80,-389,3793,-0.42,0.55,28.59,-0.80,-3.89,37.93,-5.18,1.83,179.56,3.68,-1.60,-20.00
-8,21,497,-122,-468,3859,-0.43,0.62,28.76,-1.22,-4.68,38.59,-5.20,1.84,179.44,3.71,-1.81,-20.00
-5,16,503,-66,-436,3905,-0.42,0.66,28.95,-0.66,-4.36,39.05,-5.21,1.85,179.33,3.65,-1.72,-20.00
-4,13,508,-121,-439,3864,-0.40,0.67,29.16,-1.21,-4.39,38.64,-5.22,1.86,179.21,3.64,-1.67,-20.00
0,22,480,-64,-385,3798,-0.36,0.74,29.17,-0.64,-3.85,37.98,-5.23,1.86,179.10,3.55,-1.87,-20.00
-9,16,462,-91,-394,3944,-0.38,0.76,29.07,-0.91,-3.94,39.44,-5.24,1.86,178.98,3.75,-1.76,-20.00
1,15,471,-111,-392,3914,-0.33,0.78,29.04,-1.11,-3.92,39.14,-5.26,1.86,178.87,3.54,-1.75,-20.00
-4,4,481,-73,-442,3844,-0.32,0.72,29.07,-0.73,-4.42,38.44,-5.27,1.87,178.75,3.65,-1.51,-20.00
-16,12,491,-39,-420,3848,-0.39,0.73,29.15,-0.39,-4.20,38.48,-5.28,1.87,178.63,3.92,-1.67,-20.00
-12,9,479,-79,-484,3972,-0.42,0.71,29.16,-0.79,-4.84,39.72,-5.29,1.87,178.52,3.85,-1.61,-20.00
-14,7,494,-84,-410,3948,-0.47,0.68,29.26,-0.84,-4.10,39.48,-5.30,1.87,178.40,3.91,-1.56,-20.00
-15,6,499,-88,-436,3884,-0.51,0.65,29.38,-0.88,-4.36,38.84,-5.32,1.88,178.29,3.95,-1.54,-20.00
-12,3,499,-89,-438,3872,-0.53,0.60,29.48,-0.89,-4.38,38.72,-5.33,1.88,178.17,3.91,-1.47,-20.00
-8,7,502,-109,-404,3878,-0.53,0.58,29.60,-1.09,-4.04,38.78,-5.35,1.89,178.05,3.84,-1.55,-20.00
3,16,525,-8,-402,3940,-0.46,0.62,29.84,-0.08,-4.02,39.40,-5.35,1.88,177.93,3.59,-1.74,-20.00
-19,0,511,-17,-424,3948,-0.53,0.56,29.97,-0.17,-4.24,39.48,-5.36,1.88,177.82,4.07,-1.39,-20.00
-2,19,482,-40,-344,3896,-0.49,0.62,29.92,-0.40,-3.44,38.96,-5.35,1.88,177.70,3.70,-1.79,-20.00
3,24,474,-25,-354,3891,-0.42,0.71,29.82,-0.25,-3.54,38.91,-5.35,1.87,177.58,3.58,-1.92,-20.00
-8,7,452,-9,-440,3848,-0.43,0.68,29.59,-0.09,-4.40,38.48,-5.35,1.87,177.46,3.81,-1.56,-20.00
-10,12,442,-14,-418,3995,-0.45,0.68,29.33,-0.14,-4.18,39.95,-5.36,1.87,177.34,3.86,-1.66,-20.00
-14,2,446,-72,-444,3890,-0.49,0.63,29.12,-0.72,-4.44,38.90,-5.37,1.87,177.23,3.96,-1.45,-20.00
-16,5,449,-89,-448,3871,-0.54,0.59,28.94,-0.89,-4.48,38.71,-5.39,1.88,177.11,4.03,-1.50,-20.00
-5,4,473,-51,-412,3906,-0.51,0.56,28.93,-0.51,-4.12,39.06,-5.39,1.87,177.00,3.80,-1.47,-20.00
-7,8,481,-70,-398,3861,-0.50,0.55,28.97,-0.70,-3.98,38.61,-5.40,1.87,176.88,3.84,-1.55,-20.00
-12,6,449,11,-399,3961,-0.53,0.53,28.82,0.11,-3.99,39.61,-5.40,1.86,176.77,3.95,-1.50,-20.00
0,14,433,-33,-366,3935,-0.47,0.57,28.58,-0.33,-3.66,39.35,-5.40,1.86,176.66,3.69,-1.67,-20.00
-12,3,379,-52,-392,3904,-0.50,0.53,28.03,-0.52,-3.92,39.04,-5.40,1.85,176.55,3.95,-1.43,-20.00
-19,-3,368,14,-379,3888,-0.57,0.46,27.47,0.14,-3.79,38.88,-5.40,1.85,176.44,4.11,-1.28,-20.00
-4,8,349,-59,-351,3894,-0.53,0.46,26.85,-0.59,-3.51,38.94,-5.40,1.84,176.33,3.79,-1.50,-20.00
-7,6,343,-104,-332,3913,-0.52,0.45,26.26,-1.04,-3.32,39.13,-5.38,1.85,176.22,3.84,-1.46,-20.00
-4,6,358,-133,-426,3886,-0.49,0.44,25.82,-1.33,-4.26,38.86,-5.40,1.86,176.12,3.78,-1.47,-20.00
-7,8,372,-102,-446,3842,-0.49,0.45,25.51,-1.02,-4.46,38.42,-5.41,1.87,176.02,3.85,-1.52,-20.00
3,20,414,-175,-411,3913,-0.42,0.52,25.48,-1.75,-4.11,39.13,-5.42,1.89,175.92,3.63,-1.80,-20.00
2,10,425,-92,-428,3989,-0.37,0.53,25.53,-0.92,-4.28,39.89,-5.44,1.89,175.82,3.65,-1.60,-20.00
-9,6,427,-97,-415,3955,-0.38,0.52,25.58,-0.97,-4.15,39.55,-5.45,1.89,175.72,3.88,-1.51,-20.00
-9,8,424,-31,-390,3913,-0.40,0.51,25.61,-0.31,-3.90,39.13,-5.45,1.88,175.62,3.89,-1.55,-20.00
-14,4,410,-169,-443,3853,-0.45,0.49,25.55,-1.69,-4.43,38.53,-5.46,1.90,175.52,4.01,-1.47,-20.00
-16,6,412,-92,-439,3993,-0.50,0.47,25.50,-0.92,-4.39,39.93,-5.48,1.91,175.41,4.08,-1.51,-20.00
-5,3,447,-119,-407,3881,-0.48,0.44,25.68,-1.19,-4.07,38.81,-5.49,1.91,175.31,3.86,-1.44,-20.00
-5,18,442,7,-403,3900,-0.46,0.51,25.81,0.07,-4.03,39.00,-5.50,1.91,175.21,3.85,-1.76,-20.00
-4,13,396,-46,-358,3942,-0.44,0.54,25.64,-0.46,-3.58,39.42,-5.49,1.90,175.11,3.82,-1.67,-20.00
-13,-1,384,-16,-313,3991,-0.48,0.48,25.42,-0.16,-3.13,39.91,-5.48,1.90,175.01,4.01,-1.36,-20.00
-5,6,357,-73,-369,3862,-0.46,0.47,25.06,-0.73,-3.69,38.62,-5.48,1.89,174.91,3.84,-1.50,-20.00
-2,13,365,-77,-426,3897,-0.43,0.50,24.78,-0.77,-4.26,38.97,-5.49,1.89,174.81,3.78,-1.65,-20.00
-7,7,377,-45,-409,3959,-0.43,0.49,24.60,-0.45,-4.09,39.59,-5.49,1.88,174.71,3.88,-1.52,-20.00
-4,6,372,-65,-359,3941,-0.41,0.48,24.41,-0.65,-3.59,39.41,-5.49,1.88,174.61,3.81,-1.49,-20.00
-6,6,366,-69,-399,3859,-0.40,0.47,24.20,-0.69,-3.99,38.59,-5.49,1.87,174.52,3.86,-1.48,-20.00
2,16,364,-76,-432,3877,-0.35,0.52,24.00,-0.76,-4.32,38.77,-5.50,1.87,174.42,3.69,-1.70,-20.00
-2,10,332,-7,-327,3976,-0.33,0.53,23.63,-0.07,-3.27,39.76,-5.49,1.86,174.33,3.76,-1.58,-20.00
-20,-5,322,-103,-302,3857,-0.42,0.45,23.23,-1.03,-3.02,38.57,-5.48,1.87,174.24,4.13,-1.25,-20.00
1,23,288,-54,-350,3897,-0.37,0.54,22.66,-0.54,-3.50,38.97,-5.47,1.86,174.15,3.69,-1.84,-20.00
2,13,282,2,-362,4026,-0.32,0.57,22.12,0.02,-3.62,40.26,-5.46,1.85,174.06,3.65,-1.64,-20.00
-13,-11,260,3,-355,3965,-0.37,0.44,21.49,0.03,-3.55,39.65,-5.46,1.85,173.97,3.97,-1.12,-20.00
-13,1,251,-26,-348,3900,-0.41,0.40,20.87,-0.26,-3.48,39.00,-5.45,1.84,173.89,3.98,-1.34,-20.00
-7,0,228,-76,-387,3902,-0.41,0.36,20.18,-0.76,-3.87,39.02,-5.46,1.83,173.81,3.86,-1.31,-20.00
-7,2,220,-53,-423,3863,-0.41,0.34,19.50,-0.53,-4.23,38.63,-5.47,1.82,173.73,3.86,-1.34,-20.00
-8,-3,232,-97,-494,3890,-0.42,0.29,18.97,-0.97,-4.94,38.90,-5.49,1.83,173.66,3.90,-1.22,-20.00
2,9,231,-32,-469,3919,-0.37,0.31,18.48,-0.32,-4.69,39.19,-5.50,1.82,173.58,3.69,-1.47,-20.00
-4,5,249,-111,-382,3918,-0.35,0.31,18.15,-1.11,-3.82,39.18,-5.50,1.81,173.51,3.81,-1.38,-20.00
-8,-2,263,-103,-440,3939,-0.37,0.27,17.94,-1.03,-4.40,39.39,-5.52,1.82,173.44,3.91,-1.23,-20.00
-8,6,314,-143,-501,3896,-0.38,0.28,18.06,-1.43,-5.01,38.96,-5.54,1.83,173.37,3.92,-1.40,-20.00
-17,-4,325,-43,-538,3864,-0.45,0.23,18.24,-0.43,-5.38,38.64,-5.55,1.83,173.30,4.13,-1.19,-20.00
-10,-1,370,-152,-445,3821,-0.46,0.20,18.67,-1.52,-4.45,38.21,-5.57,1.84,173.22,4.00,-1.25,-20.00
-14,0,384,-150,-462,3943,-0.50,0.18,19.15,-1.50,-4.62,39.43,-5.59,1.85,173.15,4.11,-1.27,-20.00
-11,3,421,-96,-465,3920,-0.52,0.18,19.80,-0.96,-4.65,39.20,-5.60,1.86,173.07,4.06,-1.33,-20.00
-7,9,430,-112,-467,3876,-0.51,0.22,20.44,-1.12,-4.67,38.76,-5.62,1.86,172.99,3.99,-1.47,-20.00
-1,7,474,-97,-506,3945,-0.46,0.24,21.29,-0.97,-5.06,39.45,-5.64,1.87,172.91,3.87,-1.44,-20.00
1,5,491,-44,-515,3842,-0.41,0.24,22.16,-0.44,-5.15,38.42,-5.65,1.87,172.82,3.82,-1.40,-20.00
-8,1,514,-113,-451,3853,-0.42,0.23,23.08,-1.13,-4.51,38.53,-5.67,1.87,172.73,4.02,-1.32,-20.00
-18,-10,500,-34,-479,3955,-0.49,0.14,23.82,-0.34,-4.79,39.55,-5.68,1.87,172.63,4.25,-1.07,-20.00
-2,1,559,-119,-435,3756,-0.45,0.13,24.85,-1.19,-4.35,37.56,-5.70,1.88,172.53,3.92,-1.30,-20.00
1,39,573,-92,-477,3832,-0.40,0.36,25.86,-0.92,-4.77,38.32,-5.71,1.88,172.43,3.86,-2.13,-20.00
-12,15,585,-43,-442,3972,-0.43,0.41,26.84,-0.43,-4.42,39.72,-5.72,1.88,172.33,4.14,-1.66,-20.00
-27,8,574,22,-422,3939,-0.55,0.42,27.66,0.22,-4.22,39.39,-5.72,1.87,172.22,4.47,-1.51,-20.00
-5,-1,566,-100,-236,3769,-0.53,0.37,28.34,-1.00,-2.36,37.69,-5.70,1.88,172.10,4.01,-1.33,-20.00
-8,17,559,-85,-472,3832,-0.53,0.44,28.92,-0.85,-4.72,38.32,-5.71,1.89,171.99,4.08,-1.71,-20.00
-7,19,525,-4,-237,3986,-0.52,0.51,29.23,-0.04,-2.37,39.86,-5.70,1.89,171.87,4.04,-1.77,-20.00
-10,2,503,-98,-225,3906,-0.52,0.47,29.38,-0.98,-2.25,39.06,-5.68,1.90,171.75,4.09,-1.42,-20.00
-21,2,412,126,-335,3837,-0.60,0.44,28.95,1.26,-3.35,38.37,-5.67,1.90,171.64,4.34,-1.41,-20.00
-13,-1,415,-46,-390,3891,-0.62,0.39,28.59,-0.46,-3.90,38.91,-5.67,1.89,171.52,4.18,-1.33,-20.00
-5,19,420,-9,-438,3925,-0.59,0.46,28.29,-0.09,-4.38,39.25,-5.68,1.89,171.41,4.01,-1.76,-20.00
3,7,420,-8,-404,3888,-0.51,0.46,28.02,-0.08,-4.04,38.88,-5.68,1.88,171.30,3.83,-1.51,-20.00
-4,18,389,-60,-335,3888,-0.48,0.52,27.59,-0.60,-3.35,38.88,-5.67,1.88,171.19,3.95,-1.75,-20.00
-5,8,376,-71,-385,3877,-0.47,0.52,27.13,-0.71,-3.85,38.77,-5.67,1.88,171.08,3.97,-1.54,-20.00
4,24,344,-75,-419,3901,-0.40,0.62,26.51,-0.75,-4.19,39.01,-5.67,1.87,170.98,3.77,-1.89,-20.00
3,4,340,-63,-367,3985,-0.34,0.58,25.94,-0.63,-3.67,39.85,-5.66,1.87,170.87,3.77,-1.47,-20.00
-2,7,304,-69,-371,3909,-0.32,0.56,25.20,-0.69,-3.71,39.09,-5.66,1.86,170.77,3.86,-1.53,-20.00
-1,12,290,-80,-382,3876,-0.29,0.58,24.45,-0.80,-3.82,38.76,-5.65,1.86,170.68,3.83,-1.63,-20.00
1,7,257,-36,-483,3915,-0.26,0.56,23.57,-0.36,-4.83,39.15,-5.67,1.86,170.58,3.79,-1.52,-20.00
-1,7,245,5,-498,3906,-0.24,0.55,22.71,0.05,-4.98,39.06,-5.68,1.85,170.49,3.83,-1.52,-20.00
-4,5,278,-25,-526,3894,-0.24,0.53,22.13,-0.25,-5.26,38.94,-5.69,1.85,170.41,3.90,-1.47,-20.00
-9,5,295,-1,-510,3920,-0.27,0.50,21.72,-0.01,-5.10,39.20,-5.70,1.85,170.32,4.02,-1.46,-20.00
-10,5,314,-40,-442,3899,-0.30,0.48,21.46,-0.40,-4.42,38.99,-5.71,1.84,170.24,4.05,-1.45,-20.00
-10,-2,322,-89,-381,3898,-0.33,0.42,21.28,-0.89,-3.81,38.98,-5.70,1.84,170.15,4.06,-1.29,-20.00
0,21,342,-10,-506,3897,-0.30,0.51,21.24,-0.10,-5.06,38.97,-5.71,1.83,170.07,3.85,-1.78,-20.00
4,13,351,34,-514,3869,-0.25,0.54,21.26,0.34,-5.14,38.69,-5.72,1.83,169.98,3.76,-1.62,-20.00
-8,1,365,16,-452,3907,-0.27,0.49,21.36,0.16,-4.52,39.07,-5.73,1.82,169.90,4.02,-1.36,-20.00
0,7,349,15,-469,3918,-0.24,0.48,21.35,0.15,-4.69,39.18,-5.73,1.82,169.81,3.85,-1.47,-20.00
-13,7,320,-110,-296,3943,-0.30,0.48,21.17,-1.10,-2.96,39.43,-5.72,1.83,169.73,4.12,-1.48,-20.00
-9,-2,302,-116,-278,3894,-0.32,0.42,20.89,-1.16,-2.78,38.94,-5.70,1.83,169.65,4.03,-1.28,-20.00
-1,14,268,11,-449,3893,-0.30,0.46,20.44,0.11,-4.49,38.93,-5.70,1.83,169.56,3.86,-1.62,-20.00
-4,15,267,-12,-568,3891,-0.29,0.51,20.02,-0.12,-5.68,38.91,-5.72,1.83,169.49,3.93,-1.65,-20.00
-4,-4,294,-18,-593,3937,-0.29,0.43,19.81,-0.18,-5.93,39.37,-5.73,1.83,169.41,3.94,-1.24,-20.00
-9,3,301,-44,-531,3892,-0.31,0.41,19.67,-0.44,-5.31,38.92,-5.75,1.83,169.33,4.06,-1.38,-20.00
-5,3,299,-52,-430,3908,-0.31,0.38,19.53,-0.52,-4.30,39.08,-5.75,1.82,169.25,3.98,-1.37,-20.00
-4,-3,303,-65,-438,3927,-0.31,0.33,19.42,-0.65,-4.38,39.27,-5.76,1.82,169.18,3.97,-1.23,-20.00
-7,7,291,-76,-413,3884,-0.32,0.34,19.25,-0.76,-4.13,38.84,-5.77,1.81,169.10,4.04,-1.43,-20.00
-10,8,294,-91,-442,3887,-0.35,0.35,19.12,-0.91,-4.42,38.87,-5.78,1.81,169.02,4.11,-1.45,-20.00
-3,10,305,-126,-388,3939,-0.33,0.38,19.07,-1.26,-3.88,39.39,-5.76,1.82,168.95,3.95,-1.51,-20.00
-7,9,302,-74,-389,3877,-0.34,0.40,19.01,-0.74,-3.89,38.77,-5.76,1.81,168.87,4.04,-1.49,-20.00
7,22,264,-68,-344,3964,-0.26,0.49,18.72,-0.68,-3.44,39.64,-5.75,1.81,168.80,3.72,-1.77,-20.00
1,0,256,-52,-320,3961,-0.23,0.44,18.41,-0.52,-3.20,39.61,-5.73,1.80,168.72,3.83,-1.31,-20.00
10,18,220,-54,-350,3911,-0.15,0.51,17.91,-0.54,-3.50,39.11,-5.72,1.80,168.65,3.61,-1.69,-20.00
9,13,211,-37,-352,3879,-0.08,0.54,17.40,-0.37,-3.52,38.79,-5.71,1.79,168.58,3.61,-1.59,-20.00
3,4,174,-63,-311,3921,-0.05,0.51,16.72,-0.63,-3.11,39.21,-5.70,1.79,168.52,3.71,-1.40,-20.00
4,7,166,-90,-291,3933,-0.02,0.50,16.06,-0.90,-2.91,39.33,-5.68,1.79,168.45,3.67,-1.46,-20.00
-4,2,143,-60,-362,3952,-0.04,0.46,15.33,-0.60,-3.62,39.52,-5.67,1.78,168.39,3.83,-1.34,-20.00
-9,7,148,-99,-379,3934,-0.09,0.46,14.70,-0.99,-3.79,39.34,-5.66,1.77,168.33,3.94,-1.44,-20.00
-4,2,148,-92,-435,3923,-0.11,0.42,14.13,-0.92,-4.35,39.23,-5.67,1.77,168.28,3.85,-1.32,-20.00
-6,4,167,-121,-538,3866,-0.14,0.41,13.74,-1.21,-5.38,38.66,-5.69,1.78,168.22,3.91,-1.36,-20.00
-9,3,210,-121,-420,3899,-0.18,0.38,13.65,-1.21,-4.20,38.99,-5.71,1.78,168.17,4.00,-1.34,-20.00
-13,8,220,-171,-450,3915,-0.24,0.39,13.62,-1.71,-4.50,39.15,-5.72,1.80,168.12,4.10,-1.46,-20.00
-3,5,238,-177,-453,3916,-0.23,0.39,13.71,-1.77,-4.53,39.16,-5.73,1.82,168.06,3.91,-1.41,-20.00
-4,15,252,-130,-431,3886,-0.23,0.44,13.88,-1.30,-4.31,38.86,-5.75,1.83,168.01,3.94,-1.63,-20.00
-11,2,271,-82,-458,3893,-0.28,0.41,14.14,-0.82,-4.58,38.93,-5.76,1.83,167.95,4.10,-1.36,-20.00
-6,0,287,-113,-507,3926,-0.29,0.37,14.48,-1.13,-5.07,39.26,-5.78,1.83,167.89,4.02,-1.31,-20.00
-10,-5,315,-94,-457,3917,-0.32,0.30,14.95,-0.94,-4.57,39.17,-5.80,1.83,167.84,4.12,-1.19,-20.00
-8,8,340,-123,-456,3864,-0.34,0.32,15.53,-1.23,-4.56,38.64,-5.81,1.84,167.77,4.09,-1.46,-20.00
-4,14,363,-62,-497,3855,-0.33,0.37,16.19,-0.62,-4.97,38.55,-5.83,1.84,167.71,4.02,-1.60,-20.00
-4,6,367,-36,-469,3951,-0.32,0.37,16.81,-0.36,-4.69,39.51,-5.84,1.83,167.64,4.02,-1.43,-20.00
-6,-11,381,-72,-416,3868,-0.32,0.27,17.46,-0.72,-4.16,38.68,-5.84,1.82,167.57,4.07,-1.05,-20.00
-16,-3,389,-42,-494,3918,-0.39,0.22,18.08,-0.42,-4.94,39.18,-5.86,1.82,167.50,4.30,-1.20,-20.00
-5,11,389,-61,-464,3907,-0.38,0.27,18.65,-0.61,-4.64,39.07,-5.87,1.81,167.43,4.08,-1.49,-20.00
0,17,386,-86,-446,3892,-0.34,0.34,19.14,-0.86,-4.46,38.92,-5.88,1.81,167.35,3.98,-1.63,-20.00
-20,5,423,-43,-468,3874,-0.43,0.34,19.80,-0.43,-4.68,38.74,-5.89,1.81,167.28,4.41,-1.39,-20.00
-27,-6,441,-93,-548,3900,-0.55,0.27,20.51,-0.93,-5.48,39.00,-5.91,1.81,167.19,4.60,-1.15,-20.00
-15,26,532,-17,-535,3932,-0.59,0.40,21.71,-0.17,-5.35,39.32,-5.92,1.81,167.11,4.38,-1.83,-20.00
-2,22,564,-19,-530,3936,-0.54,0.49,22.98,-0.19,-5.30,39.36,-5.94,1.81,167.02,4.11,-1.78,-20.00
-20,-5,614,-64,-390,3933,-0.61,0.41,24.42,-0.64,-3.90,39.33,-5.93,1.80,166.92,4.49,-1.20,-20.00
-13,17,617,-103,-446,3823,-0.63,0.48,25.75,-1.03,-4.46,38.23,-5.95,1.81,166.82,4.36,-1.67,-20.00
14,40,586,17,-319,3876,-0.48,0.67,26.75,0.17,-3.19,38.76,-5.94,1.81,166.71,3.76,-2.19,-20.00
-4,19,567,36,-471,3929,-0.46,0.72,27.53,0.36,-4.71,39.29,-5.94,1.81,166.60,4.13,-1.77,-20.00
4,18,523,55,-366,3911,-0.39,0.76,27.97,0.55,-3.66,39.11,-5.94,1.80,166.49,3.94,-1.76,-20.00
-7,4,510,77,-402,3857,-0.39,0.71,28.28,0.77,-4.02,38.57,-5.93,1.80,166.38,4.17,-1.46,-20.00
-2,15,462,-74,-312,3889,-0.36,0.73,28.27,-0.74,-3.12,38.89,-5.92,1.80,166.27,4.04,-1.69,-20.00
3,15,424,-48,-263,3938,-0.31,0.75,28.03,-0.48,-2.63,39.38,-5.90,1.81,166.16,3.92,-1.70,-20.00
2,13,342,-73,-409,3953,-0.27,0.75,27.31,-0.73,-4.09,39.53,-5.90,1.81,166.05,3.92,-1.66,-20.00
2,9,325,-24,-360,3957,-0.23,0.73,26.57,-0.24,-3.60,39.57,-5.89,1.80,165.94,3.91,-1.57,-20.00
3,6,319,-123,-400,3950,-0.19,0.70,25.85,-1.23,-4.00,39.50,-5.87,1.81,165.84,3.86,-1.51,-20.00
-13,4,303,24,-415,3919,-0.25,0.65,25.12,0.24,-4.15,39.19,-5.86,1.81,165.74,4.20,-1.45,-20.00
-17,0,273,-101,-450,3846,-0.33,0.58,24.27,-1.01,-4.50,38.46,-5.88,1.81,165.64,4.32,-1.36,-20.00
-9,-3,264,-34,-397,3989,-0.35,0.51,23.45,-0.34,-3.97,39.89,-5.88,1.81,165.55,4.16,-1.27,-20.00
-11,13,259,-140,-531,3926,-0.38,0.54,22.69,-1.40,-5.31,39.26,-5.89,1.82,165.46,4.22,-1.61,-20.00
-9,-5,243,-23,-479,3891,-0.40,0.45,21.90,-0.23,-4.79,38.91,-5.90,1.82,165.37,4.19,-1.22,-20.00
-11,-4,289,-170,-483,3866,-0.42,0.38,21.47,-1.70,-4.83,38.66,-5.92,1.83,165.29,4.24,-1.23,-20.00
-7,0,305,-164,-498,3882,-0.42,0.34,21.19,-1.64,-4.98,38.82,-5.93,1.85,165.20,4.17,-1.32,-20.00
2,8,338,-76,-479,3990,-0.37,0.36,21.13,-0.76,-4.79,39.90,-5.95,1.85,165.12,3.98,-1.48,-20.00
-11,4,347,-6,-560,3906,-0.40,0.35,21.13,-0.06,-5.60,39.06,-5.96,1.85,165.04,4.27,-1.40,-20.00
-8,-1,388,-70,-435,3911,-0.41,0.31,21.39,-0.70,-4.35,39.11,-5.97,1.84,164.95,4.21,-1.28,-20.00
-15,9,373,-80,-499,3880,-0.46,0.33,21.52,-0.80,-4.99,38.80,-5.98,1.84,164.87,4.38,-1.49,-20.00
-4,14,384,-165,-511,3890,-0.44,0.38,21.71,-1.65,-5.11,38.90,-6.00,1.86,164.78,4.16,-1.62,-20.00
-11,8,376,-91,-494,3972,-0.46,0.39,21.84,-0.91,-4.94,39.72,-6.01,1.86,164.70,4.32,-1.50,-20.00
-12,-1,397,-136,-519,3987,-0.49,0.35,22.07,-1.36,-5.19,39.87,-6.03,1.88,164.61,4.36,-1.31,-20.00
-16,2,404,-35,-480,3868,-0.54,0.33,22.33,-0.35,-4.80,38.68,-6.04,1.87,164.52,4.46,-1.36,-20.00
-9,9,427,-72,-443,3889,-0.54,0.35,22.70,-0.72,-4.43,38.89,-6.05,1.87,164.43,4.32,-1.51,-20.00
2,20,424,-119,-445,3888,-0.47,0.44,23.02,-1.19,-4.45,38.88,-6.07,1.87,164.34,4.09,-1.76,-20.00
-19,3,415,-13,-473,3946,-0.54,0.41,23.25,-0.13,-4.73,39.46,-6.07,1.87,164.25,4.54,-1.41,-20.00
-8,11,408,2,-436,3933,-0.54,0.44,23.41,0.02,-4.36,39.33,-6.07,1.86,164.15,4.32,-1.57,-20.00
-15,-2,413,20,-487,3971,-0.57,0.38,23.59,0.20,-4.87,39.71,-6.08,1.86,164.06,4.47,-1.29,-20.00
-5,15,415,-104,-443,3910,-0.55,0.43,23.76,-1.04,-4.43,39.10,-6.09,1.86,163.97,4.27,-1.65,-20.00
-6,7,363,-57,-342,3886,-0.53,0.43,23.60,-0.57,-3.42,38.86,-6.08,1.86,163.87,4.28,-1.48,-20.00
-10,0,349,-44,-351,3938,-0.54,0.39,23.37,-0.44,-3.51,39.38,-6.07,1.85,163.78,4.35,-1.33,-20.00
9,16,286,-57,-373,3976,-0.43,0.45,22.78,-0.57,-3.73,39.76,-6.05,1.85,163.69,3.93,-1.67,-20.00
3,11,253,54,-394,3965,-0.37,0.47,22.04,0.54,-3.94,39.65,-6.05,1.84,163.60,4.03,-1.57,-20.00
-21,-20,194,-83,-388,3924,-0.46,0.30,21.02,-0.83,-3.88,39.24,-6.04,1.84,163.52,4.54,-0.89,-20.00
-15,-16,190,-119,-387,3910,-0.50,0.17,20.08,-1.19,-3.87,39.10,-6.02,1.84,163.44,4.42,-0.94,-20.00
2,0,182,-42,-463,3817,-0.44,0.16,19.18,-0.42,-4.63,38.17,-6.03,1.83,163.36,4.06,-1.25,-20.00
-5,21,163,30,-468,3798,-0.43,0.27,18.26,0.30,-4.68,37.98,-6.04,1.83,163.29,4.20,-1.71,-20.00
1,8,158,-95,-451,3850,-0.38,0.29,17.40,-0.95,-4.51,38.50,-6.05,1.83,163.22,4.08,-1.45,-20.00
2,9,158,-71,-461,3963,-0.33,0.32,16.62,-0.71,-4.61,39.63,-6.06,1.82,163.15,4.05,-1.47,-20.00
12,10,132,6,-392,3921,-0.22,0.35,15.76,0.06,-3.92,39.21,-6.06,1.81,163.09,3.82,-1.49,-20.00
8,8,120,14,-406,3893,-0.15,0.36,14.92,0.14,-4.06,38.93,-6.06,1.80,163.03,3.88,-1.45,-20.00
3,7,70,-18,-364,3909,-0.12,0.37,13.85,-0.18,-3.64,39.09,-6.05,1.79,162.98,3.96,-1.42,-20.00
2,6,55,-26,-351,3937,-0.09,0.37,12.80,-0.26,-3.51,39.37,-6.04,1.78,162.93,3.97,-1.40,-20.00
-3,0,0,-66,-404,3947,-0.10,0.33,11.52,-0.66,-4.04,39.47,-6.03,1.77,162.88,4.07,-1.26,-17.97
-5,0,-9,-77,-424,3934,-0.12,0.30,10.32,-0.77,-4.24,39.34,-6.03,1.76,162.84,4.12,-1.24,-18.03
-3,2,-7,-99,-520,3904,-0.13,0.28,9.24,-0.99,-5.20,39.04,-6.05,1.76,162.80,4.09,-1.28,-18.76
-5,3,3,-90,-538,3895,-0.15,0.27,8.34,-0.90,-5.38,38.95,-6.07,1.76,162.77,4.15,-1.29,-19.94
-9,-3,32,-37,-494,3899,-0.19,0.22,7.70,-0.37,-4.94,38.99,-6.08,1.75,162.74,4.25,-1.15,-20.00
-6,-3,38,-27,-467,3898,-0.20,0.18,7.16,-0.27,-4.67,38.98,-6.09,1.74,162.71,4.20,-1.14,-20.00
11,7,35,-2,-441,3874,-0.12,0.21,6.66,-0.02,-4.41,38.74,-6.09,1.72,162.69,3.83,-1.34,-20.00
14,12,34,0,-413,3894,-0.02,0.26,6.20,0.00,-4.13,38.94,-6.09,1.71,162.66,3.74,-1.44,-20.00
13,9,10,22,-335,3930,0.06,0.29,5.64,0.22,-3.35,39.30,-6.08,1.70,162.64,3.73,-1.38,-20.00
8,5,-3,22,-293,3927,0.10,0.29,5.06,0.22,-2.93,39.27,-6.07,1.69,162.62,3.81,-1.29,-20.00
6,0,-86,-51,-226,3852,0.13,0.26,4.03,-0.51,-2.26,38.52,-6.05,1.68,162.60,3.84,-1.18,-16.30
6,0,-97,-108,-239,3898,0.15,0.24,3.03,-1.08,-2.39,38.98,-6.03,1.68,162.59,3.82,-1.18,-16.11
10,7,-125,-121,-379,3908,0.20,0.25,1.97,-1.21,-3.79,39.08,-6.01,1.69,162.58,3.71,-1.33,-14.81
8,2,-127,-96,-419,3984,0.23,0.24,1.00,-0.96,-4.19,39.84,-6.01,1.67,162.58,3.74,-1.21,-15.22
1,-3,-103,-116,-424,3981,0.21,0.20,0.27,-1.16,-4.24,39.81,-6.03,1.67,162.58,3.90,-1.10,-17.26
7,5,-94,-101,-521,3862,0.23,0.21,-0.33,-1.01,-5.21,38.62,-6.05,1.67,162.58,3.78,-1.26,-18.20
11,8,-76,-32,-496,3932,0.28,0.24,-0.76,-0.32,-4.96,39.32,-6.06,1.66,162.58,3.70,-1.32,-19.66
11,12,-68,-32,-457,3924,0.32,0.29,-1.10,-0.32,-4.57,39.24,-6.06,1.64,162.59,3.69,-1.40,-20.00
23,15,-84,20,-426,3992,0.42,0.35,-1.50,0.20,-4.26,39.92,-6.06,1.62,162.59,3.42,-1.47,-19.54
27,17,-96,63,-439,3863,0.55,0.42,-1.94,0.63,-4.39,38.63,-6.06,1.60,162.60,3.30,-1.52,-18.97
17,13,-114,-55,-411,3899,0.60,0.46,-2.44,-0.55,-4.11,38.99,-6.06,1.59,162.61,3.49,-1.44,-18.03
15,11,-115,-109,-377,3898,0.63,0.48,-2.90,-1.09,-3.77,38.98,-6.04,1.59,162.62,3.51,-1.40,-18.22
12,1,-105,-182,-432,3923,0.64,0.44,-3.25,-1.82,-4.32,39.23,-6.04,1.61,162.64,3.57,-1.20,-19.10
5,0,-96,-143,-470,3930,0.61,0.39,-3.51,-1.43,-4.70,39.30,-6.06,1.62,162.65,3.73,-1.17,-19.86
-2,-5,-51,-108,-442,3929,0.53,0.32,-3.47,-1.08,-4.42,39.29,-6.07,1.61,162.67,3.90,-1.05,-20.00
1,-6,-39,-103,-427,3881,0.49,0.25,-3.36,-1.03,-4.27,38.81,-6.09,1.60,162.68,3.86,-1.01,-20.00
1,10,-17,-4,-518,3923,0.44,0.29,-3.13,-0.04,-5.18,39.23,-6.10,1.59,162.69,3.88,-1.33,-20.00
1,0,-4,-35,-535,3907,0.40,0.26,-2.84,-0.35,-5.35,39.07,-6.11,1.58,162.70,3.90,-1.11,-20.00
-3,0,32,-43,-567,3913,0.35,0.23,-2.36,-0.43,-5.67,39.13,-6.13,1.57,162.71,4.01,-1.10,-20.00
1,2,47,-33,-524,3893,0.32,0.22,-1.84,-0.33,-5.24,38.93,-6.14,1.56,162.72,3.95,-1.13,-20.00
-2,2,67,-29,-469,3893,0.27,0.21,-1.25,-0.29,-4.69,38.93,-6.15,1.55,162.73,4.03,-1.12,-20.00
-4,4,68,-45,-489,3878,0.22,0.22,-0.71,-0.45,-4.89,38.78,-6.16,1.54,162.73,4.09,-1.15,-20.00
-4,5,76,-69,-371,3946,0.18,0.22,-0.17,-0.69,-3.71,39.46,-6.15,1.53,162.73,4.09,-1.17,-20.00
-5,-1,76,-124,-401,3895,0.13,0.20,0.31,-1.24,-4.01,38.95,-6.13,1.54,162.73,4.12,-1.05,-20.00
-8,-4,75,-64,-506,3900,0.07,0.15,0.74,-0.64,-5.06,39.00,-6.15,1.53,162.73,4.20,-0.97,-20.00
-11,-3,90,-82,-478,3922,-0.01,0.12,1.21,-0.82,-4.78,39.22,-6.17,1.53,162.72,4.30,-0.98,-20.00
-12,-2,108,-113,-447,3894,-0.08,0.09,1.75,-1.13,-4.47,38.94,-6.18,1.53,162.72,4.35,-1.00,-20.00
-14,0,108,-87,-455,3885,-0.16,0.09,2.23,-0.87,-4.55,38.85,-6.20,1.53,162.71,4.42,-1.03,-20.00
-4,2,100,-48,-439,3899,-0.17,0.09,2.62,-0.48,-4.39,38.99,-6.21,1.51,162.70,4.22,-1.06,-20.00
-3,4,100,-48,-453,3898,-0.17,0.10,2.97,-0.48,-4.53,38.98,-6.22,1.50,162.69,4.21,-1.10,-20.00
-5,0,78,-25,-462,3922,-0.18,0.09,3.15,-0.25,-4.62,39.22,-6.22,1.48,162.67,4.26,-1.00,-20.00
-7,-3,74,-25,-475,3920,-0.21,0.07,3.28,-0.25,-4.75,39.20,-6.23,1.47,162.66,4.31,-0.93,-20.00
-11,-4,92,-62,-500,3880,-0.25,0.04,3.52,-0.62,-5.00,38.80,-6.25,1.46,162.65,4.42,-0.89,-20.00
-7,-2,101,-140,-465,3892,-0.27,0.02,3.78,-1.40,-4.65,38.92,-6.26,1.48,162.63,4.35,-0.94,-20.00
5,11,142,-120,-413,3918,-0.21,0.08,4.27,-1.20,-4.13,39.18,-6.25,1.49,162.61,4.08,-1.23,-20.00
0,8,149,-38,-423,3877,-0.19,0.13,4.75,-0.38,-4.23,38.77,-6.25,1.48,162.60,4.18,-1.17,-20.00
-6,-1,145,-87,-405,3891,-0.21,0.11,5.16,-0.87,-4.05,38.91,-6.24,1.47,162.58,4.29,-0.98,-20.00
-5,3,145,-99,-407,3881,-0.22,0.11,5.53,-0.99,-4.07,38.81,-6.22,1.47,162.55,4.27,-1.06,-20.00
13,16,151,-163,-426,3892,-0.12,0.20,5.90,-1.63,-4.26,38.92,-6.22,1.49,162.53,3.87,-1.36,-20.00
9,17,154,-108,-453,3963,-0.05,0.28,6.25,-1.08,-4.53,39.63,-6.24,1.50,162.51,3.95,-1.41,-20.00
-19,-17,130,26,-412,3955,-0.16,0.15,6.41,0.26,-4.12,39.55,-6.23,1.48,162.48,4.54,-0.68,-20.00
-24,-26,117,-11,-426,3930,-0.29,-0.02,6.49,-0.11,-4.26,39.30,-6.23,1.47,162.45,4.68,-0.44,-20.00
-7,2,148,-209,-435,3866,-0.31,-0.01,6.74,-2.09,-4.35,38.66,-6.24,1.49,162.43,4.34,-1.02,-20.00
7,18,173,-202,-462,3851,-0.23,0.10,7.12,-2.02,-4.62,38.51,-6.24,1.51,162.40,4.04,-1.39,-20.00
3,13,212,-84,-497,3906,-0.19,0.17,7.70,-0.84,-4.97,39.06,-6.26,1.51,162.37,4.12,-1.31,-20.00
-6,-1,236,-70,-523,3956,-0.21,0.15,8.37,-0.70,-5.23,39.56,-6.28,1.51,162.34,4.32,-1.02,-20.00
-6,6,275,-103,-515,3931,-0.22,0.17,9.21,-1.03,-5.15,39.31,-6.30,1.51,162.30,4.34,-1.17,-20.00
-1,9,290,-120,-487,3834,-0.21,0.21,10.06,-1.20,-4.87,38.34,-6.31,1.52,162.26,4.24,-1.24,-20.00
-7,9,329,-104,-441,3864,-0.23,0.24,11.06,-1.04,-4.41,38.64,-6.33,1.53,162.22,4.38,-1.26,-20.00
-4,13,334,-85,-382,3930,-0.23,0.30,11.99,-0.85,-3.82,39.30,-6.31,1.53,162.17,4.31,-1.35,-20.00
-6,8,342,-88,-467,4003,-0.24,0.32,12.88,-0.88,-4.67,40.03,-6.33,1.52,162.12,4.36,-1.25,-20.00
-8,2,343,-53,-429,3943,-0.27,0.30,13.68,-0.53,-4.29,39.43,-6.32,1.51,162.06,4.41,-1.12,-20.00
-12,-2,345,-102,-457,3803,-0.32,0.26,14.42,-1.02,-4.57,38.03,-6.34,1.52,162.01,4.52,-1.03,-20.00
1,4,351,-75,-478,3813,-0.28,0.25,15.12,-0.75,-4.78,38.13,-6.36,1.52,161.95,4.25,-1.15,-20.00
10,30,354,13,-580,3833,-0.19,0.41,15.77,0.13,-5.80,38.33,-6.37,1.52,161.89,4.05,-1.72,-20.00
-9,12,353,82,-486,4113,-0.22,0.44,16.34,0.82,-4.86,41.13,-6.37,1.51,161.82,4.45,-1.36,-20.00
-20,-25,310,-54,-422,3873,-0.32,0.25,16.60,-0.54,-4.22,38.73,-6.37,1.50,161.75,4.70,-0.55,-20.00
-8,-7,316,-129,-451,3736,-0.34,0.18,16.87,-1.29,-4.51,37.36,-6.38,1.52,161.69,4.47,-0.91,-20.00
17,45,343,62,-445,4020,-0.20,0.44,17.27,0.62,-4.45,40.20,-6.38,1.51,161.62,3.92,-2.03,-20.00
15,33,336,-58,-348,3910,-0.09,0.59,17.60,-0.58,-3.48,39.10,-6.36,1.51,161.55,3.92,-1.83,-20.00
-20,-8,284,50,-339,3863,-0.20,0.49,17.57,0.50,-3.39,38.63,-6.35,1.51,161.48,4.65,-0.96,-20.00
-24,-18,255,46,-358,3906,-0.33,0.33,17.37,0.46,-3.58,39.06,-6.34,1.50,161.41,4.76,-0.71,-20.00
1,6,161,-33,-358,3863,-0.29,0.33,16.61,-0.33,-3.58,38.63,-6.33,1.50,161.34,4.24,-1.20,-20.00
6,13,145,-65,-375,3882,-0.23,0.38,15.84,-0.65,-3.75,38.82,-6.31,1.49,161.28,4.11,-1.35,-20.00
-2,-2,155,-115,-497,3924,-0.21,0.33,15.20,-1.15,-4.97,39.24,-6.33,1.51,161.22,4.28,-1.04,-20.00
-11,-5,160,3,-482,3905,-0.26,0.26,14.65,0.03,-4.82,39.05,-6.34,1.50,161.16,4.48,-0.96,-20.00
-7,2,122,-8,-414,3898,-0.28,0.25,13.93,-0.08,-4.14,38.98,-6.33,1.49,161.11,4.40,-1.09,-20.00
-6,1,110,-38,-419,3920,-0.29,0.23,13.21,-0.38,-4.19,39.20,-6.33,1.47,161.06,4.38,-1.06,-20.00
-7,-1,99,-79,-444,3930,-0.30,0.20,12.49,-0.79,-4.44,39.30,-6.34,1.46,161.01,4.41,-1.00,-20.00
-8,-2,102,-75,-464,3874,-0.32,0.17,11.87,-0.75,-4.64,38.74,-6.35,1.46,160.96,4.44,-0.97,-20.00
-4,7,151,-118,-502,3884,-0.31,0.20,11.60,-1.18,-5.02,38.84,-6.37,1.47,160.91,4.37,-1.17,-20.00
-6,6,167,-102,-486,3948,-0.32,0.21,11.46,-1.02,-4.86,39.48,-6.39,1.47,160.87,4.42,-1.15,-20.00
-5,-3,180,-52,-476,3895,-0.32,0.17,11.41,-0.52,-4.76,38.95,-6.40,1.47,160.82,4.41,-0.95,-20.00
-3,3,189,-72,-465,3879,-0.30,0.17,11.42,-0.72,-4.65,38.79,-6.41,1.46,160.78,4.38,-1.07,-20.00
13,22,215,-60,-450,3911,-0.19,0.29,11.59,-0.60,-4.50,39.11,-6.42,1.45,160.73,4.02,-1.48,-20.00
-3,11,214,75,-477,3956,-0.19,0.33,11.74,0.75,-4.77,39.56,-6.42,1.44,160.69,4.35,-1.26,-20.00
-19,-14,191,-31,-413,3912,-0.29,0.21,11.73,-0.31,-4.13,39.12,-6.41,1.43,160.64,4.70,-0.71,-20.00
-20,-15,188,-53,-418,3846,-0.38,0.10,11.70,-0.53,-4.18,38.46,-6.41,1.41,160.59,4.74,-0.65,-20.00
11,25,215,-99,-403,3911,-0.28,0.24,11.84,-0.99,-4.03,39.11,-6.39,1.42,160.55,4.07,-1.51,-20.00
-3,9,216,-57,-419,3906,-0.27,0.27,11.98,-0.57,-4.19,39.06,-6.38,1.41,160.50,4.35,-1.19,-20.00
-14,-12,216,-53,-472,3868,-0.33,0.17,12.10,-0.53,-4.72,38.68,-6.39,1.40,160.45,4.59,-0.73,-20.00
-17,-16,221,-61,-470,3902,-0.40,0.06,12.24,-0.61,-4.70,39.02,-6.41,1.40,160.40,4.68,-0.61,-20.00
2,18,256,-121,-469,3882,-0.35,0.16,12.57,-1.21,-4.69,38.82,-6.42,1.41,160.35,4.29,-1.34,-20.00
-4,13,272,-129,-514,3912,-0.33,0.22,12.98,-1.29,-5.14,39.12,-6.44,1.43,160.30,4.42,-1.27,-20.00
-11,1,315,-80,-505,3823,-0.37,0.21,13.60,-0.80,-5.05,38.23,-6.46,1.43,160.25,4.58,-1.02,-20.00
-9,5,335,-144,-453,3942,-0.39,0.22,14.28,-1.44,-4.53,39.42,-6.46,1.46,160.19,4.55,-1.12,-20.00
-12,13,379,-121,-528,4025,-0.42,0.27,15.17,-1.21,-5.28,40.25,-6.48,1.47,160.13,4.63,-1.31,-20.00
-9,8,399,-124,-468,3880,-0.43,0.30,16.08,-1.24,-4.68,38.80,-6.49,1.49,160.07,4.58,-1.23,-20.00
-3,-2,460,-133,-444,3889,-0.41,0.25,17.28,-1.33,-4.44,38.89,-6.49,1.52,160.00,4.46,-1.03,-20.00
0,9,478,-147,-459,3824,-0.37,0.28,18.47,-1.47,-4.59,38.24,-6.50,1.54,159.93,4.39,-1.28,-20.00
-9,22,493,1,-500,3913,-0.39,0.39,19.63,0.01,-5.00,39.13,-6.51,1.54,159.85,4.58,-1.57,-20.00
-17,12,477,94,-432,3952,-0.45,0.42,20.58,0.94,-4.32,39.52,-6.50,1.53,159.77,4.76,-1.37,-20.00
-17,12,411,-38,-364,3856,-0.51,0.45,21.03,-0.38,-3.64,38.56,-6.49,1.53,159.68,4.77,-1.38,-20.00
-6,5,390,-107,-360,3923,-0.50,0.44,21.30,-1.07,-3.60,39.23,-6.47,1.54,159.60,4.53,-1.24,-20.00
-3,24,376,-100,-535,3947,-0.46,0.54,21.47,-1.00,-5.35,39.47,-6.49,1.55,159.51,4.47,-1.66,-20.00
1,15,373,-36,-527,3836,-0.41,0.58,21.59,-0.36,-5.27,38.36,-6.50,1.55,159.43,4.38,-1.49,-20.00
