gyroADC_X,gyroADC_Y,gyroADC_Z,accADC_X,accADC_Y,accADC_Z,GyroX,GyroY,GyroZ,AccX,AccY,AccZ,roll_IMU,pitch_IMU,yaw_IMU,roll_PID,pitch_PID,yaw_PID
-2,-4,0,-45,-343,3899,-0.01,-0.17,-4.76,-0.45,-3.43,38.99,-4.81,-0.65,55.52,3.21,0.55,-4.09
0,-4,-1,-51,-340,3905,-0.01,-0.17,-4.29,-0.51,-3.40,39.05,-4.81,-0.64,55.54,3.18,0.54,-4.17
-1,-2,0,-38,-331,3891,-0.01,-0.17,-3.86,-0.38,-3.31,38.91,-4.81,-0.62,55.56,3.19,0.50,-4.26
-1,-2,0,-37,-326,3896,-0.02,-0.16,-3.47,-0.37,-3.26,38.96,-4.81,-0.61,55.57,3.20,0.49,-4.34
-2,-3,1,-33,-331,3907,-0.03,-0.17,-3.12,-0.33,-3.31,39.07,-4.81,-0.59,55.58,3.21,0.49,-4.41
-2,-2,0,-42,-335,3901,-0.04,-0.16,-2.81,-0.42,-3.35,39.01,-4.81,-0.57,55.59,3.22,0.47,-4.47
-3,-1,2,-44,-335,3890,-0.05,-0.15,-2.51,-0.44,-3.35,38.90,-4.81,-0.56,55.60,3.24,0.44,-4.54
-2,-2,0,-47,-331,3901,-0.06,-0.15,-2.26,-0.47,-3.31,39.01,-4.81,-0.54,55.61,3.23,0.44,-4.57
-2,-1,-1,-52,-337,3902,-0.06,-0.14,-2.04,-0.52,-3.37,39.02,-4.82,-0.52,55.62,3.23,0.41,-4.61
0,1,-2,-57,-325,3900,-0.06,-0.12,-1.85,-0.57,-3.25,39.00,-4.82,-0.50,55.63,3.20,0.36,-4.64
0,3,-4,-51,-323,3906,-0.05,-0.09,-1.69,-0.51,-3.23,39.06,-4.81,-0.49,55.63,3.20,0.31,-4.65
3,3,-6,-29,-333,3909,-0.03,-0.06,-1.56,-0.29,-3.33,39.09,-4.82,-0.47,55.64,3.14,0.29,-4.66
2,2,-5,-22,-337,3898,-0.01,-0.04,-1.43,-0.22,-3.37,38.98,-4.82,-0.45,55.65,3.15,0.28,-4.69
-2,-2,-3,-51,-334,3909,-0.02,-0.05,-1.31,-0.51,-3.34,39.09,-4.82,-0.43,55.65,3.22,0.34,-4.73
-2,-2,-3,-44,-332,3909,-0.03,-0.06,-1.19,-0.44,-3.32,39.09,-4.82,-0.42,55.66,3.22,0.33,-4.76
-2,-3,2,-44,-327,3894,-0.04,-0.07,-1.06,-0.44,-3.27,38.94,-4.82,-0.40,55.66,3.23,0.33,-4.82
-2,-4,0,-40,-316,3903,-0.05,-0.09,-0.96,-0.40,-3.16,39.03,-4.82,-0.38,55.66,3.23,0.34,-4.83
-1,-4,-4,-33,-338,3903,-0.05,-0.10,-0.89,-0.33,-3.38,39.03,-4.82,-0.36,55.67,3.21,0.34,-4.81
0,-2,-5,-36,-338,3902,-0.05,-0.11,-0.83,-0.36,-3.38,39.02,-4.82,-0.35,55.67,3.20,0.30,-4.81
0,1,-9,-59,-343,3889,-0.04,-0.09,-0.80,-0.59,-3.43,38.89,-4.83,-0.33,55.67,3.20,0.23,-4.78
2,3,-10,-30,-329,3903,-0.03,-0.06,-0.78,-0.30,-3.29,39.03,-4.83,-0.31,55.68,3.16,0.18,-4.78
0,0,-6,-43,-344,3894,-0.02,-0.06,-0.74,-0.43,-3.44,38.94,-4.83,-0.29,55.68,3.20,0.21,-4.82
0,0,-6,-51,-346,3901,-0.02,-0.05,-0.70,-0.51,-3.46,39.01,-4.83,-0.28,55.68,3.20,0.20,-4.83
-2,0,-5,-51,-338,3904,-0.03,-0.05,-0.66,-0.51,-3.38,39.04,-4.84,-0.26,55.68,3.23,0.19,-4.84
-3,0,-6,-45,-334,3895,-0.05,-0.04,-0.63,-0.45,-3.34,38.95,-4.84,-0.24,55.69,3.25,0.17,-4.84
-8,-12,-3,-17,-345,3892,-0.09,-0.11,-0.59,-0.17,-3.45,38.92,-4.85,-0.22,55.69,3.35,0.37,-4.87
-11,-12,-3,29,-325,3886,-0.15,-0.17,-0.55,0.29,-3.25,38.86,-4.84,-0.24,55.69,3.42,0.40,-4.88
-11,-10,-6,-45,-342,3914,-0.20,-0.22,-0.53,-0.45,-3.42,39.14,-4.84,-0.23,55.69,3.44,0.38,-4.86
-9,-10,-7,-33,-319,3913,-0.24,-0.26,-0.52,-0.33,-3.19,39.13,-4.84,-0.21,55.70,3.42,0.38,-4.85
-4,-10,-11,-58,-336,3936,-0.24,-0.29,-0.53,-0.58,-3.36,39.36,-4.84,-0.19,55.70,3.34,0.38,-4.82
-3,-10,-12,-54,-334,3925,-0.23,-0.32,-0.55,-0.54,-3.34,39.25,-4.84,-0.18,55.70,3.32,0.38,-4.81
0,-9,-16,-46,-321,3916,-0.21,-0.35,-0.60,-0.46,-3.21,39.16,-4.84,-0.16,55.70,3.27,0.37,-4.76
2,-9,-19,-67,-311,3901,-0.17,-0.37,-0.65,-0.67,-3.11,39.01,-4.84,-0.14,55.70,3.22,0.36,-4.73
-2,-32,-79,-36,-252,3771,-0.17,-0.52,-1.07,-0.36,-2.52,37.71,-4.82,-0.14,55.71,3.27,0.76,-4.14
-11,-27,-122,-161,-239,3960,-0.22,-0.64,-1.71,-1.61,-2.39,39.60,-4.81,-0.12,55.71,3.42,0.72,-3.65
-2,2,-204,-64,-257,3909,-0.21,-0.56,-2.78,-0.64,-2.57,39.09,-4.80,-0.11,55.73,3.28,0.24,-2.76
4,6,-223,-22,-269,3962,-0.16,-0.47,-3.86,-0.22,-2.69,39.62,-4.79,-0.11,55.74,3.16,0.15,-2.39
12,8,-316,-121,-274,3876,-0.07,-0.37,-5.40,-1.21,-2.74,38.76,-4.78,-0.09,55.76,3.00,0.07,-1.31
13,20,-345,-32,-287,3981,0.01,-0.21,-6.97,-0.32,-2.87,39.81,-4.77,-0.09,55.79,2.94,-0.17,-0.77
16,0,-447,222,-324,3800,0.11,-0.19,-9.00,2.22,-3.24,38.00,-4.77,-0.11,55.83,2.86,0.14,0.48
-1,28,-478,174,-269,3968,0.09,-0.00,-11.01,1.74,-2.69,39.68,-4.76,-0.13,55.87,3.12,-0.34,1.13
4,5,-462,175,-214,3852,0.11,0.03,-12.73,1.75,-2.14,38.52,-4.75,-0.15,55.92,3.04,0.01,1.31
12,7,-422,130,-261,3839,0.17,0.07,-14.03,1.30,-2.61,38.39,-4.74,-0.17,55.98,2.89,-0.02,1.22
2,2,-345,35,-398,3874,0.16,0.07,-14.73,0.35,-3.98,38.74,-4.76,-0.18,56.04,3.05,0.06,0.70
-16,-2,-345,-15,-369,3926,0.05,0.05,-15.36,-0.15,-3.69,39.26,-4.77,-0.17,56.10,3.38,0.13,0.81
-14,-8,-388,-12,-298,3835,-0.04,0.00,-16.19,-0.12,-2.98,38.35,-4.76,-0.17,56.16,3.37,0.23,1.33
3,-3,-410,-106,-325,3925,-0.02,-0.02,-17.08,-1.06,-3.25,39.25,-4.76,-0.15,56.23,3.10,0.15,1.68
17,-14,-431,-150,-389,3874,0.09,-0.10,-18.00,-1.50,-3.89,38.74,-4.77,-0.14,56.30,2.85,0.34,2.02
26,3,-421,-151,-322,3962,0.24,-0.07,-18.77,-1.51,-3.22,39.62,-4.76,-0.13,56.38,2.66,0.07,2.08
25,-2,-313,-180,-403,3734,0.37,-0.08,-18.80,-1.80,-4.03,37.34,-4.77,-0.12,56.45,2.64,0.14,1.16
23,3,-262,-311,-575,3870,0.47,-0.05,-18.52,-3.11,-5.75,38.70,-4.78,-0.11,56.52,2.64,0.05,0.67
4,-5,-270,180,-436,3890,0.45,-0.08,-18.31,1.80,-4.36,38.90,-4.79,-0.13,56.60,2.94,0.19,0.69
16,12,-284,67,-415,3901,0.50,0.00,-18.21,0.67,-4.15,39.01,-4.80,-0.15,56.67,2.75,-0.08,0.79
21,-8,-273,-126,-598,3881,0.58,-0.05,-18.06,-1.26,-5.98,38.81,-4.81,-0.15,56.74,2.65,0.24,0.66
24,-7,-267,-104,-475,3930,0.67,-0.08,-17.88,-1.04,-4.75,39.30,-4.83,-0.14,56.81,2.58,0.23,0.57
10,-12,-183,-102,-299,3815,0.66,-0.15,-17.21,-1.02,-2.99,38.15,-4.82,-0.13,56.88,2.79,0.32,-0.28
0,-9,-163,-229,-381,3984,0.60,-0.19,-16.48,-2.29,-3.81,39.84,-4.82,-0.12,56.95,2.97,0.28,-0.59
-4,0,-155,-93,-411,3911,0.51,-0.17,-15.78,-0.93,-4.11,39.11,-4.83,-0.11,57.01,3.07,0.13,-0.80
-2,-9,-177,-77,-371,3951,0.45,-0.21,-15.28,-0.77,-3.71,39.51,-4.83,-0.10,57.07,3.06,0.28,-0.72
-7,-5,-233,-223,-384,3936,0.36,-0.22,-15.17,-2.23,-3.84,39.36,-4.84,-0.09,57.13,3.17,0.21,-0.27
7,-8,-289,-208,-341,3956,0.37,-0.24,-15.42,-2.08,-3.41,39.56,-4.84,-0.08,57.19,2.95,0.26,0.25
13,-3,-470,-209,-237,3878,0.41,-0.24,-16.74,-2.09,-2.37,38.78,-4.83,-0.07,57.26,2.84,0.17,2.03
16,2,-499,-170,-182,3878,0.47,-0.20,-18.11,-1.70,-1.82,38.78,-4.81,-0.06,57.33,2.77,0.08,2.53
18,7,-463,-55,-291,3887,0.53,-0.14,-19.13,-0.55,-2.91,38.87,-4.80,-0.05,57.41,2.71,-0.02,2.41
25,19,-440,-56,-285,3866,0.63,-0.01,-19.90,-0.56,-2.85,38.66,-4.79,-0.04,57.49,2.56,-0.26,2.36
10,-7,-417,60,-378,3964,0.63,-0.05,-20.45,0.60,-3.78,39.64,-4.80,-0.06,57.57,2.79,0.17,2.26
11,-11,-399,98,-403,3900,0.63,-0.11,-20.84,0.98,-4.03,39.00,-4.81,-0.09,57.65,2.78,0.26,2.17
2,-23,-365,131,-399,3927,0.58,-0.24,-20.98,1.31,-3.99,39.27,-4.81,-0.11,57.74,2.94,0.51,1.91
1,-16,-344,49,-434,3895,0.53,-0.32,-20.98,0.49,-4.34,38.95,-4.83,-0.12,57.82,2.98,0.44,1.72
28,5,-331,3,-378,3875,0.65,-0.25,-20.90,0.03,-3.78,38.75,-4.84,-0.13,57.90,2.54,0.10,1.59
19,7,-346,34,-392,3879,0.70,-0.19,-20.92,0.34,-3.92,38.79,-4.86,-0.15,57.99,2.67,0.06,1.71
27,11,-444,12,-231,3908,0.79,-0.10,-21.54,0.12,-2.31,39.08,-4.84,-0.15,58.07,2.50,-0.03,2.65
42,18,-468,59,-333,3896,0.97,0.02,-22.24,0.59,-3.33,38.96,-4.83,-0.18,58.16,2.20,-0.16,2.98
20,1,-481,48,-388,3911,0.99,0.02,-22.95,0.48,-3.88,39.11,-4.84,-0.20,58.25,2.54,0.11,3.22
14,2,-467,17,-399,3901,0.98,0.03,-23.50,0.17,-3.99,39.01,-4.86,-0.21,58.34,2.64,0.09,3.20
8,-2,-378,-55,-325,3880,0.93,0.02,-23.46,-0.55,-3.25,38.80,-4.85,-0.19,58.44,2.75,0.15,2.43
1,-4,-326,-70,-277,3881,0.84,-0.01,-23.10,-0.70,-2.77,38.81,-4.84,-0.19,58.53,2.88,0.19,1.91
-9,-9,-266,-93,-305,3889,0.70,-0.06,-22.41,-0.93,-3.05,38.89,-4.83,-0.18,58.62,3.08,0.28,1.26
-7,-10,-266,-96,-360,3937,0.59,-0.12,-21.80,-0.96,-3.60,39.37,-4.83,-0.17,58.71,3.09,0.30,1.14
-3,-8,-225,-113,-284,3876,0.51,-0.15,-20.99,-1.13,-2.84,38.76,-4.83,-0.16,58.79,3.05,0.28,0.63
5,-12,-220,-111,-303,3947,0.49,-0.21,-20.23,-1.11,-3.03,39.47,-4.82,-0.15,58.87,2.93,0.36,0.43
-1,-7,-283,-86,-302,3940,0.44,-0.23,-19.94,-0.86,-3.02,39.40,-4.81,-0.14,58.95,3.03,0.28,0.90
30,17,-267,-68,-278,3892,0.58,-0.11,-19.57,-0.68,-2.78,38.92,-4.80,-0.13,59.03,2.50,-0.14,0.69
31,23,-278,-98,-294,3893,0.71,0.04,-19.31,-0.98,-2.94,38.93,-4.79,-0.12,59.11,2.44,-0.29,0.73
30,31,-299,-141,-250,3888,0.82,0.23,-19.20,-1.41,-2.50,38.88,-4.78,-0.11,59.18,2.40,-0.48,0.88
57,40,-341,-58,-271,3944,1.09,0.45,-19.36,-0.58,-2.71,39.44,-4.76,-0.10,59.26,1.89,-0.71,1.26
64,57,-353,-89,-255,3916,1.37,0.75,-19.58,-0.89,-2.55,39.16,-4.75,-0.09,59.34,1.67,-1.08,1.39
50,39,-394,-135,-251,3883,1.54,0.92,-20.02,-1.35,-2.51,38.83,-4.73,-0.07,59.42,1.81,-0.87,1.82
23,21,-403,-102,-246,3909,1.52,0.95,-20.48,-1.02,-2.46,39.09,-4.71,-0.06,59.50,2.22,-0.62,1.97
8,13,-415,-78,-297,3875,1.42,0.94,-20.96,-0.78,-2.97,38.75,-4.70,-0.05,59.58,2.48,-0.50,2.16
6,9,-415,-53,-327,3895,1.31,0.90,-21.40,-0.53,-3.27,38.95,-4.70,-0.03,59.67,2.54,-0.44,2.24
9,-2,-403,18,-511,3926,1.24,0.80,-21.72,0.18,-5.11,39.26,-4.71,-0.04,59.76,2.53,-0.23,2.19
10,-1,-379,-18,-434,3894,1.17,0.71,-21.86,-0.18,-4.34,38.94,-4.73,-0.04,59.84,2.55,-0.21,2.00
7,-21,-340,6,-377,3963,1.10,0.51,-21.75,0.06,-3.77,39.63,-4.74,-0.05,59.93,2.63,0.17,1.64
16,-9,-328,-16,-352,3853,1.09,0.40,-21.57,-0.16,-3.52,38.53,-4.75,-0.04,60.02,2.51,0.02,1.50
12,0,-325,-77,-301,3846,1.05,0.36,-21.40,-0.77,-3.01,38.46,-4.74,-0.03,60.10,2.57,-0.11,1.43
8,-3,-383,-83,-299,3875,1.00,0.31,-21.59,-0.83,-2.99,38.75,-4.73,-0.02,60.19,2.65,-0.05,1.95
-2,2,-465,-89,-193,3896,0.88,0.29,-22.27,-0.89,-1.93,38.96,-4.72,-0.01,60.28,2.83,-0.13,2.77
1,-10,-467,-21,-187,3889,0.80,0.20,-22.89,-0.21,-1.87,38.89,-4.70,-0.02,60.37,2.80,0.09,2.90
-5,-11,-465,8,-260,3905,0.69,0.11,-23.44,0.08,-2.60,39.05,-4.67,-0.03,60.46,2.92,0.14,2.98
5,-6,-465,1,-317,3917,0.65,0.07,-23.93,0.01,-3.17,39.17,-4.65,-0.03,60.56,2.76,0.09,3.06
-1,-4,-449,40,-361,3909,0.58,0.03,-24.28,0.40,-3.61,39.09,-4.67,-0.05,60.65,2.89,0.08,2.99
14,6,-435,54,-444,3892,0.61,0.07,-24.50,0.54,-4.44,38.92,-4.68,-0.06,60.75,2.66,-0.07,2.90
4,-6,-321,66,-435,3894,0.57,0.02,-24.01,0.66,-4.35,38.94,-4.69,-0.08,60.85,2.83,0.14,1.83
3,-7,-296,43,-400,3873,0.53,-0.02,-23.42,0.43,-4.00,38.73,-4.71,-0.10,60.94,2.87,0.18,1.50
-1,-1,-214,8,-343,3883,0.47,-0.02,-22.38,0.08,-3.43,38.83,-4.72,-0.10,61.03,2.96,0.09,0.60
1,4,-207,-36,-419,3891,0.43,0.00,-21.40,-0.36,-4.19,38.91,-4.74,-0.10,61.11,2.96,0.01,0.34
-1,-1,-148,33,-359,3907,0.38,-0.00,-20.17,0.33,-3.59,39.07,-4.75,-0.12,61.20,3.01,0.10,-0.40
-3,-5,-126,32,-349,3900,0.33,-0.03,-18.92,0.32,-3.49,39.00,-4.76,-0.14,61.27,3.07,0.18,-0.83
-6,-2,-87,-10,-345,3883,0.26,-0.04,-17.56,-0.10,-3.45,38.83,-4.78,-0.13,61.34,3.15,0.13,-1.43
-5,-3,-80,-15,-349,3904,0.20,-0.06,-16.29,-0.15,-3.49,39.04,-4.79,-0.13,61.41,3.16,0.15,-1.74
-9,-7,-46,-76,-303,3882,0.13,-0.09,-14.94,-0.76,-3.03,38.82,-4.78,-0.11,61.46,3.25,0.22,-2.29
-7,-6,-48,-98,-283,3889,0.07,-0.12,-13.74,-0.98,-2.83,38.89,-4.77,-0.10,61.52,3.23,0.20,-2.50
-7,6,-77,-107,-223,3893,0.02,-0.07,-12.84,-1.07,-2.23,38.93,-4.76,-0.09,61.57,3.24,-0.00,-2.44
-3,10,-101,-136,-235,3936,0.00,-0.00,-12.17,-1.36,-2.35,39.36,-4.75,-0.08,61.62,3.18,-0.10,-2.36
6,12,-132,-11,-266,3946,0.04,0.07,-11.76,-0.11,-2.66,39.46,-4.73,-0.08,61.67,3.02,-0.15,-2.18
0,9,-146,48,-193,3903,0.03,0.12,-11.47,0.48,-1.93,39.03,-4.72,-0.09,61.71,3.10,-0.12,-2.12
2,-10,-190,-33,-262,3892,0.04,0.04,-11.48,-0.33,-2.62,38.92,-4.70,-0.08,61.76,3.06,0.19,-1.75
-4,-8,-201,57,-249,3840,0.01,-0.01,-11.56,0.57,-2.49,38.40,-4.69,-0.10,61.80,3.15,0.19,-1.65
7,-14,-306,-35,-187,3960,0.05,-0.09,-12.27,-0.35,-1.87,39.60,-4.67,-0.10,61.85,2.96,0.31,-0.63
11,-1,-324,57,-186,3836,0.12,-0.09,-13.02,0.57,-1.86,38.36,-4.65,-0.11,61.90,2.86,0.12,-0.34
22,1,-358,2,-210,3897,0.24,-0.07,-13.90,0.02,-2.10,38.97,-4.63,-0.11,61.96,2.64,0.09,0.11
3,-8,-356,23,-162,3845,0.23,-0.12,-14.68,0.23,-1.62,38.45,-4.61,-0.12,62.02,2.92,0.24,0.24
1,-4,-361,8,-200,3849,0.22,-0.13,-15.42,0.08,-2.00,38.49,-4.59,-0.12,62.08,2.94,0.19,0.42
-3,-10,-365,-10,-227,3970,0.18,-0.18,-16.10,-0.10,-2.27,39.70,-4.57,-0.13,62.14,3.00,0.30,0.58
-4,-9,-368,22,-375,3949,0.13,-0.21,-16.74,0.22,-3.75,39.49,-4.59,-0.14,62.21,3.04,0.30,0.72
-15,-7,-354,17,-377,3940,0.03,-0.24,-17.22,0.17,-3.77,39.40,-4.61,-0.15,62.28,3.26,0.29,0.69
6,-6,-333,28,-402,3915,0.06,-0.25,-17.53,0.28,-4.02,39.15,-4.63,-0.16,62.35,2.94,0.28,0.56
-2,3,-326,-45,-398,3901,0.04,-0.21,-17.77,-0.45,-3.98,39.01,-4.64,-0.15,62.42,3.08,0.13,0.54
1,-4,-322,-33,-393,3912,0.05,-0.21,-17.95,-0.33,-3.93,39.12,-4.66,-0.15,62.49,3.04,0.23,0.54
2,-4,-318,-24,-414,3911,0.05,-0.21,-18.10,-0.24,-4.14,39.11,-4.67,-0.15,62.56,3.04,0.24,0.52
4,-23,-362,-21,-304,3868,0.07,-0.33,-18.50,-0.21,-3.04,38.68,-4.67,-0.14,62.64,2.99,0.56,0.96
2,-6,-365,-96,-314,3969,0.08,-0.34,-18.87,-0.96,-3.14,39.69,-4.67,-0.13,62.71,3.02,0.30,1.06
4,-6,-440,-21,-336,3920,0.09,-0.34,-19.67,-0.21,-3.36,39.20,-4.67,-0.12,62.79,2.99,0.29,1.84
9,-6,-458,-44,-324,3891,0.14,-0.34,-20.50,-0.44,-3.24,38.91,-4.67,-0.11,62.87,2.90,0.29,2.14
15,-1,-457,20,-324,3897,0.22,-0.31,-21.24,0.20,-3.24,38.97,-4.68,-0.14,62.96,2.78,0.22,2.26
3,-1,-476,-12,-299,3880,0.21,-0.29,-22.02,-0.12,-2.99,38.80,-4.67,-0.13,63.04,2.96,0.20,2.57
7,2,-579,-19,-318,3918,0.24,-0.25,-23.35,-0.19,-3.18,39.18,-4.67,-0.12,63.14,2.89,0.14,3.68
14,0,-620,-18,-253,3849,0.30,-0.22,-24.79,-0.18,-2.53,38.49,-4.65,-0.12,63.24,2.75,0.16,4.30
0,-12,-755,39,-59,3894,0.27,-0.27,-26.92,0.39,-0.59,38.94,-4.63,-0.14,63.34,2.96,0.37,5.84
16,-14,-788,54,-86,3892,0.34,-0.33,-29.03,0.54,-0.86,38.92,-4.61,-0.15,63.46,2.68,0.43,6.51
-2,-5,-908,-156,-276,3890,0.29,-0.33,-31.67,-1.56,-2.76,38.90,-4.60,-0.14,63.59,2.96,0.29,8.02
-5,-13,-915,-183,-261,3868,0.23,-0.38,-34.08,-1.83,-2.61,38.68,-4.60,-0.14,63.72,3.03,0.42,8.53
-2,-12,-846,-130,-564,3915,0.20,-0.41,-35.84,-1.30,-5.64,39.15,-4.61,-0.14,63.86,3.00,0.42,8.27
3,-3,-799,-100,-508,3958,0.20,-0.39,-37.13,-1.00,-5.08,39.58,-4.63,-0.15,64.01,2.94,0.28,8.10
29,-1,-649,25,-193,3895,0.35,-0.36,-37.37,0.25,-1.93,38.95,-4.61,-0.16,64.16,2.47,0.25,6.87
2,-5,-654,-33,-231,3890,0.33,-0.35,-37.62,-0.33,-2.31,38.90,-4.59,-0.17,64.31,2.88,0.31,6.94
3,-9,-685,-96,-283,3789,0.32,-0.37,-38.04,-0.96,-2.83,37.89,-4.58,-0.16,64.46,2.87,0.38,7.27
3,-6,-668,-101,-346,3904,0.30,-0.37,-38.31,-1.01,-3.46,39.04,-4.59,-0.16,64.61,2.87,0.33,7.17
-2,-1,-573,-33,-453,3821,0.26,-0.34,-37.98,-0.33,-4.53,38.21,-4.60,-0.17,64.77,2.98,0.25,6.28
3,9,-551,-41,-429,3914,0.25,-0.25,-37.54,-0.41,-4.29,39.14,-4.62,-0.17,64.92,2.91,0.07,6.00
3,0,-461,34,-408,3912,0.25,-0.23,-36.60,0.34,-4.08,39.12,-4.63,-0.19,65.06,2.93,0.20,5.04
5,0,-443,49,-378,3890,0.25,-0.20,-35.64,0.49,-3.78,38.90,-4.65,-0.21,65.20,2.90,0.21,4.70
12,-7,-365,-39,-339,3924,0.30,-0.22,-34.30,-0.39,-3.39,39.24,-4.65,-0.21,65.34,2.78,0.32,3.77
-6,0,-353,-61,-358,3871,0.23,-0.20,-33.03,-0.61,-3.58,38.71,-4.66,-0.20,65.47,3.08,0.20,3.41
5,3,-284,-139,-314,3932,0.24,-0.16,-31.46,-1.39,-3.14,39.32,-4.66,-0.19,65.60,2.91,0.14,2.51
0,-11,-234,-140,-251,3857,0.22,-0.21,-29.74,-1.40,-2.51,38.57,-4.65,-0.19,65.72,2.99,0.37,1.75
-7,-15,-177,-213,-287,3862,0.15,-0.28,-27.84,-2.13,-2.87,38.62,-4.65,-0.18,65.83,3.12,0.45,0.90
-9,-5,-167,-173,-278,3894,0.08,-0.29,-26.08,-1.73,-2.78,38.94,-4.64,-0.17,65.93,3.17,0.29,0.46
2,-8,-247,-79,-241,3940,0.09,-0.31,-24.98,-0.79,-2.41,39.40,-4.63,-0.17,66.03,2.99,0.34,0.92
12,9,-294,-52,-267,3944,0.15,-0.22,-24.27,-0.52,-2.67,39.44,-4.62,-0.16,66.13,2.81,0.05,1.18
10,-2,-453,23,-236,3932,0.20,-0.21,-24.61,0.23,-2.36,39.32,-4.60,-0.17,66.22,2.81,0.22,2.58
9,4,-488,1,-235,3889,0.23,-0.17,-25.12,0.01,-2.35,38.89,-4.58,-0.18,66.32,2.80,0.12,2.97
13,-3,-493,94,-287,3885,0.29,-0.17,-25.62,0.94,-2.87,38.85,-4.57,-0.20,66.43,2.72,0.24,3.09
5,0,-501,-31,-328,3901,0.29,-0.15,-26.11,-0.31,-3.28,39.01,-4.58,-0.20,66.53,2.84,0.18,3.25
12,5,-458,-14,-422,3862,0.33,-0.11,-26.30,-0.14,-4.22,38.62,-4.59,-0.20,66.64,2.73,0.09,2.91
2,0,-416,-13,-403,3885,0.31,-0.09,-26.20,-0.13,-4.03,38.85,-4.61,-0.20,66.74,2.90,0.17,2.53
2,3,-304,-73,-455,3921,0.29,-0.07,-25.44,-0.73,-4.55,39.21,-4.62,-0.20,66.84,2.92,0.11,1.42
0,0,-273,-91,-436,3899,0.26,-0.06,-24.56,-0.91,-4.36,38.99,-4.64,-0.20,66.94,2.97,0.15,0.98
-3,-11,-240,-76,-473,3895,0.22,-0.12,-23.57,-0.76,-4.73,38.95,-4.65,-0.20,67.03,3.04,0.34,0.50
1,-4,-238,-99,-471,3887,0.20,-0.13,-22.66,-0.99,-4.71,38.87,-4.66,-0.20,67.12,2.99,0.24,0.31
15,-9,-353,-77,-87,3922,0.27,-0.18,-22.55,-0.77,-0.87,39.22,-4.65,-0.20,67.21,2.74,0.33,1.25
16,-14,-400,-118,12,3895,0.34,-0.24,-22.73,-1.18,0.12,38.95,-4.63,-0.20,67.30,2.69,0.43,1.68
9,-22,-644,-143,-296,3824,0.37,-0.35,-24.39,-1.43,-2.96,38.24,-4.62,-0.19,67.40,2.78,0.59,4.05
15,2,-714,-248,-207,3895,0.42,-0.31,-26.31,-2.48,-2.07,38.95,-4.61,-0.18,67.51,2.67,0.20,5.00
23,14,-887,-147,-61,3862,0.52,-0.19,-29.09,-1.47,-0.61,38.62,-4.60,-0.18,67.62,2.50,-0.03,6.99
19,1,-962,-192,-85,3848,0.58,-0.16,-32.05,-1.92,-0.85,38.48,-4.58,-0.18,67.75,2.53,0.16,8.18
4,-12,-1016,-164,-296,3914,0.55,-0.22,-35.04,-1.64,-2.96,39.14,-4.58,-0.17,67.89,2.76,0.38,9.19
14,-3,-1004,-125,-405,3869,0.58,-0.22,-37.66,-1.25,-4.05,38.69,-4.58,-0.17,68.04,2.61,0.24,9.58
-4,-7,-874,-84,-408,3901,0.50,-0.24,-39.22,-0.84,-4.08,39.01,-4.59,-0.17,68.20,2.92,0.31,8.76
-8,-24,-813,8,-388,3881,0.40,-0.36,-40.26,0.08,-3.88,38.81,-4.61,-0.19,68.36,3.02,0.62,8.43
-6,-33,-587,6,-235,3950,0.32,-0.53,-39.82,0.06,-2.35,39.50,-4.59,-0.20,68.51,3.01,0.82,6.42
3,-21,-539,112,-258,3953,0.31,-0.60,-39.12,1.12,-2.58,39.53,-4.58,-0.23,68.67,2.87,0.69,5.86
-1,-30,-445,9,-150,3989,0.27,-0.72,-37.92,0.09,-1.50,39.89,-4.56,-0.24,68.82,2.93,0.88,4.82
4,-18,-443,1,-126,3905,0.27,-0.76,-36.83,0.01,-1.26,39.05,-4.54,-0.26,68.97,2.84,0.72,4.59
15,-8,-434,55,-113,3856,0.33,-0.73,-35.80,0.55,-1.13,38.56,-4.52,-0.28,69.11,2.64,0.57,4.30
3,-5,-475,84,89,3903,0.32,-0.69,-35.12,0.84,0.89,39.03,-4.50,-0.29,69.25,2.81,0.52,4.50
7,-21,-608,3,-34,3939,0.33,-0.75,-35.31,0.03,-0.34,39.39,-4.48,-0.31,69.39,2.73,0.79,5.65
6,-5,-656,-39,-136,3835,0.33,-0.71,-35.78,-0.39,-1.36,38.35,-4.46,-0.31,69.53,2.73,0.53,6.14
4,4,-711,-29,-431,3896,0.32,-0.61,-36.54,-0.29,-4.31,38.96,-4.47,-0.32,69.68,2.78,0.37,6.74
-7,-6,-697,-57,-494,3882,0.25,-0.59,-37.14,-0.57,-4.94,38.82,-4.49,-0.33,69.83,2.98,0.52,6.72
6,-5,-574,45,-748,3879,0.26,-0.56,-36.93,0.45,-7.48,38.79,-4.51,-0.34,69.97,2.79,0.50,5.62
-10,-2,-535,-35,-767,3928,0.17,-0.51,-36.50,-0.35,-7.67,39.28,-4.52,-0.35,70.12,3.08,0.45,5.20
-8,-8,-318,115,-833,3943,0.11,-0.51,-34.79,1.15,-8.33,39.43,-4.54,-0.37,70.26,3.08,0.55,3.02
-13,-5,-256,92,-824,3897,0.02,-0.49,-32.87,0.92,-8.24,38.97,-4.56,-0.38,70.39,3.20,0.50,2.12
-11,-13,-76,160,-575,3919,-0.05,-0.52,-30.05,1.60,-5.75,39.19,-4.57,-0.40,70.51,3.20,0.65,0.04
-10,-16,-51,163,-376,3920,-0.11,-0.57,-27.35,1.63,-3.76,39.20,-4.58,-0.43,70.62,3.21,0.73,-0.70
-6,-24,-62,-41,-213,3885,-0.13,-0.66,-25.00,-0.41,-2.13,38.85,-4.56,-0.43,70.72,3.15,0.88,-1.06
-8,-20,-95,-67,-141,3935,-0.17,-0.71,-23.08,-0.67,-1.41,39.35,-4.55,-0.43,70.81,3.18,0.84,-1.16
-1,-6,-239,-76,-109,3913,-0.16,-0.68,-22.23,-0.76,-1.09,39.13,-4.53,-0.43,70.90,3.06,0.62,-0.11
1,-11,-285,-65,-105,3942,-0.14,-0.68,-21.74,-0.65,-1.05,39.42,-4.52,-0.44,70.98,3.01,0.70,0.18
15,10,-498,-58,-145,3891,-0.03,-0.55,-22.61,-0.58,-1.45,38.91,-4.50,-0.44,71.07,2.75,0.33,2.14
2,0,-533,-89,-202,3878,-0.02,-0.49,-23.60,-0.89,-2.02,38.78,-4.49,-0.43,71.17,2.94,0.46,2.62
23,15,-611,-38,-284,3838,0.13,-0.35,-24.96,-0.38,-2.84,38.38,-4.48,-0.42,71.27,2.56,0.18,3.53
-6,4,-599,-144,-391,3985,0.08,-0.29,-26.12,-1.44,-3.91,39.85,-4.49,-0.42,71.37,3.03,0.32,3.64
3,7,-520,-43,-448,3966,0.09,-0.22,-26.68,-0.43,-4.48,39.66,-4.50,-0.42,71.48,2.89,0.25,3.07
9,-11,-526,92,-300,3915,0.13,-0.27,-27.22,0.92,-3.00,39.15,-4.50,-0.44,71.59,2.78,0.56,3.22
16,-3,-558,-11,-248,3851,0.22,-0.26,-27.90,-0.11,-2.48,38.51,-4.48,-0.44,71.70,2.64,0.43,3.61
5,-5,-557,51,-344,3872,0.23,-0.26,-28.51,0.51,-3.44,38.72,-4.50,-0.46,71.81,2.81,0.47,3.70
-5,2,-452,47,-483,3852,0.17,-0.22,-28.42,0.47,-4.83,38.52,-4.51,-0.47,71.92,2.99,0.36,2.79
-12,-9,-417,25,-463,3873,0.08,-0.26,-28.12,0.25,-4.63,38.73,-4.53,-0.48,72.04,3.14,0.55,2.42
-2,13,-283,-76,-589,3947,0.06,-0.15,-27.03,-0.76,-5.89,39.47,-4.55,-0.48,72.14,3.01,0.18,1.07
-5,-6,-258,-38,-474,3912,0.03,-0.17,-25.90,-0.38,-4.74,39.12,-4.56,-0.49,72.25,3.08,0.47,0.63
1,-5,-292,90,-342,3915,0.03,-0.19,-25.09,0.90,-3.42,39.15,-4.57,-0.51,72.35,2.99,0.48,0.76
0,11,-333,-14,-305,3912,0.03,-0.10,-24.62,-0.14,-3.05,39.12,-4.56,-0.50,72.44,3.00,0.20,1.01
-12,-15,-372,-22,-327,3902,-0.05,-0.18,-24.42,-0.22,-3.27,39.02,-4.57,-0.49,72.54,3.22,0.62,1.29
0,-15,-386,-91,-233,3876,-0.04,-0.26,-24.34,-0.91,-2.33,38.76,-4.56,-0.49,72.64,3.02,0.64,1.38
5,12,-410,-138,-354,3866,-0.01,-0.16,-24.40,-1.38,-3.54,38.66,-4.56,-0.48,72.74,2.94,0.19,1.59
8,6,-398,-101,-371,3919,0.04,-0.10,-24.39,-1.01,-3.71,39.19,-4.57,-0.47,72.83,2.88,0.25,1.48
6,18,-361,-138,-278,3844,0.07,0.02,-24.15,-1.38,-2.78,38.44,-4.56,-0.46,72.93,2.90,0.02,1.11
-3,5,-373,-83,-225,3898,0.05,0.04,-24.01,-0.83,-2.25,38.98,-4.55,-0.45,73.03,3.03,0.20,1.18
6,-3,-363,-107,-346,3894,0.08,0.02,-23.83,-1.07,-3.46,38.94,-4.56,-0.44,73.12,2.89,0.33,1.05
7,-4,-334,-29,-400,3919,0.11,-0.00,-23.48,-0.29,-4.00,39.19,-4.57,-0.44,73.21,2.87,0.35,0.73
5,3,-211,25,-374,3936,0.13,0.01,-22.42,0.25,-3.74,39.36,-4.59,-0.44,73.30,2.90,0.24,-0.52
3,-1,-188,20,-386,3883,0.14,0.01,-21.33,0.20,-3.86,38.83,-4.60,-0.45,73.39,2.94,0.31,-0.94
1,-18,-144,-21,-367,3963,0.13,-0.10,-20.07,-0.21,-3.67,39.63,-4.62,-0.44,73.47,2.98,0.60,-1.56
10,2,-142,23,-268,3869,0.18,-0.08,-18.93,0.23,-2.68,38.69,-4.60,-0.44,73.54,2.82,0.29,-1.80
7,9,-84,116,-145,3882,0.20,-0.02,-17.55,1.16,-1.45,38.82,-4.58,-0.46,73.61,2.84,0.17,-2.56
9,8,-70,105,-156,3860,0.24,0.03,-16.22,1.05,-1.56,38.60,-4.56,-0.47,73.68,2.79,0.18,-2.94
2,-8,-87,4,-113,3922,0.23,-0.02,-15.13,0.04,-1.13,39.22,-4.54,-0.47,73.74,2.89,0.44,-3.01
3,-11,-126,18,-111,3895,0.22,-0.08,-14.39,0.18,-1.11,38.95,-4.52,-0.48,73.80,2.86,0.51,-2.82
9,-6,-234,-52,-314,3916,0.25,-0.11,-14.37,-0.52,-3.14,39.16,-4.52,-0.46,73.85,2.76,0.44,-1.92
5,8,-255,-98,-352,3892,0.26,-0.05,-14.49,-0.98,-3.52,38.92,-4.53,-0.45,73.91,2.82,0.19,-1.72
12,9,-264,-121,-410,3895,0.31,0.01,-14.65,-1.21,-4.10,38.95,-4.53,-0.44,73.97,2.70,0.15,-1.62
5,12,-239,-95,-423,3865,0.31,0.08,-14.65,-0.95,-4.23,38.65,-4.54,-0.43,74.03,2.81,0.07,-1.84
3,-2,-241,-13,-424,3922,0.29,0.06,-14.65,-0.13,-4.24,39.22,-4.56,-0.43,74.09,2.86,0.29,-1.83
-1,-4,-258,-11,-439,3923,0.26,0.03,-14.76,-0.11,-4.39,39.23,-4.58,-0.43,74.15,2.94,0.33,-1.67
16,11,-252,39,-263,3895,0.33,0.09,-14.82,0.39,-2.63,38.95,-4.56,-0.44,74.20,2.65,0.09,-1.71
13,13,-231,29,-211,3897,0.38,0.16,-14.75,0.29,-2.11,38.97,-4.54,-0.44,74.26,2.66,0.03,-1.91
12,10,-179,74,-233,3926,0.41,0.21,-14.37,0.74,-2.33,39.26,-4.52,-0.45,74.32,2.65,0.07,-2.43
10,13,-192,142,-261,3907,0.43,0.27,-14.10,1.42,-2.61,39.07,-4.51,-0.47,74.38,2.67,0.02,-2.37
10,6,-199,116,-325,3937,0.45,0.28,-13.90,1.16,-3.25,39.37,-4.51,-0.49,74.43,2.66,0.14,-2.36
6,11,-206,114,-272,3852,0.44,0.32,-13.77,1.14,-2.72,38.52,-4.50,-0.51,74.49,2.72,0.06,-2.33
-3,6,-220,83,-71,3924,0.38,0.32,-13.74,0.83,-0.71,39.24,-4.48,-0.52,74.54,2.87,0.14,-2.22
-1,-1,-218,79,-139,3975,0.33,0.28,-13.69,0.79,-1.39,39.75,-4.46,-0.53,74.60,2.84,0.26,-2.25
10,-17,-203,161,-172,3869,0.36,0.15,-13.56,1.61,-1.72,38.69,-4.45,-0.54,74.65,2.65,0.57,-2.41
14,-16,-188,112,-300,3846,0.41,0.04,-13.35,1.12,-3.00,38.46,-4.44,-0.57,74.71,2.57,0.60,-2.58
-7,-5,-166,-6,-290,3901,0.33,0.00,-13.03,-0.06,-2.90,39.01,-4.44,-0.55,74.76,2.92,0.44,-2.83
9,-14,-150,15,-282,3886,0.35,-0.08,-12.64,0.15,-2.82,38.86,-4.42,-0.54,74.81,2.66,0.60,-3.05
-4,-13,-148,-173,-579,3904,0.29,-0.15,-12.28,-1.73,-5.79,39.04,-4.44,-0.54,74.86,2.89,0.61,-3.14
-8,-6,-163,-161,-508,3868,0.21,-0.17,-12.05,-1.61,-5.08,38.68,-4.45,-0.53,74.90,2.98,0.50,-3.06
-13,-2,-75,-268,-540,3872,0.11,-0.17,-11.30,-2.68,-5.40,38.72,-4.46,-0.52,74.95,3.10,0.43,-3.95
-16,-6,-41,-281,-509,3878,0.00,-0.19,-10.42,-2.81,-5.09,38.78,-4.47,-0.51,74.99,3.19,0.49,-4.41
-20,-17,-6,-119,-409,3871,-0.12,-0.27,-9.41,-1.19,-4.09,38.71,-4.48,-0.50,75.03,3.30,0.68,-4.90
-18,-20,-6,-95,-407,3856,-0.22,-0.37,-8.51,-0.95,-4.07,38.56,-4.49,-0.49,75.06,3.32,0.76,-5.08
-8,-13,-2,44,-233,3917,-0.24,-0.41,-7.67,0.44,-2.33,39.17,-4.47,-0.49,75.09,3.16,0.67,-5.28
-5,-9,-4,1,-271,3925,-0.25,-0.42,-6.93,0.01,-2.71,39.25,-4.46,-0.48,75.12,3.11,0.61,-5.40
-2,-1,-3,-21,-309,3924,-0.24,-0.39,-6.25,-0.21,-3.09,39.24,-4.46,-0.47,75.15,3.06,0.46,-5.54
-1,0,-2,-35,-311,3923,-0.22,-0.35,-5.64,-0.35,-3.11,39.23,-4.46,-0.45,75.17,3.04,0.42,-5.67
4,4,0,-18,-310,3897,-0.17,-0.29,-5.08,-0.18,-3.10,38.97,-4.47,-0.44,75.19,2.95,0.33,-5.80
3,4,2,-13,-311,3898,-0.14,-0.24,-4.56,-0.13,-3.11,38.98,-4.47,-0.42,75.21,2.95,0.30,-5.91
4,5,1,-12,-317,3894,-0.10,-0.18,-4.09,-0.12,-3.17,38.94,-4.48,-0.41,75.22,2.93,0.26,-6.00
5,5,3,-3,-310,3893,-0.06,-0.13,-3.67,-0.03,-3.10,38.93,-4.48,-0.39,75.24,2.90,0.23,-6.10
2,0,7,-14,-308,3888,-0.04,-0.12,-3.26,-0.14,-3.08,38.88,-4.48,-0.37,75.25,2.94,0.29,-6.21
2,-1,5,-19,-299,3882,-0.02,-0.11,-2.90,-0.19,-2.99,38.82,-4.48,-0.36,75.26,2.93,0.29,-6.26
4,0,-2,-5,-314,3894,0.00,-0.10,-2.62,-0.05,-3.14,38.94,-4.48,-0.34,75.27,2.90,0.26,-6.26
3,0,-1,-10,-311,3897,0.02,-0.09,-2.37,-0.10,-3.11,38.97,-4.49,-0.32,75.28,2.91,0.25,-6.31
1,0,1,-10,-311,3901,0.02,-0.08,-2.12,-0.10,-3.11,39.01,-4.49,-0.31,75.29,2.94,0.23,-6.38
0,0,2,-13,-318,3896,0.02,-0.08,-1.90,-0.13,-3.18,38.96,-4.50,-0.29,75.30,2.96,0.22,-6.43
-6,-3,7,-17,-319,3901,-0.02,-0.09,-1.67,-0.17,-3.19,39.01,-4.50,-0.27,75.30,3.07,0.26,-6.52
-4,-5,10,-15,-334,3911,-0.04,-0.11,-1.44,-0.15,-3.34,39.11,-4.51,-0.26,75.31,3.05,0.29,-6.59
-8,-5,14,-10,-316,3894,-0.08,-0.13,-1.21,-0.10,-3.16,38.94,-4.52,-0.24,75.31,3.13,0.28,-6.67
-5,2,19,17,-353,3888,-0.11,-0.10,-0.97,0.17,-3.53,38.88,-4.54,-0.24,75.32,3.11,0.17,-6.75
-5,0,61,-16,-386,3901,-0.13,-0.09,-0.50,-0.16,-3.86,39.01,-4.55,-0.24,75.32,3.13,0.19,-7.20
-5,0,74,-15,-374,3895,-0.14,-0.08,-0.00,-0.15,-3.74,38.95,-4.57,-0.23,75.32,3.14,0.18,-7.41
0,0,75,1,-235,3903,-0.13,-0.07,0.46,0.01,-2.35,39.03,-4.55,-0.23,75.32,3.05,0.18,-7.50
2,0,48,-13,-262,3894,-0.10,-0.07,0.70,-0.13,-2.62,38.94,-4.54,-0.22,75.31,3.00,0.17,-7.32
2,3,40,9,-314,3889,-0.08,-0.04,0.88,0.09,-3.14,38.89,-4.55,-0.20,75.31,3.00,0.10,-7.28
0,2,40,0,-322,3898,-0.07,-0.03,1.03,0.00,-3.22,38.98,-4.56,-0.19,75.31,3.04,0.10,-7.31
-3,8,64,-11,-381,3879,-0.08,0.03,1.32,-0.11,-3.81,38.79,-4.58,-0.18,75.30,3.10,-0.01,-7.57
-5,4,84,9,-375,3897,-0.11,0.05,1.70,0.09,-3.75,38.97,-4.60,-0.18,75.29,3.15,0.04,-7.81
-2,2,116,3,-351,3908,-0.11,0.05,2.24,0.03,-3.51,39.08,-4.62,-0.18,75.29,3.12,0.07,-8.19
-4,5,129,4,-356,3903,-0.12,0.08,2.80,0.04,-3.56,39.03,-4.64,-0.17,75.27,3.16,0.01,-8.40
-1,-1,124,-63,-204,3922,-0.12,0.07,3.28,-0.63,-2.04,39.22,-4.62,-0.16,75.26,3.11,0.10,-8.45
4,0,101,-55,-224,3890,-0.08,0.06,3.57,-0.55,-2.24,38.90,-4.61,-0.15,75.25,3.01,0.08,-8.31
5,9,95,-50,-316,3887,-0.04,0.11,3.79,-0.50,-3.16,38.87,-4.61,-0.13,75.23,2.98,-0.09,-8.30
5,12,88,-81,-318,3889,-0.01,0.17,3.95,-0.81,-3.18,38.89,-4.61,-0.11,75.22,2.97,-0.17,-8.27
1,5,82,-38,-371,3885,0.00,0.18,4.05,-0.38,-3.71,38.85,-4.62,-0.09,75.20,3.04,-0.08,-8.24
-2,4,93,-66,-387,3871,-0.01,0.19,4.21,-0.66,-3.87,38.71,-4.64,-0.08,75.18,3.09,-0.08,-8.36
-4,3,122,28,-333,3892,-0.04,0.19,4.54,0.28,-3.33,38.92,-4.65,-0.09,75.17,3.14,-0.05,-8.67
-10,0,118,-10,-317,3918,-0.09,0.17,4.80,-0.10,-3.17,39.18,-4.65,-0.07,75.15,3.25,-0.01,-8.68
-7,2,149,14,-453,3909,-0.13,0.17,5.23,0.14,-4.53,39.09,-4.67,-0.07,75.13,3.23,-0.04,-9.02
-12,3,164,-3,-426,3937,-0.19,0.17,5.71,-0.03,-4.26,39.37,-4.68,-0.07,75.10,3.34,-0.06,-9.24
-4,4,228,-10,-371,3904,-0.19,0.17,6.53,-0.10,-3.71,39.04,-4.70,-0.06,75.08,3.23,-0.08,-9.94
-7,6,242,-39,-386,3889,-0.22,0.19,7.35,-0.39,-3.86,38.89,-4.72,-0.05,75.05,3.30,-0.13,-10.21
-15,0,266,42,-240,3877,-0.29,0.17,8.24,0.42,-2.40,38.77,-4.70,-0.05,75.02,3.43,-0.03,-10.58
-12,3,285,42,-275,3893,-0.33,0.18,9.15,0.42,-2.75,38.93,-4.69,-0.06,74.98,3.40,-0.07,-10.91
-6,-5,275,30,-220,3917,-0.33,0.13,9.92,0.30,-2.20,39.17,-4.67,-0.06,74.94,3.30,0.07,-10.97
-5,6,278,52,-298,3907,-0.33,0.15,10.62,0.52,-2.98,39.07,-4.67,-0.07,74.90,3.28,-0.10,-11.13
3,5,331,7,-364,3919,-0.28,0.17,11.58,0.07,-3.64,39.19,-4.69,-0.07,74.85,3.15,-0.09,-11.75
-11,0,329,15,-275,3925,-0.32,0.15,12.43,0.15,-2.75,39.25,-4.67,-0.07,74.80,3.36,-0.01,-11.89
-5,-3,319,-49,-228,3889,-0.32,0.12,13.13,-0.49,-2.28,38.89,-4.66,-0.05,74.75,3.26,0.04,-11.94
-6,-10,379,-196,-113,3782,-0.32,0.04,14.13,-1.96,-1.13,37.82,-4.65,-0.04,74.69,3.27,0.16,-12.63
-11,-15,623,-163,-255,3898,-0.36,-0.05,16.52,-1.63,-2.55,38.98,-4.64,-0.01,74.63,3.36,0.26,-15.15
-15,2,634,-135,-396,3856,-0.41,-0.03,18.73,-1.35,-3.96,38.56,-4.65,0.01,74.55,3.45,-0.02,-15.66
6,25,509,-193,-310,3981,-0.34,0.12,19.96,-1.93,-3.10,39.81,-4.65,0.03,74.47,3.10,-0.45,-14.83
4,12,499,-105,-170,3841,-0.28,0.18,21.01,-1.05,-1.70,38.41,-4.64,0.05,74.39,3.10,-0.28,-14.94
-8,0,534,0,-272,3819,-0.30,0.16,22.17,0.00,-2.72,38.19,-4.62,0.06,74.30,3.28,-0.10,-15.45
-8,3,530,-21,-344,3861,-0.32,0.17,23.18,-0.21,-3.44,38.61,-4.64,0.08,74.21,3.30,-0.15,-15.60
-1,15,452,45,-242,3932,-0.29,0.24,23.62,0.45,-2.42,39.32,-4.62,0.07,74.11,3.17,-0.36,-15.01
4,9,424,13,-258,3886,-0.24,0.27,23.85,0.13,-2.58,38.86,-4.61,0.08,74.02,3.06,-0.28,-14.81
3,1,362,-5,-223,3912,-0.20,0.25,23.67,-0.05,-2.23,39.12,-4.59,0.09,73.92,3.05,-0.16,-14.24
5,4,350,5,-169,3904,-0.15,0.25,23.44,0.05,-1.69,39.04,-4.57,0.09,73.83,2.99,-0.21,-14.09
7,1,207,4,-122,3869,-0.09,0.23,22.36,0.04,-1.22,38.69,-4.55,0.10,73.74,2.93,-0.16,-12.66
10,0,159,1,-157,3899,-0.02,0.21,21.09,0.01,-1.57,38.99,-4.54,0.11,73.66,2.85,-0.14,-12.01
9,-5,85,-126,-262,3899,0.04,0.16,19.50,-1.26,-2.62,38.99,-4.53,0.13,73.58,2.84,-0.07,-11.07
-9,-13,126,-150,-520,3923,-0.02,0.06,18.32,-1.50,-5.20,39.23,-4.54,0.15,73.51,3.14,0.08,-11.18
7,5,250,-122,-485,3930,0.02,0.09,18.01,-1.22,-4.85,39.30,-4.56,0.16,73.44,2.89,-0.21,-12.17
12,0,282,-99,-422,3905,0.09,0.08,17.93,-0.99,-4.22,39.05,-4.57,0.18,73.36,2.80,-0.15,-12.42
0,-16,336,-36,-677,3930,0.09,-0.03,18.19,-0.36,-6.77,39.30,-4.59,0.19,73.29,3.00,0.13,-12.92
4,-5,365,-116,-766,3863,0.10,-0.06,18.60,-1.16,-7.66,38.63,-4.61,0.20,73.22,2.94,-0.03,-13.24
-12,-3,463,87,-369,3945,0.02,-0.07,19.56,0.87,-3.69,39.45,-4.62,0.19,73.14,3.22,-0.05,-14.24
-6,0,458,104,-332,3914,-0.02,-0.06,20.40,1.04,-3.32,39.14,-4.62,0.17,73.06,3.15,-0.09,-14.35
-8,4,468,56,-268,3911,-0.07,-0.03,21.21,0.56,-2.68,39.11,-4.61,0.17,72.97,3.19,-0.16,-14.59
-13,-8,481,-17,-379,3931,-0.14,-0.08,22.03,-0.17,-3.79,39.31,-4.63,0.17,72.89,3.30,0.03,-14.84
-12,13,599,26,-196,3870,-0.20,0.01,23.48,0.26,-1.96,38.70,-4.61,0.18,72.79,3.30,-0.32,-16.11
-8,9,622,40,-120,3887,-0.23,0.06,24.92,0.40,-1.20,38.87,-4.59,0.18,72.69,3.23,-0.28,-16.58
-24,5,620,14,-234,3886,-0.35,0.09,26.21,0.14,-2.34,38.86,-4.58,0.18,72.59,3.51,-0.23,-16.80
-5,7,625,22,-303,3931,-0.35,0.12,27.40,0.22,-3.03,39.31,-4.57,0.17,72.48,3.22,-0.27,-17.06
-2,-1,673,-2,-282,3849,-0.32,0.10,28.77,-0.02,-2.82,38.49,-4.55,0.18,72.36,3.15,-0.14,-17.71
-9,7,717,27,-288,3881,-0.35,0.14,30.27,0.27,-2.88,38.81,-4.55,0.17,72.24,3.26,-0.27,-18.36
-18,5,817,12,-527,3902,-0.42,0.15,32.22,0.12,-5.27,39.02,-4.57,0.18,72.12,3.44,-0.25,-19.57
-14,12,833,-43,-627,3837,-0.47,0.21,34.08,-0.43,-6.27,38.37,-4.59,0.19,71.98,3.41,-0.39,-20.00
-15,13,811,-17,-444,3935,-0.51,0.27,35.62,-0.17,-4.44,39.35,-4.61,0.21,71.84,3.45,-0.43,-20.00
-18,16,816,8,-344,3917,-0.57,0.34,37.04,0.08,-3.44,39.17,-4.62,0.21,71.69,3.53,-0.50,-20.00
-24,4,902,77,-170,3868,-0.66,0.33,38.84,0.77,-1.70,38.68,-4.61,0.21,71.54,3.64,-0.32,-20.00
-33,-13,949,94,-228,3877,-0.79,0.22,40.74,0.94,-2.28,38.77,-4.60,0.21,71.37,3.82,-0.02,-20.00
-73,-54,888,24,-68,3903,-1.16,-0.13,42.08,0.24,-0.68,39.03,-4.59,0.22,71.21,4.55,0.72,-20.00
-76,-63,868,65,-31,3914,-1.51,-0.50,43.17,0.65,-0.31,39.14,-4.57,0.23,71.03,4.71,0.99,-20.00
-72,-48,761,-1,-193,3852,-1.80,-0.75,43.49,-0.01,-1.93,38.52,-4.56,0.24,70.86,4.75,0.84,-20.00
-55,-49,728,80,-251,3926,-1.95,-0.97,43.59,0.80,-2.51,39.26,-4.56,0.23,70.69,4.54,0.94,-20.00
-79,-52,647,-47,-391,3882,-2.24,-1.19,43.17,-0.47,-3.91,38.82,-4.58,0.25,70.51,5.03,1.05,-20.00
-74,-57,631,10,-416,3937,-2.47,-1.42,42.71,0.10,-4.16,39.37,-4.61,0.25,70.34,5.05,1.21,-19.84
-23,-6,635,-7,-535,3901,-2.36,-1.31,42.31,-0.07,-5.35,39.01,-4.64,0.26,70.17,4.25,0.39,-19.78
-36,0,654,-32,-493,3861,-2.34,-1.18,42.07,-0.32,-4.93,38.61,-4.66,0.27,70.00,4.46,0.24,-19.88
-8,10,709,-2,-468,3901,-2.16,-1.00,42.19,-0.02,-4.68,39.01,-4.69,0.28,69.84,3.99,0.02,-20.00
-17,-1,718,49,-495,3965,-2.05,-0.91,42.35,0.49,-4.95,39.65,-4.72,0.28,69.67,4.10,0.15,-20.00
-19,13,750,41,-260,3895,-1.96,-0.74,42.69,0.41,-2.60,38.95,-4.71,0.28,69.50,4.09,-0.12,-20.00
-12,1,730,78,-190,3942,-1.83,-0.66,42.87,0.78,-1.90,39.42,-4.70,0.28,69.33,3.94,0.03,-20.00
-14,0,588,32,-241,3878,-1.74,-0.59,42.17,0.32,-2.41,38.78,-4.69,0.28,69.16,3.93,0.03,-19.27
-12,3,535,-25,-161,3906,-1.64,-0.52,41.22,-0.25,-1.61,39.06,-4.68,0.29,68.99,3.85,-0.06,-18.62
0,15,411,-96,-249,3866,-1.47,-0.37,39.60,-0.96,-2.49,38.66,-4.67,0.32,68.83,3.61,-0.31,-17.25
-7,7,390,-36,-213,3902,-1.37,-0.29,38.02,-0.36,-2.13,39.02,-4.66,0.33,68.68,3.67,-0.22,-16.75
-7,13,338,-16,-362,3881,-1.27,-0.18,36.28,-0.16,-3.62,38.81,-4.68,0.34,68.54,3.65,-0.36,-15.97
-1,17,337,-51,-380,3903,-1.15,-0.06,34.71,-0.51,-3.80,39.03,-4.70,0.36,68.40,3.53,-0.47,-15.64
1,11,346,-35,-435,3904,-1.03,0.01,33.35,-0.35,-4.35,39.04,-4.72,0.37,68.27,3.47,-0.42,-15.45
-2,10,348,-13,-508,3883,-0.94,0.07,32.14,-0.13,-5.08,38.83,-4.74,0.38,68.14,3.50,-0.43,-15.22
3,15,327,-50,-293,3857,-0.83,0.16,30.92,-0.50,-2.93,38.57,-4.73,0.40,68.02,3.37,-0.55,-14.80
-2,3,302,-91,-357,3914,-0.76,0.16,29.67,-0.91,-3.57,39.14,-4.74,0.43,67.90,3.43,-0.39,-14.34
-3,6,269,-45,-421,3850,-0.70,0.18,28.34,-0.45,-4.21,38.50,-4.76,0.44,67.79,3.44,-0.45,-13.80
-5,14,274,-68,-394,3854,-0.66,0.25,27.18,-0.68,-3.94,38.54,-4.78,0.46,67.68,3.47,-0.61,-13.61
-2,8,279,0,-352,3935,-0.61,0.27,26.16,0.00,-3.52,39.35,-4.79,0.46,67.57,3.41,-0.52,-13.45
-10,19,282,-26,-300,3867,-0.61,0.36,25.27,-0.26,-3.00,38.67,-4.78,0.46,67.47,3.52,-0.72,-13.29
-8,12,272,60,-210,3846,-0.60,0.40,24.40,0.60,-2.10,38.46,-4.76,0.46,67.37,3.48,-0.63,-13.03
-6,2,256,-35,-196,3960,-0.57,0.37,23.52,-0.35,-1.96,39.60,-4.75,0.47,67.28,3.43,-0.47,-12.72
-5,2,164,17,-127,3893,-0.55,0.34,22.17,0.17,-1.27,38.93,-4.73,0.48,67.19,3.39,-0.47,-11.67
-2,2,136,29,-186,3909,-0.50,0.32,20.78,0.29,-1.86,39.09,-4.72,0.48,67.11,3.32,-0.46,-11.16
-5,-3,103,-40,-242,3882,-0.48,0.27,19.33,-0.40,-2.42,38.82,-4.70,0.49,67.03,3.35,-0.37,-10.60
-4,-1,109,-34,-304,3897,-0.46,0.24,18.06,-0.34,-3.04,38.97,-4.68,0.49,66.96,3.31,-0.40,-10.40
2,-6,178,1,-394,3913,-0.40,0.18,17.34,0.01,-3.94,39.13,-4.70,0.49,66.89,3.21,-0.30,-10.84
-3,0,206,21,-405,3894,-0.38,0.16,16.87,0.21,-4.05,38.94,-4.72,0.49,66.82,3.29,-0.38,-10.98
-7,2,294,-32,-475,3899,-0.38,0.16,16.97,-0.32,-4.75,38.99,-4.74,0.49,66.76,3.37,-0.41,-11.74
-9,5,331,-32,-467,3891,-0.40,0.17,17.29,-0.32,-4.67,38.91,-4.75,0.50,66.69,3.42,-0.47,-12.11
-6,-4,368,4,-358,3938,-0.40,0.13,17.81,0.04,-3.58,39.38,-4.77,0.49,66.62,3.38,-0.31,-12.52
-15,2,382,11,-365,3802,-0.45,0.13,18.36,0.11,-3.65,38.02,-4.78,0.49,66.54,3.54,-0.40,-12.73
-9,-4,417,28,-396,3883,-0.46,0.09,19.07,0.28,-3.96,38.83,-4.80,0.48,66.47,3.47,-0.29,-13.16
-13,0,416,41,-344,3903,-0.49,0.08,19.70,0.41,-3.44,39.03,-4.80,0.47,66.39,3.54,-0.34,-13.26
-4,3,473,-3,-229,3916,-0.47,0.09,20.61,-0.03,-2.29,39.16,-4.79,0.47,66.31,3.39,-0.39,-13.91
-11,-4,493,19,-303,3924,-0.49,0.06,21.56,0.19,-3.03,39.24,-4.78,0.46,66.22,3.50,-0.27,-14.26
-20,9,606,29,-255,3862,-0.56,0.11,23.10,0.29,-2.55,38.62,-4.77,0.46,66.13,3.65,-0.48,-15.50
-9,5,620,27,-266,3989,-0.56,0.13,24.57,0.27,-2.66,39.89,-4.75,0.46,66.03,3.47,-0.42,-15.89
-16,-7,572,-6,-311,3897,-0.60,0.07,25.60,-0.06,-3.11,38.97,-4.75,0.45,65.93,3.59,-0.21,-15.67
-9,2,544,-6,-316,3920,-0.60,0.08,26.36,-0.06,-3.16,39.20,-4.74,0.44,65.82,3.48,-0.35,-15.57
-7,1,453,-17,-282,3916,-0.58,0.08,26.49,-0.17,-2.82,39.16,-4.73,0.44,65.72,3.43,-0.34,-14.81
-12,-2,445,-98,-311,3900,-0.59,0.06,26.55,-0.98,-3.11,39.00,-4.73,0.47,65.61,3.51,-0.30,-14.75
-10,4,494,-77,-382,3886,-0.60,0.07,26.91,-0.77,-3.82,38.86,-4.74,0.49,65.51,3.49,-0.41,-15.22
-5,12,543,-55,-287,3960,-0.57,0.14,27.53,-0.55,-2.87,39.60,-4.73,0.51,65.40,3.40,-0.57,-15.75
-7,12,561,-8,-214,3926,-0.55,0.20,28.20,-0.08,-2.14,39.26,-4.71,0.51,65.28,3.41,-0.59,-16.02
2,9,544,-36,-237,3915,-0.49,0.23,28.70,-0.36,-2.37,39.15,-4.69,0.53,65.17,3.24,-0.57,-15.96
-11,11,489,-33,-277,3864,-0.50,0.28,28.81,-0.33,-2.77,38.64,-4.68,0.53,65.05,3.43,-0.62,-15.50
2,4,459,-48,-185,3910,-0.44,0.27,28.73,-0.48,-1.85,39.10,-4.66,0.55,64.94,3.20,-0.52,-15.22
-3,12,385,-68,-236,3843,-0.42,0.32,28.21,-0.68,-2.36,38.43,-4.64,0.56,64.83,3.26,-0.67,-14.49
-3,1,401,-51,-262,3919,-0.39,0.29,27.83,-0.51,-2.62,39.19,-4.62,0.58,64.72,3.24,-0.50,-14.54
-9,9,512,-90,-329,3920,-0.41,0.32,28.17,-0.90,-3.29,39.20,-4.63,0.61,64.60,3.34,-0.65,-15.54
-1,4,557,-52,-332,3931,-0.37,0.31,28.75,-0.52,-3.32,39.31,-4.64,0.63,64.49,3.21,-0.59,-16.02
2,8,633,74,-527,3964,-0.32,0.33,29.74,0.74,-5.27,39.64,-4.66,0.63,64.37,3.16,-0.66,-16.84
14,22,672,-5,-484,3907,-0.21,0.43,30.86,-0.05,-4.84,39.07,-4.68,0.64,64.25,2.95,-0.91,-17.37
-14,3,657,158,-391,3943,-0.27,0.41,31.79,1.58,-3.91,39.43,-4.68,0.63,64.12,3.40,-0.61,-17.41
-28,-1,649,226,-306,3885,-0.41,0.36,32.57,2.26,-3.06,38.85,-4.68,0.63,63.99,3.66,-0.53,-17.48
-32,-13,650,96,-233,3853,-0.57,0.24,33.27,0.96,-2.33,38.53,-4.67,0.62,63.86,3.77,-0.30,-17.61
-9,6,663,85,-223,3910,-0.57,0.26,33.99,0.85,-2.23,39.10,-4.66,0.62,63.72,3.42,-0.59,-17.85
-3,12,690,6,-353,3850,-0.53,0.30,34.80,0.06,-3.53,38.50,-4.68,0.62,63.59,3.32,-0.70,-18.22
-21,6,687,84,-358,3925,-0.60,0.31,35.51,0.84,-3.58,39.25,-4.68,0.61,63.44,3.62,-0.61,-18.32
-8,9,598,44,-391,3920,-0.59,0.33,35.61,0.44,-3.91,39.20,-4.69,0.61,63.30,3.43,-0.66,-17.57
-10,9,558,27,-410,3933,-0.59,0.36,35.45,0.27,-4.10,39.33,-4.71,0.61,63.16,3.47,-0.67,-17.19
-13,1,413,-5,-309,3891,-0.61,0.33,34.43,-0.05,-3.09,38.91,-4.70,0.61,63.02,3.52,-0.53,-15.75
-9,4,328,-29,-280,3891,-0.61,0.32,32.98,-0.29,-2.80,38.91,-4.69,0.62,62.89,3.45,-0.58,-14.74
0,13,192,-112,-230,3897,-0.55,0.37,30.86,-1.12,-2.30,38.97,-4.67,0.64,62.77,3.28,-0.75,-13.17
-1,3,146,-145,-287,3945,-0.50,0.35,28.66,-1.45,-2.87,39.45,-4.67,0.67,62.65,3.27,-0.61,-12.35
-1,8,122,-10,-334,3913,-0.45,0.36,26.54,-0.10,-3.34,39.13,-4.68,0.66,62.55,3.26,-0.69,-11.74
-4,5,143,21,-386,3920,-0.43,0.36,24.76,0.21,-3.86,39.20,-4.69,0.66,62.45,3.31,-0.64,-11.56
-7,2,212,79,-409,3923,-0.43,0.33,23.58,0.79,-4.09,39.23,-4.70,0.65,62.36,3.36,-0.58,-11.91
2,1,216,72,-432,3922,-0.38,0.31,22.54,0.72,-4.32,39.22,-4.71,0.64,62.27,3.21,-0.55,-11.74
5,9,237,15,-453,3877,-0.31,0.33,21.73,0.15,-4.53,38.77,-4.73,0.65,62.18,3.16,-0.68,-11.76
4,11,243,27,-349,3911,-0.25,0.36,21.04,0.27,-3.49,39.11,-4.74,0.64,62.10,3.16,-0.72,-11.67
-5,5,245,-6,-297,3875,-0.26,0.36,20.43,-0.06,-2.97,38.75,-4.73,0.63,62.02,3.29,-0.62,-11.56
-3,6,247,-24,-268,3897,-0.25,0.36,19.89,-0.24,-2.68,38.97,-4.71,0.63,61.94,3.24,-0.64,-11.47
0,3,204,-108,-243,3902,-0.23,0.34,19.15,-1.08,-2.43,39.02,-4.70,0.65,61.86,3.18,-0.60,-10.95
-3,6,197,-86,-282,3873,-0.22,0.34,18.43,-0.86,-2.82,38.73,-4.68,0.67,61.79,3.22,-0.66,-10.75
-1,14,215,-66,-318,3879,-0.21,0.39,17.90,-0.66,-3.18,38.79,-4.68,0.70,61.72,3.18,-0.81,-10.80
-1,4,228,-49,-309,3909,-0.19,0.38,17.50,-0.49,-3.09,39.09,-4.67,0.71,61.65,3.16,-0.66,-10.82
0,3,292,-68,-283,3868,-0.17,0.36,17.53,-0.68,-2.83,38.68,-4.65,0.72,61.58,3.13,-0.65,-11.37
-7,-4,327,-43,-299,3925,-0.20,0.30,17.77,-0.43,-2.99,39.25,-4.63,0.73,61.50,3.23,-0.52,-11.70
-7,12,416,-61,-360,3880,-0.22,0.34,18.54,-0.61,-3.60,38.80,-4.65,0.74,61.43,3.25,-0.79,-12.60
-6,5,439,-25,-383,3936,-0.24,0.34,19.36,-0.25,-3.83,39.36,-4.67,0.74,61.35,3.26,-0.68,-12.94
-7,10,518,-12,-362,3902,-0.25,0.37,20.58,-0.12,-3.62,39.02,-4.68,0.73,61.27,3.29,-0.77,-13.84
-3,15,580,-25,-327,3901,-0.25,0.42,22.06,-0.25,-3.27,39.01,-4.69,0.72,61.18,3.23,-0.86,-14.64
5,17,666,-66,-283,3913,-0.19,0.48,23.92,-0.66,-2.83,39.13,-4.67,0.74,61.09,3.07,-0.92,-15.71
-4,13,662,-77,-318,3921,-0.20,0.51,25.57,-0.77,-3.18,39.21,-4.67,0.77,60.99,3.21,-0.89,-15.98
-11,10,587,-25,-302,3898,-0.24,0.52,26.59,-0.25,-3.02,38.98,-4.66,0.77,60.88,3.33,-0.84,-15.53
-8,3,547,44,-346,3959,-0.27,0.49,27.27,0.44,-3.46,39.59,-4.66,0.76,60.77,3.29,-0.72,-15.31
-20,-5,458,46,-379,3909,-0.36,0.41,27.33,0.46,-3.79,39.09,-4.67,0.75,60.66,3.52,-0.57,-14.56
-3,4,464,26,-412,3860,-0.35,0.39,27.43,0.26,-4.12,38.60,-4.68,0.75,60.56,3.26,-0.70,-14.62
6,-8,507,30,-417,3823,-0.27,0.31,27.78,0.30,-4.17,38.23,-4.70,0.75,60.44,3.11,-0.48,-15.04
-17,-3,526,-1,-469,3895,-0.35,0.26,28.21,-0.01,-4.69,38.95,-4.72,0.76,60.33,3.50,-0.54,-15.28
-5,-5,533,33,-428,3885,-0.35,0.20,28.64,0.33,-4.28,38.85,-4.73,0.75,60.22,3.32,-0.49,-15.41
-20,-9,547,-9,-481,3936,-0.43,0.13,29.11,-0.09,-4.81,39.36,-4.75,0.76,60.10,3.59,-0.41,-15.61
-14,6,625,-34,-391,3948,-0.48,0.15,30.02,-0.34,-3.91,39.48,-4.77,0.77,59.98,3.53,-0.65,-16.43
-7,9,659,-19,-445,3902,-0.47,0.19,31.03,-0.19,-4.45,39.02,-4.78,0.77,59.86,3.43,-0.71,-16.90
5,20,797,-91,-365,3891,-0.39,0.29,32.79,-0.91,-3.65,38.91,-4.80,0.80,59.73,3.23,-0.93,-18.39
-23,2,836,-115,-326,3871,-0.49,0.28,34.61,-1.15,-3.26,38.71,-4.80,0.83,59.59,3.69,-0.67,-19.06
-9,11,910,-71,-336,3886,-0.50,0.31,36.70,-0.71,-3.36,38.86,-4.81,0.86,59.45,3.49,-0.84,-20.00
-16,11,911,-74,-370,3913,-0.55,0.35,38.59,-0.74,-3.70,39.13,-4.82,0.88,59.29,3.62,-0.87,-20.00
-11,12,844,-43,-401,3918,-0.56,0.39,39.88,-0.43,-4.01,39.18,-4.84,0.89,59.13,3.56,-0.91,-20.00
-19,12,812,-139,-459,3879,-0.62,0.42,40.84,-1.39,-4.59,38.79,-4.86,0.91,58.97,3.72,-0.94,-19.99
-1,15,708,-81,-465,3921,-0.56,0.47,41.08,-0.81,-4.65,39.21,-4.88,0.93,58.81,3.43,-1.01,-19.14
-16,12,688,-23,-483,3891,-0.60,0.50,41.17,-0.23,-4.83,38.91,-4.89,0.94,58.64,3.69,-0.98,-18.97
-19,5,703,-49,-340,3902,-0.66,0.48,41.34,-0.49,-3.40,39.02,-4.90,0.94,58.48,3.76,-0.87,-19.12
-10,15,711,-66,-335,3892,-0.66,0.52,41.54,-0.66,-3.35,38.92,-4.91,0.97,58.31,3.63,-1.06,-19.21
-6,14,734,23,-318,3865,-0.63,0.56,41.87,0.23,-3.18,38.65,-4.91,0.97,58.15,3.55,-1.05,-19.45
-5,10,741,43,-306,3931,-0.59,0.56,42.20,0.43,-3.06,39.31,-4.90,0.97,57.98,3.52,-0.99,-19.56
-9,9,702,106,-287,3947,-0.59,0.56,42.26,1.06,-2.87,39.47,-4.90,0.97,57.81,3.58,-0.98,-19.23
-19,7,680,36,-351,3895,-0.65,0.55,42.18,0.36,-3.51,38.95,-4.90,0.97,57.64,3.75,-0.94,-19.01
-13,6,636,-57,-336,3862,-0.66,0.53,41.84,-0.57,-3.36,38.62,-4.91,0.97,57.48,3.67,-0.92,-18.56
-3,2,629,-94,-364,3887,-0.61,0.49,41.50,-0.94,-3.64,38.87,-4.92,1.00,57.31,3.51,-0.86,-18.42
2,15,618,-74,-406,3907,-0.54,0.53,41.12,-0.74,-4.06,39.07,-4.94,1.01,57.15,3.42,-1.09,-18.24
3,18,596,-90,-433,3884,-0.47,0.59,40.64,-0.90,-4.33,38.84,-4.95,1.03,56.99,3.39,-1.17,-17.95
2,15,535,-160,-399,3863,-0.41,0.62,39.84,-1.60,-3.99,38.63,-4.96,1.07,56.83,3.39,-1.15,-17.26
-3,16,523,-94,-359,3899,-0.39,0.66,39.05,-0.94,-3.59,38.99,-4.98,1.09,56.67,3.47,-1.20,-16.99
3,19,529,-35,-272,3865,-0.33,0.71,38.37,-0.35,-2.72,38.65,-4.96,1.10,56.52,3.34,-1.27,-16.90
-7,15,539,7,-264,3911,-0.34,0.73,37.82,0.07,-2.64,39.11,-4.94,1.10,56.37,3.49,-1.22,-16.87
-12,9,556,-87,-218,3932,-0.38,0.71,37.43,-0.87,-2.18,39.32,-4.92,1.12,56.22,3.57,-1.13,-16.92
-6,17,553,-109,-254,3890,-0.38,0.74,37.06,-1.09,-2.54,38.90,-4.91,1.14,56.07,3.46,-1.28,-16.81
-5,6,555,-92,-282,3939,-0.37,0.70,36.74,-0.92,-2.82,39.39,-4.89,1.16,55.93,3.43,-1.11,-16.76
-9,15,552,-74,-264,3896,-0.39,0.73,36.43,-0.74,-2.64,38.96,-4.87,1.18,55.78,3.49,-1.26,-16.66
-5,11,478,-94,-275,3900,-0.38,0.72,35.71,-0.94,-2.75,39.00,-4.85,1.20,55.64,3.41,-1.21,-15.88
-4,18,438,-55,-233,3858,-0.37,0.76,34.81,-0.55,-2.33,38.58,-4.83,1.21,55.50,3.38,-1.34,-15.36
-5,12,429,41,-354,3885,-0.36,0.76,33.94,0.41,-3.54,38.85,-4.83,1.20,55.36,3.39,-1.25,-15.10
-7,14,436,46,-366,3880,-0.37,0.77,33.21,0.46,-3.66,38.80,-4.84,1.20,55.23,3.43,-1.28,-15.01
-4,13,446,86,-437,3903,-0.35,0.77,32.61,0.86,-4.37,39.03,-4.84,1.20,55.10,3.38,-1.26,-14.97
-7,5,444,91,-408,3940,-0.36,0.72,32.06,0.91,-4.08,39.40,-4.85,1.19,54.98,3.44,-1.12,-14.84
-12,0,484,87,-443,3874,-0.40,0.65,31.80,0.87,-4.43,38.74,-4.86,1.19,54.85,3.53,-1.02,-15.11
-9,-1,509,49,-299,3949,-0.41,0.58,31.73,0.49,-2.99,39.49,-4.85,1.19,54.72,3.49,-0.98,-15.30
-12,3,607,3,-346,3879,-0.45,0.54,32.26,0.03,-3.46,38.79,-4.86,1.18,54.59,3.55,-1.02,-16.22
-8,-1,618,9,-276,3902,-0.45,0.48,32.80,0.09,-2.76,39.02,-4.85,1.18,54.46,3.48,-0.93,-16.41
-4,8,612,-38,-257,3909,-0.43,0.48,33.25,-0.38,-2.57,39.09,-4.83,1.18,54.33,3.40,-1.07,-16.43
-3,12,599,-57,-295,3901,-0.40,0.50,33.58,-0.57,-2.95,39.01,-4.81,1.19,54.20,3.37,-1.15,-16.37
-9,18,557,-73,-212,3889,-0.42,0.56,33.62,-0.73,-2.12,38.89,-4.79,1.20,54.06,3.45,-1.27,-16.01
-9,17,540,-71,-260,3924,-0.43,0.61,33.55,-0.71,-2.60,39.24,-4.77,1.21,53.93,3.44,-1.28,-15.84
-4,14,463,8,-279,3898,-0.41,0.64,33.02,0.08,-2.79,38.98,-4.76,1.21,53.80,3.35,-1.24,-15.08
-8,6,432,1,-336,3892,-0.42,0.61,32.36,0.01,-3.36,38.92,-4.77,1.20,53.67,3.42,-1.10,-14.67
-13,8,389,44,-307,3910,-0.46,0.60,31.49,0.44,-3.07,39.10,-4.76,1.20,53.54,3.50,-1.12,-14.13
1,10,385,-20,-337,3902,-0.41,0.60,30.69,-0.20,-3.37,39.02,-4.77,1.19,53.42,3.27,-1.15,-13.94
-4,7,376,-37,-352,3872,-0.39,0.58,29.92,-0.37,-3.52,38.72,-4.77,1.19,53.30,3.35,-1.10,-13.70
-5,10,367,-11,-344,3900,-0.38,0.58,29.16,-0.11,-3.44,39.00,-4.78,1.18,53.19,3.37,-1.14,-13.47
-6,4,306,25,-321,3923,-0.38,0.55,28.11,0.25,-3.21,39.23,-4.78,1.18,53.07,3.38,-1.03,-12.74
-3,10,275,8,-308,3897,-0.36,0.56,26.98,0.08,-3.08,38.97,-4.77,1.17,52.97,3.32,-1.12,-12.25
-6,0,284,20,-307,3916,-0.36,0.50,26.01,0.20,-3.07,39.16,-4.77,1.16,52.86,3.37,-0.95,-12.14
-4,13,303,26,-341,3890,-0.35,0.53,25.26,0.26,-3.41,38.90,-4.77,1.16,52.76,3.33,-1.15,-12.14
1,16,392,-67,-338,3856,-0.31,0.57,25.13,-0.67,-3.38,38.56,-4.78,1.16,52.66,3.25,-1.21,-12.86
3,21,414,-42,-364,3886,-0.26,0.64,25.14,-0.42,-3.64,38.86,-4.80,1.15,52.56,3.21,-1.31,-13.04
-6,18,475,-168,-349,3980,-0.27,0.69,25.52,-1.68,-3.49,39.80,-4.80,1.18,52.46,3.35,-1.30,-13.62
-2,13,494,-152,-310,3872,-0.25,0.70,25.98,-1.52,-3.10,38.72,-4.79,1.21,52.36,3.29,-1.25,-13.86
-7,14,593,-48,-373,3927,-0.27,0.72,27.00,-0.48,-3.73,39.27,-4.81,1.21,52.25,3.38,-1.27,-14.89
1,18,624,-42,-370,3905,-0.24,0.75,28.11,-0.42,-3.70,39.05,-4.82,1.21,52.14,3.25,-1.34,-15.35
-3,20,685,-4,-472,3827,-0.23,0.80,29.48,-0.04,-4.72,38.27,-4.83,1.22,52.02,3.32,-1.39,-16.12
2,20,681,12,-484,3873,-0.20,0.84,30.68,0.12,-4.84,38.73,-4.85,1.22,51.90,3.24,-1.41,-16.30
-16,7,635,3,-376,3915,-0.28,0.80,31.49,0.03,-3.76,39.15,-4.85,1.22,51.78,3.55,-1.20,-16.06
0,14,626,28,-361,3920,-0.25,0.81,32.16,0.28,-3.61,39.20,-4.86,1.22,51.65,3.29,-1.30,-16.10
-18,2,664,-15,-292,3861,-0.33,0.74,32.99,-0.15,-2.92,38.61,-4.85,1.21,51.52,3.59,-1.09,-16.57
5,4,674,10,-269,3931,-0.27,0.69,33.80,0.10,-2.69,39.31,-4.83,1.21,51.38,3.21,-1.11,-16.80
-11,7,685,-13,-368,3914,-0.31,0.66,34.60,-0.13,-3.68,39.14,-4.84,1.21,51.24,3.47,-1.14,-17.03
-12,4,681,-38,-315,3916,-0.35,0.62,35.30,-0.38,-3.15,39.16,-4.83,1.21,51.10,3.50,-1.08,-17.11
-5,3,706,-21,-359,3830,-0.35,0.58,36.07,-0.21,-3.59,38.30,-4.84,1.21,50.96,3.39,-1.05,-17.46
-12,6,731,-24,-361,3917,-0.39,0.56,36.93,-0.24,-3.61,39.17,-4.85,1.20,50.81,3.52,-1.08,-17.82
-4,14,779,-54,-374,3869,-0.37,0.59,37.98,-0.54,-3.74,38.69,-4.86,1.21,50.66,3.40,-1.22,-18.42
2,15,793,-118,-435,3958,-0.32,0.62,39.02,-1.18,-4.35,39.58,-4.88,1.23,50.51,3.30,-1.26,-18.72
-20,2,833,-39,-424,3954,-0.41,0.57,40.20,-0.39,-4.24,39.54,-4.89,1.24,50.35,3.68,-1.05,-19.27
-16,0,830,-27,-319,3908,-0.47,0.51,41.25,-0.27,-3.19,39.08,-4.88,1.24,50.18,3.63,-1.00,-19.43
-5,16,832,-192,-318,3949,-0.45,0.56,42.20,-1.92,-3.18,39.49,-4.88,1.27,50.02,3.46,-1.28,-19.61
-13,5,847,-155,-242,3786,-0.49,0.53,43.14,-1.55,-2.42,37.86,-4.86,1.30,49.84,3.58,-1.12,-19.91
-4,20,850,-98,-258,3930,-0.46,0.60,44.01,-0.98,-2.58,39.30,-4.84,1.32,49.67,3.42,-1.39,-20.00
-17,25,829,-130,-317,3983,-0.52,0.69,44.67,-1.30,-3.17,39.83,-4.83,1.35,49.49,3.63,-1.52,-20.00
-6,4,684,-54,-287,3923,-0.50,0.65,44.37,-0.54,-2.87,39.23,-4.82,1.36,49.31,3.45,-1.19,-18.71
-4,21,638,-59,-418,3853,-0.48,0.71,43.83,-0.59,-4.18,38.53,-4.83,1.37,49.14,3.42,-1.48,-18.20
-1,13,491,-140,-341,3902,-0.44,0.72,42.44,-1.40,-3.41,39.02,-4.83,1.41,48.97,3.36,-1.38,-16.68
-3,10,440,-137,-372,3918,-0.41,0.71,40.88,-1.37,-3.72,39.18,-4.84,1.44,48.81,3.39,-1.35,-15.93
-10,8,280,-106,-314,3905,-0.43,0.69,38.50,-1.06,-3.14,39.05,-4.83,1.46,48.65,3.49,-1.33,-14.11
2,5,225,-68,-332,3925,-0.38,0.65,36.02,-0.68,-3.32,39.25,-4.82,1.46,48.51,3.29,-1.27,-13.16
3,2,44,-61,-359,3903,-0.32,0.60,32.69,-0.61,-3.59,39.03,-4.83,1.45,48.38,3.26,-1.20,-10.97
4,4,21,-59,-345,3910,-0.26,0.56,29.55,-0.59,-3.45,39.10,-4.84,1.45,48.26,3.23,-1.22,-10.17
3,0,-4,-56,-363,3894,-0.22,0.50,26.57,-0.56,-3.63,38.94,-4.85,1.45,48.16,3.23,-1.13,-9.38
4,-1,-7,-43,-362,3888,-0.17,0.45,23.87,-0.43,-3.62,38.88,-4.85,1.44,48.06,3.20,-1.09,-8.83
1,-1,-7,-31,-356,3901,-0.15,0.40,21.44,-0.31,-3.56,39.01,-4.86,1.43,47.98,3.24,-1.07,-8.36
1,-1,-6,-41,-349,3904,-0.13,0.35,19.26,-0.41,-3.49,39.04,-4.86,1.42,47.90,3.24,-1.05,-7.94
1,-3,-5,-41,-339,3907,-0.11,0.30,17.30,-0.41,-3.39,39.07,-4.86,1.41,47.83,3.23,-0.99,-7.57
1,-5,-3,-52,-344,3907,-0.09,0.24,15.55,-0.52,-3.44,39.07,-4.87,1.40,47.77,3.23,-0.93,-7.25
-4,-26,-28,10,-299,3950,-0.11,0.06,13.83,0.10,-2.99,39.50,-4.86,1.39,47.71,3.31,-0.54,-6.70
-2,-32,-34,-32,-357,3875,-0.11,-0.15,12.24,-0.32,-3.57,38.75,-4.87,1.37,47.67,3.28,-0.37,-6.34
-3,-12,0,-73,-348,3885,-0.12,-0.20,11.01,-0.73,-3.48,38.85,-4.88,1.36,47.62,3.31,-0.64,-6.39
-3,-8,1,-58,-350,3893,-0.12,-0.23,9.92,-0.58,-3.50,38.93,-4.89,1.35,47.58,3.31,-0.69,-6.19
2,1,9,1,-399,3879,-0.10,-0.20,8.98,0.01,-3.99,38.79,-4.90,1.34,47.55,3.24,-0.82,-6.07
2,3,15,-7,-393,3893,-0.08,-0.16,8.18,-0.07,-3.93,38.93,-4.91,1.32,47.51,3.23,-0.86,-5.97
-2,0,49,-17,-395,3904,-0.08,-0.15,7.66,-0.17,-3.95,39.04,-4.92,1.31,47.48,3.30,-0.81,-6.15
-2,-1,63,9,-393,3895,-0.09,-0.14,7.28,0.09,-3.93,38.95,-4.93,1.30,47.46,3.31,-0.79,-6.20
-5,-3,130,19,-389,3892,-0.11,-0.14,7.34,0.19,-3.89,38.92,-4.93,1.28,47.43,3.37,-0.75,-6.77
-4,2,153,3,-431,3892,-0.12,-0.12,7.54,0.03,-4.31,38.92,-4.95,1.27,47.40,3.37,-0.83,-7.00
-2,-4,192,-37,-384,3894,-0.12,-0.13,7.96,-0.37,-3.84,38.94,-4.96,1.26,47.37,3.35,-0.72,-7.41
-7,-8,201,-25,-339,3872,-0.15,-0.17,8.39,-0.25,-3.39,38.72,-4.96,1.24,47.33,3.43,-0.64,-7.57
-2,0,259,-68,-297,3899,-0.15,-0.15,9.13,-0.68,-2.97,38.99,-4.94,1.24,47.30,3.35,-0.77,-8.20
-2,0,292,-62,-257,3903,-0.15,-0.13,10.00,-0.62,-2.57,39.03,-4.93,1.24,47.25,3.33,-0.77,-8.64
-3,8,437,-63,-244,3907,-0.15,-0.07,11.66,-0.63,-2.44,39.07,-4.91,1.24,47.21,3.34,-0.91,-10.18
-3,15,477,-57,-240,3902,-0.15,0.03,13.41,-0.57,-2.40,39.02,-4.89,1.24,47.15,3.33,-1.05,-10.85
-18,8,633,-84,-387,3925,-0.25,0.07,15.93,-0.84,-3.87,39.25,-4.91,1.24,47.09,3.60,-0.97,-12.64
-20,7,655,-62,-352,3905,-0.34,0.11,18.33,-0.62,-3.52,39.05,-4.92,1.23,47.02,3.67,-0.96,-13.28
-3,15,707,-21,-411,3889,-0.33,0.19,20.81,-0.21,-4.11,38.89,-4.93,1.23,46.94,3.42,-1.11,-14.19
-16,24,727,-141,-380,3836,-0.39,0.32,23.16,-1.41,-3.80,38.36,-4.94,1.25,46.84,3.65,-1.31,-14.80
-11,7,768,-59,-459,3884,-0.42,0.33,25.53,-0.59,-4.59,38.84,-4.96,1.26,46.74,3.59,-1.06,-15.59
-19,15,775,-137,-376,3943,-0.49,0.39,27.71,-1.37,-3.76,39.43,-4.97,1.29,46.63,3.75,-1.22,-16.06
-7,20,769,-110,-416,3929,-0.49,0.47,29.63,-1.10,-4.16,39.29,-4.99,1.30,46.51,3.57,-1.33,-16.36
-10,16,749,-83,-401,3842,-0.50,0.52,31.23,-0.83,-4.01,38.42,-5.00,1.32,46.39,3.63,-1.30,-16.49
8,15,695,-76,-312,3832,-0.40,0.56,32.35,-0.76,-3.12,38.32,-4.99,1.32,46.26,3.31,-1.30,-16.23
-16,14,704,-18,-332,3909,-0.46,0.59,33.41,-0.18,-3.32,39.09,-4.98,1.32,46.13,3.70,-1.29,-16.50
-11,14,737,65,-393,3910,-0.48,0.62,34.56,0.65,-3.93,39.10,-4.99,1.31,45.99,3.63,-1.30,-16.99
-21,25,759,-44,-353,4021,-0.56,0.71,35.74,-0.44,-3.53,40.21,-4.99,1.31,45.85,3.81,-1.50,-17.39
-30,-1,898,-4,-343,3872,-0.69,0.63,37.64,-0.04,-3.43,38.72,-4.99,1.31,45.70,3.99,-1.07,-18.91
-19,17,952,-60,-356,3968,-0.73,0.67,39.68,-0.60,-3.56,39.68,-4.99,1.31,45.54,3.85,-1.36,-19.75
-10,-2,1054,30,-270,3890,-0.72,0.59,42.15,0.30,-2.70,38.90,-4.98,1.31,45.37,3.70,-1.04,-20.00
-22,-19,1065,84,-339,3934,-0.78,0.42,44.43,0.84,-3.39,39.34,-4.98,1.31,45.20,3.90,-0.72,-20.00
-19,-27,1017,-21,-315,3860,-0.82,0.21,46.19,-0.21,-3.15,38.60,-4.97,1.31,45.01,3.87,-0.52,-20.00
-33,-23,987,-28,-385,3787,-0.94,0.05,47.59,-0.28,-3.85,37.87,-4.99,1.31,44.82,4.13,-0.53,-20.00
-26,2,901,-143,-270,3849,-1.01,0.06,48.33,-1.43,-2.70,38.49,-4.97,1.34,44.63,4.04,-0.93,-20.00
-4,9,879,-136,-245,3885,-0.93,0.11,48.86,-1.36,-2.45,38.85,-4.95,1.36,44.44,3.66,-1.07,-20.00
-19,14,834,-97,-364,3846,-0.95,0.18,49.06,-0.97,-3.64,38.46,-4.97,1.38,44.24,3.91,-1.19,-20.00
-2,17,821,-101,-317,3895,-0.87,0.27,49.16,-1.01,-3.17,38.95,-4.95,1.41,44.04,3.61,-1.28,-20.00
-13,12,797,-123,-327,3862,-0.86,0.31,49.11,-1.23,-3.27,38.62,-4.95,1.44,43.85,3.77,-1.25,-20.00
-19,13,805,-71,-367,3909,-0.89,0.36,49.11,-0.71,-3.67,39.09,-4.96,1.45,43.65,3.88,-1.28,-20.00
1,25,836,-18,-448,3853,-0.80,0.48,49.29,-0.18,-4.48,38.53,-4.97,1.46,43.46,3.55,-1.51,-20.00
-23,10,837,-3,-518,3879,-0.86,0.49,49.47,-0.03,-5.18,38.79,-4.99,1.47,43.26,3.95,-1.30,-20.00
0,22,888,16,-221,3903,-0.77,0.58,49.94,0.16,-2.21,39.03,-4.97,1.47,43.06,3.56,-1.51,-20.00
-18,23,928,3,-319,3883,-0.80,0.66,50.61,0.03,-3.19,38.83,-4.97,1.48,42.86,3.84,-1.56,-20.00
-21,18,1107,-36,-269,3873,-0.85,0.70,52.30,-0.36,-2.69,38.73,-4.95,1.48,42.65,3.89,-1.50,-20.00
-23,28,1147,-39,-326,3938,-0.91,0.80,54.07,-0.39,-3.26,39.38,-4.94,1.49,42.44,3.94,-1.70,-20.00
-22,22,1222,-17,-350,3926,-0.95,0.86,56.11,-0.17,-3.50,39.26,-4.94,1.49,42.21,3.94,-1.63,-20.00
-16,26,1225,-69,-307,3919,-0.95,0.93,57.97,-0.69,-3.07,39.19,-4.93,1.50,41.98,3.84,-1.72,-20.00
-19,18,1154,-83,-336,3852,-0.97,0.95,59.22,-0.83,-3.36,38.52,-4.93,1.51,41.75,3.89,-1.61,-20.00
-17,21,1080,-76,-368,3947,-0.98,0.98,59.88,-0.76,-3.68,39.47,-4.94,1.52,41.51,3.87,-1.67,-20.00
-22,10,855,-124,-382,3911,-1.02,0.94,59.11,-1.24,-3.82,39.11,-4.96,1.55,41.27,3.97,-1.51,-20.00
-20,8,785,-104,-343,3894,-1.04,0.90,57.99,-1.04,-3.43,38.94,-4.97,1.57,41.04,3.95,-1.48,-20.00
-19,-11,556,27,-368,3907,-1.05,0.74,55.58,0.27,-3.68,39.07,-4.97,1.57,40.82,3.94,-1.14,-19.01
5,3,486,9,-379,3895,-0.91,0.68,52.99,0.09,-3.79,38.95,-4.98,1.58,40.61,3.53,-1.33,-17.90
-8,-8,275,40,-481,3903,-0.87,0.57,49.37,0.40,-4.81,39.03,-4.99,1.58,40.41,3.72,-1.13,-15.40
-5,-3,236,-22,-403,3983,-0.81,0.49,45.87,-0.22,-4.03,39.83,-4.99,1.59,40.23,3.66,-1.18,-14.39
-3,-15,121,-78,-451,3890,-0.75,0.35,42.02,-0.78,-4.51,38.90,-5.01,1.60,40.06,3.62,-0.95,-12.66
-11,-8,101,-97,-382,3870,-0.74,0.27,38.43,-0.97,-3.82,38.70,-5.03,1.61,39.91,3.75,-1.03,-11.79
1,7,41,-168,-414,3932,-0.66,0.28,34.84,-1.68,-4.14,39.32,-5.04,1.63,39.77,3.55,-1.29,-10.59
4,11,13,-226,-429,3919,-0.57,0.32,31.44,-2.26,-4.29,39.19,-5.05,1.66,39.65,3.48,-1.38,-9.69
4,15,-8,-142,-342,3902,-0.49,0.38,28.24,-1.42,-3.42,39.02,-5.05,1.69,39.54,3.44,-1.48,-8.89
5,16,-5,-77,-355,3901,-0.41,0.44,25.39,-0.77,-3.55,39.01,-5.05,1.68,39.43,3.40,-1.51,-8.36
4,9,-3,-50,-333,3888,-0.35,0.45,22.83,-0.50,-3.33,38.88,-5.05,1.67,39.34,3.39,-1.40,-7.88
3,7,1,-48,-347,3881,-0.29,0.45,20.55,-0.48,-3.47,38.81,-5.05,1.67,39.26,3.39,-1.37,-7.47
0,-2,3,-51,-358,3895,-0.26,0.39,18.52,-0.51,-3.58,38.95,-5.05,1.66,39.19,3.43,-1.20,-7.09
0,-1,4,-54,-355,3908,-0.24,0.35,16.69,-0.54,-3.55,39.08,-5.05,1.64,39.12,3.42,-1.19,-6.74
-1,9,18,-63,-375,3914,-0.22,0.37,15.13,-0.63,-3.75,39.14,-5.06,1.64,39.06,3.43,-1.35,-6.56
-2,8,23,-76,-374,3931,-0.21,0.38,13.76,-0.76,-3.74,39.31,-5.07,1.63,39.01,3.45,-1.33,-6.33
-2,7,37,-162,-379,3874,-0.20,0.38,12.61,-1.62,-3.79,38.74,-5.08,1.65,38.96,3.45,-1.33,-6.23
0,2,85,-196,-368,3866,-0.18,0.36,11.87,-1.96,-3.68,38.66,-5.08,1.67,38.91,3.42,-1.26,-6.49
0,1,156,-38,-272,3918,-0.16,0.33,11.63,-0.38,-2.72,39.18,-5.07,1.66,38.86,3.40,-1.23,-7.04
0,0,159,12,-318,3922,-0.15,0.30,11.44,0.12,-3.18,39.22,-5.06,1.65,38.82,3.39,-1.19,-7.03
-7,1,171,57,-369,3910,-0.17,0.27,11.34,0.57,-3.69,39.10,-5.07,1.64,38.77,3.51,-1.19,-7.11
-1,1,190,59,-336,3919,-0.16,0.25,11.36,0.59,-3.36,39.19,-5.06,1.62,38.73,3.42,-1.18,-7.27
-5,7,325,-50,-320,3919,-0.18,0.27,12.21,-0.50,-3.20,39.19,-5.06,1.61,38.68,3.48,-1.27,-8.57
0,14,371,-60,-278,3897,-0.16,0.33,13.25,-0.60,-2.78,38.97,-5.04,1.61,38.63,3.38,-1.39,-9.15
-13,15,569,-91,-309,3863,-0.22,0.39,15.40,-0.91,-3.09,38.63,-5.02,1.61,38.57,3.59,-1.43,-11.23
-8,20,635,-53,-278,3906,-0.25,0.47,17.73,-0.53,-2.78,39.06,-5.01,1.60,38.49,3.52,-1.53,-12.23
0,32,791,-39,-387,3864,-0.22,0.62,20.78,-0.39,-3.87,38.64,-5.02,1.60,38.41,3.39,-1.76,-14.13
4,29,812,-51,-423,3884,-0.18,0.73,23.66,-0.51,-4.23,38.84,-5.03,1.60,38.32,3.32,-1.76,-14.85
-20,17,747,6,-551,3856,-0.28,0.76,25.85,0.06,-5.51,38.56,-5.05,1.60,38.22,3.74,-1.59,-14.71
-12,19,718,17,-478,3912,-0.33,0.80,27.64,0.17,-4.78,39.12,-5.06,1.60,38.11,3.64,-1.63,-14.80
-3,16,655,-105,-544,3916,-0.31,0.82,28.87,-1.05,-5.44,39.16,-5.07,1.61,37.99,3.51,-1.60,-14.49
-27,3,631,-11,-527,3851,-0.45,0.76,29.84,-0.11,-5.27,38.51,-5.09,1.62,37.87,3.93,-1.38,-14.46
-20,5,570,-16,-463,3889,-0.52,0.71,30.33,-0.16,-4.63,38.89,-5.10,1.62,37.75,3.86,-1.40,-14.02
-9,8,549,-7,-465,3926,-0.53,0.69,30.65,-0.07,-4.65,39.26,-5.11,1.62,37.63,3.70,-1.44,-13.89
-14,-1,454,-40,-412,3897,-0.56,0.61,30.35,-0.40,-4.12,38.97,-5.12,1.62,37.51,3.79,-1.27,-13.02
-2,2,416,-38,-402,3889,-0.52,0.56,29.85,-0.38,-4.02,38.89,-5.13,1.62,37.39,3.60,-1.30,-12.60
-9,-6,264,-42,-281,3893,-0.52,0.47,28.48,-0.42,-2.81,38.93,-5.12,1.62,37.28,3.70,-1.15,-11.03
-3,-9,206,-97,-302,3907,-0.48,0.37,26.89,-0.97,-3.02,39.07,-5.10,1.63,37.17,3.58,-1.07,-10.23
-5,-9,144,-142,-273,3888,-0.47,0.28,25.08,-1.42,-2.73,38.88,-5.08,1.64,37.07,3.60,-1.05,-9.35
-7,-9,119,-127,-265,3916,-0.46,0.20,23.29,-1.27,-2.65,39.16,-5.06,1.65,36.98,3.61,-1.02,-8.79
-4,-10,45,-61,-358,3906,-0.44,0.11,21.24,-0.61,-3.58,39.06,-5.07,1.64,36.89,3.56,-0.97,-7.76
-1,-8,37,-53,-355,3893,-0.40,0.05,19.34,-0.53,-3.55,38.93,-5.07,1.63,36.82,3.50,-0.98,-7.32
0,-7,45,-46,-401,3920,-0.36,0.01,17.68,-0.46,-4.01,39.20,-5.08,1.63,36.75,3.48,-0.97,-7.07
-1,-6,49,-53,-416,3909,-0.33,-0.03,16.21,-0.53,-4.16,39.09,-5.09,1.62,36.68,3.50,-0.97,-6.81
1,-3,74,-6,-375,3890,-0.29,-0.05,15.04,-0.06,-3.75,38.90,-5.10,1.61,36.62,3.45,-1.00,-6.80
0,-3,81,-1,-419,3881,-0.26,-0.06,14.03,-0.01,-4.19,38.81,-5.11,1.60,36.57,3.47,-0.99,-6.66
-3,-8,119,213,-433,3928,-0.26,-0.10,13.36,2.13,-4.33,39.28,-5.11,1.58,36.51,3.51,-0.89,-6.85
-17,1,131,200,-399,3887,-0.33,-0.09,12.82,2.00,-3.99,38.87,-5.12,1.57,36.46,3.75,-1.02,-6.84
-3,10,132,-9,-335,3826,-0.32,-0.02,12.34,-0.09,-3.35,38.26,-5.11,1.56,36.41,3.53,-1.17,-6.75
-3,9,145,-17,-323,3913,-0.31,0.04,11.99,-0.17,-3.23,39.13,-5.11,1.54,36.37,3.53,-1.17,-6.79
4,18,154,-185,-201,3944,-0.25,0.15,11.73,-1.85,-2.01,39.44,-5.09,1.56,36.32,3.39,-1.35,-6.82
1,8,134,-284,-187,3977,-0.22,0.18,11.38,-2.84,-1.87,39.77,-5.08,1.57,36.27,3.41,-1.22,-6.57
0,-1,50,-299,-329,3926,-0.20,0.16,10.54,-2.99,-3.29,39.26,-5.08,1.60,36.23,3.42,-1.09,-5.70
1,0,31,-259,-384,3868,-0.17,0.14,9.68,-2.59,-3.84,38.68,-5.08,1.62,36.19,3.40,-1.12,-5.37
-2,-2,10,-126,-403,3909,-0.17,0.11,8.77,-1.26,-4.03,39.09,-5.10,1.63,36.16,3.45,-1.08,-5.02
-1,-2,5,-77,-394,3894,-0.16,0.09,7.93,-0.77,-3.94,38.94,-5.11,1.62,36.13,3.45,-1.07,-4.81
1,0,2,-42,-372,3915,-0.13,0.08,7.14,-0.42,-3.72,39.15,-5.12,1.60,36.10,3.41,-1.09,-4.63
0,0,-1,-64,-388,3911,-0.12,0.07,6.42,-0.64,-3.88,39.11,-5.13,1.59,36.07,3.43,-1.08,-4.47
-1,2,-1,-81,-380,3903,-0.11,0.08,5.78,-0.81,-3.80,39.03,-5.14,1.58,36.05,3.45,-1.10,-4.34
2,2,-2,-32,-362,3896,-0.09,0.08,5.19,-0.32,-3.62,38.96,-5.14,1.57,36.03,3.40,-1.09,-4.22
1,0,0,-24,-382,3887,-0.08,0.07,4.67,-0.24,-3.82,38.87,-5.15,1.55,36.01,3.41,-1.05,-4.13
0,-2,-1,-60,-389,3894,-0.07,0.05,4.19,-0.60,-3.89,38.94,-5.16,1.54,36.00,3.43,-1.00,-4.03
0,-1,0,-71,-385,3896,-0.06,0.04,3.78,-0.71,-3.85,38.96,-5.18,1.53,35.98,3.44,-1.01,-3.96
0,1,0,-65,-372,3893,-0.06,0.04,3.40,-0.65,-3.72,38.93,-5.18,1.51,35.97,3.44,-1.03,-3.89
0,1,1,-58,-368,3912,-0.05,0.05,3.06,-0.58,-3.68,39.12,-5.19,1.50,35.96,3.44,-1.02,-3.83
0,-1,1,-44,-362,3915,-0.04,0.04,2.76,-0.44,-3.62,39.15,-5.19,1.48,35.94,3.44,-0.97,-3.77
0,-1,-1,-47,-363,3896,-0.04,0.03,2.48,-0.47,-3.63,38.96,-5.19,1.46,35.93,3.44,-0.96,-3.70
0,0,0,-68,-366,3896,-0.04,0.02,2.23,-0.68,-3.66,38.96,-5.20,1.44,35.93,3.44,-0.96,-3.66
-1,0,0,-54,-374,3898,-0.04,0.02,2.01,-0.54,-3.74,38.98,-5.21,1.43,35.92,3.47,-0.95,-3.62
0,-1,1,-40,-377,3899,-0.03,0.01,1.81,-0.40,-3.77,38.99,-5.21,1.41,35.91,3.45,-0.92,-3.59
0,0,0,-49,-377,3891,-0.03,0.01,1.63,-0.49,-3.77,38.91,-5.22,1.40,35.90,3.46,-0.93,-3.54
0,-1,0,-62,-379,3899,-0.03,0.00,1.47,-0.62,-3.79,38.99,-5.23,1.38,35.90,3.46,-0.90,-3.51
0,-1,1,-54,-380,3901,-0.03,-0.00,1.33,-0.54,-3.80,39.01,-5.24,1.37,35.89,3.47,-0.89,-3.49
1,1,1,-43,-378,3891,-0.02,0.00,1.20,-0.43,-3.78,38.91,-5.25,1.35,35.89,3.45,-0.91,-3.47
0,0,1,-41,-370,3891,-0.02,0.00,1.09,-0.41,-3.70,38.91,-5.25,1.33,35.89,3.47,-0.88,-3.45
0,-1,0,-49,-366,3894,-0.01,-0.00,0.98,-0.49,-3.66,38.94,-5.25,1.31,35.88,3.47,-0.85,-3.42
1,-1,1,-55,-368,3907,-0.01,-0.01,0.89,-0.55,-3.68,39.07,-5.26,1.30,35.88,3.46,-0.84,-3.41
1,-1,0,-53,-375,3903,0.00,-0.01,0.80,-0.53,-3.75,39.03,-5.27,1.28,35.87,3.46,-0.83,-3.38
1,0,1,-49,-377,3902,0.01,-0.01,0.73,-0.49,-3.77,39.02,-5.27,1.26,35.87,3.46,-0.83,-3.38
1,0,1,-50,-371,3906,0.01,-0.01,0.66,-0.50,-3.71,39.06,-5.28,1.25,35.87,3.46,-0.82,-3.36
1,0,1,-60,-365,3894,0.02,-0.01,0.60,-0.60,-3.65,38.94,-5.28,1.23,35.87,3.46,-0.81,-3.35
0,1,1,-56,-364,3897,0.02,-0.00,0.55,-0.56,-3.64,38.97,-5.28,1.21,35.87,3.48,-0.81,-3.34
0,0,1,-61,-367,3899,0.01,-0.00,0.50,-0.61,-3.67,38.99,-5.29,1.19,35.86,3.49,-0.79,-3.33
0,0,0,-63,-364,3897,0.01,-0.00,0.45,-0.63,-3.64,38.97,-5.29,1.18,35.86,3.49,-0.78,-3.31
-1,-1,0,-50,-370,3900,0.01,-0.01,0.40,-0.50,-3.70,39.00,-5.30,1.16,35.86,3.51,-0.75,-3.30
-1,-1,0,-58,-373,3898,-0.00,-0.01,0.36,-0.58,-3.73,38.98,-5.31,1.14,35.86,3.52,-0.73,-3.30
-1,-1,0,-55,-378,3899,-0.01,-0.02,0.33,-0.55,-3.78,38.99,-5.32,1.13,35.86,3.53,-0.72,-3.29
-1,0,0,-44,-375,3898,-0.01,-0.02,0.29,-0.44,-3.75,38.98,-5.32,1.11,35.86,3.53,-0.73,-3.28
0,0,1,-58,-366,3906,-0.01,-0.01,0.27,-0.58,-3.66,39.06,-5.33,1.09,35.86,3.52,-0.72,-3.29
0,0,0,-62,-360,3903,-0.01,-0.01,0.24,-0.62,-3.60,39.03,-5.32,1.07,35.85,3.51,-0.70,-3.27
0,0,1,-60,-370,3893,-0.01,-0.01,0.22,-0.60,-3.70,38.93,-5.33,1.06,35.85,3.52,-0.69,-3.28
0,0,1,-59,-371,3900,-0.01,-0.01,0.21,-0.59,-3.71,39.00,-5.34,1.04,35.85,3.53,-0.68,-3.28
-1,0,1,-55,-377,3901,-0.01,-0.01,0.19,-0.55,-3.77,39.01,-5.35,1.03,35.85,3.55,-0.67,-3.27
0,0,1,-50,-369,3900,-0.01,-0.01,0.18,-0.50,-3.69,39.00,-5.35,1.01,35.85,3.54,-0.66,-3.27
0,-1,2,-53,-369,3897,-0.01,-0.01,0.17,-0.53,-3.69,38.97,-5.36,0.99,35.85,3.54,-0.63,-3.28
0,0,1,-57,-372,3902,-0.01,-0.01,0.16,-0.57,-3.72,39.02,-5.37,0.98,35.85,3.54,-0.64,-3.27
0,0,1,-56,-371,3877,-0.01,-0.01,0.15,-0.56,-3.71,38.77,-5.38,0.96,35.85,3.55,-0.63,-3.26
0,0,0,-53,-374,3897,-0.01,-0.01,0.14,-0.53,-3.74,38.97,-5.38,0.94,35.85,3.56,-0.62,-3.25
0,0,0,-51,-381,3916,-0.01,-0.01,0.12,-0.51,-3.81,39.16,-5.40,0.93,35.85,3.56,-0.61,-3.25
-1,0,0,-56,-384,3900,-0.01,-0.01,0.11,-0.56,-3.84,39.00,-5.41,0.92,35.85,3.59,-0.61,-3.25
0,-1,2,-52,-384,3889,-0.01,-0.01,0.11,-0.52,-3.84,38.89,-5.43,0.91,35.85,3.59,-0.58,-3.26
0,0,1,-60,-383,3900,-0.01,-0.01,0.11,-0.60,-3.83,39.00,-5.45,0.91,35.85,3.60,-0.60,-3.26
0,0,0,-59,-378,3889,-0.01,-0.01,0.10,-0.59,-3.78,38.89,-5.46,0.90,35.85,3.61,-0.59,-3.24
0,0,1,-49,-371,3900,-0.01,-0.01,0.09,-0.49,-3.71,39.00,-5.46,0.88,35.85,3.61,-0.58,-3.25
0,1,1,-45,-375,3896,-0.01,-0.00,0.09,-0.45,-3.75,38.96,-5.46,0.87,35.85,3.61,-0.59,-3.25
0,1,0,-39,-373,3899,-0.01,0.00,0.08,-0.39,-3.73,38.99,-5.46,0.85,35.85,3.61,-0.58,-3.24
0,0,0,-50,-369,3902,-0.01,0.00,0.07,-0.50,-3.69,39.02,-5.45,0.83,35.85,3.60,-0.55,-3.24
0,0,0,-58,-377,3891,-0.01,0.00,0.07,-0.58,-3.77,38.91,-5.47,0.84,35.85,3.61,-0.55,-3.24
0,0,0,-50,-365,3902,-0.00,0.00,0.06,-0.50,-3.65,39.02,-5.46,0.82,35.85,3.60,-0.54,-3.24
0,0,0,-46,-365,3886,-0.00,0.00,0.05,-0.46,-3.65,38.86,-5.45,0.81,35.85,3.60,-0.53,-3.24
0,-1,1,-48,-378,3891,-0.00,-0.00,0.05,-0.48,-3.78,38.91,-5.46,0.80,35.85,3.61,-0.51,-3.24
0,0,0,-54,-380,3897,-0.00,-0.00,0.05,-0.54,-3.80,38.97,-5.48,0.79,35.85,3.62,-0.52,-3.24
0,0,0,-53,-379,3900,-0.00,-0.00,0.04,-0.53,-3.79,39.00,-5.50,0.79,35.85,3.63,-0.52,-3.23
0,0,1,-55,-380,3885,-0.00,-0.00,0.05,-0.55,-3.80,38.85,-5.52,0.79,35.85,3.64,-0.52,-3.24
0,0,0,-59,-381,3896,-0.00,-0.00,0.04,-0.59,-3.81,38.96,-5.53,0.81,35.85,3.65,-0.53,-3.23
0,0,0,-51,-374,3898,-0.00,-0.00,0.04,-0.51,-3.74,38.98,-5.52,0.79,35.85,3.64,-0.52,-3.23
0,0,1,-55,-377,3904,-0.00,-0.00,0.04,-0.55,-3.77,39.04,-5.52,0.81,35.85,3.64,-0.53,-3.24
0,0,1,-50,-373,3892,-0.00,-0.00,0.04,-0.50,-3.73,38.92,-5.51,0.79,35.85,3.64,-0.52,-3.24
0,0,0,-44,-372,3910,-0.00,-0.00,0.04,-0.44,-3.72,39.10,-5.50,0.78,35.85,3.63,-0.51,-3.23
0,0,0,-53,-371,3902,-0.00,-0.00,0.03,-0.53,-3.71,39.02,-5.48,0.78,35.85,3.62,-0.51,-3.23
-1,0,1,-53,-359,3901,-0.01,-0.00,0.04,-0.53,-3.59,39.01,-5.46,0.78,35.85,3.62,-0.51,-3.24
0,0,1,-54,-363,3902,-0.01,-0.00,0.04,-0.54,-3.63,39.02,-5.44,0.78,35.84,3.60,-0.51,-3.24
1,-1,0,-54,-380,3912,0.00,-0.01,0.03,-0.54,-3.80,39.12,-5.46,0.78,35.84,3.59,-0.50,-3.23
1,-1,1,-61,-384,3898,0.01,-0.01,0.04,-0.61,-3.84,38.98,-5.48,0.79,35.84,3.60,-0.50,-3.24
1,0,0,-47,-372,3903,0.01,-0.01,0.03,-0.47,-3.72,39.03,-5.47,0.77,35.84,3.59,-0.51,-3.23
1,-1,0,-52,-377,3892,0.02,-0.02,0.03,-0.52,-3.77,38.92,-5.49,0.77,35.84,3.60,-0.49,-3.23
0,0,0,-54,-375,3896,0.01,-0.01,0.03,-0.54,-3.75,38.96,-5.50,0.79,35.84,3.62,-0.51,-3.23
1,0,1,-57,-378,3895,0.02,-0.01,0.03,-0.57,-3.78,38.95,-5.51,0.80,35.84,3.61,-0.52,-3.24
1,-1,0,-53,-377,3905,0.02,-0.02,0.03,-0.53,-3.77,39.05,-5.51,0.78,35.84,3.61,-0.49,-3.23
1,-1,0,-57,-373,3904,0.03,-0.02,0.02,-0.57,-3.73,39.04,-5.50,0.79,35.84,3.60,-0.50,-3.23
0,0,0,-57,-364,3904,0.02,-0.02,0.02,-0.57,-3.64,39.04,-5.48,0.80,35.84,3.61,-0.52,-3.23
1,0,0,-64,-369,3902,0.03,-0.02,0.02,-0.64,-3.69,39.02,-5.47,0.81,35.84,3.59,-0.53,-3.23
0,0,0,-57,-377,3902,0.03,-0.02,0.02,-0.57,-3.77,39.02,-5.49,0.82,35.84,3.61,-0.54,-3.23
1,0,0,-51,-372,3903,0.03,-0.01,0.02,-0.51,-3.72,39.03,-5.48,0.80,35.84,3.59,-0.53,-3.23
1,-1,1,-50,-373,3898,0.03,-0.02,0.02,-0.50,-3.73,38.98,-5.48,0.79,35.84,3.59,-0.50,-3.24
1,-1,2,-54,-376,3897,0.04,-0.02,0.03,-0.54,-3.76,38.97,-5.49,0.79,35.84,3.60,-0.50,-3.25
0,0,0,-53,-371,3898,0.03,-0.02,0.03,-0.53,-3.71,38.98,-5.48,0.78,35.84,3.60,-0.51,-3.23
0,-1,0,-60,-378,3903,0.03,-0.03,0.03,-0.60,-3.78,39.03,-5.49,0.80,35.84,3.61,-0.50,-3.23
0,0,0,-54,-372,3897,0.03,-0.02,0.02,-0.54,-3.72,38.97,-5.47,0.79,35.84,3.60,-0.52,-3.23
0,0,0,-54,-370,3907,0.02,-0.02,0.02,-0.54,-3.70,39.07,-5.45,0.79,35.84,3.59,-0.52,-3.23
0,-1,1,-48,-367,3893,0.02,-0.02,0.02,-0.48,-3.67,38.93,-5.44,0.78,35.84,3.58,-0.49,-3.24
0,-2,1,-60,-371,3894,0.02,-0.03,0.03,-0.60,-3.71,38.94,-5.44,0.80,35.84,3.58,-0.48,-3.24
0,-1,1,-54,-375,3898,0.02,-0.04,0.03,-0.54,-3.75,38.98,-5.46,0.79,35.84,3.60,-0.50,-3.24
0,0,0,-61,-375,3895,0.02,-0.03,0.03,-0.61,-3.75,38.95,-5.46,0.81,35.84,3.60,-0.52,-3.23
1,-1,1,-51,-372,3889,0.02,-0.04,0.03,-0.51,-3.72,38.89,-5.46,0.79,35.84,3.58,-0.49,-3.24
1,-3,0,-31,-373,3856,0.02,-0.05,0.03,-0.31,-3.73,38.56,-5.47,0.77,35.84,3.58,-0.45,-3.23
-3,-13,-5,-47,-354,3872,0.00,-0.12,-0.01,-0.47,-3.54,38.72,-5.45,0.77,35.84,3.64,-0.26,-3.18
-4,-10,-6,21,-372,3872,-0.02,-0.17,-0.04,0.21,-3.72,38.72,-5.45,0.75,35.84,3.67,-0.28,-3.17
2,-9,-10,-166,-491,3853,-0.01,-0.21,-0.10,-1.66,-4.91,38.53,-5.46,0.76,35.84,3.58,-0.29,-3.12
-6,-9,-23,-71,-514,3916,-0.04,-0.24,-0.23,-0.71,-5.14,39.16,-5.48,0.76,35.84,3.73,-0.28,-2.99
-7,-19,-5,-57,-288,3948,-0.08,-0.34,-0.24,-0.57,-2.88,39.48,-5.46,0.76,35.84,3.74,-0.09,-3.14
-3,-15,-3,-88,-355,3961,-0.09,-0.39,-0.23,-0.88,-3.55,39.61,-5.45,0.77,35.84,3.68,-0.14,-3.16
1,1,-3,-71,-371,3911,-0.08,-0.35,-0.23,-0.71,-3.71,39.11,-5.45,0.79,35.85,3.61,-0.41,-3.16
-1,4,0,-79,-385,3904,-0.07,-0.29,-0.20,-0.79,-3.85,39.04,-5.46,0.81,35.85,3.65,-0.49,-3.19
4,7,-1,-112,-379,3939,-0.04,-0.22,-0.19,-1.12,-3.79,39.39,-5.46,0.82,35.85,3.56,-0.57,-3.18
3,7,0,-86,-380,3923,-0.02,-0.15,-0.17,-0.86,-3.80,39.23,-5.47,0.84,35.85,3.57,-0.61,-3.19
2,5,7,-19,-379,3850,-0.01,-0.11,-0.11,-0.19,-3.79,38.50,-5.47,0.82,35.85,3.58,-0.58,-3.26
2,3,3,-38,-373,3878,0.01,-0.08,-0.08,-0.38,-3.73,38.78,-5.47,0.80,35.85,3.58,-0.55,-3.24
7,5,25,-44,-386,3888,0.05,-0.04,0.08,-0.44,-3.86,38.88,-5.49,0.79,35.85,3.50,-0.59,-3.45
-1,5,26,-39,-318,3913,0.04,-0.01,0.23,-0.39,-3.18,39.13,-5.47,0.79,35.85,3.61,-0.59,-3.49
4,1,18,-32,-418,3910,0.06,0.00,0.32,-0.32,-4.18,39.10,-5.48,0.78,35.85,3.54,-0.53,-3.44
3,-1,11,-54,-385,3902,0.07,-0.01,0.35,-0.54,-3.85,39.02,-5.50,0.78,35.85,3.56,-0.50,-3.39
8,-7,32,-154,-220,3854,0.11,-0.05,0.51,-1.54,-2.20,38.54,-5.49,0.79,35.84,3.46,-0.40,-3.59
-10,-18,57,-116,-253,3902,0.04,-0.15,0.81,-1.16,-2.53,39.02,-5.47,0.80,35.84,3.75,-0.20,-3.86
-1,-8,91,-17,-405,3888,0.03,-0.19,1.28,-0.17,-4.05,38.88,-5.48,0.79,35.83,3.62,-0.33,-4.24
2,-2,89,-31,-467,3933,0.04,-0.18,1.70,-0.31,-4.67,39.33,-5.50,0.78,35.83,3.58,-0.42,-4.30
-3,-4,32,-22,-446,3906,0.02,-0.19,1.72,-0.22,-4.46,39.06,-5.52,0.77,35.82,3.68,-0.38,-3.82
-3,-1,17,-47,-382,3911,-0.00,-0.17,1.65,-0.47,-3.82,39.11,-5.53,0.76,35.81,3.69,-0.42,-3.68
-4,-1,61,-251,-352,3863,-0.03,-0.16,1.86,-2.51,-3.52,38.63,-5.52,0.78,35.81,3.72,-0.44,-4.10
-7,-1,106,-289,-317,3867,-0.07,-0.15,2.32,-2.89,-3.17,38.67,-5.52,0.79,35.80,3.77,-0.46,-4.56
-7,-6,291,-186,-453,3880,-0.10,-0.17,3.86,-1.86,-4.53,38.80,-5.53,0.81,35.78,3.79,-0.38,-6.42
-14,-7,324,-84,-479,3857,-0.18,-0.20,5.45,-0.84,-4.79,38.57,-5.55,0.82,35.76,3.94,-0.36,-7.01
-12,1,388,98,-467,3916,-0.23,-0.17,7.28,0.98,-4.67,39.16,-5.56,0.80,35.73,3.93,-0.48,-7.89
-13,13,386,90,-505,3904,-0.29,-0.08,8.90,0.90,-5.05,39.04,-5.57,0.79,35.70,3.98,-0.69,-8.18
-12,16,410,159,-372,3935,-0.33,0.03,10.51,1.59,-3.72,39.35,-5.57,0.78,35.65,3.98,-0.77,-8.69
2,20,429,161,-430,3945,-0.29,0.15,12.08,1.61,-4.30,39.45,-5.57,0.77,35.61,3.75,-0.86,-9.15
-17,9,563,33,-273,3923,-0.36,0.19,14.31,0.33,-2.73,39.23,-5.56,0.76,35.55,4.06,-0.71,-10.70
-30,15,641,44,-390,3843,-0.51,0.26,16.79,0.44,-3.90,38.43,-5.56,0.75,35.48,4.31,-0.82,-11.83
-5,18,644,31,-452,3920,-0.49,0.34,19.03,0.31,-4.52,39.20,-5.58,0.75,35.41,3.93,-0.89,-12.28
2,10,633,46,-471,3935,-0.43,0.37,20.99,0.46,-4.71,39.35,-5.59,0.74,35.32,3.81,-0.77,-12.55
-17,2,654,-180,-434,3854,-0.49,0.35,22.88,-1.80,-4.34,38.54,-5.60,0.77,35.23,4.13,-0.66,-13.09
-21,2,668,-295,-431,3856,-0.57,0.32,24.67,-2.95,-4.31,38.56,-5.60,0.80,35.14,4.22,-0.67,-13.54
-7,5,710,-135,-338,3864,-0.55,0.32,26.53,-1.35,-3.38,38.64,-5.59,0.83,35.03,4.00,-0.74,-14.24
-24,-7,709,-96,-361,3965,-0.65,0.25,28.20,-0.96,-3.61,39.65,-5.59,0.85,34.92,4.28,-0.54,-14.54
-15,10,681,-47,-364,3873,-0.67,0.28,29.54,-0.47,-3.64,38.73,-5.57,0.85,34.80,4.15,-0.82,-14.55
-16,13,677,-38,-258,3930,-0.70,0.33,30.71,-0.38,-2.58,39.30,-5.55,0.86,34.68,4.16,-0.89,-14.73
-12,14,655,-95,-223,3861,-0.71,0.39,31.64,-0.95,-2.23,38.61,-5.54,0.88,34.55,4.09,-0.93,-14.71
-8,14,665,-52,-253,3885,-0.68,0.43,32.53,-0.52,-2.53,38.85,-5.52,0.90,34.42,4.01,-0.96,-14.95
-7,12,698,-14,-328,3894,-0.66,0.46,33.54,-0.14,-3.28,38.94,-5.51,0.90,34.29,3.98,-0.94,-15.41
-5,16,697,-92,-383,3848,-0.62,0.51,34.43,-0.92,-3.83,38.48,-5.51,0.93,34.15,3.94,-1.04,-15.56
-9,13,713,-193,-529,3915,-0.62,0.54,35.34,-1.93,-5.29,39.15,-5.53,0.96,34.01,4.01,-1.02,-15.86
-11,3,719,-170,-471,3949,-0.62,0.51,36.19,-1.70,-4.71,39.49,-5.54,0.99,33.87,4.05,-0.88,-16.06
-17,13,739,-117,-513,3894,-0.66,0.53,37.08,-1.17,-5.13,38.94,-5.56,1.01,33.72,4.16,-1.06,-16.38
-5,8,750,-44,-507,4000,-0.63,0.53,37.95,-0.44,-5.07,40.00,-5.58,1.02,33.57,3.98,-0.99,-16.63
-23,21,802,-93,-528,3952,-0.70,0.61,39.04,-0.93,-5.28,39.52,-5.59,1.04,33.41,4.29,-1.22,-17.26
0,24,819,-31,-525,3861,-0.63,0.69,40.14,-0.31,-5.25,38.61,-5.61,1.06,33.26,3.93,-1.31,-17.60
-20,26,903,-41,-551,3842,-0.69,0.78,41.63,-0.41,-5.51,38.42,-5.63,1.07,33.09,4.27,-1.38,-18.58
-14,24,956,-15,-479,3892,-0.71,0.85,43.30,-0.15,-4.79,38.92,-5.64,1.08,32.92,4.19,-1.38,-19.34
-5,33,1062,44,-490,3858,-0.67,0.97,45.45,0.44,-4.90,38.58,-5.66,1.09,32.74,4.05,-1.57,-20.00
-32,24,1084,60,-496,3897,-0.80,1.02,47.52,0.60,-4.96,38.97,-5.67,1.10,32.55,4.51,-1.45,-20.00
-6,16,1125,19,-463,3935,-0.75,1.01,49.63,0.19,-4.63,39.35,-5.68,1.11,32.35,4.11,-1.34,-20.00
-19,14,1144,1,-432,3767,-0.79,1.00,51.64,0.01,-4.32,37.67,-5.69,1.12,32.15,4.33,-1.31,-20.00
-7,15,1193,-114,-344,3974,-0.76,0.99,53.76,-1.14,-3.44,39.74,-5.67,1.16,31.93,4.12,-1.34,-20.00
-20,-3,1207,-230,-329,3817,-0.80,0.87,55.74,-2.30,-3.29,38.17,-5.66,1.20,31.71,4.33,-1.05,-20.00
-9,25,1208,-90,-314,3843,-0.78,0.94,57.54,-0.90,-3.14,38.43,-5.64,1.23,31.48,4.14,-1.52,-20.00
-24,14,1202,-138,-339,3895,-0.85,0.93,59.12,-1.38,-3.39,38.95,-5.63,1.27,31.25,4.38,-1.38,-20.00
-16,26,1118,-27,-306,3930,-0.86,0.99,60.02,-0.27,-3.06,39.30,-5.61,1.28,31.01,4.26,-1.60,-20.00
-8,29,1046,-13,-386,3933,-0.82,1.07,60.40,-0.13,-3.86,39.33,-5.61,1.29,30.77,4.12,-1.68,-20.00
-12,45,890,-100,-419,3854,-0.81,1.24,59.79,-1.00,-4.19,38.54,-5.63,1.33,30.53,4.19,-2.00,-20.00
-18,17,849,-68,-385,3982,-0.84,1.22,58.99,-0.68,-3.85,39.82,-5.62,1.34,30.30,4.28,-1.58,-20.00
-16,13,674,-19,-289,3859,-0.86,1.18,57.20,-0.19,-2.89,38.59,-5.60,1.35,30.07,4.25,-1.51,-19.35
-5,25,641,6,-285,3920,-0.80,1.21,55.39,0.06,-2.85,39.20,-5.59,1.37,29.85,4.05,-1.71,-18.70
-14,3,500,-20,-228,3887,-0.81,1.11,52.90,-0.20,-2.28,38.87,-5.57,1.38,29.64,4.18,-1.35,-17.01
-14,14,477,-74,-240,3851,-0.81,1.08,50.52,-0.74,-2.40,38.51,-5.55,1.41,29.44,4.17,-1.53,-16.35
-2,4,373,-168,-213,3897,-0.74,1.00,47.75,-1.68,-2.13,38.97,-5.53,1.44,29.25,3.95,-1.36,-14.92
-8,-7,339,-113,-237,3903,-0.72,0.86,45.04,-1.13,-2.37,39.03,-5.51,1.46,29.07,4.01,-1.16,-14.10
-6,6,251,-118,-276,3894,-0.68,0.81,42.07,-1.18,-2.76,38.94,-5.49,1.48,28.90,3.96,-1.36,-12.77
0,1,217,1,-341,3922,-0.61,0.73,39.18,0.01,-3.41,39.22,-5.48,1.48,28.74,3.84,-1.25,-11.91
-5,3,156,-64,-494,3906,-0.58,0.68,36.22,-0.64,-4.94,39.06,-5.50,1.49,28.60,3.91,-1.27,-10.82
-2,3,141,-79,-424,3929,-0.54,0.63,33.46,-0.79,-4.24,39.29,-5.52,1.50,28.47,3.86,-1.26,-10.15
-5,0,131,-55,-420,3909,-0.51,0.57,30.91,-0.55,-4.20,39.09,-5.53,1.50,28.34,3.91,-1.19,-9.57
-1,8,142,-55,-350,3857,-0.47,0.56,28.68,-0.55,-3.50,38.57,-5.52,1.50,28.23,3.82,-1.31,-9.23
-2,0,140,-92,-383,3898,-0.43,0.50,26.67,-0.92,-3.83,38.98,-5.53,1.49,28.12,3.83,-1.16,-8.81
-2,5,146,-76,-329,3912,-0.40,0.48,24.89,-0.76,-3.29,39.12,-5.51,1.50,28.03,3.81,-1.24,-8.52
-4,11,180,-50,-417,3930,-0.39,0.50,23.50,-0.50,-4.17,39.30,-5.52,1.49,27.93,3.84,-1.33,-8.53
-10,-8,182,-43,-446,3924,-0.41,0.40,22.26,-0.43,-4.46,39.24,-5.53,1.49,27.84,3.95,-1.00,-8.30
-6,3,212,-45,-460,3855,-0.40,0.38,21.33,-0.45,-4.60,38.55,-5.55,1.49,27.76,3.90,-1.16,-8.37
-3,4,234,-107,-430,3908,-0.38,0.37,20.62,-1.07,-4.30,39.08,-5.56,1.50,27.68,3.85,-1.18,-8.41
-7,6,306,-48,-393,3902,-0.39,0.37,20.43,-0.48,-3.93,39.02,-5.57,1.49,27.60,3.92,-1.21,-8.98
-1,11,341,-101,-370,3891,-0.35,0.40,20.47,-1.01,-3.70,38.91,-5.55,1.50,27.52,3.80,-1.30,-9.28
-10,9,435,16,-485,3840,-0.38,0.41,21.07,0.16,-4.85,38.40,-5.56,1.50,27.43,3.96,-1.27,-10.18
2,19,446,-35,-462,3915,-0.33,0.49,21.69,-0.35,-4.62,39.15,-5.57,1.50,27.35,3.77,-1.45,-10.38
-4,20,482,-11,-496,3875,-0.32,0.56,22.46,-0.11,-4.96,38.75,-5.59,1.50,27.26,3.86,-1.49,-10.83
-16,20,495,26,-476,3860,-0.39,0.63,23.23,0.26,-4.76,38.60,-5.60,1.49,27.17,4.08,-1.51,-11.08
-3,11,606,-123,-480,3833,-0.37,0.63,24.60,-1.23,-4.80,38.33,-5.61,1.51,27.07,3.88,-1.39,-12.27
-4,15,638,-81,-404,3929,-0.35,0.66,26.04,-0.81,-4.04,39.29,-5.62,1.51,26.96,3.90,-1.46,-12.81
-14,0,717,-27,-402,3930,-0.40,0.59,27.81,-0.27,-4.02,39.30,-5.63,1.50,26.85,4.07,-1.20,-13.81
-17,17,737,-17,-407,3867,-0.47,0.64,29.52,-0.17,-4.07,38.67,-5.63,1.50,26.74,4.14,-1.48,-14.29
-17,12,705,9,-366,3970,-0.52,0.65,30.87,0.09,-3.66,39.70,-5.63,1.50,26.61,4.16,-1.40,-14.27
-4,20,694,-50,-375,3869,-0.50,0.70,32.02,-0.50,-3.75,38.69,-5.62,1.49,26.49,3.95,-1.54,-14.38
-8,21,655,-124,-368,3879,-0.50,0.76,32.81,-1.24,-3.68,38.79,-5.61,1.52,26.36,4.00,-1.60,-14.19
-2,19,641,-193,-273,3891,-0.46,0.80,33.44,-1.93,-2.73,38.91,-5.59,1.55,26.22,3.89,-1.60,-14.18
-15,17,601,-176,-424,3918,-0.50,0.83,33.76,-1.76,-4.24,39.18,-5.60,1.58,26.09,4.11,-1.60,-13.89
-12,20,584,-126,-357,3909,-0.53,0.86,33.95,-1.26,-3.57,39.09,-5.59,1.61,25.95,4.06,-1.68,-13.77
-2,20,484,-5,-397,3896,-0.49,0.90,33.51,-0.05,-3.97,38.96,-5.59,1.61,25.82,3.89,-1.69,-12.83
-3,17,454,-64,-417,3893,-0.46,0.91,32.92,-0.64,-4.17,38.93,-5.60,1.61,25.69,3.90,-1.65,-12.45
3,18,394,-160,-424,3887,-0.39,0.93,32.03,-1.60,-4.24,38.87,-5.61,1.64,25.56,3.79,-1.69,-11.76
-3,10,370,-95,-400,3846,-0.37,0.90,31.09,-0.95,-4.00,38.46,-5.62,1.65,25.44,3.89,-1.56,-11.37
-3,8,299,-140,-392,3921,-0.35,0.86,29.80,-1.40,-3.92,39.21,-5.62,1.68,25.32,3.88,-1.54,-10.51
-1,5,278,-103,-427,3888,-0.32,0.80,28.52,-1.03,-4.27,38.88,-5.64,1.69,25.21,3.85,-1.48,-10.07
-7,1,214,-68,-422,3906,-0.33,0.73,26.97,-0.68,-4.22,39.06,-5.65,1.69,25.10,3.95,-1.39,-9.23
-4,0,199,-76,-412,3911,-0.32,0.66,25.49,-0.76,-4.12,39.11,-5.65,1.69,25.00,3.91,-1.35,-8.81
-6,6,177,-131,-366,3885,-0.33,0.63,24.02,-1.31,-3.66,38.85,-5.64,1.71,24.91,3.93,-1.44,-8.33
-8,2,183,-225,-368,3816,-0.34,0.58,22.73,-2.25,-3.68,38.16,-5.64,1.74,24.82,3.96,-1.38,-8.13
-4,-8,238,-107,-446,3954,-0.33,0.47,21.91,-1.07,-4.46,39.54,-5.65,1.75,24.73,3.91,-1.20,-8.43
2,-7,261,-49,-457,3892,-0.29,0.38,21.31,-0.49,-4.57,38.92,-5.66,1.74,24.65,3.81,-1.18,-8.50
-11,12,326,111,-489,3929,-0.33,0.42,21.17,1.11,-4.89,39.29,-5.67,1.74,24.56,4.03,-1.48,-9.02
-5,25,354,46,-496,3876,-0.32,0.53,21.21,0.46,-4.96,38.76,-5.68,1.73,24.48,3.94,-1.71,-9.26
-4,23,435,-48,-593,3835,-0.32,0.61,21.75,-0.48,-5.93,38.35,-5.69,1.74,24.39,3.93,-1.72,-10.04
-6,23,449,-48,-600,3871,-0.32,0.69,22.31,-0.48,-6.00,38.71,-5.71,1.74,24.30,3.98,-1.75,-10.25
-5,17,517,-59,-654,3906,-0.32,0.73,23.23,-0.59,-6.54,39.06,-5.73,1.75,24.21,3.97,-1.67,-11.00
-5,15,542,-22,-679,3845,-0.32,0.75,24.22,-0.22,-6.79,38.45,-5.74,1.76,24.12,3.98,-1.65,-11.39
-14,21,625,2,-643,3865,-0.37,0.80,25.61,0.02,-6.43,38.65,-5.76,1.76,24.01,4.15,-1.77,-12.35
-11,12,635,-22,-573,3922,-0.40,0.79,26.92,-0.22,-5.73,39.22,-5.77,1.77,23.91,4.12,-1.63,-12.68
-10,17,667,-28,-421,3913,-0.42,0.82,28.30,-0.28,-4.21,39.13,-5.77,1.76,23.80,4.11,-1.71,-13.20
-15,15,671,-11,-378,3906,-0.47,0.83,29.56,-0.11,-3.78,39.06,-5.77,1.76,23.68,4.21,-1.69,-13.47
-9,9,662,-47,-218,3895,-0.48,0.80,30.64,-0.47,-2.18,38.95,-5.75,1.77,23.56,4.10,-1.59,-13.58
-24,9,646,-39,-176,3910,-0.58,0.77,31.52,-0.39,-1.76,39.10,-5.73,1.78,23.43,4.36,-1.59,-13.61
-11,19,556,-124,-202,3829,-0.59,0.81,31.76,-1.24,-2.02,38.29,-5.71,1.80,23.30,4.15,-1.76,-12.88
-8,23,538,-146,-281,3910,-0.58,0.87,31.86,-1.46,-2.81,39.10,-5.69,1.82,23.18,4.09,-1.86,-12.73
-17,13,476,-136,-360,3936,-0.62,0.86,31.58,-1.36,-3.60,39.36,-5.67,1.84,23.05,4.23,-1.72,-12.14
-6,9,459,-182,-394,3874,-0.60,0.83,31.22,-1.82,-3.94,38.74,-5.68,1.87,22.93,4.05,-1.67,-11.92
-10,9,417,-27,-469,3874,-0.60,0.80,30.64,-0.27,-4.69,38.74,-5.69,1.87,22.81,4.12,-1.66,-11.44
-17,6,417,6,-471,3952,-0.64,0.76,30.12,0.06,-4.71,39.52,-5.69,1.87,22.69,4.25,-1.60,-11.33
-10,11,501,-42,-474,3923,-0.64,0.75,30.17,-0.42,-4.74,39.23,-5.71,1.87,22.57,4.15,-1.67,-12.04
-9,18,536,-19,-491,3838,-0.63,0.79,30.42,-0.19,-4.91,38.38,-5.72,1.88,22.45,4.13,-1.79,-12.37
-10,19,674,-14,-526,3887,-0.63,0.82,31.49,-0.14,-5.26,38.87,-5.73,1.88,22.32,4.16,-1.82,-13.74
-14,23,739,-105,-552,3814,-0.65,0.88,32.85,-1.05,-5.52,38.14,-5.75,1.89,22.19,4.24,-1.91,-14.54
-12,4,869,-118,-534,3866,-0.66,0.82,34.86,-1.18,-5.34,38.66,-5.76,1.91,22.05,4.22,-1.61,-16.01
-4,12,881,-138,-540,3811,-0.62,0.81,36.75,-1.38,-5.40,38.11,-5.78,1.93,21.91,4.09,-1.74,-16.46
-18,16,895,66,-456,3984,-0.67,0.83,38.54,0.66,-4.56,39.84,-5.78,1.93,21.76,4.33,-1.81,-16.91
-6,5,880,52,-456,3946,-0.64,0.77,40.05,0.52,-4.56,39.46,-5.78,1.93,21.60,4.13,-1.63,-17.05
-13,10,758,-15,-388,3910,-0.65,0.76,40.67,-0.15,-3.88,39.10,-5.78,1.93,21.44,4.24,-1.70,-16.12
-16,8,713,-14,-298,3840,-0.68,0.73,40.95,-0.14,-2.98,38.40,-5.76,1.94,21.27,4.29,-1.66,-15.78
-4,10,572,-7,-327,3978,-0.64,0.72,40.35,-0.07,-3.27,39.78,-5.75,1.94,21.11,4.09,-1.69,-14.46
-17,12,551,-43,-145,3872,-0.68,0.72,39.67,-0.43,-1.45,38.72,-5.73,1.95,20.95,4.28,-1.73,-14.14
-7,15,471,-203,-195,3847,-0.65,0.74,38.58,-2.03,-1.95,38.47,-5.71,1.98,20.80,4.11,-1.80,-13.24
-5,-8,412,-138,-220,3880,-0.62,0.62,37.23,-1.38,-2.20,38.80,-5.69,2.00,20.65,4.05,-1.41,-12.46
-11,-12,317,-158,-400,3866,-0.62,0.48,35.44,-1.58,-4.00,38.66,-5.70,2.03,20.51,4.15,-1.33,-11.31
-9,-12,289,-173,-382,3860,-0.62,0.36,33.66,-1.73,-3.82,38.60,-5.70,2.06,20.38,4.12,-1.30,-10.72
-10,-20,210,-99,-387,3897,-0.62,0.20,31.58,-0.99,-3.87,38.97,-5.69,2.05,20.25,4.13,-1.12,-9.64
-10,-3,211,-78,-410,3929,-0.62,0.16,29.71,-0.78,-4.10,39.29,-5.70,2.05,20.13,4.13,-1.37,-9.28
4,19,256,-64,-566,3943,-0.53,0.26,28.30,-0.64,-5.66,39.43,-5.71,2.05,20.02,3.90,-1.74,-9.38
-7,3,271,-93,-490,3905,-0.52,0.26,27.12,-0.93,-4.90,39.05,-5.73,2.06,19.91,4.07,-1.50,-9.27
4,38,330,-12,-517,3904,-0.44,0.46,26.42,-0.12,-5.17,39.04,-5.74,2.06,19.81,3.88,-2.10,-9.63
2,-3,338,-31,-425,4032,-0.39,0.40,25.84,-0.31,-4.25,40.32,-5.74,2.05,19.71,3.89,-1.45,-9.58
-5,-9,356,-43,-416,3879,-0.38,0.30,25.43,-0.43,-4.16,38.79,-5.74,2.05,19.60,4.00,-1.32,-9.64
-5,9,366,-95,-358,3884,-0.37,0.33,25.12,-0.95,-3.58,38.84,-5.73,2.04,19.50,3.99,-1.60,-9.66
-6,-1,369,-176,-349,3868,-0.37,0.29,24.86,-1.76,-3.49,38.68,-5.71,2.07,19.41,3.99,-1.45,-9.62
-3,-4,353,-142,-349,3931,-0.35,0.24,24.53,-1.42,-3.49,39.31,-5.69,2.08,19.31,3.93,-1.39,-9.42
-14,-8,319,-50,-478,3899,-0.40,0.16,24.02,-0.50,-4.78,38.99,-5.70,2.07,19.21,4.12,-1.30,-9.02
2,0,302,-105,-433,3900,-0.35,0.15,23.46,-1.05,-4.33,39.00,-5.71,2.07,19.12,3.87,-1.42,-8.76
-8,4,281,-153,-460,3910,-0.36,0.16,22.83,-1.53,-4.60,39.10,-5.73,2.08,19.03,4.03,-1.49,-8.46
-6,15,294,-146,-416,3908,-0.36,0.23,22.34,-1.46,-4.16,39.08,-5.75,2.10,18.94,4.01,-1.69,-8.46
-4,15,331,-310,-470,3890,-0.35,0.30,22.12,-3.10,-4.70,38.90,-5.75,2.12,18.85,3.98,-1.74,-8.73
0,-3,337,-125,-426,3921,-0.32,0.25,21.97,-1.25,-4.26,39.21,-5.77,2.12,18.77,3.92,-1.44,-8.74
-29,3,359,-66,-588,3872,-0.46,0.25,21.96,-0.66,-5.88,38.72,-5.78,2.12,18.68,4.42,-1.54,-8.92
-15,17,420,-89,-667,3930,-0.51,0.32,22.33,-0.89,-6.67,39.30,-5.80,2.13,18.59,4.24,-1.78,-9.50
-7,2,553,182,-617,3930,-0.50,0.30,23.47,1.82,-6.17,39.30,-5.81,2.13,18.50,4.12,-1.54,-10.83
-25,14,581,194,-646,3857,-0.60,0.36,24.66,1.94,-6.46,38.57,-5.82,2.12,18.40,4.43,-1.74,-11.29
-5,30,655,87,-514,3845,-0.57,0.51,26.19,0.87,-5.14,38.45,-5.82,2.12,18.30,4.12,-2.04,-12.20
-15,13,685,65,-427,3797,-0.61,0.53,27.75,0.65,-4.27,37.97,-5.82,2.12,18.19,4.29,-1.78,-12.74
-23,0,746,109,-318,3879,-0.69,0.48,29.53,1.09,-3.18,38.79,-5.82,2.11,18.07,4.43,-1.56,-13.59
-13,11,729,121,-251,3848,-0.70,0.50,31.02,1.21,-2.51,38.48,-5.81,2.11,17.95,4.28,-1.74,-13.72
1,15,639,-13,-172,3905,-0.62,0.54,31.82,-0.13,-1.72,39.05,-5.79,2.12,17.82,4.03,-1.82,-13.10
1,23,600,-14,-173,3866,-0.55,0.63,32.30,-0.14,-1.73,38.66,-5.77,2.12,17.69,3.99,-1.97,-12.85
-4,12,514,-183,-150,3925,-0.52,0.64,32.20,-1.83,-1.50,39.25,-5.75,2.14,17.56,4.04,-1.82,-12.09
-12,9,493,-122,-261,3856,-0.54,0.63,31.99,-1.22,-2.61,38.56,-5.73,2.15,17.43,4.16,-1.78,-11.86
-1,5,374,43,-238,3964,-0.49,0.60,31.07,0.43,-2.38,39.64,-5.72,2.15,17.31,3.96,-1.71,-10.66
9,6,352,-8,-262,3961,-0.39,0.57,30.11,-0.08,-2.62,39.61,-5.70,2.15,17.19,3.76,-1.72,-10.28
6,5,304,-108,-561,3821,-0.31,0.55,28.95,-1.08,-5.61,38.21,-5.72,2.16,17.07,3.79,-1.70,-9.65
-9,-10,277,-100,-462,3868,-0.34,0.43,27.75,-1.00,-4.62,38.68,-5.73,2.17,16.96,4.04,-1.43,-9.18
14,1,219,-1,-575,3840,-0.22,0.39,26.31,-0.01,-5.75,38.40,-5.74,2.17,16.86,3.65,-1.59,-8.40
-1,-2,224,46,-496,3921,-0.20,0.34,25.05,0.46,-4.96,39.21,-5.74,2.16,16.76,3.88,-1.52,-8.19
-5,0,257,-88,-492,3960,-0.21,0.31,24.11,-0.88,-4.92,39.60,-5.76,2.16,16.67,3.95,-1.54,-8.28
4,5,258,-107,-453,3846,-0.17,0.31,23.27,-1.07,-4.53,38.46,-5.77,2.16,16.57,3.81,-1.61,-8.12
-14,1,305,-22,-643,3806,-0.24,0.28,22.80,-0.22,-6.43,38.06,-5.78,2.17,16.48,4.11,-1.55,-8.43
4,-2,328,59,-579,3952,-0.19,0.24,22.53,0.59,-5.79,39.52,-5.79,2.16,16.39,3.83,-1.48,-8.56
-21,-12,353,-85,-466,3866,-0.30,0.15,22.43,-0.85,-4.66,38.66,-5.80,2.16,16.31,4.26,-1.30,-8.74
-16,11,356,-86,-480,3860,-0.37,0.20,22.35,-0.86,-4.80,38.60,-5.82,2.16,16.22,4.21,-1.66,-8.75
-10,9,290,-202,-294,3891,-0.39,0.23,21.89,-2.02,-2.94,38.91,-5.80,2.18,16.13,4.12,-1.66,-8.09
-14,-7,249,-237,-318,3941,-0.44,0.17,21.22,-2.37,-3.18,39.41,-5.79,2.20,16.04,4.19,-1.41,-7.61
-8,-5,129,-116,-342,3913,-0.44,0.12,19.88,-1.16,-3.42,39.13,-5.77,2.20,15.97,4.09,-1.42,-6.33
-4,0,95,-67,-389,3903,-0.42,0.11,18.47,-0.67,-3.89,39.03,-5.77,2.19,15.89,4.02,-1.48,-5.77
2,11,103,111,-610,3892,-0.37,0.16,17.26,1.11,-6.10,38.92,-5.78,2.18,15.82,3.91,-1.67,-5.59
-1,12,155,160,-641,3958,-0.34,0.22,16.48,1.60,-6.41,39.58,-5.79,2.18,15.76,3.96,-1.70,-5.88
-21,37,332,89,-699,3882,-0.43,0.42,16.85,0.89,-6.99,38.82,-5.80,2.17,15.69,4.30,-2.15,-7.45
-3,13,358,-43,-526,3848,-0.41,0.46,17.35,-0.43,-5.26,38.48,-5.81,2.17,15.62,4.03,-1.80,-7.76
-7,-3,482,-77,-583,3908,-0.41,0.40,18.56,-0.77,-5.83,39.08,-5.83,2.17,15.55,4.10,-1.53,-9.03
-21,-2,510,-30,-538,3828,-0.50,0.35,19.81,-0.30,-5.38,38.28,-5.84,2.17,15.47,4.35,-1.53,-9.50
-9,14,568,-81,-510,3857,-0.50,0.40,21.30,-0.81,-5.10,38.57,-5.86,2.17,15.39,4.18,-1.79,-10.27
-12,-5,576,-151,-455,3941,-0.52,0.33,22.68,-1.51,-4.55,39.41,-5.88,2.18,15.30,4.25,-1.48,-10.59
-21,3,564,-130,-393,3948,-0.60,0.31,23.85,-1.30,-3.93,39.48,-5.86,2.18,15.20,4.40,-1.59,-10.71
0,-4,548,-63,-284,3999,-0.54,0.26,24.81,-0.63,-2.84,39.99,-5.85,2.18,15.10,4.05,-1.47,-10.74
-8,20,455,-82,-379,3882,-0.53,0.35,25.10,-0.82,-3.79,38.82,-5.84,2.17,15.00,4.17,-1.86,-10.00
5,38,421,-82,-237,3839,-0.45,0.55,25.16,-0.82,-2.37,38.39,-5.82,2.18,14.90,3.93,-2.21,-9.72
-11,12,277,-194,-442,3850,-0.47,0.57,24.34,-1.94,-4.42,38.50,-5.83,2.20,14.81,4.19,-1.84,-8.33
-6,-4,243,-44,-443,3922,-0.46,0.49,23.38,-0.44,-4.43,39.22,-5.84,2.20,14.71,4.11,-1.56,-7.85
-7,4,248,-104,-435,3970,-0.46,0.46,22.56,-1.04,-4.35,39.70,-5.85,2.19,14.63,4.13,-1.67,-7.73
-13,-9,259,-127,-466,3859,-0.49,0.36,21.88,-1.27,-4.66,38.59,-5.86,2.20,14.54,4.24,-1.44,-7.68
-8,6,301,-117,-457,3937,-0.49,0.36,21.53,-1.17,-4.57,39.37,-5.88,2.20,14.45,4.18,-1.67,-7.97
-2,13,312,-151,-437,3907,-0.45,0.40,21.28,-1.51,-4.37,39.07,-5.89,2.21,14.37,4.08,-1.80,-8.00
10,17,276,-111,-475,3889,-0.35,0.47,20.84,-1.11,-4.75,38.89,-5.91,2.21,14.29,3.87,-1.88,-7.61
13,15,268,-9,-496,3927,-0.23,0.51,20.39,-0.09,-4.96,39.27,-5.92,2.21,14.21,3.79,-1.87,-7.45
-14,10,276,-7,-621,3899,-0.30,0.52,20.03,-0.07,-6.21,38.99,-5.93,2.21,14.13,4.23,-1.79,-7.44
-3,20,297,10,-628,3858,-0.28,0.59,19.84,0.10,-6.28,38.58,-5.94,2.21,14.05,4.07,-1.97,-7.57
-10,6,389,18,-648,3919,-0.32,0.57,20.23,0.18,-6.48,39.19,-5.95,2.21,13.97,4.20,-1.75,-8.42
-15,5,433,-2,-616,3921,-0.38,0.54,20.85,-0.02,-6.16,39.21,-5.97,2.21,13.89,4.30,-1.73,-8.90
-4,13,497,-39,-582,3884,-0.36,0.57,21.79,-0.39,-5.82,38.84,-5.98,2.21,13.80,4.14,-1.86,-9.62
-18,12,512,-19,-548,3887,-0.44,0.58,22.74,-0.19,-5.48,38.87,-5.99,2.21,13.71,4.39,-1.85,-9.92
-8,18,544,-70,-395,3954,-0.44,0.64,23.78,-0.70,-3.95,39.54,-5.99,2.20,13.62,4.23,-1.95,-10.38
-7,19,548,-87,-402,3874,-0.44,0.69,24.75,-0.87,-4.02,38.74,-5.98,2.20,13.52,4.21,-1.98,-10.59
-19,14,540,-111,-297,3891,-0.51,0.70,25.57,-1.11,-2.97,38.91,-5.96,2.20,13.42,4.41,-1.92,-10.67
0,35,530,-88,-355,3898,-0.46,0.85,26.24,-0.88,-3.55,38.98,-5.95,2.20,13.31,4.09,-2.29,-10.70
-12,25,506,-72,-396,3868,-0.49,0.92,26.71,-0.72,-3.96,38.68,-5.95,2.20,13.21,4.28,-2.16,-10.58
-13,11,491,-62,-465,3872,-0.52,0.89,27.03,-0.62,-4.65,38.72,-5.96,2.20,13.10,4.31,-1.94,-10.50
-10,9,503,-206,-568,3755,-0.53,0.86,27.40,-2.06,-5.68,37.55,-5.97,2.22,12.99,4.28,-1.91,-10.67
-56,-11,521,155,-431,4114,-0.82,0.70,27.83,1.55,-4.31,41.14,-5.97,2.22,12.88,5.08,-1.55,-10.89
-1,20,488,18,-632,3958,-0.74,0.76,28.03,0.18,-6.32,39.58,-5.98,2.22,12.77,4.23,-2.04,-10.64
-6,14,498,-23,-724,3859,-0.70,0.77,28.26,-0.23,-7.24,38.59,-6.00,2.23,12.66,4.30,-1.96,-10.76
-15,9,635,-64,-586,4001,-0.72,0.74,29.31,-0.64,-5.86,40.01,-6.01,2.23,12.54,4.45,-1.88,-12.11
-40,1,695,-67,-480,3980,-0.90,0.68,30.62,-0.67,-4.80,39.80,-6.02,2.23,12.42,4.90,-1.73,-12.86
-13,20,816,-200,-343,3786,-0.89,0.73,32.53,-2.00,-3.43,37.86,-6.01,2.26,12.29,4.48,-2.06,-14.24
-10,22,808,-202,-327,3996,-0.86,0.79,34.21,-2.02,-3.27,39.96,-5.99,2.29,12.16,4.41,-2.13,-14.48
-10,19,725,-185,-75,3882,-0.83,0.83,35.21,-1.85,-0.75,38.82,-5.97,2.31,12.02,4.39,-2.11,-13.95
-12,33,694,-206,-142,3883,-0.82,0.95,35.92,-2.06,-1.42,38.83,-5.95,2.33,11.87,4.40,-2.38,-13.81
-9,16,530,-176,-66,3895,-0.80,0.95,35.56,-1.76,-0.66,38.95,-5.93,2.35,11.73,4.33,-2.13,-12.34
0,14,431,-160,-193,3877,-0.72,0.94,34.64,-1.60,-1.93,38.77,-5.91,2.37,11.59,4.15,-2.11,-11.31
-16,17,298,-22,-328,3858,-0.74,0.95,32.99,-0.22,-3.28,38.58,-5.89,2.37,11.46,4.40,-2.16,-9.86
-10,15,280,-58,-333,3901,-0.73,0.95,31.40,-0.58,-3.33,39.01,-5.88,2.37,11.34,4.29,-2.13,-9.39
-10,8,276,-65,-429,3908,-0.72,0.90,29.94,-0.65,-4.29,39.08,-5.88,2.37,11.22,4.29,-2.01,-9.07
-5,4,280,-89,-444,3885,-0.68,0.83,28.66,-0.89,-4.44,38.85,-5.89,2.37,11.10,4.21,-1.92,-8.85
-3,-10,300,-84,-457,3918,-0.63,0.69,27.62,-0.84,-4.57,39.18,-5.90,2.37,10.99,4.16,-1.65,-8.81
-15,1,295,-74,-551,3788,-0.66,0.63,26.66,-0.74,-5.51,37.88,-5.91,2.37,10.89,4.37,-1.80,-8.57
1,-7,370,-78,-697,3838,-0.58,0.52,26.25,-0.78,-6.97,38.38,-5.93,2.38,10.79,4.11,-1.65,-9.12
-8,18,424,-20,-686,3826,-0.57,0.58,26.21,-0.20,-6.86,38.26,-5.94,2.38,10.68,4.25,-2.05,-9.56
-3,28,549,82,-717,3998,-0.54,0.69,26.94,0.82,-7.17,39.98,-5.96,2.39,10.58,4.17,-2.25,-10.75
-15,16,601,32,-650,3809,-0.57,0.72,27.91,0.32,-6.50,38.09,-5.97,2.39,10.47,4.37,-2.08,-11.37
-10,20,664,-77,-368,3901,-0.58,0.77,29.17,-0.77,-3.68,39.01,-5.96,2.39,10.35,4.29,-2.16,-12.13
-21,5,666,-177,-225,3911,-0.65,0.72,30.32,-1.77,-2.25,39.11,-5.94,2.41,10.23,4.47,-1.92,-12.36
-8,11,598,-202,-55,3809,-0.63,0.72,30.93,-2.02,-0.55,38.09,-5.92,2.42,10.10,4.25,-2.02,-11.89
1,29,566,-174,-74,3918,-0.56,0.82,31.29,-1.74,-0.74,39.18,-5.90,2.44,9.98,4.08,-2.35,-11.67
-7,-14,423,-163,-190,3858,-0.55,0.66,30.74,-1.63,-1.90,38.58,-5.87,2.45,9.86,4.18,-1.64,-10.35
4,9,402,-164,-215,3926,-0.47,0.65,30.12,-1.64,-2.15,39.26,-5.85,2.47,9.74,3.97,-2.00,-10.04
0,18,404,-74,-374,4020,-0.42,0.69,29.57,-0.74,-3.74,40.20,-5.84,2.47,9.62,4.01,-2.15,-9.94
-6,-11,388,-76,-366,3941,-0.42,0.55,28.98,-0.76,-3.66,39.41,-5.83,2.46,9.50,4.09,-1.66,-9.68
13,16,336,41,-427,3925,-0.30,0.60,28.13,0.41,-4.27,39.25,-5.83,2.46,9.39,3.76,-2.08,-9.07
-4,3,293,44,-566,3869,-0.29,0.56,27.11,0.44,-5.66,38.69,-5.84,2.46,9.28,4.02,-1.87,-8.50
1,3,277,60,-714,3847,-0.26,0.52,26.09,0.60,-7.14,38.47,-5.85,2.46,9.18,3.94,-1.85,-8.16
-15,-6,301,-7,-694,3804,-0.32,0.43,25.31,-0.07,-6.94,38.04,-5.86,2.46,9.08,4.21,-1.69,-8.21
1,-1,412,-45,-424,3885,-0.28,0.38,25.30,-0.45,-4.24,38.85,-5.87,2.46,8.98,3.96,-1.74,-9.13
-6,-6,412,-124,-403,3902,-0.29,0.31,25.28,-1.24,-4.03,39.02,-5.86,2.45,8.88,4.06,-1.64,-9.12
-9,17,441,-101,-287,3980,-0.32,0.38,25.44,-1.01,-2.87,39.80,-5.84,2.45,8.78,4.11,-2.01,-9.39
-25,16,439,-47,-277,3993,-0.44,0.44,25.58,-0.47,-2.77,39.93,-5.83,2.45,8.68,4.38,-2.02,-9.39
20,33,378,-191,-264,3869,-0.27,0.60,25.32,-1.91,-2.64,38.69,-5.81,2.47,8.57,3.62,-2.35,-8.81
-11,33,390,-261,-431,3700,-0.31,0.74,25.17,-2.61,-4.31,37.00,-5.81,2.50,8.47,4.12,-2.42,-8.88
-2,29,473,84,-449,3920,-0.29,0.84,25.54,0.84,-4.49,39.20,-5.81,2.49,8.37,3.97,-2.39,-9.64
-15,10,469,208,-512,3855,-0.36,0.82,25.85,2.08,-5.12,38.55,-5.82,2.49,8.27,4.19,-2.09,-9.66
-8,-1,378,-4,-438,3905,-0.37,0.73,25.57,-0.04,-4.38,39.05,-5.82,2.49,8.17,4.09,-1.89,-8.82
-8,-5,366,-17,-431,3850,-0.38,0.63,25.24,-0.17,-4.31,38.50,-5.82,2.48,8.07,4.10,-1.78,-8.65
-9,0,335,6,-392,3824,-0.40,0.56,24.76,0.06,-3.92,38.24,-5.82,2.48,7.97,4.12,-1.83,-8.29
-11,-3,311,-35,-411,3958,-0.42,0.49,24.18,-0.35,-4.11,39.58,-5.81,2.47,7.88,4.16,-1.76,-7.97
-19,-24,253,-7,-341,3992,-0.50,0.29,23.31,-0.07,-3.41,39.92,-5.81,2.46,7.78,4.30,-1.36,-7.30
-2,0,233,40,-412,3856,-0.46,0.26,22.40,0.40,-4.12,38.56,-5.81,2.45,7.69,4.03,-1.71,-6.95
6,6,244,-110,-390,3893,-0.38,0.27,21.65,-1.10,-3.90,38.93,-5.80,2.45,7.61,3.87,-1.80,-6.89
-11,-10,269,-84,-400,3889,-0.41,0.19,21.12,-0.84,-4.00,38.89,-5.80,2.44,7.52,4.14,-1.52,-6.99
3,8,359,-122,-285,3880,-0.35,0.22,21.20,-1.22,-2.85,38.80,-5.78,2.44,7.44,3.89,-1.81,-7.76
10,18,364,-119,-389,3970,-0.25,0.30,21.30,-1.19,-3.89,39.70,-5.77,2.43,7.35,3.75,-1.99,-7.82
-10,-1,269,182,-595,3959,-0.29,0.27,20.81,1.82,-5.95,39.59,-5.78,2.42,7.27,4.07,-1.68,-6.91
-6,18,238,192,-661,3872,-0.30,0.35,20.18,1.92,-6.61,38.72,-5.79,2.42,7.19,4.02,-2.00,-6.52
0,14,160,77,-646,3883,-0.27,0.40,19.14,0.77,-6.46,38.83,-5.80,2.42,7.12,3.92,-1.95,-5.65
-1,2,159,72,-648,3843,-0.25,0.37,18.20,0.72,-6.48,38.43,-5.81,2.41,7.04,3.94,-1.76,-5.46
-6,4,272,147,-662,3944,-0.26,0.36,18.04,1.47,-6.62,39.44,-5.82,2.41,6.97,4.03,-1.78,-6.38
2,-7,293,93,-570,3922,-0.22,0.28,18.02,0.93,-5.70,39.22,-5.83,2.40,6.90,3.90,-1.58,-6.55
-2,2,301,38,-573,3831,-0.21,0.27,18.05,0.38,-5.73,38.31,-5.84,2.40,6.83,3.96,-1.71,-6.62
0,3,299,40,-510,3937,-0.19,0.26,18.07,0.40,-5.10,39.37,-5.85,2.39,6.76,3.93,-1.71,-6.60
3,13,262,-70,-336,3963,-0.15,0.31,17.86,-0.70,-3.36,39.63,-5.83,2.38,6.69,3.86,-1.88,-6.24
-2,12,226,-187,-290,3844,-0.15,0.35,17.46,-1.87,-2.90,38.44,-5.81,2.39,6.62,3.92,-1.89,-5.85
-12,-20,157,-326,-419,3834,-0.21,0.20,16.67,-3.26,-4.19,38.34,-5.81,2.42,6.55,4.09,-1.36,-5.11
-1,1,167,-245,-417,3808,-0.19,0.18,16.02,-2.45,-4.17,38.08,-5.82,2.44,6.49,3.92,-1.69,-5.06
-4,-2,197,-29,-445,3992,-0.20,0.15,15.62,-0.29,-4.45,39.92,-5.82,2.43,6.42,3.97,-1.63,-5.23
-5,6,198,-15,-471,3956,-0.21,0.17,15.27,-0.15,-4.71,39.56,-5.83,2.42,6.36,4.00,-1.75,-5.17
-6,17,243,-22,-529,3818,-0.22,0.26,15.22,-0.22,-5.29,38.18,-5.84,2.42,6.30,4.02,-1.95,-5.54
0,16,261,31,-533,3947,-0.20,0.33,15.29,0.31,-5.33,39.47,-5.85,2.41,6.24,3.93,-1.95,-5.70
-7,3,312,45,-437,3815,-0.22,0.32,15.67,0.45,-4.37,38.15,-5.85,2.40,6.18,4.05,-1.74,-6.19
1,28,314,-17,-393,3871,-0.20,0.46,16.01,-0.17,-3.93,38.71,-5.85,2.39,6.12,3.91,-2.17,-6.27
-4,-13,293,88,-410,3972,-0.20,0.33,16.20,0.88,-4.10,39.72,-5.84,2.38,6.05,3.99,-1.49,-6.12
-3,-2,273,-7,-320,3876,-0.20,0.29,16.25,-0.07,-3.20,38.76,-5.83,2.37,5.99,3.97,-1.64,-5.96
-6,-11,152,-25,-250,3894,-0.22,0.19,15.55,-0.25,-2.50,38.94,-5.82,2.37,5.93,4.01,-1.46,-4.79
-4,-2,113,-58,-257,3902,-0.22,0.16,14.68,-0.58,-2.57,39.02,-5.80,2.36,5.87,3.97,-1.58,-4.29
1,-2,28,0,-437,3894,-0.19,0.13,13.38,0.00,-4.37,38.94,-5.81,2.35,5.81,3.88,-1.57,-3.32
2,-1,24,8,-489,3889,-0.16,0.11,12.19,0.08,-4.89,38.89,-5.81,2.34,5.77,3.86,-1.57,-3.05
2,0,58,-40,-487,3833,-0.13,0.10,11.33,-0.40,-4.87,38.33,-5.82,2.33,5.72,3.86,-1.57,-3.17
0,-3,59,-6,-453,3897,-0.12,0.07,10.55,-0.06,-4.53,38.97,-5.83,2.32,5.68,3.89,-1.51,-3.03
-5,-9,112,-107,-419,3823,-0.14,0.01,10.18,-1.07,-4.19,38.23,-5.84,2.31,5.64,3.98,-1.39,-3.40
-3,-10,115,-141,-398,3817,-0.14,-0.05,9.87,-1.41,-3.98,38.17,-5.85,2.29,5.60,3.95,-1.34,-3.36
-1,-16,133,-84,-398,3934,-0.13,-0.14,9.69,-0.84,-3.98,39.34,-5.84,2.28,5.56,3.92,-1.21,-3.48
-2,-7,139,-52,-459,3916,-0.13,-0.17,9.57,-0.52,-4.59,39.16,-5.85,2.27,5.52,3.94,-1.33,-3.50
-8,-7,180,49,-554,3929,-0.17,-0.20,9.71,0.49,-5.54,39.29,-5.86,2.25,5.49,4.05,-1.31,-3.87
-13,-13,174,115,-543,3910,-0.23,-0.26,9.80,1.15,-5.43,39.10,-5.87,2.24,5.45,4.15,-1.19,-3.84
-3,2,81,-20,-416,3876,-0.23,-0.22,9.31,-0.20,-4.16,38.76,-5.87,2.23,5.41,4.00,-1.42,-2.95
-3,1,77,-32,-421,3873,-0.22,-0.19,8.85,-0.32,-4.21,38.73,-5.87,2.21,5.38,4.00,-1.41,-2.83
4,-9,77,-81,-374,3885,-0.17,-0.23,8.44,-0.81,-3.74,38.85,-5.87,2.20,5.34,3.87,-1.23,-2.75
4,-6,57,-72,-406,3889,-0.13,-0.24,7.94,-0.72,-4.06,38.89,-5.87,2.18,5.31,3.86,-1.26,-2.48
3,3,44,-61,-508,3893,-0.10,-0.20,7.42,-0.61,-5.08,38.93,-5.88,2.17,5.28,3.87,-1.41,-2.27
-3,2,46,-28,-519,3946,-0.11,-0.17,6.95,-0.28,-5.19,39.46,-5.89,2.16,5.25,3.97,-1.40,-2.19
-3,12,54,72,-564,3862,-0.12,-0.08,6.59,0.72,-5.64,38.62,-5.90,2.15,5.23,3.98,-1.57,-2.19
8,19,67,94,-670,3907,-0.06,0.05,6.34,0.94,-6.70,39.07,-5.92,2.14,5.20,3.80,-1.72,-2.25
-9,5,205,32,-752,3818,-0.11,0.07,6.96,0.32,-7.52,38.18,-5.93,2.13,5.18,4.09,-1.51,-3.53
-5,4,257,37,-741,3818,-0.13,0.09,7.83,0.37,-7.41,38.18,-5.95,2.13,5.15,4.05,-1.50,-4.14
-18,5,313,-86,-429,3862,-0.22,0.11,8.95,-0.86,-4.29,38.62,-5.95,2.11,5.11,4.28,-1.51,-4.82
-12,-4,315,-129,-428,4043,-0.27,0.08,9.98,-1.29,-4.28,40.43,-5.96,2.10,5.07,4.21,-1.35,-5.03
-7,9,293,-131,-341,3855,-0.29,0.12,10.77,-1.31,-3.41,38.55,-5.94,2.10,5.03,4.13,-1.57,-4.99
-2,22,268,-148,-420,3907,-0.27,0.24,11.33,-1.48,-4.20,39.07,-5.96,2.11,4.98,4.06,-1.82,-4.88
0,23,230,82,-639,3942,-0.25,0.36,11.60,0.82,-6.39,39.42,-5.97,2.11,4.94,4.03,-1.87,-4.61
2,31,248,102,-694,3889,-0.21,0.51,11.95,1.02,-6.94,38.89,-5.98,2.10,4.89,3.99,-2.04,-4.83
-12,6,319,-87,-469,3846,-0.26,0.50,12.70,-0.87,-4.69,38.46,-6.00,2.10,4.84,4.23,-1.65,-5.57
-23,-2,334,6,-371,4026,-0.37,0.44,13.47,0.06,-3.71,40.26,-5.99,2.09,4.79,4.44,-1.50,-5.83
3,12,319,-45,-399,3861,-0.32,0.47,14.07,-0.45,-3.99,38.61,-5.99,2.08,4.73,4.02,-1.72,-5.82
-4,13,312,-18,-423,3910,-0.31,0.50,14.56,-0.18,-4.23,39.10,-5.99,2.07,4.67,4.12,-1.74,-5.85
-7,16,266,-62,-421,3867,-0.32,0.55,14.73,-0.62,-4.21,38.67,-5.99,2.06,4.61,4.18,-1.80,-5.48
-4,17,258,3,-419,3882,-0.32,0.60,14.83,0.03,-4.19,38.82,-5.99,2.05,4.56,4.13,-1.82,-5.43
0,7,200,-11,-381,3801,-0.28,0.58,14.57,-0.11,-3.81,38.01,-5.99,2.04,4.50,4.05,-1.66,-4.88
5,15,198,-63,-367,3837,-0.22,0.61,14.32,-0.63,-3.67,38.37,-5.98,2.03,4.44,3.95,-1.79,-4.81
5,4,161,-81,-356,3884,-0.17,0.58,13.87,-0.81,-3.56,38.84,-5.97,2.02,4.39,3.92,-1.60,-4.41
-6,-10,148,-47,-347,3941,-0.19,0.46,13.39,-0.47,-3.47,39.41,-5.96,2.02,4.33,4.09,-1.34,-4.20
-2,1,132,-48,-494,3853,-0.18,0.42,12.85,-0.48,-4.94,38.53,-5.97,2.01,4.28,4.03,-1.49,-3.96
1,5,156,-59,-545,3849,-0.16,0.41,12.52,-0.59,-5.45,38.49,-5.98,2.01,4.23,3.99,-1.55,-4.09
1,0,195,-28,-542,3874,-0.14,0.37,12.46,-0.28,-5.42,38.74,-6.00,2.00,4.18,3.99,-1.45,-4.41
-12,1,201,-24,-476,3986,-0.20,0.34,12.44,-0.24,-4.76,39.86,-6.00,1.99,4.13,4.21,-1.45,-4.45
3,19,130,-95,-434,3860,-0.16,0.42,11.99,-0.95,-4.34,38.60,-6.01,1.99,4.09,3.98,-1.75,-3.76
0,20,129,-56,-453,3876,-0.14,0.50,11.57,-0.56,-4.53,38.76,-6.02,1.98,4.04,4.02,-1.79,-3.67
-10,-1,197,-29,-475,3917,-0.19,0.44,11.62,-0.29,-4.75,39.17,-6.03,1.97,4.00,4.20,-1.44,-4.25
-14,-9,216,-52,-388,3803,-0.26,0.34,11.77,-0.52,-3.88,38.03,-6.02,1.96,3.95,4.28,-1.28,-4.44
1,-11,91,-40,-149,3946,-0.22,0.24,11.15,-0.40,-1.49,39.46,-6.01,1.95,3.90,4.03,-1.21,-3.25
9,-6,43,-34,-318,3893,-0.15,0.18,10.30,-0.34,-3.18,38.93,-5.99,1.95,3.86,3.87,-1.26,-2.68
-4,-12,24,-94,-321,3894,-0.16,0.09,9.42,-0.94,-3.21,38.94,-5.98,1.94,3.83,4.06,-1.13,-2.35
-5,-14,31,12,-486,3889,-0.17,-0.00,8.66,0.12,-4.86,38.89,-5.98,1.93,3.79,4.09,-1.06,-2.26
-2,0,9,31,-541,3866,-0.17,-0.00,7.85,0.31,-5.41,38.66,-6.00,1.92,3.76,4.05,-1.27,-1.92
-4,0,3,-33,-485,3884,-0.17,-0.00,7.08,-0.33,-4.85,38.84,-6.01,1.91,3.73,4.09,-1.26,-1.72
2,3,5,-13,-503,3875,-0.14,0.01,6.41,-0.13,-5.03,38.75,-6.02,1.90,3.71,3.99,-1.30,-1.60
-3,1,13,-63,-469,3884,-0.15,0.02,5.85,-0.63,-4.69,38.84,-6.03,1.89,3.68,4.08,-1.27,-1.56
2,6,17,-56,-437,3908,-0.12,0.05,5.36,-0.56,-4.37,39.08,-6.04,1.87,3.66,4.00,-1.35,-1.50
-5,1,23,-70,-464,3922,-0.14,0.05,4.97,-0.70,-4.64,39.22,-6.05,1.86,3.64,4.12,-1.26,-1.47
-5,6,29,-39,-505,3912,-0.16,0.09,4.65,-0.39,-5.05,39.12,-6.06,1.85,3.63,4.13,-1.34,-1.46
-2,5,27,37,-544,3913,-0.15,0.11,4.35,0.37,-5.44,39.13,-6.07,1.84,3.61,4.09,-1.33,-1.38
3,8,92,5,-583,3871,-0.12,0.15,4.47,0.05,-5.83,38.71,-6.09,1.83,3.59,4.01,-1.38,-1.96
2,5,121,111,-605,3905,-0.10,0.16,4.77,1.11,-6.05,39.05,-6.10,1.82,3.57,4.03,-1.33,-2.26
-1,15,148,-38,-363,3875,-0.09,0.24,5.19,-0.38,-3.63,38.75,-6.09,1.80,3.55,4.07,-1.50,-2.57
-4,-10,121,6,-276,3940,-0.11,0.15,5.41,0.06,-2.76,39.40,-6.07,1.79,3.53,4.11,-1.09,-2.38
5,-1,39,-46,-399,3861,-0.07,0.13,5.11,-0.46,-3.99,38.61,-6.07,1.78,3.51,3.95,-1.21,-1.62
2,-5,34,-24,-436,3901,-0.05,0.09,4.80,-0.24,-4.36,39.01,-6.07,1.76,3.49,4.00,-1.12,-1.52
-4,0,62,-27,-528,3914,-0.07,0.08,4.70,-0.27,-5.28,39.14,-6.09,1.75,3.47,4.10,-1.19,-1.74
-8,-11,71,-31,-451,3980,-0.11,0.00,4.66,-0.31,-4.51,39.80,-6.09,1.74,3.45,4.18,-0.98,-1.80
1,8,28,-103,-307,3906,-0.09,0.05,4.37,-1.03,-3.07,39.06,-6.07,1.74,3.44,4.03,-1.29,-1.38
3,11,18,-73,-373,3879,-0.06,0.11,4.04,-0.73,-3.73,38.79,-6.06,1.73,3.42,3.98,-1.35,-1.23
4,2,9,-27,-449,3874,-0.03,0.11,3.69,-0.27,-4.49,38.74,-6.07,1.71,3.41,3.96,-1.20,-1.09
3,-2,8,-19,-462,3869,-0.01,0.09,3.37,-0.19,-4.62,38.69,-6.08,1.70,3.39,3.97,-1.12,-1.02
4,-5,9,-6,-472,3910,0.01,0.05,3.09,-0.06,-4.72,39.10,-6.08,1.68,3.38,3.95,-1.05,-0.97
4,-5,5,-19,-475,3901,0.04,0.02,2.81,-0.19,-4.75,39.01,-6.09,1.67,3.37,3.95,-1.03,-0.88
-1,2,-6,-25,-499,3913,0.03,0.03,2.49,-0.25,-4.99,39.13,-6.11,1.65,3.36,4.04,-1.13,-0.73
-3,6,-8,-48,-498,3897,0.01,0.06,2.20,-0.48,-4.98,38.97,-6.12,1.64,3.35,4.08,-1.20,-0.65
-7,0,-13,-38,-475,3902,-0.04,0.05,1.90,-0.38,-4.75,39.02,-6.13,1.63,3.34,4.17,-1.10,-0.55
-8,1,-10,-25,-464,3896,-0.08,0.06,1.65,-0.25,-4.64,38.96,-6.14,1.62,3.34,4.20,-1.10,-0.53
1,9,2,29,-550,3902,-0.07,0.10,1.49,0.29,-5.50,39.02,-6.15,1.60,3.33,4.07,-1.23,-0.60
0,5,8,-8,-474,3941,-0.06,0.12,1.39,-0.08,-4.74,39.41,-6.16,1.59,3.33,4.09,-1.17,-0.63
6,5,-18,-44,-381,3902,-0.02,0.14,1.14,-0.44,-3.81,39.02,-6.15,1.57,3.32,3.97,-1.17,-0.37
1,1,-5,-49,-390,3886,-0.01,0.13,1.00,-0.49,-3.90,38.86,-6.14,1.56,3.32,4.04,-1.09,-0.45
2,-11,1,-17,-435,3859,0.00,0.05,0.91,-0.17,-4.35,38.59,-6.15,1.54,3.31,4.02,-0.87,-0.48
3,-3,1,0,-442,3877,0.02,0.03,0.82,0.00,-4.42,38.77,-6.15,1.52,3.31,4.01,-0.97,-0.46
-3,-9,-26,4,-461,3892,0.00,-0.03,0.58,0.04,-4.61,38.92,-6.16,1.51,3.31,4.11,-0.85,-0.19
-3,-11,-38,-19,-454,3899,-0.02,-0.09,0.29,-0.19,-4.54,38.99,-6.16,1.49,3.31,4.12,-0.78,-0.03
-3,-6,-21,-41,-481,3891,-0.03,-0.12,0.13,-0.41,-4.81,38.91,-6.18,1.48,3.31,4.13,-0.84,-0.15
-4,-4,-26,-30,-480,3896,-0.06,-0.13,-0.04,-0.30,-4.80,38.96,-6.19,1.46,3.31,4.16,-0.86,-0.07
4,8,-32,26,-540,3907,-0.03,-0.07,-0.23,0.26,-5.40,39.07,-6.20,1.45,3.31,4.04,-1.05,0.02
3,10,-35,6,-492,3912,-0.00,-0.00,-0.42,0.06,-4.92,39.12,-6.21,1.43,3.31,4.05,-1.10,0.08
2,5,-35,-71,-404,3892,0.01,0.03,-0.59,-0.71,-4.04,38.92,-6.20,1.42,3.31,4.06,-1.02,0.11
2,2,-25,-50,-401,3890,0.02,0.04,-0.69,-0.50,-4.01,38.90,-6.19,1.40,3.32,4.05,-0.97,0.04
3,2,-19,-81,-426,3874,0.04,0.05,-0.73,-0.81,-4.26,38.74,-6.20,1.38,3.32,4.03,-0.96,0.00
5,2,-7,-78,-439,3882,0.06,0.05,-0.70,-0.78,-4.39,38.82,-6.21,1.37,3.32,4.00,-0.95,-0.11
5,1,-5,-26,-442,3899,0.09,0.05,-0.66,-0.26,-4.42,38.99,-6.22,1.35,3.33,4.00,-0.93,-0.13
3,2,-5,-27,-446,3913,0.10,0.06,-0.63,-0.27,-4.46,39.13,-6.22,1.33,3.33,4.03,-0.93,-0.14
4,0,-25,-18,-405,3924,0.11,0.06,-0.72,-0.18,-4.05,39.24,-6.22,1.32,3.33,4.00,-0.89,0.05
5,4,-39,-24,-421,3912,0.13,0.07,-0.88,-0.24,-4.21,39.12,-6.21,1.30,3.33,3.98,-0.94,0.20
-4,-6,-6,-143,-442,3879,0.09,0.03,-0.83,-1.43,-4.42,38.79,-6.22,1.31,3.34,4.13,-0.79,-0.09
-8,-9,1,-96,-387,3906,0.04,-0.03,-0.74,-0.96,-3.87,39.06,-6.20,1.32,3.34,4.20,-0.72,-0.17
-2,-4,-23,-57,-396,3879,0.02,-0.05,-0.81,-0.57,-3.96,38.79,-6.19,1.30,3.34,4.11,-0.78,0.05
5,-4,-36,-1,-519,3858,0.05,-0.07,-0.95,-0.01,-5.19,38.58,-6.20,1.29,3.35,4.00,-0.77,0.18
-2,-8,-9,32,-566,3900,0.03,-0.11,-0.91,0.32,-5.66,39.00,-6.22,1.28,3.35,4.12,-0.68,-0.05
1,-7,-7,-7,-484,3889,0.03,-0.14,-0.86,-0.07,-4.84,38.89,-6.23,1.26,3.35,4.08,-0.68,-0.08
-4,0,-15,-33,-452,3900,0.01,-0.13,-0.86,-0.33,-4.52,39.00,-6.24,1.24,3.36,4.18,-0.78,-0.01
-3,3,-22,-4,-460,3918,-0.01,-0.10,-0.91,-0.04,-4.60,39.18,-6.24,1.23,3.36,4.17,-0.82,0.06
2,4,-38,93,-546,3932,0.00,-0.06,-1.05,0.93,-5.46,39.32,-6.25,1.21,3.37,4.10,-0.84,0.22
6,13,-36,96,-513,3916,0.04,0.02,-1.17,0.96,-5.13,39.16,-6.26,1.19,3.37,4.03,-0.99,0.22
6,15,-36,-220,-368,3856,0.07,0.11,-1.27,-2.20,-3.68,38.56,-6.25,1.21,3.38,4.01,-1.07,0.24
10,14,-20,-154,-432,3856,0.12,0.19,-1.27,-1.54,-4.32,38.56,-6.26,1.23,3.38,3.93,-1.09,0.11
0,-2,-1,-33,-435,3909,0.11,0.16,-1.14,-0.33,-4.35,39.09,-6.26,1.21,3.39,4.09,-0.82,-0.08
3,4,-6,-29,-425,3904,0.12,0.16,-1.07,-0.29,-4.25,39.04,-6.26,1.19,3.39,4.04,-0.91,-0.05
-1,-2,-6,-71,-409,3874,0.10,0.14,-1.00,-0.71,-4.09,38.74,-6.24,1.18,3.39,4.10,-0.80,-0.06
-2,-5,-8,-45,-407,3884,0.08,0.09,-0.95,-0.45,-4.07,38.84,-6.23,1.17,3.40,4.12,-0.73,-0.06
4,-4,-35,6,-488,3898,0.10,0.06,-1.06,0.06,-4.88,38.98,-6.24,1.15,3.40,4.03,-0.72,0.19
3,-4,-26,-22,-526,3904,0.10,0.03,-1.12,-0.22,-5.26,39.04,-6.26,1.14,3.41,4.05,-0.70,0.13
0,-4,-26,-38,-424,3905,0.09,0.00,-1.16,-0.38,-4.24,39.05,-6.26,1.12,3.41,4.10,-0.68,0.14
1,4,-23,-47,-393,3899,0.09,0.02,-1.19,-0.47,-3.93,38.99,-6.24,1.11,3.42,4.07,-0.80,0.11
-3,21,-51,-198,-96,3957,0.06,0.15,-1.38,-1.98,-0.96,39.57,-6.23,1.12,3.42,4.13,-1.11,0.39
5,21,-84,-191,-155,3904,0.09,0.26,-1.75,-1.91,-1.55,39.04,-6.21,1.12,3.43,3.99,-1.16,0.74
9,4,-184,100,-538,3889,0.13,0.26,-2.70,1.00,-5.38,38.89,-6.22,1.11,3.44,3.92,-0.89,1.77
3,-3,-176,29,-541,3873,0.14,0.22,-3.50,0.29,-5.41,38.73,-6.23,1.10,3.45,4.02,-0.75,1.85
15,5,-188,-27,-531,3707,0.22,0.23,-4.30,-0.27,-5.31,37.07,-6.25,1.09,3.47,3.82,-0.88,2.10
5,-3,-211,-10,-580,3898,0.22,0.19,-5.16,-0.10,-5.80,38.98,-6.26,1.08,3.49,3.98,-0.73,2.46
7,7,-206,-25,-613,3999,0.25,0.21,-5.90,-0.25,-6.13,39.99,-6.28,1.07,3.52,3.95,-0.89,2.56
1,-25,-177,28,-701,3975,0.23,0.04,-6.39,0.28,-7.01,39.75,-6.30,1.06,3.54,4.06,-0.33,2.40
-6,1,-64,-12,-448,3941,0.17,0.04,-6.14,-0.12,-4.48,39.41,-6.30,1.04,3.57,4.19,-0.72,1.39
-4,15,-115,42,-402,3902,0.13,0.13,-6.23,0.42,-4.02,39.02,-6.30,1.02,3.59,4.17,-0.95,1.84
7,37,-79,-33,-492,3927,0.16,0.34,-6.09,-0.33,-4.92,39.27,-6.31,1.01,3.62,4.00,-1.35,1.51
4,26,-58,-48,-498,3899,0.17,0.46,-5.83,-0.48,-4.98,38.99,-6.33,1.01,3.64,4.06,-1.23,1.28
3,5,-17,-37,-434,3873,0.17,0.45,-5.35,-0.37,-4.34,38.73,-6.33,0.99,3.66,4.07,-0.89,0.84
1,2,-19,13,-418,3888,0.16,0.42,-4.93,0.13,-4.18,38.88,-6.33,0.97,3.68,4.11,-0.82,0.77
11,0,-87,102,-493,3910,0.21,0.37,-4.97,1.02,-4.93,39.10,-6.33,0.95,3.70,3.94,-0.76,1.35
5,-7,-120,143,-535,3879,0.22,0.29,-5.21,1.43,-5.35,38.79,-6.34,0.93,3.72,4.03,-0.61,1.68
-1,1,-185,-101,-403,3881,0.19,0.27,-5.81,-1.01,-4.03,38.81,-6.33,0.95,3.74,4.13,-0.74,2.34
0,-10,-176,-63,-404,3964,0.17,0.18,-6.31,-0.63,-4.04,39.64,-6.31,0.94,3.77,4.10,-0.53,2.36
10,7,-283,-74,-387,3913,0.21,0.21,-7.40,-0.74,-3.87,39.13,-6.29,0.94,3.80,3.92,-0.80,3.47
5,-23,-286,-107,-402,3986,0.22,0.05,-8.41,-1.07,-4.02,39.86,-6.28,0.95,3.83,3.99,-0.29,3.68
13,-12,-238,-141,-403,3857,0.28,-0.03,-9.02,-1.41,-4.03,38.57,-6.27,0.97,3.87,3.84,-0.44,3.39
7,-7,-209,-89,-411,3896,0.30,-0.07,-9.39,-0.89,-4.11,38.96,-6.26,0.98,3.90,3.92,-0.51,3.21
11,-20,-212,-3,-324,3944,0.33,-0.19,-9.74,-0.03,-3.24,39.44,-6.25,0.96,3.94,3.84,-0.26,3.30
14,9,-263,115,-247,3917,0.38,-0.11,-10.37,1.15,-2.47,39.17,-6.23,0.95,3.98,3.76,-0.72,3.85
-4,6,-374,-5,-418,3934,0.32,-0.06,-11.62,-0.05,-4.18,39.34,-6.23,0.92,4.03,4.06,-0.68,5.03
1,-5,-410,-46,-340,3883,0.30,-0.09,-12.96,-0.46,-3.40,38.83,-6.21,0.91,4.08,3.98,-0.49,5.58
11,2,-530,-223,-171,3823,0.33,-0.07,-14.89,-2.23,-1.71,38.23,-6.20,0.92,4.14,3.80,-0.61,6.96
12,-6,-566,-238,-160,3956,0.37,-0.10,-16.86,-2.38,-1.60,39.56,-6.18,0.92,4.21,3.76,-0.48,7.64
6,-23,-688,-238,-335,3904,0.37,-0.23,-19.37,-2.38,-3.35,39.04,-6.17,0.93,4.28,3.85,-0.18,9.14
-2,-27,-718,-94,-439,3939,0.32,-0.37,-21.81,-0.94,-4.39,39.39,-6.18,0.93,4.37,3.99,-0.07,9.86
-9,-19,-839,122,-420,3841,0.24,-0.45,-24.75,1.22,-4.20,38.41,-6.18,0.90,4.47,4.13,-0.14,11.44
-6,-16,-871,71,-532,3992,0.18,-0.50,-27.59,0.71,-5.32,39.92,-6.19,0.87,4.58,4.12,-0.15,12.24
15,-5,-935,27,-514,3822,0.25,-0.48,-30.53,0.27,-5.14,38.22,-6.21,0.84,4.70,3.78,-0.31,13.33
6,-10,-964,5,-559,3856,0.26,-0.49,-33.36,0.05,-5.59,38.56,-6.22,0.82,4.83,3.92,-0.21,14.11
19,-20,-955,-53,-504,3885,0.35,-0.57,-35.85,-0.53,-5.04,38.85,-6.24,0.80,4.98,3.71,-0.02,14.49
16,-21,-935,-117,-527,3854,0.41,-0.64,-37.97,-1.17,-5.27,38.54,-6.26,0.79,5.13,3.74,0.02,14.72
14,-4,-807,-111,-392,3811,0.46,-0.60,-39.09,-1.11,-3.92,38.11,-6.25,0.79,5.28,3.75,-0.25,13.83
3,-12,-776,-74,-390,3996,0.43,-0.61,-39.92,-0.74,-3.90,39.96,-6.23,0.78,5.44,3.92,-0.11,13.71
16,-17,-722,-85,-382,4039,0.48,-0.65,-40.33,-0.85,-3.82,40.39,-6.22,0.76,5.60,3.69,-0.01,13.32
13,-23,-717,-26,-286,3893,0.52,-0.73,-40.67,-0.26,-2.86,38.93,-6.20,0.74,5.76,3.71,0.12,13.33
9,-12,-699,-26,-257,3936,0.52,-0.73,-40.87,-0.26,-2.57,39.36,-6.18,0.72,5.92,3.76,-0.03,13.20
8,-18,-702,-52,-310,3854,0.52,-0.77,-41.06,-0.52,-3.10,38.54,-6.16,0.70,6.09,3.76,0.09,13.25
9,-10,-766,-80,-282,3785,0.52,-0.75,-41.63,-0.80,-2.82,37.85,-6.15,0.68,6.25,3.74,-0.03,13.88
14,-33,-806,-73,-391,3941,0.55,-0.88,-42.38,-0.73,-3.91,39.41,-6.13,0.67,6.42,3.64,0.37,14.35
16,-25,-875,-125,-418,3832,0.59,-0.94,-43.48,-1.25,-4.18,38.32,-6.13,0.67,6.59,3.59,0.28,15.13
15,-11,-886,-107,-531,3950,0.63,-0.91,-44.54,-1.07,-5.31,39.50,-6.15,0.65,6.77,3.61,0.06,15.41
9,-30,-856,-114,-521,3938,0.62,-1.01,-45.31,-1.14,-5.21,39.38,-6.16,0.64,6.95,3.71,0.39,15.29
14,-40,-844,-146,-408,3848,0.64,-1.15,-45.92,-1.46,-4.08,38.48,-6.16,0.63,7.13,3.62,0.60,15.29
15,-35,-776,-114,-657,4026,0.67,-1.25,-46.07,-1.14,-6.57,40.26,-6.18,0.62,7.31,3.61,0.57,14.72
14,-33,-759,-25,-601,3879,0.69,-1.32,-46.09,-0.25,-6.01,38.79,-6.20,0.59,7.50,3.63,0.59,14.56
-1,-16,-609,45,-771,3761,0.61,-1.29,-45.19,0.45,-7.71,37.61,-6.21,0.56,7.67,3.90,0.33,13.11
-6,-12,-562,164,-841,4029,0.52,-1.23,-44.10,1.64,-8.41,40.29,-6.23,0.53,7.85,4.02,0.27,12.48
8,-5,-363,234,-777,4025,0.51,-1.14,-41.91,2.34,-7.77,40.25,-6.24,0.49,8.02,3.82,0.16,10.36
-3,-9,-270,48,-630,3939,0.44,-1.08,-39.36,0.48,-6.30,39.39,-6.26,0.46,8.17,4.02,0.22,9.07
6,-4,-251,88,-352,3918,0.44,-1.00,-36.96,0.88,-3.52,39.18,-6.25,0.43,8.32,3.88,0.13,8.44
8,2,-269,32,-411,3858,0.44,-0.89,-34.90,0.32,-4.11,38.58,-6.24,0.39,8.46,3.84,0.03,8.19
16,3,-401,-608,-709,3957,0.49,-0.78,-33.86,-6.08,-7.09,39.57,-6.25,0.39,8.59,3.71,-0.03,9.09
3,-2,-373,-589,-758,3730,0.46,-0.71,-32.75,-5.89,-7.58,37.30,-6.26,0.39,8.72,3.92,0.03,8.63
7,2,-291,185,-339,3831,0.46,-0.63,-31.25,1.85,-3.39,38.31,-6.25,0.36,8.85,3.86,-0.04,7.64
4,-21,-255,293,-370,3864,0.44,-0.70,-29.68,2.93,-3.70,38.64,-6.25,0.32,8.96,3.91,0.35,7.03
-7,-20,-159,59,-308,3975,0.35,-0.75,-27.68,0.59,-3.08,39.75,-6.23,0.30,9.07,4.09,0.37,5.82
-7,-22,-184,36,-266,4028,0.27,-0.81,-26.04,0.36,-2.66,40.28,-6.21,0.28,9.18,4.11,0.44,5.71
-2,-8,-316,192,-176,3959,0.23,-0.78,-25.36,1.92,-1.76,39.59,-6.20,0.25,9.28,4.04,0.23,6.69
12,4,-389,24,-279,3972,0.28,-0.67,-25.20,0.24,-2.79,39.72,-6.18,0.23,9.38,3.80,0.02,7.27
20,4,-462,-67,-432,3899,0.38,-0.58,-25.50,-0.67,-4.32,38.99,-6.18,0.24,9.48,3.64,-0.01,7.93
17,-6,-468,-69,-508,3905,0.44,-0.56,-25.80,-0.69,-5.08,39.05,-6.20,0.23,9.58,3.67,0.14,8.03
22,15,-429,-275,-546,3878,0.53,-0.41,-25.84,-2.75,-5.46,38.78,-6.20,0.24,9.68,3.57,-0.24,7.70
5,-15,-402,-183,-559,3905,0.51,-0.46,-25.71,-1.83,-5.59,39.05,-6.21,0.24,9.78,3.84,0.24,7.44
3,3,-352,-74,-482,3983,0.48,-0.40,-25.28,-0.74,-4.82,39.83,-6.22,0.24,9.88,3.89,-0.06,6.92
-5,-8,-344,-88,-461,3949,0.40,-0.41,-24.85,-0.88,-4.61,39.49,-6.23,0.25,9.98,4.05,0.10,6.77
15,-5,-313,-46,-375,3902,0.45,-0.40,-24.28,-0.46,-3.75,39.02,-6.21,0.24,10.08,3.71,0.06,6.38
6,20,-314,-135,-497,3870,0.44,-0.24,-23.76,-1.35,-4.97,38.70,-6.22,0.25,10.17,3.86,-0.38,6.29
12,6,-362,17,-371,3897,0.47,-0.18,-23.60,0.17,-3.71,38.97,-6.20,0.23,10.27,3.74,-0.18,6.65
16,9,-392,6,-336,3911,0.52,-0.10,-23.63,0.06,-3.36,39.11,-6.18,0.21,10.36,3.65,-0.24,6.90
7,6,-481,-80,-409,3909,0.51,-0.06,-24.20,-0.80,-4.09,39.09,-6.18,0.22,10.46,3.79,-0.22,7.76
8,6,-513,-110,-394,3905,0.51,-0.01,-24.91,-1.10,-3.94,39.05,-6.17,0.23,10.56,3.77,-0.24,8.16
17,-10,-636,-23,-451,3953,0.56,-0.07,-26.30,-0.23,-4.51,39.53,-6.19,0.22,10.66,3.62,0.03,9.45
20,-3,-682,20,-443,3886,0.63,-0.08,-27.83,0.20,-4.43,38.86,-6.19,0.19,10.77,3.56,-0.05,10.13
9,0,-845,124,-223,3770,0.62,-0.08,-30.20,1.24,-2.23,37.70,-6.18,0.17,10.89,3.72,-0.08,11.95
15,-23,-856,217,-131,4219,0.65,-0.21,-32.40,2.17,-1.31,42.19,-6.16,0.14,11.02,3.61,0.33,12.45
8,-20,-867,227,-160,4081,0.63,-0.31,-34.45,2.27,-1.60,40.81,-6.14,0.11,11.16,3.71,0.34,12.92
14,-18,-886,242,-204,3862,0.66,-0.39,-36.41,2.42,-2.04,38.62,-6.13,0.08,11.30,3.60,0.36,13.45
16,-26,-995,45,-386,3834,0.69,-0.51,-38.84,0.45,-3.86,38.34,-6.12,0.05,11.46,3.55,0.55,14.82
21,-22,-1064,10,-419,3899,0.75,-0.59,-41.44,0.10,-4.19,38.99,-6.12,0.01,11.62,3.45,0.54,15.89
18,-32,-1166,-191,-487,3919,0.78,-0.73,-44.41,-1.91,-4.87,39.19,-6.12,0.00,11.80,3.49,0.74,17.30
25,-19,-1190,-347,-618,4004,0.86,-0.77,-47.23,-3.47,-6.18,40.04,-6.13,-0.00,11.99,3.36,0.57,18.03
25,-36,-1245,-439,-633,3883,0.92,-0.91,-50.10,-4.39,-6.33,38.83,-6.13,-0.01,12.18,3.34,0.88,19.03
34,-30,-1247,-475,-654,3942,1.04,-1.00,-52.70,-4.75,-6.54,39.42,-6.13,-0.02,12.39,3.16,0.83,19.52
10,-24,-1182,-386,-533,3804,1.00,-1.05,-54.64,-3.86,-5.33,38.04,-6.14,-0.03,12.61,3.54,0.76,19.32
17,-28,-1149,-351,-520,3933,1.00,-1.12,-56.18,-3.51,-5.20,39.33,-6.14,-0.04,12.83,3.43,0.85,19.32
17,-24,-1020,-276,-454,3935,1.00,-1.15,-56.79,-2.76,-4.54,39.35,-6.13,-0.05,13.06,3.43,0.81,18.32
22,-26,-971,-269,-433,3925,1.04,-1.19,-57.03,-2.69,-4.33,39.25,-6.13,-0.06,13.28,3.34,0.86,17.93
15,-26,-755,-205,-343,3860,1.03,-1.23,-55.93,-2.05,-3.43,38.60,-6.12,-0.07,13.51,3.45,0.88,15.87
12,-15,-657,-192,-380,3929,1.00,-1.20,-54.35,-1.92,-3.80,39.29,-6.11,-0.08,13.72,3.50,0.71,14.72
8,-7,-456,-37,-387,3908,0.94,-1.12,-51.70,-0.37,-3.87,39.08,-6.10,-0.10,13.93,3.57,0.57,12.49
2,-11,-418,-9,-418,3879,0.86,-1.08,-49.08,-0.09,-4.18,38.79,-6.10,-0.10,14.12,3.69,0.62,11.65
4,-12,-333,32,-533,3916,0.80,-1.04,-46.20,0.32,-5.33,39.16,-6.11,-0.13,14.31,3.69,0.64,10.36
5,-4,-311,48,-509,3854,0.75,-0.96,-43.48,0.48,-5.09,38.54,-6.13,-0.16,14.48,3.70,0.51,9.64
0,-6,-234,28,-517,3934,0.68,-0.90,-40.56,0.28,-5.17,39.34,-6.14,-0.18,14.64,3.81,0.54,8.42
1,-3,-215,10,-500,3902,0.61,-0.83,-37.81,0.10,-5.00,39.02,-6.16,-0.20,14.79,3.83,0.48,7.72
7,-1,-169,16,-483,3952,0.60,-0.76,-35.06,0.16,-4.83,39.52,-6.17,-0.22,14.93,3.75,0.43,6.79
12,-3,-157,7,-466,3843,0.61,-0.70,-32.51,0.07,-4.66,38.43,-6.19,-0.24,15.06,3.68,0.45,6.19
0,-5,-85,14,-534,3905,0.55,-0.66,-29.78,0.14,-5.34,39.05,-6.20,-0.25,15.17,3.90,0.48,5.05
2,-3,-48,58,-524,3887,0.51,-0.61,-27.10,0.58,-5.24,38.87,-6.22,-0.27,15.28,3.89,0.44,4.21
-1,-1,-10,-34,-442,3895,0.45,-0.56,-24.45,-0.34,-4.42,38.95,-6.22,-0.27,15.38,3.96,0.39,3.37
0,-1,-8,-51,-446,3920,0.40,-0.51,-22.05,-0.51,-4.46,39.20,-6.22,-0.26,15.47,3.96,0.37,2.89
-1,0,-4,-69,-437,3902,0.36,-0.46,-19.87,-0.69,-4.37,39.02,-6.22,-0.25,15.55,3.99,0.33,2.43
1,1,-3,-66,-424,3908,0.33,-0.40,-17.90,-0.66,-4.24,39.08,-6.22,-0.24,15.62,3.97,0.29,2.04
1,1,-3,-67,-423,3907,0.30,-0.36,-16.13,-0.67,-4.23,39.07,-6.22,-0.23,15.68,3.98,0.27,1.70
1,0,-1,-65,-426,3901,0.28,-0.32,-14.52,-0.65,-4.26,39.01,-6.22,-0.22,15.74,3.99,0.26,1.37
1,0,-2,-61,-443,3896,0.26,-0.29,-13.08,-0.61,-4.43,38.96,-6.22,-0.21,15.79,4.00,0.24,1.10
-1,0,0,-61,-422,3900,0.22,-0.26,-11.77,-0.61,-4.22,39.00,-6.22,-0.20,15.84,4.04,0.23,0.82
0,0,-2,-58,-419,3902,0.20,-0.23,-10.61,-0.58,-4.19,39.02,-6.22,-0.19,15.88,4.03,0.21,0.62
1,0,-1,-55,-426,3900,0.19,-0.21,-9.55,-0.55,-4.26,39.00,-6.22,-0.17,15.92,4.02,0.19,0.40
-1,0,0,-62,-420,3897,0.16,-0.19,-8.60,-0.62,-4.20,38.97,-6.21,-0.16,15.95,4.06,0.17,0.21
0,0,-1,-68,-421,3900,0.15,-0.17,-7.75,-0.68,-4.21,39.00,-6.21,-0.15,15.98,4.05,0.16,0.05
0,1,0,-68,-424,3900,0.13,-0.15,-6.97,-0.68,-4.24,39.00,-6.21,-0.13,16.01,4.05,0.12,-0.11
1,1,-1,-68,-429,3905,0.12,-0.13,-6.28,-0.68,-4.29,39.05,-6.21,-0.12,16.03,4.04,0.11,-0.23
1,1,-1,-61,-427,3894,0.12,-0.11,-5.66,-0.61,-4.27,38.94,-6.21,-0.10,16.06,4.04,0.09,-0.36
0,0,-2,-62,-429,3885,0.11,-0.10,-5.10,-0.62,-4.29,38.85,-6.21,-0.09,16.08,4.06,0.09,-0.45
0,0,-1,-61,-429,3903,0.10,-0.09,-4.60,-0.61,-4.29,39.03,-6.21,-0.07,16.09,4.07,0.08,-0.56
0,0,-2,-63,-423,3893,0.09,-0.08,-4.15,-0.63,-4.23,38.93,-6.21,-0.05,16.11,4.07,0.06,-0.64
0,-1,-1,-61,-416,3905,0.08,-0.08,-3.74,-0.61,-4.16,39.05,-6.21,-0.04,16.13,4.07,0.07,-0.73
0,0,-1,-67,-424,3904,0.07,-0.07,-3.37,-0.67,-4.24,39.04,-6.21,-0.02,16.14,4.07,0.04,-0.80
0,0,-2,-65,-421,3898,0.06,-0.06,-3.05,-0.65,-4.21,38.98,-6.21,-0.00,16.15,4.08,0.02,-0.85
0,0,-2,-66,-418,3913,0.06,-0.06,-2.76,-0.66,-4.18,39.13,-6.21,0.01,16.16,4.08,0.01,-0.91
1,0,-3,-57,-421,3908,0.06,-0.05,-2.50,-0.57,-4.21,39.08,-6.21,0.03,16.17,4.06,-0.00,-0.95
1,0,-2,-59,-417,3914,0.06,-0.05,-2.26,-0.59,-4.17,39.14,-6.20,0.05,16.18,4.06,-0.01,-1.01
0,-1,-1,-56,-422,3905,0.05,-0.05,-2.04,-0.56,-4.22,39.05,-6.20,0.06,16.19,4.07,-0.01,-1.06
-1,-1,0,-59,-421,3902,0.04,-0.05,-1.84,-0.59,-4.21,39.02,-6.20,0.08,16.20,4.09,-0.02,-1.11
0,0,-1,-49,-430,3889,0.04,-0.04,-1.66,-0.49,-4.30,38.89,-6.20,0.10,16.20,4.08,-0.05,-1.13
0,-1,-1,-55,-431,3880,0.03,-0.05,-1.50,-0.55,-4.31,38.80,-6.21,0.12,16.21,4.08,-0.04,-1.16
0,-1,-1,-58,-423,3895,0.03,-0.05,-1.36,-0.58,-4.23,38.95,-6.21,0.13,16.21,4.09,-0.06,-1.19
0,0,-1,-65,-420,3894,0.03,-0.04,-1.23,-0.65,-4.20,38.94,-6.20,0.15,16.22,4.09,-0.08,-1.22
0,0,-1,-62,-415,3902,0.02,-0.04,-1.11,-0.62,-4.15,39.02,-6.20,0.17,16.22,4.08,-0.10,-1.24
1,0,-1,-62,-424,3909,0.03,-0.03,-1.01,-0.62,-4.24,39.09,-6.20,0.19,16.23,4.07,-0.11,-1.26
10,6,-36,-71,-437,3874,0.09,0.01,-1.12,-0.71,-4.37,38.74,-6.21,0.20,16.23,3.91,-0.23,-0.94
-3,-7,-62,-45,-481,3874,0.06,-0.04,-1.39,-0.45,-4.81,38.74,-6.22,0.21,16.24,4.13,-0.02,-0.67
0,1,-158,-156,-458,3836,0.05,-0.03,-2.21,-1.56,-4.58,38.36,-6.23,0.23,16.25,4.09,-0.16,0.30
-1,-12,-175,-149,-466,3936,0.04,-0.10,-3.06,-1.49,-4.66,39.36,-6.23,0.24,16.26,4.11,0.06,0.60
1,-1,-163,-98,-469,3871,0.04,-0.09,-3.75,-0.98,-4.69,38.71,-6.24,0.26,16.27,4.09,-0.12,0.63
6,-8,-156,-76,-461,3980,0.08,-0.13,-4.33,-0.76,-4.61,39.80,-6.25,0.27,16.29,4.00,-0.01,0.68
1,0,-142,-88,-471,3888,0.07,-0.12,-4.76,-0.88,-4.71,38.88,-6.26,0.28,16.31,4.09,-0.14,0.64
10,-5,-143,-54,-382,3912,0.13,-0.14,-5.16,-0.54,-3.82,39.12,-6.24,0.29,16.33,3.92,-0.07,0.73
7,2,-100,96,-309,3872,0.16,-0.11,-5.25,0.96,-3.09,38.72,-6.23,0.28,16.35,3.95,-0.17,0.38
-1,-4,-80,79,-335,3897,0.14,-0.13,-5.21,0.79,-3.35,38.97,-6.22,0.26,16.37,4.07,-0.07,0.20
2,-1,-31,-31,-432,3899,0.13,-0.12,-4.88,-0.31,-4.32,38.99,-6.22,0.27,16.39,4.03,-0.12,-0.28
1,0,-21,-45,-428,3895,0.13,-0.11,-4.52,-0.45,-4.28,38.95,-6.23,0.29,16.41,4.05,-0.15,-0.43
1,0,-6,-50,-428,3900,0.12,-0.10,-4.11,-0.50,-4.28,39.00,-6.23,0.31,16.43,4.05,-0.17,-0.64
1,0,-3,-54,-426,3907,0.11,-0.09,-3.71,-0.54,-4.26,39.07,-6.23,0.32,16.44,4.05,-0.18,-0.74
0,-1,-1,-57,-423,3899,0.10,-0.08,-3.35,-0.57,-4.23,38.99,-6.22,0.34,16.45,4.07,-0.18,-0.83
-1,0,-1,-57,-421,3905,0.09,-0.08,-3.02,-0.57,-4.21,39.05,-6.22,0.36,16.47,4.09,-0.21,-0.90
0,0,-2,-59,-415,3909,0.08,-0.07,-2.73,-0.59,-4.15,39.09,-6.22,0.37,16.48,4.07,-0.22,-0.94
0,0,-1,-56,-415,3910,0.07,-0.06,-2.46,-0.56,-4.15,39.10,-6.21,0.39,16.49,4.07,-0.23,-1.00
0,-2,0,-59,-428,3902,0.06,-0.07,-2.22,-0.59,-4.28,39.02,-6.21,0.40,16.49,4.08,-0.21,-1.06
1,-2,-1,-53,-419,3897,0.06,-0.07,-2.00,-0.53,-4.19,38.97,-6.21,0.42,16.50,4.06,-0.22,-1.09
1,-2,-1,-61,-423,3894,0.06,-0.08,-1.81,-0.61,-4.23,38.94,-6.21,0.44,16.51,4.06,-0.23,-1.13
1,1,-2,-69,-432,3902,0.06,-0.06,-1.64,-0.69,-4.32,39.02,-6.21,0.46,16.52,4.06,-0.29,-1.16
1,0,-2,-64,-423,3897,0.06,-0.06,-1.49,-0.64,-4.23,38.97,-6.21,0.47,16.52,4.06,-0.29,-1.19
0,0,-1,-54,-420,3898,0.06,-0.05,-1.34,-0.54,-4.20,38.98,-6.21,0.49,16.53,4.08,-0.30,-1.22
0,-1,-1,-71,-430,3889,0.05,-0.05,-1.22,-0.71,-4.30,38.89,-6.21,0.51,16.53,4.08,-0.30,-1.25
-1,-1,-1,-71,-427,3903,0.04,-0.05,-1.10,-0.71,-4.27,39.03,-6.21,0.52,16.54,4.10,-0.31,-1.27
-1,1,-1,-64,-426,3901,0.03,-0.04,-1.00,-0.64,-4.26,39.01,-6.21,0.54,16.54,4.10,-0.36,-1.29
-1,1,-1,-67,-425,3909,0.02,-0.03,-0.90,-0.67,-4.25,39.09,-6.21,0.56,16.54,4.11,-0.37,-1.31
0,2,-2,-53,-417,3898,0.02,-0.02,-0.82,-0.53,-4.17,38.98,-6.20,0.58,16.55,4.09,-0.41,-1.31
0,-1,-3,-39,-421,3869,0.02,-0.02,-0.76,-0.39,-4.21,38.69,-6.22,0.57,16.55,4.10,-0.35,-1.32
6,-4,-136,175,-542,4096,0.05,-0.04,-1.51,1.75,-5.42,40.96,-6.23,0.55,16.56,4.00,-0.29,-0.05
